xPos,corrAns,yPos,corrGoResp,yPosGoStim,xPosGoStim,pracTrials.thisRepN,pracTrials.thisTrialN,pracTrials.thisN,pracTrials.thisIndex,ReDoLoopPrac.thisRepN,ReDoLoopPrac.thisTrialN,ReDoLoopPrac.thisN,ReDoLoopPrac.thisIndex,ReDoLoopPrac.thisTrial,pracStopTrials.thisRepN,pracStopTrials.thisTrialN,pracStopTrials.thisN,pracStopTrials.thisIndex,Blocks.thisRepN,Blocks.thisTrialN,Blocks.thisN,Blocks.thisIndex,trials.thisRepN,trials.thisTrialN,trials.thisN,trials.thisIndex,ReDoLoopMain.thisRepN,ReDoLoopMain.thisTrialN,ReDoLoopMain.thisN,ReDoLoopMain.thisIndex,ReDoLoopMain.thisTrial,StopBlocks.thisRepN,StopBlocks.thisTrialN,StopBlocks.thisN,StopBlocks.thisIndex,StopTrials.thisRepN,StopTrials.thisTrialN,StopTrials.thisN,StopTrials.thisIndex,auctionBlocks.thisRepN,auctionBlocks.thisTrialN,auctionBlocks.thisN,auctionBlocks.thisIndex,auctionTrials.thisRepN,auctionTrials.thisTrialN,auctionTrials.thisN,auctionTrials.thisIndex,learningTrialList,learningPracTrialList,stopTrialList,stopPracTrialList,auctionTrialList,ok1.keys,ok1.rt,resp.keys,resp.corr,resp.rt,feedbackResp.keys,feedbackResp.corr,feedbackResp.rt,currentReward,currentStimulus,currentStimType,firstPracComputedRewardOutput,firstPracLearningStimOnset,firstPracLearningFixOnset,firstPracPresentationRT,firstPracPresentationAcc,firstPracPresentationResp,firstPracEndTrialTimeStamp,secondPracComputedRewardOutput,secondPracLearningStimOnset,secondPracLearningFixOnset,secondPracPresentationRT,secondPracPresentationAcc,secondPracPresentationResp,secondPracEndTrialTimeStamp,StartTrialTimeStamp,trialType,goStim,stimType,stopStimValue,goResp.keys,goResp.corr,goResp.rt,key_resp_9.keys,key_resp_9.corr,fixStopOnset,goStimOnset,stopSignalOnset,EndTrialTimeStamp,key_resp_3.keys,key_resp_3.rt,firstComputedRewardOutput,firstLearningStimOnset,firstLearningFixOnset,firstPresentationRT,firstPresentationAcc,firstPresentationResp,firstEndTrialTimeStamp,secondComputedRewardOutput,secondLearningStimOnset,secondLearningFixOnset,secondPresentationRT,secondPresentationAcc,secondPresentationResp,secondEndTrialTimeStamp,thirdComputedRewardOutput,thirdLearningStimOnset,thirdLearningFixOnset,thirdPresentationRT,thirdPresentationAcc,thirdPresentationResp,thirdEndTrialTimeStamp,fourthComputedRewardOutput,fourthLearningStimOnset,fourthLearningFixOnset,fourthPresentationRT,fourthPresentationAcc,fourthPresentationResp,fourthEndTrialTimeStamp,fifthComputedRewardOutput,fifthLearningStimOnset,fifthLearningFixOnset,fifthPresentationRT,fifthPresentationAcc,fifthPresentationResp,fifthEndTrialTimeStamp,key_resp_7.keys,key_resp_7.rt,beginningSSD,EndingSSD,key_resp_9.rt,key_resp_4.keys,key_resp_4.rt,auctionResponse.keys,auctionStimDuration,auctionStim,auctionAmounts,auctionStimValue,auctionCondition,chosenAuctionAmount,auctionResponse.rt,key_resp_5.keys,key_resp_5.rt,shuffledRewardList,chosenReward1,chosenReward2,chosenReward3,chosenReward4,chosenReward5,key_resp_6.keys,key_resp_6.rt,date,frameRate,expName,session,participant,
,,,,,,,,,,,,,,,,,,,,,,,,,,,,,,,,,,,,,,,,,,,,,,,,[],[],[],[],[],9,45.1456410885,,,,,,,,,,,,,,,,,,,,,,,,,,,,,,,,,,,,,,,,,,,,,,,,,,,,,,,,,,,,,,,,,,,,,,,,,,,,,,,,,,,,,,,,,,,,,,,,,,,,2015_Jul_02_1246,59.9905315085,LearningTask,1,14,
200,s,-200,,,,0,0,0,6,,,,,,,,,,,,,,,,,,,,,,,,,,,,,,,,,,,,,,,,,,,,,,s,1,0.434093952179,None,0,0.0266320705414,0.5,hexagongray.gif,go,0,0.510489940643,0.0451319217682,0.517576932907,0,w,104.914314985,0.26,0.515599012375,0.0010199546814,0.434093952179,1,s,107.917598963,,,,,,,,,,,,,,,,,,,,,,,,,,,,,,,,,,,,,,,,,,,,,,,,,,,,,,,,,,,,,,,,,,,,,,,,,,,,,2015_Jul_02_1246,59.9905315085,LearningTask,1,14,
200,s,-200,,,,0,1,1,2,,,,,,,,,,,,,,,,,,,,,,,,,,,,,,,,,,,,,,,,,,,,,,s,1,0.417181015015,None,0,,4.0,invertedtriangleyellow.gif,stop,3.98,0.5151720047,0.0555160045624,0.417181015015,1,s,110.920659065,,,,,,,,,,,,,,,,,,,,,,,,,,,,,,,,,,,,,,,,,,,,,,,,,,,,,,,,,,,,,,,,,,,,,,,,,,,,,,,,,,,,2015_Jul_02_1246,59.9905315085,LearningTask,1,14,
-200,a,-200,,,,0,2,2,3,,,,,,,,,,,,,,,,,,,,,,,,,,,,,,,,,,,,,,,,,,,,,,a,1,0.417480945587,None,0,,1.0,circlemagenta.gif,stop,0,0.515108108521,0.0130279064178,0.417661905289,0,q,113.923949003,0.8,0.516278028488,0.000962972640991,0.417480945587,1,a,116.927504063,,,,,,,,,,,,,,,,,,,,,,,,,,,,,,,,,,,,,,,,,,,,,,,,,,,,,,,,,,,,,,,,,,,,,,,,,,,,,2015_Jul_02_1246,59.9905315085,LearningTask,1,14,
-200,a,-200,,,,0,3,3,7,,,,,,,,,,,,,,,,,,,,,,,,,,,,,,,,,,,,,,,,,,,,,,a,1,0.417410850525,None,0,,4.0,invertedtriangleyellow.gif,stop,3.91,0.51469707489,0.000922918319702,0.417410850525,1,a,119.93082118,,,,,,,,,,,,,,,,,,,,,,,,,,,,,,,,,,,,,,,,,,,,,,,,,,,,,,,,,,,,,,,,,,,,,,,,,,,,,,,,,,,,2015_Jul_02_1246,59.9905315085,LearningTask,1,14,
200,w,200,,,,0,4,4,8,,,,,,,,,,,,,,,,,,,,,,,,,,,,,,,,,,,,,,,,,,,,,,w,1,0.40098285675,None,0,,1.0,squarewhite.gif,go,1.04,0.514811038971,0.0385398864746,0.40098285675,1,w,122.934026003,,,,,,,,,,,,,,,,,,,,,,,,,,,,,,,,,,,,,,,,,,,,,,,,,,,,,,,,,,,,,,,,,,,,,,,,,,,,,,,,,,,,2015_Jul_02_1246,59.9905315085,LearningTask,1,14,
-200,q,200,,,,0,5,5,5,,,,,,,,,,,,,,,,,,,,,,,,,,,,,,,,,,,,,,,,,,,,,,q,1,0.451030015945,None,0,,4.0,invertedtriangleyellow.gif,stop,4.15,0.515050888062,0.00110697746277,0.451030015945,1,q,125.937709093,,,,,,,,,,,,,,,,,,,,,,,,,,,,,,,,,,,,,,,,,,,,,,,,,,,,,,,,,,,,,,,,,,,,,,,,,,,,,,,,,,,,2015_Jul_02_1246,59.9905315085,LearningTask,1,14,
200,w,200,,,,0,6,6,4,,,,,,,,,,,,,,,,,,,,,,,,,,,,,,,,,,,,,,,,,,,,,,w,1,0.384443998337,None,0,,2.0,triangleorange.gif,go,2.01,0.514460086823,0.0174992084503,0.384443998337,1,w,128.940719128,,,,,,,,,,,,,,,,,,,,,,,,,,,,,,,,,,,,,,,,,,,,,,,,,,,,,,,,,,,,,,,,,,,,,,,,,,,,,,,,,,,,2015_Jul_02_1246,59.9905315085,LearningTask,1,14,
-200,q,200,,,,0,7,7,9,,,,,,,,,,,,,,,,,,,,,,,,,,,,,,,,,,,,,,,,,,,,,,q,1,0.467677116394,None,0,,4.0,invertedtriangleyellow.gif,stop,4.25,0.515367984772,0.000905990600586,0.467677116394,1,q,131.944100142,,,,,,,,,,,,,,,,,,,,,,,,,,,,,,,,,,,,,,,,,,,,,,,,,,,,,,,,,,,,,,,,,,,,,,,,,,,,,,,,,,,,2015_Jul_02_1246,59.9905315085,LearningTask,1,14,
200,w,200,,,,0,8,8,0,,,,,,,,,,,,,,,,,,,,,,,,,,,,,,,,,,,,,,,,,,,,,,w,1,0.500629901886,None,0,,4.0,invertedtriangleyellow.gif,stop,4.19,0.515460014343,0.000937938690186,0.500629901886,1,w,134.947496176,,,,,,,,,,,,,,,,,,,,,,,,,,,,,,,,,,,,,,,,,,,,,,,,,,,,,,,,,,,,,,,,,,,,,,,,,,,,,,,,,,,,2015_Jul_02_1246,59.9905315085,LearningTask,1,14,
-200,q,200,,,,0,9,9,1,,,,,,,,,,,,,,,,,,,,,,,,,,,,,,,,,,,,,,,,,,,,,,q,1,0.484432935715,None,0,,2.0,crossblue.gif,stop,2.07,0.515174150467,0.0343420505524,0.484432935715,1,q,137.950867176,,,,,,,,,,,,,,,,,,,,,,,,,,,,,,,,,,,,,,,,,,,,,,,,,,,,,,,,,,,,,,,,,,,,,,,,,,,,,,,,,,,,2015_Jul_02_1246,59.9905315085,LearningTask,1,14,
,,,m,0,200,,,,,,,,,,0,0,0,1,,,,,,,,,,,,,,,,,,,,,,,,,,,,,,,,,,,,,,,,,,,,,,,,,,,,,,,,,,,,201.799226046,stop,invertedtriangleyellow.gif,stop,4.0,m,1,0.468008041382,None,0,0.00141096115112,0.50553894043,0.755732059479,204.792695045,,,,,,,,,,,,,,,,,,,,,,,,,,,,,,,,,,,,,,,,,,,,,,,,,,,,,,,,,,,,,,,2015_Jul_02_1246,59.9905315085,LearningTask,1,14,
,,,m,0,200,,,,,,,,,,0,1,1,1,,,,,,,,,,,,,,,,,,,,,,,,,,,,,,,,,,,,,,,,,,,,,,,,,,,,,,,,,,,,204.793091059,go,hexagongray.gif,go,0.5,m,1,0.634355068207,None,0,0.00095796585083,0.515695810318,,207.795888186,,,,,,,,,,,,,,,,,,,,,,,,,,,,,,,,,,,,,,,,,,,,,,,,,,,,,,,,,,,,,,,2015_Jul_02_1246,59.9905315085,LearningTask,1,14,
,,,z,0,-200,,,,,,,,,,1,0,2,0,,,,,,,,,,,,,,,,,,,,,,,,,,,,,,,,,,,,,,,,,,,,,,,,,,,,,,,,,,,,207.796257019,go,triangleorange.gif,go,2.0,z,1,0.501223087311,None,0,0.000957012176514,0.515759944916,,210.799259186,,,,,,,,,,,,,,,,,,,,,,,,,,,,,,,,,,,,,,,,,,,,,,,,,,,,,,,,,,,,,,,2015_Jul_02_1246,59.9905315085,LearningTask,1,14,
,,,m,0,200,,,,,,,,,,1,1,3,1,,,,,,,,,,,,,,,,,,,,,,,,,,,,,,,,,,,,,,,,,,,,,,,,,,,,,,,,,,,,210.799621105,stop,invertedtriangleyellow.gif,stop,4.0,None,0,,None,0,0.00109314918518,0.515677213669,0.766030073166,213.802639961,,,,,,,,,,,,,,,,,,,,,,,,,,,,,,,,,,,,,,,,,,,,,,,,,,,,,,,,,,,,,,,2015_Jul_02_1246,59.9905315085,LearningTask,1,14,
,,,m,0,200,,,,,,,,,,2,0,4,1,,,,,,,,,,,,,,,,,,,,,,,,,,,,,,,,,,,,,,,,,,,,,,,,,,,,,,,,,,,,213.80300498,go,hexagongray.gif,go,0.5,m,1,0.450968980789,None,0,0.00100111961365,0.515811920166,,216.806244135,,,,,,,,,,,,,,,,,,,,,,,,,,,,,,,,,,,,,,,,,,,,,,,,,,,,,,,,,,,,,,,2015_Jul_02_1246,59.9905315085,LearningTask,1,14,
,,,z,0,-200,,,,,,,,,,2,1,5,0,,,,,,,,,,,,,,,,,,,,,,,,,,,,,,,,,,,,,,,,,,,,,,,,,,,,,,,,,,,,216.806627035,go,squarewhite.gif,go,1.0,z,1,0.634585857391,None,0,0.000913143157959,0.515476942062,,219.8095541,,,,,,,,,,,,,,,,,,,,,,,,,,,,,,,,,,,,,,,,,,,,,,,,,,,,,,,,,,,,,,,2015_Jul_02_1246,59.9905315085,LearningTask,1,14,
,,,m,0,200,,,,,,,,,,3,0,6,1,,,,,,,,,,,,,,,,,,,,,,,,,,,,,,,,,,,,,,,,,,,,,,,,,,,,,,,,,,,,219.809983015,go,linecyan.gif,go,4.0,m,1,0.750730991364,None,0,0.0421788692474,0.515674829483,,222.812637091,,,,,,,,,,,,,,,,,,,,,,,,,,,,,,,,,,,,,,,,,,,,,,,,,,,,,,,,,,,,,,,2015_Jul_02_1246,59.9905315085,LearningTask,1,14,
,,,z,0,-200,,,,,,,,,,3,1,7,0,,,,,,,,,,,,,,,,,,,,,,,,,,,,,,,,,,,,,,,,,,,,,,,,,,,,,,,,,,,,222.813003063,stop,invertedtriangleyellow.gif,stop,4.0,None,0,,None,0,0.000961780548096,0.516247987747,0.766530990601,225.816125154,,,,,,,,,,,,,,,,,,,,,,,,,,,,,,,,,,,,,,,,,,,,,,,,,,,,,,,,,,,,,,,2015_Jul_02_1246,59.9905315085,LearningTask,1,14,
,,,z,0,-200,,,,,,,,,,4,0,8,0,,,,,,,,,,,,,,,,,,,,,,,,,,,,,,,,,,,,,,,,,,,,,,,,,,,,,,,,,,,,225.816488981,go,linecyan.gif,go,4.0,z,1,0.583880901337,None,0,0.00094199180603,0.515798091888,,228.819425106,,,,,,,,,,,,,,,,,,,,,,,,,,,,,,,,,,,,,,,,,,,,,,,,,,,,,,,,,,,,,,,2015_Jul_02_1246,59.9905315085,LearningTask,1,14,
,,,z,0,-200,,,,,,,,,,4,1,9,0,,,,,,,,,,,,,,,,,,,,,,,,,,,,,,,,,,,,,,,,,,,,,,,,,,,,,,,,,,,,228.819864035,stop,diamondgreen.gif,stop,0.5,None,0,,None,0,0.0189731121063,0.51557302475,0.765691041946,231.822750092,,,,,,,,,,,,,,,,,,,,,,,,,,,,,,,,,,,,,,,,,,,,,,,,,,,,,,,,,,,,,,,2015_Jul_02_1246,59.9905315085,LearningTask,1,14,
,,,,,,,,,,,,,,,,,,,,,,,,,,,,,,,,,,,,,,,,,,,,,,,,,,,,,,,,,,,,,,,,,,,,,,,,,,,,,,,,,,,,,,,,,,,,9,66.6091299057,,,,,,,,,,,,,,,,,,,,,,,,,,,,,,,,,,,,,,,,,,,,,,,,,,,,,,,,,,,,,2015_Jul_02_1246,59.9905315085,LearningTask,1,14,
,,,,,,,,,,,,,,,,,,,,,,,,,,,,,,,,,,,,,,,,,,,,,,,,,,,,,9,23.6602418423,,,,,,,,,,,,,,,,,,,,,,,,,,,,,,,,,,,,,,,,,,,,,,,,,,,,,,,,,,,,,,,,,,,,,,,,,,,,,,,,,,,,,,,,,,,,,,,,,,,,2015_Jul_02_1246,59.9905315085,LearningTask,1,14,
200,w,200,,,,,,,,,,,,,,,,,0,0,0,0,0,0,0,0,,,,,,,,,,,,,,,,,,,,,,,,,,,,,w,1,0.500982999802,None,0,,0.5,hexagongray.gif,go,,,,,,,,,,,,,,,,,,,,,,,,,,,,,,,0.6,0.503578901291,0.000954866409302,0.500982999802,1,w,325.295802116,,,,,,,,,,,,,,,,,,,,,,,,,,,,,,,,,,,,,,,,,,,,,,,,,,,,,,2015_Jul_02_1246,59.9905315085,LearningTask,1,14,
200,w,200,,,,,,,,,,,,,,,,,0,0,0,0,0,1,1,0,,,,,,,,,,,,,,,,,,,,,,,,,,,,,w,1,0.434566020966,None,0,,4.0,linecyan.gif,go,,,,,,,,,,,,,,,,,,,,,,,,,,,,,,,4.17,0.513631105423,0.000917911529541,0.434566020966,1,w,328.298632145,,,,,,,,,,,,,,,,,,,,,,,,,,,,,,,,,,,,,,,,,,,,,,,,,,,,,,2015_Jul_02_1246,59.9905315085,LearningTask,1,14,
-200,a,-200,,,,,,,,,,,,,,,,,0,0,0,0,0,2,2,3,,,,,,,,,,,,,,,,,,,,,,,,,,,,,a,1,0.48504114151,None,0,,2.0,crossblue.gif,stop,,,,,,,,,,,,,,,,,,,,,,,,,,,,,,,2.07,0.514232873917,0.000906944274902,0.48504114151,1,a,331.302549124,,,,,,,,,,,,,,,,,,,,,,,,,,,,,,,,,,,,,,,,,,,,,,,,,,,,,,2015_Jul_02_1246,59.9905315085,LearningTask,1,14,
-200,q,200,,,,,,,,,,,,,,,,,0,0,0,0,0,3,3,1,,,,,,,,,,,,,,,,,,,,,,,,,,,,,q,1,0.418076992035,None,0,,1.0,squarewhite.gif,go,,,,,,,,,,,,,,,,,,,,,,,,,,,,,,,1.12,0.51370215416,0.000899076461792,0.418076992035,1,q,334.30538702,,,,,,,,,,,,,,,,,,,,,,,,,,,,,,,,,,,,,,,,,,,,,,,,,,,,,,2015_Jul_02_1246,59.9905315085,LearningTask,1,14,
200,w,200,,,,,,,,,,,,,,,,,0,0,0,0,1,0,4,0,,,,,,,,,,,,,,,,,,,,,,,,,,,,,w,1,0.384517908096,None,0,,4.0,invertedtriangleyellow.gif,stop,,,,,,,,,,,,,,,,,,,,,,,,,,,,,,,3.9,0.51433801651,0.000937938690186,0.384517908096,1,w,337.308830023,,,,,,,,,,,,,,,,,,,,,,,,,,,,,,,,,,,,,,,,,,,,,,,,,,,,,,2015_Jul_02_1246,59.9905315085,LearningTask,1,14,
-200,q,200,,,,,,,,,,,,,,,,,0,0,0,0,1,1,5,1,,,,,,,,,,,,,,,,,,,,,,,,,,,,,q,1,0.384198904037,None,0,,4.0,linecyan.gif,go,,,,,,,,,,,,,,,,,,,,,,,,,,,,,,,4.04,0.514148950577,0.000890016555786,0.384198904037,1,q,340.312281132,,,,,,,,,,,,,,,,,,,,,,,,,,,,,,,,,,,,,,,,,,,,,,,,,,,,,,2015_Jul_02_1246,59.9905315085,LearningTask,1,14,
200,w,200,,,,,,,,,,,,,,,,,0,0,0,0,1,2,6,0,,,,,,,,,,,,,,,,,,,,,,,,,,,,,w,1,0.400851011276,None,0,,4.0,linecyan.gif,go,,,,,,,,,,,,,,,,,,,,,,,,,,,,,,,3.97,0.514139890671,0.000905990600586,0.400851011276,1,w,343.315420151,,,,,,,,,,,,,,,,,,,,,,,,,,,,,,,,,,,,,,,,,,,,,,,,,,,,,,2015_Jul_02_1246,59.9905315085,LearningTask,1,14,
-200,q,200,,,,,,,,,,,,,,,,,0,0,0,0,1,3,7,1,,,,,,,,,,,,,,,,,,,,,,,,,,,,,q,1,0.417871952057,None,0,,2.0,crossblue.gif,stop,,,,,,,,,,,,,,,,,,,,,,,,,,,,,,,1.91,0.514231920242,0.00108504295349,0.417871952057,1,q,346.318964005,,,,,,,,,,,,,,,,,,,,,,,,,,,,,,,,,,,,,,,,,,,,,,,,,,,,,,2015_Jul_02_1246,59.9905315085,LearningTask,1,14,
-200,a,-200,,,,,,,,,,,,,,,,,0,0,0,0,2,0,8,3,,,,,,,,,,,,,,,,,,,,,,,,,,,,,a,1,0.384246110916,None,0,,1.0,squarewhite.gif,go,,,,,,,,,,,,,,,,,,,,,,,,,,,,,,,1.23,0.51446390152,0.000930070877075,0.384246110916,1,a,349.322676182,,,,,,,,,,,,,,,,,,,,,,,,,,,,,,,,,,,,,,,,,,,,,,,,,,,,,,2015_Jul_02_1246,59.9905315085,LearningTask,1,14,
200,s,-200,,,,,,,,,,,,,,,,,0,0,0,0,2,1,9,2,,,,,,,,,,,,,,,,,,,,,,,,,,,,,s,1,0.38432097435,None,0,,2.0,crossblue.gif,stop,,,,,,,,,,,,,,,,,,,,,,,,,,,,,,,1.94,0.513818979263,0.000925064086914,0.38432097435,1,s,352.325615168,,,,,,,,,,,,,,,,,,,,,,,,,,,,,,,,,,,,,,,,,,,,,,,,,,,,,,2015_Jul_02_1246,59.9905315085,LearningTask,1,14,
-200,a,-200,,,,,,,,,,,,,,,,,0,0,0,0,2,2,10,3,,,,,,,,,,,,,,,,,,,,,,,,,,,,,a,1,0.451250076294,None,0,,2.0,triangleorange.gif,go,,,,,,,,,,,,,,,,,,,,,,,,,,,,,,,0,0.514223098755,0.000937938690186,0.451250076294,1,a,355.328992128,,,,,,,,,,,,,,,,,,,,,,,,,,,,,,,,,,,,,,,,,,,,,,,,,,,,,,2015_Jul_02_1246,59.9905315085,LearningTask,1,14,
200,w,200,,,,,,,,,,,,,,,,,0,0,0,0,2,3,11,0,,,,,,,,,,,,,,,,,,,,,,,,,,,,,w,1,0.434314012527,None,0,,0.5,hexagongray.gif,go,,,,,,,,,,,,,,,,,,,,,,,,,,,,,,,0.43,0.514585971832,0.000908851623535,0.434314012527,1,w,358.33237505,,,,,,,,,,,,,,,,,,,,,,,,,,,,,,,,,,,,,,,,,,,,,,,,,,,,,,2015_Jul_02_1246,59.9905315085,LearningTask,1,14,
-200,q,200,,,,,,,,,,,,,,,,,0,0,0,0,3,0,12,1,,,,,,,,,,,,,,,,,,,,,,,,,,,,,q,1,0.351249933243,None,0,,4.0,invertedtriangleyellow.gif,stop,,,,,,,,,,,,,,,,,,,,,,,,,,,,,,,4.21,0.514167070389,0.000899076461792,0.351249933243,1,q,361.336168051,,,,,,,,,,,,,,,,,,,,,,,,,,,,,,,,,,,,,,,,,,,,,,,,,,,,,,2015_Jul_02_1246,59.9905315085,LearningTask,1,14,
200,w,200,,,,,,,,,,,,,,,,,0,0,0,0,3,1,13,0,,,,,,,,,,,,,,,,,,,,,,,,,,,,,w,1,0.417631864548,None,0,,4.0,invertedtriangleyellow.gif,stop,,,,,,,,,,,,,,,,,,,,,,,,,,,,,,,4.22,0.513628005981,0.000919818878174,0.417631864548,1,w,364.339163065,,,,,,,,,,,,,,,,,,,,,,,,,,,,,,,,,,,,,,,,,,,,,,,,,,,,,,2015_Jul_02_1246,59.9905315085,LearningTask,1,14,
200,s,-200,,,,,,,,,,,,,,,,,0,0,0,0,3,2,14,2,,,,,,,,,,,,,,,,,,,,,,,,,,,,,s,1,0.451195001602,None,0,,0.5,diamondgreen.gif,stop,,,,,,,,,,,,,,,,,,,,,,,,,,,,,,,0,0.514255046844,0.000891923904419,0.451195001602,1,s,367.34248805,,,,,,,,,,,,,,,,,,,,,,,,,,,,,,,,,,,,,,,,,,,,,,,,,,,,,,2015_Jul_02_1246,59.9905315085,LearningTask,1,14,
200,w,200,,,,,,,,,,,,,,,,,0,0,0,0,3,3,15,0,,,,,,,,,,,,,,,,,,,,,,,,,,,,,w,1,0.334544897079,None,0,,0.5,diamondgreen.gif,stop,,,,,,,,,,,,,,,,,,,,,,,,,,,,,,,0,0.514276981354,0.000938177108765,0.334544897079,1,w,370.346362114,,,,,,,,,,,,,,,,,,,,,,,,,,,,,,,,,,,,,,,,,,,,,,,,,,,,,,2015_Jul_02_1246,59.9905315085,LearningTask,1,14,
200,s,-200,,,,,,,,,,,,,,,,,0,0,0,0,4,0,16,2,,,,,,,,,,,,,,,,,,,,,,,,,,,,,s,1,0.400345087051,None,0,,2.0,triangleorange.gif,go,,,,,,,,,,,,,,,,,,,,,,,,,,,,,,,2.16,0.513773918152,0.000900983810425,0.400345087051,1,s,373.349646091,,,,,,,,,,,,,,,,,,,,,,,,,,,,,,,,,,,,,,,,,,,,,,,,,,,,,,2015_Jul_02_1246,59.9905315085,LearningTask,1,14,
-200,a,-200,,,,,,,,,,,,,,,,,0,0,0,0,4,1,17,3,,,,,,,,,,,,,,,,,,,,,,,,,,,,,a,1,0.400823831558,None,0,,4.0,linecyan.gif,go,,,,,,,,,,,,,,,,,,,,,,,,,,,,,,,0,0.514204978943,0.000961065292358,0.400823831558,1,a,376.352674961,,,,,,,,,,,,,,,,,,,,,,,,,,,,,,,,,,,,,,,,,,,,,,,,,,,,,,2015_Jul_02_1246,59.9905315085,LearningTask,1,14,
-200,a,-200,,,,,,,,,,,,,,,,,0,0,0,0,4,2,18,3,,,,,,,,,,,,,,,,,,,,,,,,,,,,,a,1,0.400949954987,None,0,,2.0,crossblue.gif,stop,,,,,,,,,,,,,,,,,,,,,,,,,,,,,,,1.95,0.514379024506,0.000982046127319,0.400949954987,1,a,379.356323004,,,,,,,,,,,,,,,,,,,,,,,,,,,,,,,,,,,,,,,,,,,,,,,,,,,,,,2015_Jul_02_1246,59.9905315085,LearningTask,1,14,
200,s,-200,,,,,,,,,,,,,,,,,0,0,0,0,4,3,19,2,,,,,,,,,,,,,,,,,,,,,,,,,,,,,s,1,0.367338895798,None,0,,0.5,hexagongray.gif,go,,,,,,,,,,,,,,,,,,,,,,,,,,,,,,,0.68,0.514115095139,0.000903129577637,0.367338895798,1,s,382.359544992,,,,,,,,,,,,,,,,,,,,,,,,,,,,,,,,,,,,,,,,,,,,,,,,,,,,,,2015_Jul_02_1246,59.9905315085,LearningTask,1,14,
-200,q,200,,,,,,,,,,,,,,,,,0,0,0,0,5,0,20,1,,,,,,,,,,,,,,,,,,,,,,,,,,,,,q,1,0.567942142487,None,0,,4.0,linecyan.gif,go,,,,,,,,,,,,,,,,,,,,,,,,,,,,,,,4.25,0.51415681839,0.00103187561035,0.567942142487,1,q,385.36265111,,,,,,,,,,,,,,,,,,,,,,,,,,,,,,,,,,,,,,,,,,,,,,,,,,,,,,2015_Jul_02_1246,59.9905315085,LearningTask,1,14,
200,w,200,,,,,,,,,,,,,,,,,0,0,0,0,5,1,21,0,,,,,,,,,,,,,,,,,,,,,,,,,,,,,w,1,0.334326982498,None,0,,0.5,hexagongray.gif,go,,,,,,,,,,,,,,,,,,,,,,,,,,,,,,,0.31,0.514527082443,0.000900983810425,0.334326982498,1,w,388.366240978,,,,,,,,,,,,,,,,,,,,,,,,,,,,,,,,,,,,,,,,,,,,,,,,,,,,,,2015_Jul_02_1246,59.9905315085,LearningTask,1,14,
200,s,-200,,,,,,,,,,,,,,,,,0,0,0,0,5,2,22,2,,,,,,,,,,,,,,,,,,,,,,,,,,,,,s,1,0.350687980652,None,0,,0.5,hexagongray.gif,go,,,,,,,,,,,,,,,,,,,,,,,,,,,,,,,0.39,0.514485836029,0.000908851623535,0.350687980652,1,s,391.370205164,,,,,,,,,,,,,,,,,,,,,,,,,,,,,,,,,,,,,,,,,,,,,,,,,,,,,,2015_Jul_02_1246,59.9905315085,LearningTask,1,14,
-200,a,-200,,,,,,,,,,,,,,,,,0,0,0,0,5,3,23,3,,,,,,,,,,,,,,,,,,,,,,,,,,,,,a,1,0.417630910873,None,0,,2.0,triangleorange.gif,go,,,,,,,,,,,,,,,,,,,,,,,,,,,,,,,2.12,0.513607978821,0.000940084457397,0.417630910873,1,a,394.373239994,,,,,,,,,,,,,,,,,,,,,,,,,,,,,,,,,,,,,,,,,,,,,,,,,,,,,,2015_Jul_02_1246,59.9905315085,LearningTask,1,14,
-200,q,200,,,,,,,,,,,,,,,,,0,0,0,0,6,0,24,1,,,,,,,,,,,,,,,,,,,,,,,,,,,,,q,1,0.417603969574,None,0,,1.0,circlemagenta.gif,stop,,,,,,,,,,,,,,,,,,,,,,,,,,,,,,,0.94,0.513720989227,0.000946998596191,0.417603969574,1,q,397.376384974,,,,,,,,,,,,,,,,,,,,,,,,,,,,,,,,,,,,,,,,,,,,,,,,,,,,,,2015_Jul_02_1246,59.9905315085,LearningTask,1,14,
200,s,-200,,,,,,,,,,,,,,,,,0,0,0,0,6,1,25,2,,,,,,,,,,,,,,,,,,,,,,,,,,,,,s,1,0.36784696579,None,0,,2.0,crossblue.gif,stop,,,,,,,,,,,,,,,,,,,,,,,,,,,,,,,0,0.514292955399,0.000902891159058,0.36784696579,1,s,400.379531145,,,,,,,,,,,,,,,,,,,,,,,,,,,,,,,,,,,,,,,,,,,,,,,,,,,,,,2015_Jul_02_1246,59.9905315085,LearningTask,1,14,
200,s,-200,,,,,,,,,,,,,,,,,0,0,0,0,6,2,26,2,,,,,,,,,,,,,,,,,,,,,,,,,,,,,s,1,0.401123046875,None,0,,2.0,triangleorange.gif,go,,,,,,,,,,,,,,,,,,,,,,,,,,,,,,,0,0.514430999756,0.000943183898926,0.401123046875,1,s,403.383023024,,,,,,,,,,,,,,,,,,,,,,,,,,,,,,,,,,,,,,,,,,,,,,,,,,,,,,2015_Jul_02_1246,59.9905315085,LearningTask,1,14,
200,w,200,,,,,,,,,,,,,,,,,0,0,0,0,6,3,27,0,,,,,,,,,,,,,,,,,,,,,,,,,,,,,w,1,0.400708913803,None,0,,4.0,invertedtriangleyellow.gif,stop,,,,,,,,,,,,,,,,,,,,,,,,,,,,,,,4.01,0.51451420784,0.000897169113159,0.400708913803,1,w,406.386548996,,,,,,,,,,,,,,,,,,,,,,,,,,,,,,,,,,,,,,,,,,,,,,,,,,,,,,2015_Jul_02_1246,59.9905315085,LearningTask,1,14,
-200,q,200,,,,,,,,,,,,,,,,,0,0,0,0,7,0,28,1,,,,,,,,,,,,,,,,,,,,,,,,,,,,,q,1,0.317832946777,None,0,,0.5,hexagongray.gif,go,,,,,,,,,,,,,,,,,,,,,,,,,,,,,,,0.44,0.514435052872,0.000915050506592,0.317832946777,1,q,409.390225172,,,,,,,,,,,,,,,,,,,,,,,,,,,,,,,,,,,,,,,,,,,,,,,,,,,,,,2015_Jul_02_1246,59.9905315085,LearningTask,1,14,
200,w,200,,,,,,,,,,,,,,,,,0,0,0,0,7,1,29,0,,,,,,,,,,,,,,,,,,,,,,,,,,,,,w,1,0.484571933746,None,0,,4.0,invertedtriangleyellow.gif,stop,,,,,,,,,,,,,,,,,,,,,,,,,,,,,,,3.85,0.51370382309,0.000936031341553,0.484571933746,1,w,412.393109083,,,,,,,,,,,,,,,,,,,,,,,,,,,,,,,,,,,,,,,,,,,,,,,,,,,,,,2015_Jul_02_1246,59.9905315085,LearningTask,1,14,
-200,a,-200,,,,,,,,,,,,,,,,,0,0,0,0,7,2,30,3,,,,,,,,,,,,,,,,,,,,,,,,,,,,,a,1,0.450871944427,None,0,,2.0,crossblue.gif,stop,,,,,,,,,,,,,,,,,,,,,,,,,,,,,,,2.18,0.514258861542,0.00123596191406,0.450871944427,1,a,415.396552086,,,,,,,,,,,,,,,,,,,,,,,,,,,,,,,,,,,,,,,,,,,,,,,,,,,,,,2015_Jul_02_1246,59.9905315085,LearningTask,1,14,
200,s,-200,,,,,,,,,,,,,,,,,0,0,0,0,7,3,31,2,,,,,,,,,,,,,,,,,,,,,,,,,,,,,s,1,0.417474985123,None,0,,2.0,triangleorange.gif,go,,,,,,,,,,,,,,,,,,,,,,,,,,,,,,,2.16,0.51423406601,0.000893115997314,0.417474985123,1,s,418.400493145,,,,,,,,,,,,,,,,,,,,,,,,,,,,,,,,,,,,,,,,,,,,,,,,,,,,,,2015_Jul_02_1246,59.9905315085,LearningTask,1,14,
200,s,-200,,,,,,,,,,,,,,,,,0,0,0,0,8,0,32,2,,,,,,,,,,,,,,,,,,,,,,,,,,,,,s,1,0.384216070175,None,0,,1.0,squarewhite.gif,go,,,,,,,,,,,,,,,,,,,,,,,,,,,,,,,1.05,0.513684988022,0.000917911529541,0.384216070175,1,s,421.403923988,,,,,,,,,,,,,,,,,,,,,,,,,,,,,,,,,,,,,,,,,,,,,,,,,,,,,,2015_Jul_02_1246,59.9905315085,LearningTask,1,14,
-200,q,200,,,,,,,,,,,,,,,,,0,0,0,0,8,1,33,1,,,,,,,,,,,,,,,,,,,,,,,,,,,,,q,1,0.38428902626,None,0,,1.0,circlemagenta.gif,stop,,,,,,,,,,,,,,,,,,,,,,,,,,,,,,,0,0.513460159302,0.00101399421692,0.38428902626,1,q,424.407092094,,,,,,,,,,,,,,,,,,,,,,,,,,,,,,,,,,,,,,,,,,,,,,,,,,,,,,2015_Jul_02_1246,59.9905315085,LearningTask,1,14,
-200,a,-200,,,,,,,,,,,,,,,,,0,0,0,0,8,2,34,3,,,,,,,,,,,,,,,,,,,,,,,,,,,,,a,1,0.501405954361,None,0,,0.5,hexagongray.gif,go,,,,,,,,,,,,,,,,,,,,,,,,,,,,,,,0,0.513678073883,0.000958919525146,0.501405954361,1,a,427.410168171,,,,,,,,,,,,,,,,,,,,,,,,,,,,,,,,,,,,,,,,,,,,,,,,,,,,,,2015_Jul_02_1246,59.9905315085,LearningTask,1,14,
200,s,-200,,,,,,,,,,,,,,,,,0,0,0,0,8,3,35,2,,,,,,,,,,,,,,,,,,,,,,,,,,,,,s,1,0.400614976883,None,0,,2.0,crossblue.gif,stop,,,,,,,,,,,,,,,,,,,,,,,,,,,,,,,2.11,0.514255046844,0.000906944274902,0.400614976883,1,s,430.413372993,,,,,,,,,,,,,,,,,,,,,,,,,,,,,,,,,,,,,,,,,,,,,,,,,,,,,,2015_Jul_02_1246,59.9905315085,LearningTask,1,14,
200,s,-200,,,,,,,,,,,,,,,,,0,0,0,0,9,0,36,2,,,,,,,,,,,,,,,,,,,,,,,,,,,,,s,1,0.384697914124,None,0,,2.0,crossblue.gif,stop,,,,,,,,,,,,,,,,,,,,,,,,,,,,,,,2.14,0.514191150665,0.00099515914917,0.384697914124,1,s,433.417010069,,,,,,,,,,,,,,,,,,,,,,,,,,,,,,,,,,,,,,,,,,,,,,,,,,,,,,2015_Jul_02_1246,59.9905315085,LearningTask,1,14,
-200,q,200,,,,,,,,,,,,,,,,,0,0,0,0,9,1,37,1,,,,,,,,,,,,,,,,,,,,,,,,,,,,,q,1,0.384291887283,None,0,,1.0,circlemagenta.gif,stop,,,,,,,,,,,,,,,,,,,,,,,,,,,,,,,0,0.514088153839,0.000900030136108,0.384016036987,0,a,436.420116186,0,0.515583992004,0.000969171524048,0.384291887283,1,q,439.423890114,,,,,,,,,,,,,,,,,,,,,,,,,,,,,,,,,,,,,,,,,,,,,,,2015_Jul_02_1246,59.9905315085,LearningTask,1,14,
-200,a,-200,,,,,,,,,,,,,,,,,0,0,0,0,9,2,38,3,,,,,,,,,,,,,,,,,,,,,,,,,,,,,a,1,0.467888116837,None,0,,0.5,diamondgreen.gif,stop,,,,,,,,,,,,,,,,,,,,,,,,,,,,,,,0.63,0.513834953308,0.000938892364502,0.467888116837,1,a,442.426855087,,,,,,,,,,,,,,,,,,,,,,,,,,,,,,,,,,,,,,,,,,,,,,,,,,,,,,2015_Jul_02_1246,59.9905315085,LearningTask,1,14,
200,w,200,,,,,,,,,,,,,,,,,0,0,0,0,9,3,39,0,,,,,,,,,,,,,,,,,,,,,,,,,,,,,w,1,0.367751836777,None,0,,4.0,linecyan.gif,go,,,,,,,,,,,,,,,,,,,,,,,,,,,,,,,4.11,0.514398097992,0.000919103622437,0.367751836777,1,w,445.430325985,,,,,,,,,,,,,,,,,,,,,,,,,,,,,,,,,,,,,,,,,,,,,,,,,,,,,,2015_Jul_02_1246,59.9905315085,LearningTask,1,14,
200,w,200,,,,,,,,,,,,,,,,,0,0,0,0,10,0,40,0,,,,,,,,,,,,,,,,,,,,,,,,,,,,,w,1,0.401170969009,None,0,,1.0,squarewhite.gif,go,,,,,,,,,,,,,,,,,,,,,,,,,,,,,,,0,0.514289140701,0.000890016555786,0.401170969009,1,w,448.433717012,,,,,,,,,,,,,,,,,,,,,,,,,,,,,,,,,,,,,,,,,,,,,,,,,,,,,,2015_Jul_02_1246,59.9905315085,LearningTask,1,14,
-200,a,-200,,,,,,,,,,,,,,,,,0,0,0,0,10,1,41,3,,,,,,,,,,,,,,,,,,,,,,,,,,,,,a,1,0.383958101273,None,0,,1.0,circlemagenta.gif,stop,,,,,,,,,,,,,,,,,,,,,,,,,,,,,,,1.22,0.514217853546,0.000946998596191,0.383958101273,1,a,451.436994076,,,,,,,,,,,,,,,,,,,,,,,,,,,,,,,,,,,,,,,,,,,,,,,,,,,,,,2015_Jul_02_1246,59.9905315085,LearningTask,1,14,
-200,a,-200,,,,,,,,,,,,,,,,,0,0,0,0,10,2,42,3,,,,,,,,,,,,,,,,,,,,,,,,,,,,,a,1,0.400948047638,None,0,,0.5,diamondgreen.gif,stop,,,,,,,,,,,,,,,,,,,,,,,,,,,,,,,0.33,0.51432299614,0.000900030136108,0.400948047638,1,a,454.440468073,,,,,,,,,,,,,,,,,,,,,,,,,,,,,,,,,,,,,,,,,,,,,,,,,,,,,,2015_Jul_02_1246,59.9905315085,LearningTask,1,14,
-200,q,200,,,,,,,,,,,,,,,,,0,0,0,0,10,3,43,1,,,,,,,,,,,,,,,,,,,,,,,,,,,,,q,1,0.451328039169,None,0,,1.0,circlemagenta.gif,stop,,,,,,,,,,,,,,,,,,,,,,,,,,,,,,,0.95,0.514043092728,0.000900030136108,0.451328039169,1,q,457.443941116,,,,,,,,,,,,,,,,,,,,,,,,,,,,,,,,,,,,,,,,,,,,,,,,,,,,,,2015_Jul_02_1246,59.9905315085,LearningTask,1,14,
-200,q,200,,,,,,,,,,,,,,,,,0,0,0,0,11,0,44,1,,,,,,,,,,,,,,,,,,,,,,,,,,,,,q,1,0.400946855545,None,0,,4.0,linecyan.gif,go,,,,,,,,,,,,,,,,,,,,,,,,,,,,,,,3.78,0.51424407959,0.000899076461792,0.400946855545,1,q,460.44721508,,,,,,,,,,,,,,,,,,,,,,,,,,,,,,,,,,,,,,,,,,,,,,,,,,,,,,2015_Jul_02_1246,59.9905315085,LearningTask,1,14,
200,s,-200,,,,,,,,,,,,,,,,,0,0,0,0,11,1,45,2,,,,,,,,,,,,,,,,,,,,,,,,,,,,,s,1,0.534806013107,None,0,,4.0,invertedtriangleyellow.gif,stop,,,,,,,,,,,,,,,,,,,,,,,,,,,,,,,0,0.514341115952,0.00090503692627,0.534806013107,1,s,463.450430155,,,,,,,,,,,,,,,,,,,,,,,,,,,,,,,,,,,,,,,,,,,,,,,,,,,,,,2015_Jul_02_1246,59.9905315085,LearningTask,1,14,
200,w,200,,,,,,,,,,,,,,,,,0,0,0,0,11,2,46,0,,,,,,,,,,,,,,,,,,,,,,,,,,,,,w,1,0.45076918602,None,0,,0.5,hexagongray.gif,go,,,,,,,,,,,,,,,,,,,,,,,,,,,,,,,0.7,0.514554023743,0.000894069671631,0.45076918602,1,w,466.454159021,,,,,,,,,,,,,,,,,,,,,,,,,,,,,,,,,,,,,,,,,,,,,,,,,,,,,,2015_Jul_02_1246,59.9905315085,LearningTask,1,14,
-200,q,200,,,,,,,,,,,,,,,,,0,0,0,0,11,3,47,1,,,,,,,,,,,,,,,,,,,,,,,,,,,,,q,1,0.484790086746,None,0,,1.0,circlemagenta.gif,stop,,,,,,,,,,,,,,,,,,,,,,,,,,,,,,,0,0.514147996902,0.000893115997314,0.484790086746,1,q,469.457327127,,,,,,,,,,,,,,,,,,,,,,,,,,,,,,,,,,,,,,,,,,,,,,,,,,,,,,2015_Jul_02_1246,59.9905315085,LearningTask,1,14,
-200,a,-200,,,,,,,,,,,,,,,,,0,0,0,0,12,0,48,3,,,,,,,,,,,,,,,,,,,,,,,,,,,,,a,1,0.41800904274,None,0,,2.0,crossblue.gif,stop,,,,,,,,,,,,,,,,,,,,,,,,,,,,,,,2.19,0.514256000519,0.000970840454102,0.41800904274,1,a,472.460504055,,,,,,,,,,,,,,,,,,,,,,,,,,,,,,,,,,,,,,,,,,,,,,,,,,,,,,2015_Jul_02_1246,59.9905315085,LearningTask,1,14,
-200,a,-200,,,,,,,,,,,,,,,,,0,0,0,0,12,1,49,3,,,,,,,,,,,,,,,,,,,,,,,,,,,,,a,1,0.3841381073,None,0,,4.0,invertedtriangleyellow.gif,stop,,,,,,,,,,,,,,,,,,,,,,,,,,,,,,,3.79,0.514534950256,0.000948905944824,0.3841381073,1,a,475.46403718,,,,,,,,,,,,,,,,,,,,,,,,,,,,,,,,,,,,,,,,,,,,,,,,,,,,,,2015_Jul_02_1246,59.9905315085,LearningTask,1,14,
-200,q,200,,,,,,,,,,,,,,,,,0,0,0,0,12,2,50,1,,,,,,,,,,,,,,,,,,,,,,,,,,,,,q,1,0.450757980347,None,0,,0.5,diamondgreen.gif,stop,,,,,,,,,,,,,,,,,,,,,,,,,,,,,,,0,0.514544963837,0.000917911529541,0.450757980347,1,q,478.467381001,,,,,,,,,,,,,,,,,,,,,,,,,,,,,,,,,,,,,,,,,,,,,,,,,,,,,,2015_Jul_02_1246,59.9905315085,LearningTask,1,14,
-200,a,-200,,,,,,,,,,,,,,,,,0,0,0,0,12,3,51,3,,,,,,,,,,,,,,,,,,,,,,,,,,,,,a,1,0.418056964874,None,0,,1.0,squarewhite.gif,go,,,,,,,,,,,,,,,,,,,,,,,,,,,,,,,0,0.513680934906,0.000947952270508,0.418056964874,1,a,481.470906019,,,,,,,,,,,,,,,,,,,,,,,,,,,,,,,,,,,,,,,,,,,,,,,,,,,,,,2015_Jul_02_1246,59.9905315085,LearningTask,1,14,
200,s,-200,,,,,,,,,,,,,,,,,0,0,0,0,13,0,52,2,,,,,,,,,,,,,,,,,,,,,,,,,,,,,s,1,0.484611988068,None,0,,2.0,triangleorange.gif,go,,,,,,,,,,,,,,,,,,,,,,,,,,,,,,,0,0.514216899872,0.000976085662842,0.484611988068,1,s,484.474200964,,,,,,,,,,,,,,,,,,,,,,,,,,,,,,,,,,,,,,,,,,,,,,,,,,,,,,2015_Jul_02_1246,59.9905315085,LearningTask,1,14,
200,s,-200,,,,,,,,,,,,,,,,,0,0,0,0,13,1,53,2,,,,,,,,,,,,,,,,,,,,,,,,,,,,,s,1,0.38399887085,None,0,,1.0,circlemagenta.gif,stop,,,,,,,,,,,,,,,,,,,,,,,,,,,,,,,1.06,0.514444112778,0.000901937484741,0.38399887085,1,s,487.477468014,,,,,,,,,,,,,,,,,,,,,,,,,,,,,,,,,,,,,,,,,,,,,,,,,,,,,,2015_Jul_02_1246,59.9905315085,LearningTask,1,14,
-200,q,200,,,,,,,,,,,,,,,,,0,0,0,0,13,2,54,1,,,,,,,,,,,,,,,,,,,,,,,,,,,,,q,1,0.417456150055,None,0,,2.0,triangleorange.gif,go,,,,,,,,,,,,,,,,,,,,,,,,,,,,,,,2.17,0.514404058456,0.00094199180603,0.417456150055,1,q,490.480942965,,,,,,,,,,,,,,,,,,,,,,,,,,,,,,,,,,,,,,,,,,,,,,,,,,,,,,2015_Jul_02_1246,59.9905315085,LearningTask,1,14,
-200,q,200,,,,,,,,,,,,,,,,,0,0,0,0,13,3,55,1,,,,,,,,,,,,,,,,,,,,,,,,,,,,,q,1,0.384790897369,None,0,,1.0,squarewhite.gif,go,,,,,,,,,,,,,,,,,,,,,,,,,,,,,,,0.89,0.514298915863,0.000901937484741,0.384790897369,1,q,493.484512091,,,,,,,,,,,,,,,,,,,,,,,,,,,,,,,,,,,,,,,,,,,,,,,,,,,,,,2015_Jul_02_1246,59.9905315085,LearningTask,1,14,
200,s,-200,,,,,,,,,,,,,,,,,0,0,0,0,14,0,56,2,,,,,,,,,,,,,,,,,,,,,,,,,,,,,s,1,0.401266098022,None,0,,4.0,linecyan.gif,go,,,,,,,,,,,,,,,,,,,,,,,,,,,,,,,4.05,0.514038085938,0.000892162322998,0.401266098022,1,s,496.487854958,,,,,,,,,,,,,,,,,,,,,,,,,,,,,,,,,,,,,,,,,,,,,,,,,,,,,,2015_Jul_02_1246,59.9905315085,LearningTask,1,14,
200,s,-200,,,,,,,,,,,,,,,,,0,0,0,0,14,1,57,2,,,,,,,,,,,,,,,,,,,,,,,,,,,,,s,1,0.350589990616,None,0,,1.0,circlemagenta.gif,stop,,,,,,,,,,,,,,,,,,,,,,,,,,,,,,,1.02,0.514054059982,0.000910997390747,0.350589990616,1,s,499.491479158,,,,,,,,,,,,,,,,,,,,,,,,,,,,,,,,,,,,,,,,,,,,,,,,,,,,,,2015_Jul_02_1246,59.9905315085,LearningTask,1,14,
200,w,200,,,,,,,,,,,,,,,,,0,0,0,0,14,2,58,0,,,,,,,,,,,,,,,,,,,,,,,,,,,,,w,1,0.400845050812,None,0,,0.5,diamondgreen.gif,stop,,,,,,,,,,,,,,,,,,,,,,,,,,,,,,,0.4,0.514078140259,0.000923156738281,0.400845050812,1,w,502.494457006,,,,,,,,,,,,,,,,,,,,,,,,,,,,,,,,,,,,,,,,,,,,,,,,,,,,,,2015_Jul_02_1246,59.9905315085,LearningTask,1,14,
-200,a,-200,,,,,,,,,,,,,,,,,0,0,0,0,14,3,59,3,,,,,,,,,,,,,,,,,,,,,,,,,,,,,a,1,0.608286857605,None,0,,1.0,squarewhite.gif,go,,,,,,,,,,,,,,,,,,,,,,,,,,,,,,,0.93,0.514142036438,0.000890016555786,0.608286857605,1,a,505.498491049,,,,,,,,,,,,,,,,,,,,,,,,,,,,,,,,,,,,,,,,,,,,,,,,,,,,,,2015_Jul_02_1246,59.9905315085,LearningTask,1,14,
-200,q,200,,,,,,,,,,,,,,,,,0,0,0,0,15,0,60,1,,,,,,,,,,,,,,,,,,,,,,,,,,,,,None,0,,None,0,,0.5,diamondgreen.gif,stop,,,,,,,,,,,,,,,,,,,,,,,,,,,,,,,0,0.513715028763,0.000928163528442,[],0,None,508.517940998,0,0.515510082245,0.000964164733887,[],0,None,511.521267176,0,0.515227079391,0.0010449886322,[],0,None,514.525015116,0,0.515132904053,0.000988960266113,[],0,None,517.528223038,0,0.515283107758,0.00096607208252,[],0,None,520.531651974,,,,,,,,,,,,,,,,,,,,,,,,,,2015_Jul_02_1246,59.9905315085,LearningTask,1,14,
200,w,200,,,,,,,,,,,,,,,,,0,0,0,0,15,1,61,0,,,,,,,,,,,,,,,,,,,,,,,,,,,,,w,1,0.350736141205,None,0,,0.5,hexagongray.gif,go,,,,,,,,,,,,,,,,,,,,,,,,,,,,,,,0,0.513385057449,0.000921010971069,0.60179400444,0,s,523.534996986,0.52,0.515507936478,0.00111484527588,0.350736141205,1,w,526.538161993,,,,,,,,,,,,,,,,,,,,,,,,,,,,,,,,,,,,,,,,,,,,,,,2015_Jul_02_1246,59.9905315085,LearningTask,1,14,
-200,q,200,,,,,,,,,,,,,,,,,0,0,0,0,15,2,62,1,,,,,,,,,,,,,,,,,,,,,,,,,,,,,None,0,,None,0,,0.5,diamondgreen.gif,stop,,,,,,,,,,,,,,,,,,,,,,,,,,,,,,,0,0.514400959015,0.000900030136108,[],0,None,529.5415411,0,0.515357971191,0.000981092453003,[],0,None,532.544828176,0,0.515486955643,0.000959873199463,[],0,None,535.548192978,0,0.515532970428,0.000956058502197,[],0,None,538.552200079,0,0.514985084534,0.000977039337158,[],0,None,541.554919958,,,,,,,,,,,,,,,,,,,,,,,,,,2015_Jul_02_1246,59.9905315085,LearningTask,1,14,
200,w,200,,,,,,,,,,,,,,,,,0,0,0,0,15,3,63,0,,,,,,,,,,,,,,,,,,,,,,,,,,,,,w,1,0.450864076614,None,0,,0.5,hexagongray.gif,go,,,,,,,,,,,,,,,,,,,,,,,,,,,,,,,0.46,0.51452088356,0.000980854034424,0.450864076614,1,w,544.55837512,,,,,,,,,,,,,,,,,,,,,,,,,,,,,,,,,,,,,,,,,,,,,,,,,,,,,,2015_Jul_02_1246,59.9905315085,LearningTask,1,14,
-200,a,-200,,,,,,,,,,,,,,,,,0,0,0,0,16,0,64,3,,,,,,,,,,,,,,,,,,,,,,,,,,,,,a,1,0.500865936279,None,0,,2.0,crossblue.gif,stop,,,,,,,,,,,,,,,,,,,,,,,,,,,,,,,2.2,0.514417171478,0.000899076461792,0.500865936279,1,a,547.561793089,,,,,,,,,,,,,,,,,,,,,,,,,,,,,,,,,,,,,,,,,,,,,,,,,,,,,,2015_Jul_02_1246,59.9905315085,LearningTask,1,14,
200,w,200,,,,,,,,,,,,,,,,,0,0,0,0,16,1,65,0,,,,,,,,,,,,,,,,,,,,,,,,,,,,,w,1,0.517257928848,None,0,,1.0,squarewhite.gif,go,,,,,,,,,,,,,,,,,,,,,,,,,,,,,,,0,0.514289855957,0.00089693069458,0.517257928848,1,w,550.564839125,,,,,,,,,,,,,,,,,,,,,,,,,,,,,,,,,,,,,,,,,,,,,,,,,,,,,,2015_Jul_02_1246,59.9905315085,LearningTask,1,14,
200,w,200,,,,,,,,,,,,,,,,,0,0,0,0,16,2,66,0,,,,,,,,,,,,,,,,,,,,,,,,,,,,,w,1,0.334563970566,None,0,,2.0,triangleorange.gif,go,,,,,,,,,,,,,,,,,,,,,,,,,,,,,,,1.79,0.514482975006,0.00100517272949,0.334563970566,1,w,553.568658113,,,,,,,,,,,,,,,,,,,,,,,,,,,,,,,,,,,,,,,,,,,,,,,,,,,,,,2015_Jul_02_1246,59.9905315085,LearningTask,1,14,
200,w,200,,,,,,,,,,,,,,,,,0,0,0,0,16,3,67,0,,,,,,,,,,,,,,,,,,,,,,,,,,,,,w,1,0.36742401123,None,0,,4.0,invertedtriangleyellow.gif,stop,,,,,,,,,,,,,,,,,,,,,,,,,,,,,,,3.95,0.514272928238,0.000895977020264,0.36742401123,1,w,556.571889162,,,,,,,,,,,,,,,,,,,,,,,,,,,,,,,,,,,,,,,,,,,,,,,,,,,,,,2015_Jul_02_1246,59.9905315085,LearningTask,1,14,
-200,a,-200,,,,,,,,,,,,,,,,,0,0,0,0,17,0,68,3,,,,,,,,,,,,,,,,,,,,,,,,,,,,,a,1,0.417269945145,None,0,,4.0,invertedtriangleyellow.gif,stop,,,,,,,,,,,,,,,,,,,,,,,,,,,,,,,4.15,0.514337062836,0.00090503692627,0.417269945145,1,a,559.575216055,,,,,,,,,,,,,,,,,,,,,,,,,,,,,,,,,,,,,,,,,,,,,,,,,,,,,,2015_Jul_02_1246,59.9905315085,LearningTask,1,14,
200,w,200,,,,,,,,,,,,,,,,,0,0,0,0,17,1,69,0,,,,,,,,,,,,,,,,,,,,,,,,,,,,,w,1,0.33402299881,None,0,,1.0,squarewhite.gif,go,,,,,,,,,,,,,,,,,,,,,,,,,,,,,,,0.89,0.513913869858,0.00103783607483,0.33402299881,1,w,562.578536987,,,,,,,,,,,,,,,,,,,,,,,,,,,,,,,,,,,,,,,,,,,,,,,,,,,,,,2015_Jul_02_1246,59.9905315085,LearningTask,1,14,
-200,q,200,,,,,,,,,,,,,,,,,0,0,0,0,17,2,70,1,,,,,,,,,,,,,,,,,,,,,,,,,,,,,None,0,,None,0,,4.0,linecyan.gif,go,,,,,,,,,,,,,,,,,,,,,,,,,,,,,,,0,0.514462947845,0.000903129577637,[],0,None,565.581984043,0,0.515496969223,0.00097393989563,[],0,None,568.585518122,0,0.515408039093,0.0011510848999,[],0,None,571.588814974,0,0.515418767929,0.00104784965515,[],0,None,574.592177153,0,0.515473127365,0.000946044921875,[],0,None,577.596019983,,,,,,,,,,,,,,,,,,,,,,,,,,2015_Jul_02_1246,59.9905315085,LearningTask,1,14,
-200,a,-200,,,,,,,,,,,,,,,,,0,0,0,0,17,3,71,3,,,,,,,,,,,,,,,,,,,,,,,,,,,,,a,1,0.517812013626,None,0,,4.0,linecyan.gif,go,,,,,,,,,,,,,,,,,,,,,,,,,,,,,,,4.0,0.513710021973,0.000899076461792,0.517812013626,1,a,580.598894119,,,,,,,,,,,,,,,,,,,,,,,,,,,,,,,,,,,,,,,,,,,,,,,,,,,,,,2015_Jul_02_1246,59.9905315085,LearningTask,1,14,
-200,a,-200,,,,,,,,,,,,,,,,,0,0,0,0,18,0,72,3,,,,,,,,,,,,,,,,,,,,,,,,,,,,,a,1,0.417673110962,None,0,,2.0,crossblue.gif,stop,,,,,,,,,,,,,,,,,,,,,,,,,,,,,,,1.88,0.514415025711,0.000900030136108,0.417673110962,1,a,583.602061033,,,,,,,,,,,,,,,,,,,,,,,,,,,,,,,,,,,,,,,,,,,,,,,,,,,,,,2015_Jul_02_1246,59.9905315085,LearningTask,1,14,
-200,q,200,,,,,,,,,,,,,,,,,0,0,0,0,18,1,73,1,,,,,,,,,,,,,,,,,,,,,,,,,,,,,None,0,,None,0,,4.0,linecyan.gif,go,,,,,,,,,,,,,,,,,,,,,,,,,,,,,,,0,0.51474404335,0.000914096832275,[],0,None,586.605995178,0,0.515094995499,0.00102806091309,[],0,None,589.608947992,0,0.515670061111,0.000959157943726,[],0,None,592.612219095,0,0.515563011169,0.000957012176514,[],0,None,595.61581707,0,0.515315055847,0.000972986221313,[],0,None,598.619008064,,,,,,,,,,,,,,,,,,,,,,,,,,2015_Jul_02_1246,59.9905315085,LearningTask,1,14,
-200,q,200,,,,,,,,,,,,,,,,,0,0,0,0,18,2,74,1,,,,,,,,,,,,,,,,,,,,,,,,,,,,,None,0,,None,0,,1.0,circlemagenta.gif,stop,,,,,,,,,,,,,,,,,,,,,,,,,,,,,,,0,0.514162063599,0.00109195709229,[],0,None,601.622459173,0,0.515514850616,0.000979900360107,[],0,None,604.62618804,0,0.515132188797,0.00117611885071,[],0,None,607.629235029,0,0.515429019928,0.00108098983765,[],0,None,610.63262701,0,0.515516042709,0.000961065292358,[],0,None,613.635890961,,,,,,,,,,,,,,,,,,,,,,,,,,2015_Jul_02_1246,59.9905315085,LearningTask,1,14,
-200,a,-200,,,,,,,,,,,,,,,,,0,0,0,0,18,3,75,3,,,,,,,,,,,,,,,,,,,,,,,,,,,,,a,1,0.517580032349,None,0,,1.0,squarewhite.gif,go,,,,,,,,,,,,,,,,,,,,,,,,,,,,,,,1.2,0.514539003372,0.000921010971069,0.517580032349,1,a,616.639803171,,,,,,,,,,,,,,,,,,,,,,,,,,,,,,,,,,,,,,,,,,,,,,,,,,,,,,2015_Jul_02_1246,59.9905315085,LearningTask,1,14,
200,s,-200,,,,,,,,,,,,,,,,,0,0,0,0,19,0,76,2,,,,,,,,,,,,,,,,,,,,,,,,,,,,,s,1,0.3678150177,None,0,,1.0,circlemagenta.gif,stop,,,,,,,,,,,,,,,,,,,,,,,,,,,,,,,1.18,0.513201951981,0.000939846038818,0.3678150177,1,s,619.642908096,,,,,,,,,,,,,,,,,,,,,,,,,,,,,,,,,,,,,,,,,,,,,,,,,,,,,,2015_Jul_02_1246,59.9905315085,LearningTask,1,14,
-200,a,-200,,,,,,,,,,,,,,,,,0,0,0,0,19,1,77,3,,,,,,,,,,,,,,,,,,,,,,,,,,,,,a,1,0.417334079742,None,0,,1.0,squarewhite.gif,go,,,,,,,,,,,,,,,,,,,,,,,,,,,,,,,1.14,0.514343976974,0.000901937484741,0.417334079742,1,a,622.646080971,,,,,,,,,,,,,,,,,,,,,,,,,,,,,,,,,,,,,,,,,,,,,,,,,,,,,,2015_Jul_02_1246,59.9905315085,LearningTask,1,14,
-200,q,200,,,,,,,,,,,,,,,,,0,0,0,0,19,2,78,1,,,,,,,,,,,,,,,,,,,,,,,,,,,,,None,0,,None,0,,1.0,squarewhite.gif,go,,,,,,,,,,,,,,,,,,,,,,,,,,,,,,,0,0.514374017715,0.000949144363403,[],0,None,625.650192976,0,0.514889955521,0.00101184844971,[],0,None,628.652976036,0,0.515377044678,0.001051902771,[],0,None,631.656563044,0,0.515084981918,0.000960111618042,[],0,None,634.660135031,0,0.514476776123,0.00104284286499,[],0,None,637.662965059,,,,,,,,,,,,,,,,,,,,,,,,,,2015_Jul_02_1246,59.9905315085,LearningTask,1,14,
200,w,200,,,,,,,,,,,,,,,,,0,0,0,0,19,3,79,0,,,,,,,,,,,,,,,,,,,,,,,,,,,,,w,1,0.617891073227,None,0,,1.0,circlemagenta.gif,stop,,,,,,,,,,,,,,,,,,,,,,,,,,,,,,,1.23,0.514250993729,0.00107002258301,0.617891073227,1,w,640.666491985,,,,,,,,,,,,,,,,,,,,,,,,,,,,,,,,,,,,,,,,,,,,,,,,,,,,,,2015_Jul_02_1246,59.9905315085,LearningTask,1,14,
200,w,200,,,,,,,,,,,,,,,,,0,0,0,0,20,0,80,0,,,,,,,,,,,,,,,,,,,,,,,,,,,,,w,1,0.367381811142,None,0,,2.0,triangleorange.gif,go,,,,,,,,,,,,,,,,,,,,,,,,,,,,,,,2.08,0.514436006546,0.000892162322998,0.367381811142,1,w,643.669954062,,,,,,,,,,,,,,,,,,,,,,,,,,,,,,,,,,,,,,,,,,,,,,,,,,,,,,2015_Jul_02_1246,59.9905315085,LearningTask,1,14,
-200,q,200,,,,,,,,,,,,,,,,,0,0,0,0,20,1,81,1,,,,,,,,,,,,,,,,,,,,,,,,,,,,,None,0,,None,0,,4.0,invertedtriangleyellow.gif,stop,,,,,,,,,,,,,,,,,,,,,,,,,,,,,,,0,0.514183044434,0.000910997390747,[],0,None,646.673285961,0,0.515595912933,0.000998020172119,[],0,None,649.676512003,0,0.515583992004,0.000964879989624,[],0,None,652.67988205,0,0.515506029129,0.000977039337158,[],0,None,655.683712006,0,0.514743804932,0.00101280212402,[],0,None,658.68672204,,,,,,,,,,,,,,,,,,,,,,,,,,2015_Jul_02_1246,59.9905315085,LearningTask,1,14,
200,s,-200,,,,,,,,,,,,,,,,,0,0,0,0,20,2,82,2,,,,,,,,,,,,,,,,,,,,,,,,,,,,,s,1,0.55083990097,None,0,,1.0,squarewhite.gif,go,,,,,,,,,,,,,,,,,,,,,,,,,,,,,,,0.94,0.514455080032,0.000925064086914,0.55083990097,1,s,661.690061092,,,,,,,,,,,,,,,,,,,,,,,,,,,,,,,,,,,,,,,,,,,,,,,,,,,,,,2015_Jul_02_1246,59.9905315085,LearningTask,1,14,
-200,q,200,,,,,,,,,,,,,,,,,0,0,0,0,20,3,83,1,,,,,,,,,,,,,,,,,,,,,,,,,,,,,q,1,0.400963068008,None,0,,4.0,linecyan.gif,go,,,,,,,,,,,,,,,,,,,,,,,,,,,,,,,0,0.514230966568,0.00312185287476,[],0,None,664.694167137,4.23,0.514801979065,0.000988960266113,0.400963068008,1,q,667.696534157,,,,,,,,,,,,,,,,,,,,,,,,,,,,,,,,,,,,,,,,,,,,,,,2015_Jul_02_1246,59.9905315085,LearningTask,1,14,
-200,a,-200,,,,,,,,,,,,,,,,,0,0,0,0,21,0,84,3,,,,,,,,,,,,,,,,,,,,,,,,,,,,,a,1,0.567935943604,None,0,,1.0,circlemagenta.gif,stop,,,,,,,,,,,,,,,,,,,,,,,,,,,,,,,0.83,0.514605998993,0.000933885574341,0.567935943604,1,a,670.700036049,,,,,,,,,,,,,,,,,,,,,,,,,,,,,,,,,,,,,,,,,,,,,,,,,,,,,,2015_Jul_02_1246,59.9905315085,LearningTask,1,14,
200,w,200,,,,,,,,,,,,,,,,,0,0,0,0,21,1,85,0,,,,,,,,,,,,,,,,,,,,,,,,,,,,,w,1,0.467580080032,None,0,,1.0,circlemagenta.gif,stop,,,,,,,,,,,,,,,,,,,,,,,,,,,,,,,1.0,0.514805078506,0.000890016555786,0.467580080032,1,w,673.704035044,,,,,,,,,,,,,,,,,,,,,,,,,,,,,,,,,,,,,,,,,,,,,,,,,,,,,,2015_Jul_02_1246,59.9905315085,LearningTask,1,14,
-200,q,200,,,,,,,,,,,,,,,,,0,0,0,0,21,2,86,1,,,,,,,,,,,,,,,,,,,,,,,,,,,,,q,1,0.384503126144,None,0,,4.0,linecyan.gif,go,,,,,,,,,,,,,,,,,,,,,,,,,,,,,,,4.15,0.51393198967,0.000908136367798,0.384503126144,1,q,676.706933022,,,,,,,,,,,,,,,,,,,,,,,,,,,,,,,,,,,,,,,,,,,,,,,,,,,,,,2015_Jul_02_1246,59.9905315085,LearningTask,1,14,
-200,a,-200,,,,,,,,,,,,,,,,,0,0,0,0,21,3,87,3,,,,,,,,,,,,,,,,,,,,,,,,,,,,,a,1,0.384165048599,None,0,,1.0,squarewhite.gif,go,,,,,,,,,,,,,,,,,,,,,,,,,,,,,,,0.75,0.514078140259,0.000982999801636,0.384165048599,1,a,679.710186958,,,,,,,,,,,,,,,,,,,,,,,,,,,,,,,,,,,,,,,,,,,,,,,,,,,,,,2015_Jul_02_1246,59.9905315085,LearningTask,1,14,
200,s,-200,,,,,,,,,,,,,,,,,0,0,0,0,22,0,88,2,,,,,,,,,,,,,,,,,,,,,,,,,,,,,s,1,0.450333118439,None,0,,2.0,triangleorange.gif,go,,,,,,,,,,,,,,,,,,,,,,,,,,,,,,,2.15,0.514826059341,0.00088095664978,0.450333118439,1,s,682.713759184,,,,,,,,,,,,,,,,,,,,,,,,,,,,,,,,,,,,,,,,,,,,,,,,,,,,,,2015_Jul_02_1246,59.9905315085,LearningTask,1,14,
200,w,200,,,,,,,,,,,,,,,,,0,0,0,0,22,1,89,0,,,,,,,,,,,,,,,,,,,,,,,,,,,,,w,1,0.383982896805,None,0,,1.0,circlemagenta.gif,stop,,,,,,,,,,,,,,,,,,,,,,,,,,,,,,,0.81,0.514302968979,0.000881910324097,0.383982896805,1,w,685.716995001,,,,,,,,,,,,,,,,,,,,,,,,,,,,,,,,,,,,,,,,,,,,,,,,,,,,,,2015_Jul_02_1246,59.9905315085,LearningTask,1,14,
200,s,-200,,,,,,,,,,,,,,,,,0,0,0,0,22,2,90,2,,,,,,,,,,,,,,,,,,,,,,,,,,,,,s,1,0.400938987732,None,0,,0.5,diamondgreen.gif,stop,,,,,,,,,,,,,,,,,,,,,,,,,,,,,,,0.43,0.514057159424,0.00102114677429,0.400938987732,1,s,688.720309019,,,,,,,,,,,,,,,,,,,,,,,,,,,,,,,,,,,,,,,,,,,,,,,,,,,,,,2015_Jul_02_1246,59.9905315085,LearningTask,1,14,
-200,a,-200,,,,,,,,,,,,,,,,,0,0,0,0,22,3,91,3,,,,,,,,,,,,,,,,,,,,,,,,,,,,,a,1,0.483830928802,None,0,,4.0,linecyan.gif,go,,,,,,,,,,,,,,,,,,,,,,,,,,,,,,,3.92,0.51463508606,0.000910997390747,0.483830928802,1,a,691.72379899,,,,,,,,,,,,,,,,,,,,,,,,,,,,,,,,,,,,,,,,,,,,,,,,,,,,,,2015_Jul_02_1246,59.9905315085,LearningTask,1,14,
200,w,200,,,,,,,,,,,,,,,,,0,0,0,0,23,0,92,0,,,,,,,,,,,,,,,,,,,,,,,,,,,,,w,1,0.417285919189,None,0,,1.0,circlemagenta.gif,stop,,,,,,,,,,,,,,,,,,,,,,,,,,,,,,,1.23,0.514447927475,0.000880002975464,0.417285919189,1,w,694.727233171,,,,,,,,,,,,,,,,,,,,,,,,,,,,,,,,,,,,,,,,,,,,,,,,,,,,,,2015_Jul_02_1246,59.9905315085,LearningTask,1,14,
200,s,-200,,,,,,,,,,,,,,,,,0,0,0,0,23,1,93,2,,,,,,,,,,,,,,,,,,,,,,,,,,,,,s,1,0.500864028931,None,0,,1.0,circlemagenta.gif,stop,,,,,,,,,,,,,,,,,,,,,,,,,,,,,,,1.18,0.514316082001,0.000910997390747,0.500864028931,1,s,697.730575085,,,,,,,,,,,,,,,,,,,,,,,,,,,,,,,,,,,,,,,,,,,,,,,,,,,,,,2015_Jul_02_1246,59.9905315085,LearningTask,1,14,
-200,q,200,,,,,,,,,,,,,,,,,0,0,0,0,23,2,94,1,,,,,,,,,,,,,,,,,,,,,,,,,,,,,q,1,0.384377002716,None,0,,0.5,diamondgreen.gif,stop,,,,,,,,,,,,,,,,,,,,,,,,,,,,,,,0.58,0.514305114746,0.000879049301147,0.384377002716,1,q,700.733941078,,,,,,,,,,,,,,,,,,,,,,,,,,,,,,,,,,,,,,,,,,,,,,,,,,,,,,2015_Jul_02_1246,59.9905315085,LearningTask,1,14,
200,s,-200,,,,,,,,,,,,,,,,,0,0,0,0,23,3,95,2,,,,,,,,,,,,,,,,,,,,,,,,,,,,,s,1,0.417451143265,None,0,,0.5,hexagongray.gif,go,,,,,,,,,,,,,,,,,,,,,,,,,,,,,,,0,0.514564037323,0.00088906288147,0.417451143265,1,s,703.737581968,,,,,,,,,,,,,,,,,,,,,,,,,,,,,,,,,,,,,,,,,,,,,,,,,,,,,,2015_Jul_02_1246,59.9905315085,LearningTask,1,14,
-200,a,-200,,,,,,,,,,,,,,,,,0,0,0,0,24,0,96,3,,,,,,,,,,,,,,,,,,,,,,,,,,,,,a,1,0.417235136032,None,0,,4.0,invertedtriangleyellow.gif,stop,,,,,,,,,,,,,,,,,,,,,,,,,,,,,,,3.85,0.513847112656,0.00090217590332,0.417235136032,1,a,706.740758181,,,,,,,,,,,,,,,,,,,,,,,,,,,,,,,,,,,,,,,,,,,,,,,,,,,,,,2015_Jul_02_1246,59.9905315085,LearningTask,1,14,
200,s,-200,,,,,,,,,,,,,,,,,0,0,0,0,24,1,97,2,,,,,,,,,,,,,,,,,,,,,,,,,,,,,s,1,0.433816194534,None,0,,2.0,crossblue.gif,stop,,,,,,,,,,,,,,,,,,,,,,,,,,,,,,,1.82,0.514324903488,0.000877857208252,0.433816194534,1,s,709.744364977,,,,,,,,,,,,,,,,,,,,,,,,,,,,,,,,,,,,,,,,,,,,,,,,,,,,,,2015_Jul_02_1246,59.9905315085,LearningTask,1,14,
200,s,-200,,,,,,,,,,,,,,,,,0,0,0,0,24,2,98,2,,,,,,,,,,,,,,,,,,,,,,,,,,,,,s,1,0.384429931641,None,0,,1.0,squarewhite.gif,go,,,,,,,,,,,,,,,,,,,,,,,,,,,,,,,0.82,0.513571977615,0.00103402137756,0.384429931641,1,s,712.747908115,,,,,,,,,,,,,,,,,,,,,,,,,,,,,,,,,,,,,,,,,,,,,,,,,,,,,,2015_Jul_02_1246,59.9905315085,LearningTask,1,14,
200,s,-200,,,,,,,,,,,,,,,,,0,0,0,0,24,3,99,2,,,,,,,,,,,,,,,,,,,,,,,,,,,,,s,1,0.367792844772,None,0,,1.0,squarewhite.gif,go,,,,,,,,,,,,,,,,,,,,,,,,,,,,,,,0.97,0.513870000839,0.000871181488037,0.367792844772,1,s,715.750790119,,,,,,,,,,,,,,,,,,,,,,,,,,,,,,,,,,,,,,,,,,,,,,,,,,,,,,2015_Jul_02_1246,59.9905315085,LearningTask,1,14,
,,,,,,,,,,,,,,,,,,,0,0,0,0,,,,,,,,,,,,,,,,,,,,,,,,,,,,,,,,,,,,,,,,,,,,,,,,,,,,,,,,,,,,,,,,,,,,,,,,,,,,,,,,,,,,,,,,,,,,,,,,,,,,,,,,,,,9,12.9865980148,,,,,,,,,,,,,,,,,,,,,,,,2015_Jul_02_1246,59.9905315085,LearningTask,1,14,
-200,a,-200,,,,,,,,,,,,,,,,,1,0,1,0,0,0,0,3,,,,,,,,,,,,,,,,,,,,,,,,,,,,,a,1,0.484213113785,None,0,,4.0,linecyan.gif,go,,,,,,,,,,,,,,,,,,,,,,,,,,,,,,,3.87,0.510476827621,0.000883817672729,0.484213113785,1,a,732.587080956,,,,,,,,,,,,,,,,,,,,,,,,,,,,,,,,,,,,,,,,,,,,,,,,,,,,,,2015_Jul_02_1246,59.9905315085,LearningTask,1,14,
200,w,200,,,,,,,,,,,,,,,,,1,0,1,0,0,1,1,0,,,,,,,,,,,,,,,,,,,,,,,,,,,,,w,1,0.38469004631,None,0,,1.0,circlemagenta.gif,stop,,,,,,,,,,,,,,,,,,,,,,,,,,,,,,,0.94,0.513501167297,0.000903129577637,0.38469004631,1,w,735.589825153,,,,,,,,,,,,,,,,,,,,,,,,,,,,,,,,,,,,,,,,,,,,,,,,,,,,,,2015_Jul_02_1246,59.9905315085,LearningTask,1,14,
200,w,200,,,,,,,,,,,,,,,,,1,0,1,0,0,2,2,0,,,,,,,,,,,,,,,,,,,,,,,,,,,,,w,1,0.367813110352,None,0,,2.0,crossblue.gif,stop,,,,,,,,,,,,,,,,,,,,,,,,,,,,,,,2.01,0.514235973358,0.00103998184204,0.367813110352,1,w,738.593357086,,,,,,,,,,,,,,,,,,,,,,,,,,,,,,,,,,,,,,,,,,,,,,,,,,,,,,2015_Jul_02_1246,59.9905315085,LearningTask,1,14,
-200,a,-200,,,,,,,,,,,,,,,,,1,0,1,0,0,3,3,3,,,,,,,,,,,,,,,,,,,,,,,,,,,,,a,1,0.417537212372,None,0,,1.0,circlemagenta.gif,stop,,,,,,,,,,,,,,,,,,,,,,,,,,,,,,,0.92,0.514407873154,0.000874996185303,0.417537212372,1,a,741.596513033,,,,,,,,,,,,,,,,,,,,,,,,,,,,,,,,,,,,,,,,,,,,,,,,,,,,,,2015_Jul_02_1246,59.9905315085,LearningTask,1,14,
200,s,-200,,,,,,,,,,,,,,,,,1,0,1,0,1,0,4,2,,,,,,,,,,,,,,,,,,,,,,,,,,,,,s,1,0.400681018829,None,0,,1.0,circlemagenta.gif,stop,,,,,,,,,,,,,,,,,,,,,,,,,,,,,,,0,0.514053106308,0.00100302696228,0.400681018829,1,s,744.599838972,,,,,,,,,,,,,,,,,,,,,,,,,,,,,,,,,,,,,,,,,,,,,,,,,,,,,,2015_Jul_02_1246,59.9905315085,LearningTask,1,14,
200,s,-200,,,,,,,,,,,,,,,,,1,0,1,0,1,1,5,2,,,,,,,,,,,,,,,,,,,,,,,,,,,,,s,1,0.384896993637,None,0,,2.0,crossblue.gif,stop,,,,,,,,,,,,,,,,,,,,,,,,,,,,,,,1.85,0.514153003693,0.000956058502197,0.384896993637,1,s,747.603291035,,,,,,,,,,,,,,,,,,,,,,,,,,,,,,,,,,,,,,,,,,,,,,,,,,,,,,2015_Jul_02_1246,59.9905315085,LearningTask,1,14,
200,w,200,,,,,,,,,,,,,,,,,1,0,1,0,1,2,6,0,,,,,,,,,,,,,,,,,,,,,,,,,,,,,w,1,0.417955875397,None,0,,2.0,crossblue.gif,stop,,,,,,,,,,,,,,,,,,,,,,,,,,,,,,,2.24,0.514270067215,0.000885963439941,0.417955875397,1,w,750.606817961,,,,,,,,,,,,,,,,,,,,,,,,,,,,,,,,,,,,,,,,,,,,,,,,,,,,,,2015_Jul_02_1246,59.9905315085,LearningTask,1,14,
200,s,-200,,,,,,,,,,,,,,,,,1,0,1,0,1,3,7,2,,,,,,,,,,,,,,,,,,,,,,,,,,,,,s,1,0.434326171875,None,0,,0.5,diamondgreen.gif,stop,,,,,,,,,,,,,,,,,,,,,,,,,,,,,,,0.66,0.514460802078,0.000883817672729,0.434326171875,1,s,753.610138178,,,,,,,,,,,,,,,,,,,,,,,,,,,,,,,,,,,,,,,,,,,,,,,,,,,,,,2015_Jul_02_1246,59.9905315085,LearningTask,1,14,
200,w,200,,,,,,,,,,,,,,,,,1,0,1,0,2,0,8,0,,,,,,,,,,,,,,,,,,,,,,,,,,,,,w,1,0.484425067902,None,0,,1.0,circlemagenta.gif,stop,,,,,,,,,,,,,,,,,,,,,,,,,,,,,,,1.07,0.51412987709,0.000943899154663,0.484425067902,1,w,756.613437176,,,,,,,,,,,,,,,,,,,,,,,,,,,,,,,,,,,,,,,,,,,,,,,,,,,,,,2015_Jul_02_1246,59.9905315085,LearningTask,1,14,
200,s,-200,,,,,,,,,,,,,,,,,1,0,1,0,2,1,9,2,,,,,,,,,,,,,,,,,,,,,,,,,,,,,s,1,0.484129905701,None,0,,4.0,linecyan.gif,go,,,,,,,,,,,,,,,,,,,,,,,,,,,,,,,3.85,0.514424800873,0.000874996185303,0.484129905701,1,s,759.616863966,,,,,,,,,,,,,,,,,,,,,,,,,,,,,,,,,,,,,,,,,,,,,,,,,,,,,,2015_Jul_02_1246,59.9905315085,LearningTask,1,14,
-200,q,200,,,,,,,,,,,,,,,,,1,0,1,0,2,2,10,1,,,,,,,,,,,,,,,,,,,,,,,,,,,,,q,1,0.534445047379,None,0,,4.0,invertedtriangleyellow.gif,stop,,,,,,,,,,,,,,,,,,,,,,,,,,,,,,,3.96,0.5142390728,0.000886917114258,0.534445047379,1,q,762.620413065,,,,,,,,,,,,,,,,,,,,,,,,,,,,,,,,,,,,,,,,,,,,,,,,,,,,,,2015_Jul_02_1246,59.9905315085,LearningTask,1,14,
200,s,-200,,,,,,,,,,,,,,,,,1,0,1,0,2,3,11,2,,,,,,,,,,,,,,,,,,,,,,,,,,,,,s,1,0.434637069702,None,0,,4.0,linecyan.gif,go,,,,,,,,,,,,,,,,,,,,,,,,,,,,,,,4.04,0.513451814651,0.00101399421692,0.434637069702,1,s,765.623458147,,,,,,,,,,,,,,,,,,,,,,,,,,,,,,,,,,,,,,,,,,,,,,,,,,,,,,2015_Jul_02_1246,59.9905315085,LearningTask,1,14,
-200,q,200,,,,,,,,,,,,,,,,,1,0,1,0,3,0,12,1,,,,,,,,,,,,,,,,,,,,,,,,,,,,,q,1,0.334256887436,None,0,,2.0,crossblue.gif,stop,,,,,,,,,,,,,,,,,,,,,,,,,,,,,,,0,0.514600992203,0.000876188278198,0.334256887436,1,q,768.627135992,,,,,,,,,,,,,,,,,,,,,,,,,,,,,,,,,,,,,,,,,,,,,,,,,,,,,,2015_Jul_02_1246,59.9905315085,LearningTask,1,14,
-200,q,200,,,,,,,,,,,,,,,,,1,0,1,0,3,1,13,1,,,,,,,,,,,,,,,,,,,,,,,,,,,,,q,1,0.451326131821,None,0,,2.0,crossblue.gif,stop,,,,,,,,,,,,,,,,,,,,,,,,,,,,,,,2.23,0.513888120651,0.00118613243103,0.451326131821,1,q,771.630429983,,,,,,,,,,,,,,,,,,,,,,,,,,,,,,,,,,,,,,,,,,,,,,,,,,,,,,2015_Jul_02_1246,59.9905315085,LearningTask,1,14,
-200,a,-200,,,,,,,,,,,,,,,,,1,0,1,0,3,2,14,3,,,,,,,,,,,,,,,,,,,,,,,,,,,,,a,1,0.400903940201,None,0,,0.5,hexagongray.gif,go,,,,,,,,,,,,,,,,,,,,,,,,,,,,,,,0,0.513790845871,0.00095796585083,0.367782831192,0,q,774.633810997,0.28,0.515430927277,0.000957012176514,0.400903940201,1,a,777.637187004,,,,,,,,,,,,,,,,,,,,,,,,,,,,,,,,,,,,,,,,,,,,,,,2015_Jul_02_1246,59.9905315085,LearningTask,1,14,
200,s,-200,,,,,,,,,,,,,,,,,1,0,1,0,3,3,15,2,,,,,,,,,,,,,,,,,,,,,,,,,,,,,s,1,0.48387503624,None,0,,2.0,crossblue.gif,stop,,,,,,,,,,,,,,,,,,,,,,,,,,,,,,,2.16,0.514147996902,0.000886917114258,0.48387503624,1,s,780.640491962,,,,,,,,,,,,,,,,,,,,,,,,,,,,,,,,,,,,,,,,,,,,,,,,,,,,,,2015_Jul_02_1246,59.9905315085,LearningTask,1,14,
200,s,-200,,,,,,,,,,,,,,,,,1,0,1,0,4,0,16,2,,,,,,,,,,,,,,,,,,,,,,,,,,,,,s,1,0.351438999176,None,0,,1.0,squarewhite.gif,go,,,,,,,,,,,,,,,,,,,,,,,,,,,,,,,1.19,0.513908147812,0.00096607208252,0.351438999176,1,s,783.643736124,,,,,,,,,,,,,,,,,,,,,,,,,,,,,,,,,,,,,,,,,,,,,,,,,,,,,,2015_Jul_02_1246,59.9905315085,LearningTask,1,14,
-200,q,200,,,,,,,,,,,,,,,,,1,0,1,0,4,1,17,1,,,,,,,,,,,,,,,,,,,,,,,,,,,,,q,1,0.58430480957,None,0,,4.0,invertedtriangleyellow.gif,stop,,,,,,,,,,,,,,,,,,,,,,,,,,,,,,,0,0.514412879944,0.00124597549438,0.58430480957,1,q,786.647242069,,,,,,,,,,,,,,,,,,,,,,,,,,,,,,,,,,,,,,,,,,,,,,,,,,,,,,2015_Jul_02_1246,59.9905315085,LearningTask,1,14,
-200,q,200,,,,,,,,,,,,,,,,,1,0,1,0,4,2,18,1,,,,,,,,,,,,,,,,,,,,,,,,,,,,,q,1,0.350368976593,None,0,,1.0,circlemagenta.gif,stop,,,,,,,,,,,,,,,,,,,,,,,,,,,,,,,1.23,0.514354944229,0.00088095664978,0.350368976593,1,q,789.650858164,,,,,,,,,,,,,,,,,,,,,,,,,,,,,,,,,,,,,,,,,,,,,,,,,,,,,,2015_Jul_02_1246,59.9905315085,LearningTask,1,14,
-200,q,200,,,,,,,,,,,,,,,,,1,0,1,0,4,3,19,1,,,,,,,,,,,,,,,,,,,,,,,,,,,,,q,1,0.417320013046,None,0,,2.0,triangleorange.gif,go,,,,,,,,,,,,,,,,,,,,,,,,,,,,,,,2.06,0.513978004456,0.000881910324097,0.417320013046,1,q,792.653849125,,,,,,,,,,,,,,,,,,,,,,,,,,,,,,,,,,,,,,,,,,,,,,,,,,,,,,2015_Jul_02_1246,59.9905315085,LearningTask,1,14,
200,w,200,,,,,,,,,,,,,,,,,1,0,1,0,5,0,20,0,,,,,,,,,,,,,,,,,,,,,,,,,,,,,w,1,0.484616041183,None,0,,2.0,crossblue.gif,stop,,,,,,,,,,,,,,,,,,,,,,,,,,,,,,,1.91,0.514007091522,0.000945091247559,0.484616041183,1,w,795.657577991,,,,,,,,,,,,,,,,,,,,,,,,,,,,,,,,,,,,,,,,,,,,,,,,,,,,,,2015_Jul_02_1246,59.9905315085,LearningTask,1,14,
200,w,200,,,,,,,,,,,,,,,,,1,0,1,0,5,1,21,0,,,,,,,,,,,,,,,,,,,,,,,,,,,,,w,1,0.367334842682,None,0,,1.0,circlemagenta.gif,stop,,,,,,,,,,,,,,,,,,,,,,,,,,,,,,,0.89,0.514316797256,0.000886917114258,0.367334842682,1,w,798.660791159,,,,,,,,,,,,,,,,,,,,,,,,,,,,,,,,,,,,,,,,,,,,,,,,,,,,,,2015_Jul_02_1246,59.9905315085,LearningTask,1,14,
200,w,200,,,,,,,,,,,,,,,,,1,0,1,0,5,2,22,0,,,,,,,,,,,,,,,,,,,,,,,,,,,,,w,1,0.384299993515,None,0,,2.0,crossblue.gif,stop,,,,,,,,,,,,,,,,,,,,,,,,,,,,,,,1.82,0.514164924622,0.000885009765625,0.384299993515,1,w,801.664245129,,,,,,,,,,,,,,,,,,,,,,,,,,,,,,,,,,,,,,,,,,,,,,,,,,,,,,2015_Jul_02_1246,59.9905315085,LearningTask,1,14,
-200,a,-200,,,,,,,,,,,,,,,,,1,0,1,0,5,3,23,3,,,,,,,,,,,,,,,,,,,,,,,,,,,,,a,1,0.367520093918,None,0,,2.0,crossblue.gif,stop,,,,,,,,,,,,,,,,,,,,,,,,,,,,,,,0,0.514157056808,0.000879049301147,0.367520093918,1,a,804.667317152,,,,,,,,,,,,,,,,,,,,,,,,,,,,,,,,,,,,,,,,,,,,,,,,,,,,,,2015_Jul_02_1246,59.9905315085,LearningTask,1,14,
-200,a,-200,,,,,,,,,,,,,,,,,1,0,1,0,6,0,24,3,,,,,,,,,,,,,,,,,,,,,,,,,,,,,a,1,0.500655174255,None,0,,1.0,circlemagenta.gif,stop,,,,,,,,,,,,,,,,,,,,,,,,,,,,,,,1.0,0.514559030533,0.000877141952515,0.500655174255,1,a,807.670837164,,,,,,,,,,,,,,,,,,,,,,,,,,,,,,,,,,,,,,,,,,,,,,,,,,,,,,2015_Jul_02_1246,59.9905315085,LearningTask,1,14,
200,w,200,,,,,,,,,,,,,,,,,1,0,1,0,6,1,25,0,,,,,,,,,,,,,,,,,,,,,,,,,,,,,w,1,0.418115139008,None,0,,2.0,triangleorange.gif,go,,,,,,,,,,,,,,,,,,,,,,,,,,,,,,,1.78,0.514225006104,0.000880002975464,0.418115139008,1,w,810.674617052,,,,,,,,,,,,,,,,,,,,,,,,,,,,,,,,,,,,,,,,,,,,,,,,,,,,,,2015_Jul_02_1246,59.9905315085,LearningTask,1,14,
-200,a,-200,,,,,,,,,,,,,,,,,1,0,1,0,6,2,26,3,,,,,,,,,,,,,,,,,,,,,,,,,,,,,a,1,0.383924007416,None,0,,0.5,hexagongray.gif,go,,,,,,,,,,,,,,,,,,,,,,,,,,,,,,,0.5,0.514245986938,0.00094199180603,0.383924007416,1,a,813.677821159,,,,,,,,,,,,,,,,,,,,,,,,,,,,,,,,,,,,,,,,,,,,,,,,,,,,,,2015_Jul_02_1246,59.9905315085,LearningTask,1,14,
200,s,-200,,,,,,,,,,,,,,,,,1,0,1,0,6,3,27,2,,,,,,,,,,,,,,,,,,,,,,,,,,,,,s,1,0.450896024704,None,0,,4.0,invertedtriangleyellow.gif,stop,,,,,,,,,,,,,,,,,,,,,,,,,,,,,,,3.75,0.514000892639,0.000880002975464,0.450896024704,1,s,816.681040049,,,,,,,,,,,,,,,,,,,,,,,,,,,,,,,,,,,,,,,,,,,,,,,,,,,,,,2015_Jul_02_1246,59.9905315085,LearningTask,1,14,
-200,q,200,,,,,,,,,,,,,,,,,1,0,1,0,7,0,28,1,,,,,,,,,,,,,,,,,,,,,,,,,,,,,q,1,0.366935968399,None,0,,4.0,invertedtriangleyellow.gif,stop,,,,,,,,,,,,,,,,,,,,,,,,,,,,,,,3.85,0.514360904694,0.000885963439941,0.366935968399,1,q,819.684242964,,,,,,,,,,,,,,,,,,,,,,,,,,,,,,,,,,,,,,,,,,,,,,,,,,,,,,2015_Jul_02_1246,59.9905315085,LearningTask,1,14,
200,w,200,,,,,,,,,,,,,,,,,1,0,1,0,7,1,29,0,,,,,,,,,,,,,,,,,,,,,,,,,,,,,w,1,0.400828838348,None,0,,4.0,invertedtriangleyellow.gif,stop,,,,,,,,,,,,,,,,,,,,,,,,,,,,,,,3.83,0.514252901077,0.000942945480347,0.400828838348,1,w,822.68762207,,,,,,,,,,,,,,,,,,,,,,,,,,,,,,,,,,,,,,,,,,,,,,,,,,,,,,2015_Jul_02_1246,59.9905315085,LearningTask,1,14,
-200,a,-200,,,,,,,,,,,,,,,,,1,0,1,0,7,2,30,3,,,,,,,,,,,,,,,,,,,,,,,,,,,,,a,1,0.417560100555,None,0,,4.0,linecyan.gif,go,,,,,,,,,,,,,,,,,,,,,,,,,,,,,,,3.86,0.514425039291,0.001051902771,0.417560100555,1,a,825.691346169,,,,,,,,,,,,,,,,,,,,,,,,,,,,,,,,,,,,,,,,,,,,,,,,,,,,,,2015_Jul_02_1246,59.9905315085,LearningTask,1,14,
-200,q,200,,,,,,,,,,,,,,,,,1,0,1,0,7,3,31,1,,,,,,,,,,,,,,,,,,,,,,,,,,,,,q,1,0.434554100037,None,0,,0.5,hexagongray.gif,go,,,,,,,,,,,,,,,,,,,,,,,,,,,,,,,0,0.513794898987,0.000887870788574,0.434554100037,1,q,828.694439173,,,,,,,,,,,,,,,,,,,,,,,,,,,,,,,,,,,,,,,,,,,,,,,,,,,,,,2015_Jul_02_1246,59.9905315085,LearningTask,1,14,
200,w,200,,,,,,,,,,,,,,,,,1,0,1,0,8,0,32,0,,,,,,,,,,,,,,,,,,,,,,,,,,,,,w,1,0.467401027679,None,0,,2.0,triangleorange.gif,go,,,,,,,,,,,,,,,,,,,,,,,,,,,,,,,1.93,0.514608860016,0.000922918319702,0.467401027679,1,w,831.697754145,,,,,,,,,,,,,,,,,,,,,,,,,,,,,,,,,,,,,,,,,,,,,,,,,,,,,,2015_Jul_02_1246,59.9905315085,LearningTask,1,14,
-200,a,-200,,,,,,,,,,,,,,,,,1,0,1,0,8,1,33,3,,,,,,,,,,,,,,,,,,,,,,,,,,,,,a,1,0.501180887222,None,0,,4.0,invertedtriangleyellow.gif,stop,,,,,,,,,,,,,,,,,,,,,,,,,,,,,,,3.75,0.514143943787,0.00103688240051,0.501180887222,1,a,834.701116085,,,,,,,,,,,,,,,,,,,,,,,,,,,,,,,,,,,,,,,,,,,,,,,,,,,,,,2015_Jul_02_1246,59.9905315085,LearningTask,1,14,
200,s,-200,,,,,,,,,,,,,,,,,1,0,1,0,8,2,34,2,,,,,,,,,,,,,,,,,,,,,,,,,,,,,s,1,0.501204967499,None,0,,4.0,linecyan.gif,go,,,,,,,,,,,,,,,,,,,,,,,,,,,,,,,4.23,0.514400959015,0.000881910324097,0.501204967499,1,s,837.704660177,,,,,,,,,,,,,,,,,,,,,,,,,,,,,,,,,,,,,,,,,,,,,,,,,,,,,,2015_Jul_02_1246,59.9905315085,LearningTask,1,14,
200,s,-200,,,,,,,,,,,,,,,,,1,0,1,0,8,3,35,2,,,,,,,,,,,,,,,,,,,,,,,,,,,,,s,1,0.417620897293,None,0,,2.0,triangleorange.gif,go,,,,,,,,,,,,,,,,,,,,,,,,,,,,,,,1.83,0.514419078827,0.000999927520752,0.417620897293,1,s,840.708234072,,,,,,,,,,,,,,,,,,,,,,,,,,,,,,,,,,,,,,,,,,,,,,,,,,,,,,2015_Jul_02_1246,59.9905315085,LearningTask,1,14,
200,s,-200,,,,,,,,,,,,,,,,,1,0,1,0,9,0,36,2,,,,,,,,,,,,,,,,,,,,,,,,,,,,,s,1,0.401540994644,None,0,,2.0,triangleorange.gif,go,,,,,,,,,,,,,,,,,,,,,,,,,,,,,,,0,0.513450860977,0.000900983810425,0.401540994644,1,s,843.711351156,,,,,,,,,,,,,,,,,,,,,,,,,,,,,,,,,,,,,,,,,,,,,,,,,,,,,,2015_Jul_02_1246,59.9905315085,LearningTask,1,14,
-200,a,-200,,,,,,,,,,,,,,,,,1,0,1,0,9,1,37,3,,,,,,,,,,,,,,,,,,,,,,,,,,,,,a,1,0.450797796249,None,0,,0.5,hexagongray.gif,go,,,,,,,,,,,,,,,,,,,,,,,,,,,,,,,0.45,0.514518976212,0.000890970230103,0.450797796249,1,a,846.714832067,,,,,,,,,,,,,,,,,,,,,,,,,,,,,,,,,,,,,,,,,,,,,,,,,,,,,,2015_Jul_02_1246,59.9905315085,LearningTask,1,14,
-200,q,200,,,,,,,,,,,,,,,,,1,0,1,0,9,2,38,1,,,,,,,,,,,,,,,,,,,,,,,,,,,,,q,1,0.450744867325,None,0,,1.0,circlemagenta.gif,stop,,,,,,,,,,,,,,,,,,,,,,,,,,,,,,,0.75,0.514238119125,0.000880002975464,0.450744867325,1,q,849.718773127,,,,,,,,,,,,,,,,,,,,,,,,,,,,,,,,,,,,,,,,,,,,,,,,,,,,,,2015_Jul_02_1246,59.9905315085,LearningTask,1,14,
-200,q,200,,,,,,,,,,,,,,,,,1,0,1,0,9,3,39,1,,,,,,,,,,,,,,,,,,,,,,,,,,,,,q,1,0.417892932892,None,0,,4.0,linecyan.gif,go,,,,,,,,,,,,,,,,,,,,,,,,,,,,,,,0,0.513576984406,0.00092887878418,0.417892932892,1,q,852.722079039,,,,,,,,,,,,,,,,,,,,,,,,,,,,,,,,,,,,,,,,,,,,,,,,,,,,,,2015_Jul_02_1246,59.9905315085,LearningTask,1,14,
200,w,200,,,,,,,,,,,,,,,,,1,0,1,0,10,0,40,0,,,,,,,,,,,,,,,,,,,,,,,,,,,,,w,1,0.351258039474,None,0,,0.5,hexagongray.gif,go,,,,,,,,,,,,,,,,,,,,,,,,,,,,,,,0,0.513617992401,0.000900983810425,0.417367935181,0,s,855.725097179,0.67,0.515018939972,0.00095796585083,0.351258039474,1,w,858.728314161,,,,,,,,,,,,,,,,,,,,,,,,,,,,,,,,,,,,,,,,,,,,,,,2015_Jul_02_1246,59.9905315085,LearningTask,1,14,
200,s,-200,,,,,,,,,,,,,,,,,1,0,1,0,10,1,41,2,,,,,,,,,,,,,,,,,,,,,,,,,,,,,s,1,0.417927026749,None,0,,0.5,diamondgreen.gif,stop,,,,,,,,,,,,,,,,,,,,,,,,,,,,,,,0.55,0.513929843903,0.00098180770874,0.417927026749,1,s,861.731554031,,,,,,,,,,,,,,,,,,,,,,,,,,,,,,,,,,,,,,,,,,,,,,,,,,,,,,2015_Jul_02_1246,59.9905315085,LearningTask,1,14,
200,s,-200,,,,,,,,,,,,,,,,,1,0,1,0,10,2,42,2,,,,,,,,,,,,,,,,,,,,,,,,,,,,,s,1,0.384514093399,None,0,,0.5,diamondgreen.gif,stop,,,,,,,,,,,,,,,,,,,,,,,,,,,,,,,0.47,0.514333963394,0.000877857208252,0.384514093399,1,s,864.734879971,,,,,,,,,,,,,,,,,,,,,,,,,,,,,,,,,,,,,,,,,,,,,,,,,,,,,,2015_Jul_02_1246,59.9905315085,LearningTask,1,14,
200,w,200,,,,,,,,,,,,,,,,,1,0,1,0,10,3,43,0,,,,,,,,,,,,,,,,,,,,,,,,,,,,,w,1,0.451219081879,None,0,,4.0,linecyan.gif,go,,,,,,,,,,,,,,,,,,,,,,,,,,,,,,,3.87,0.514444112778,0.000887155532837,0.451219081879,1,w,867.738221169,,,,,,,,,,,,,,,,,,,,,,,,,,,,,,,,,,,,,,,,,,,,,,,,,,,,,,2015_Jul_02_1246,59.9905315085,LearningTask,1,14,
-200,a,-200,,,,,,,,,,,,,,,,,1,0,1,0,11,0,44,3,,,,,,,,,,,,,,,,,,,,,,,,,,,,,a,1,0.367434024811,None,0,,4.0,invertedtriangleyellow.gif,stop,,,,,,,,,,,,,,,,,,,,,,,,,,,,,,,0,0.51416683197,0.000916957855225,0.350854873657,0,q,870.741685152,3.95,0.515587091446,0.000935077667236,0.367434024811,1,a,873.745131969,,,,,,,,,,,,,,,,,,,,,,,,,,,,,,,,,,,,,,,,,,,,,,,2015_Jul_02_1246,59.9905315085,LearningTask,1,14,
-200,a,-200,,,,,,,,,,,,,,,,,1,0,1,0,11,1,45,3,,,,,,,,,,,,,,,,,,,,,,,,,,,,,a,1,0.384019851685,None,0,,1.0,circlemagenta.gif,stop,,,,,,,,,,,,,,,,,,,,,,,,,,,,,,,0.92,0.514314174652,0.00087308883667,0.384019851685,1,a,876.748609066,,,,,,,,,,,,,,,,,,,,,,,,,,,,,,,,,,,,,,,,,,,,,,,,,,,,,,2015_Jul_02_1246,59.9905315085,LearningTask,1,14,
200,w,200,,,,,,,,,,,,,,,,,1,0,1,0,11,2,46,0,,,,,,,,,,,,,,,,,,,,,,,,,,,,,w,1,0.450927019119,None,0,,1.0,circlemagenta.gif,stop,,,,,,,,,,,,,,,,,,,,,,,,,,,,,,,0,0.514098882675,0.000874042510986,0.450927019119,1,w,879.751813173,,,,,,,,,,,,,,,,,,,,,,,,,,,,,,,,,,,,,,,,,,,,,,,,,,,,,,2015_Jul_02_1246,59.9905315085,LearningTask,1,14,
-200,a,-200,,,,,,,,,,,,,,,,,1,0,1,0,11,3,47,3,,,,,,,,,,,,,,,,,,,,,,,,,,,,,a,1,0.467664957047,None,0,,4.0,linecyan.gif,go,,,,,,,,,,,,,,,,,,,,,,,,,,,,,,,3.78,0.513926029205,0.00108003616333,0.467664957047,1,a,882.755195141,,,,,,,,,,,,,,,,,,,,,,,,,,,,,,,,,,,,,,,,,,,,,,,,,,,,,,2015_Jul_02_1246,59.9905315085,LearningTask,1,14,
-200,q,200,,,,,,,,,,,,,,,,,1,0,1,0,12,0,48,1,,,,,,,,,,,,,,,,,,,,,,,,,,,,,q,1,0.434808015823,None,0,,2.0,triangleorange.gif,go,,,,,,,,,,,,,,,,,,,,,,,,,,,,,,,2.22,0.514275074005,0.000900030136108,0.434808015823,1,q,885.758656025,,,,,,,,,,,,,,,,,,,,,,,,,,,,,,,,,,,,,,,,,,,,,,,,,,,,,,2015_Jul_02_1246,59.9905315085,LearningTask,1,14,
200,w,200,,,,,,,,,,,,,,,,,1,0,1,0,12,1,49,0,,,,,,,,,,,,,,,,,,,,,,,,,,,,,w,1,0.468212842941,None,0,,4.0,linecyan.gif,go,,,,,,,,,,,,,,,,,,,,,,,,,,,,,,,0,0.514153003693,0.000883102416992,0.468212842941,1,w,888.761932135,,,,,,,,,,,,,,,,,,,,,,,,,,,,,,,,,,,,,,,,,,,,,,,,,,,,,,2015_Jul_02_1246,59.9905315085,LearningTask,1,14,
200,w,200,,,,,,,,,,,,,,,,,1,0,1,0,12,2,50,0,,,,,,,,,,,,,,,,,,,,,,,,,,,,,w,1,0.417771816254,None,0,,1.0,squarewhite.gif,go,,,,,,,,,,,,,,,,,,,,,,,,,,,,,,,1.01,0.514300823212,0.000949859619141,0.417771816254,1,w,891.765283108,,,,,,,,,,,,,,,,,,,,,,,,,,,,,,,,,,,,,,,,,,,,,,,,,,,,,,2015_Jul_02_1246,59.9905315085,LearningTask,1,14,
-200,q,200,,,,,,,,,,,,,,,,,1,0,1,0,12,3,51,1,,,,,,,,,,,,,,,,,,,,,,,,,,,,,q,1,0.534376859665,None,0,,2.0,triangleorange.gif,go,,,,,,,,,,,,,,,,,,,,,,,,,,,,,,,2.07,0.514473199844,0.000877141952515,0.534376859665,1,q,894.768747091,,,,,,,,,,,,,,,,,,,,,,,,,,,,,,,,,,,,,,,,,,,,,,,,,,,,,,2015_Jul_02_1246,59.9905315085,LearningTask,1,14,
-200,a,-200,,,,,,,,,,,,,,,,,1,0,1,0,13,0,52,3,,,,,,,,,,,,,,,,,,,,,,,,,,,,,a,1,0.501487970352,None,0,,4.0,linecyan.gif,go,,,,,,,,,,,,,,,,,,,,,,,,,,,,,,,0,0.514300107956,0.00116109848022,0.501487970352,1,a,897.772547007,,,,,,,,,,,,,,,,,,,,,,,,,,,,,,,,,,,,,,,,,,,,,,,,,,,,,,2015_Jul_02_1246,59.9905315085,LearningTask,1,14,
200,w,200,,,,,,,,,,,,,,,,,1,0,1,0,13,1,53,0,,,,,,,,,,,,,,,,,,,,,,,,,,,,,w,1,0.417543888092,None,0,,0.5,hexagongray.gif,go,,,,,,,,,,,,,,,,,,,,,,,,,,,,,,,0.7,0.513741016388,0.000913858413696,0.417543888092,1,w,900.775799036,,,,,,,,,,,,,,,,,,,,,,,,,,,,,,,,,,,,,,,,,,,,,,,,,,,,,,2015_Jul_02_1246,59.9905315085,LearningTask,1,14,
200,w,200,,,,,,,,,,,,,,,,,1,0,1,0,13,2,54,0,,,,,,,,,,,,,,,,,,,,,,,,,,,,,w,1,0.450942993164,None,0,,2.0,triangleorange.gif,go,,,,,,,,,,,,,,,,,,,,,,,,,,,,,,,1.76,0.513916969299,0.000874042510986,0.450942993164,1,w,903.778772116,,,,,,,,,,,,,,,,,,,,,,,,,,,,,,,,,,,,,,,,,,,,,,,,,,,,,,2015_Jul_02_1246,59.9905315085,LearningTask,1,14,
-200,a,-200,,,,,,,,,,,,,,,,,1,0,1,0,13,3,55,3,,,,,,,,,,,,,,,,,,,,,,,,,,,,,a,1,0.384742975235,None,0,,2.0,crossblue.gif,stop,,,,,,,,,,,,,,,,,,,,,,,,,,,,,,,2.12,0.514414072037,0.000885963439941,0.384742975235,1,a,906.782288074,,,,,,,,,,,,,,,,,,,,,,,,,,,,,,,,,,,,,,,,,,,,,,,,,,,,,,2015_Jul_02_1246,59.9905315085,LearningTask,1,14,
-200,q,200,,,,,,,,,,,,,,,,,1,0,1,0,14,0,56,1,,,,,,,,,,,,,,,,,,,,,,,,,,,,,q,1,0.367959976196,None,0,,0.5,diamondgreen.gif,stop,,,,,,,,,,,,,,,,,,,,,,,,,,,,,,,0.54,0.514117002487,0.000936985015869,0.367959976196,1,q,909.785495043,,,,,,,,,,,,,,,,,,,,,,,,,,,,,,,,,,,,,,,,,,,,,,,,,,,,,,2015_Jul_02_1246,59.9905315085,LearningTask,1,14,
-200,a,-200,,,,,,,,,,,,,,,,,1,0,1,0,14,1,57,3,,,,,,,,,,,,,,,,,,,,,,,,,,,,,a,1,0.450994968414,None,0,,1.0,squarewhite.gif,go,,,,,,,,,,,,,,,,,,,,,,,,,,,,,,,0,0.514351129532,0.000988006591797,0.450994968414,1,a,912.788798094,,,,,,,,,,,,,,,,,,,,,,,,,,,,,,,,,,,,,,,,,,,,,,,,,,,,,,2015_Jul_02_1246,59.9905315085,LearningTask,1,14,
200,s,-200,,,,,,,,,,,,,,,,,1,0,1,0,14,2,58,2,,,,,,,,,,,,,,,,,,,,,,,,,,,,,s,1,0.484220981598,None,0,,0.5,hexagongray.gif,go,,,,,,,,,,,,,,,,,,,,,,,,,,,,,,,0.33,0.514214992523,0.000895977020264,0.484220981598,1,s,915.792695045,,,,,,,,,,,,,,,,,,,,,,,,,,,,,,,,,,,,,,,,,,,,,,,,,,,,,,2015_Jul_02_1246,59.9905315085,LearningTask,1,14,
200,w,200,,,,,,,,,,,,,,,,,1,0,1,0,14,3,59,0,,,,,,,,,,,,,,,,,,,,,,,,,,,,,w,1,0.433930873871,None,0,,0.5,diamondgreen.gif,stop,,,,,,,,,,,,,,,,,,,,,,,,,,,,,,,0,0.514285802841,0.000883817672729,0.433930873871,1,w,918.795689106,,,,,,,,,,,,,,,,,,,,,,,,,,,,,,,,,,,,,,,,,,,,,,,,,,,,,,2015_Jul_02_1246,59.9905315085,LearningTask,1,14,
-200,a,-200,,,,,,,,,,,,,,,,,1,0,1,0,15,0,60,3,,,,,,,,,,,,,,,,,,,,,,,,,,,,,a,1,0.45086312294,None,0,,1.0,squarewhite.gif,go,,,,,,,,,,,,,,,,,,,,,,,,,,,,,,,1.02,0.514188051224,0.00109505653381,0.45086312294,1,a,921.799609184,,,,,,,,,,,,,,,,,,,,,,,,,,,,,,,,,,,,,,,,,,,,,,,,,,,,,,2015_Jul_02_1246,59.9905315085,LearningTask,1,14,
200,w,200,,,,,,,,,,,,,,,,,1,0,1,0,15,1,61,0,,,,,,,,,,,,,,,,,,,,,,,,,,,,,w,1,0.38415813446,None,0,,0.5,hexagongray.gif,go,,,,,,,,,,,,,,,,,,,,,,,,,,,,,,,0.51,0.513778924942,0.000927925109863,0.38415813446,1,w,924.802643061,,,,,,,,,,,,,,,,,,,,,,,,,,,,,,,,,,,,,,,,,,,,,,,,,,,,,,2015_Jul_02_1246,59.9905315085,LearningTask,1,14,
-200,a,-200,,,,,,,,,,,,,,,,,1,0,1,0,15,2,62,3,,,,,,,,,,,,,,,,,,,,,,,,,,,,,a,1,0.384007930756,None,0,,1.0,squarewhite.gif,go,,,,,,,,,,,,,,,,,,,,,,,,,,,,,,,0.79,0.514334201813,0.000872135162354,0.384007930756,1,a,927.806058168,,,,,,,,,,,,,,,,,,,,,,,,,,,,,,,,,,,,,,,,,,,,,,,,,,,,,,2015_Jul_02_1246,59.9905315085,LearningTask,1,14,
200,s,-200,,,,,,,,,,,,,,,,,1,0,1,0,15,3,63,2,,,,,,,,,,,,,,,,,,,,,,,,,,,,,s,1,0.451374053955,None,0,,2.0,crossblue.gif,stop,,,,,,,,,,,,,,,,,,,,,,,,,,,,,,,0,0.513585090637,0.00090503692627,0.451374053955,1,s,930.809347153,,,,,,,,,,,,,,,,,,,,,,,,,,,,,,,,,,,,,,,,,,,,,,,,,,,,,,2015_Jul_02_1246,59.9905315085,LearningTask,1,14,
200,s,-200,,,,,,,,,,,,,,,,,1,0,1,0,16,0,64,2,,,,,,,,,,,,,,,,,,,,,,,,,,,,,s,1,0.534145116806,None,0,,0.5,diamondgreen.gif,stop,,,,,,,,,,,,,,,,,,,,,,,,,,,,,,,0.69,0.514527082443,0.000920057296753,0.534145116806,1,s,933.812757969,,,,,,,,,,,,,,,,,,,,,,,,,,,,,,,,,,,,,,,,,,,,,,,,,,,,,,2015_Jul_02_1246,59.9905315085,LearningTask,1,14,
-200,q,200,,,,,,,,,,,,,,,,,1,0,1,0,16,1,65,1,,,,,,,,,,,,,,,,,,,,,,,,,,,,,q,1,0.567611932755,None,0,,4.0,linecyan.gif,go,,,,,,,,,,,,,,,,,,,,,,,,,,,,,,,3.81,0.51434803009,0.000876903533936,0.567611932755,1,q,936.816258192,,,,,,,,,,,,,,,,,,,,,,,,,,,,,,,,,,,,,,,,,,,,,,,,,,,,,,2015_Jul_02_1246,59.9905315085,LearningTask,1,14,
200,s,-200,,,,,,,,,,,,,,,,,1,0,1,0,16,2,66,2,,,,,,,,,,,,,,,,,,,,,,,,,,,,,s,1,0.500687122345,None,0,,0.5,hexagongray.gif,go,,,,,,,,,,,,,,,,,,,,,,,,,,,,,,,0.7,0.514012098312,0.00096607208252,0.500687122345,1,s,939.819184065,,,,,,,,,,,,,,,,,,,,,,,,,,,,,,,,,,,,,,,,,,,,,,,,,,,,,,2015_Jul_02_1246,59.9905315085,LearningTask,1,14,
200,s,-200,,,,,,,,,,,,,,,,,1,0,1,0,16,3,67,2,,,,,,,,,,,,,,,,,,,,,,,,,,,,,s,1,0.63453412056,None,0,,1.0,circlemagenta.gif,stop,,,,,,,,,,,,,,,,,,,,,,,,,,,,,,,0.9,0.51469707489,0.000888109207153,0.63453412056,1,s,942.82269001,,,,,,,,,,,,,,,,,,,,,,,,,,,,,,,,,,,,,,,,,,,,,,,,,,,,,,2015_Jul_02_1246,59.9905315085,LearningTask,1,14,
-200,q,200,,,,,,,,,,,,,,,,,1,0,1,0,17,0,68,1,,,,,,,,,,,,,,,,,,,,,,,,,,,,,q,1,0.433741807938,None,0,,1.0,squarewhite.gif,go,,,,,,,,,,,,,,,,,,,,,,,,,,,,,,,0.85,0.514712810516,0.000874996185303,0.433741807938,1,q,945.826910973,,,,,,,,,,,,,,,,,,,,,,,,,,,,,,,,,,,,,,,,,,,,,,,,,,,,,,2015_Jul_02_1246,59.9905315085,LearningTask,1,14,
200,s,-200,,,,,,,,,,,,,,,,,1,0,1,0,17,1,69,2,,,,,,,,,,,,,,,,,,,,,,,,,,,,,s,1,0.417635917664,None,0,,4.0,invertedtriangleyellow.gif,stop,,,,,,,,,,,,,,,,,,,,,,,,,,,,,,,0,0.513332128525,0.000924110412598,0.417635917664,1,s,948.829617977,,,,,,,,,,,,,,,,,,,,,,,,,,,,,,,,,,,,,,,,,,,,,,,,,,,,,,2015_Jul_02_1246,59.9905315085,LearningTask,1,14,
200,s,-200,,,,,,,,,,,,,,,,,1,0,1,0,17,2,70,2,,,,,,,,,,,,,,,,,,,,,,,,,,,,,s,1,0.467970848083,None,0,,2.0,crossblue.gif,stop,,,,,,,,,,,,,,,,,,,,,,,,,,,,,,,0,0.514195203781,0.00088906288147,0.467970848083,1,s,951.832897186,,,,,,,,,,,,,,,,,,,,,,,,,,,,,,,,,,,,,,,,,,,,,,,,,,,,,,2015_Jul_02_1246,59.9905315085,LearningTask,1,14,
-200,a,-200,,,,,,,,,,,,,,,,,1,0,1,0,17,3,71,3,,,,,,,,,,,,,,,,,,,,,,,,,,,,,a,1,0.501015901566,None,0,,1.0,squarewhite.gif,go,,,,,,,,,,,,,,,,,,,,,,,,,,,,,,,1.05,0.514450073242,0.00088906288147,0.501015901566,1,a,954.836264133,,,,,,,,,,,,,,,,,,,,,,,,,,,,,,,,,,,,,,,,,,,,,,,,,,,,,,2015_Jul_02_1246,59.9905315085,LearningTask,1,14,
-200,q,200,,,,,,,,,,,,,,,,,1,0,1,0,18,0,72,1,,,,,,,,,,,,,,,,,,,,,,,,,,,,,q,1,0.501461982727,None,0,,4.0,linecyan.gif,go,,,,,,,,,,,,,,,,,,,,,,,,,,,,,,,4.16,0.513939857483,0.000955820083618,0.501461982727,1,q,957.839696169,,,,,,,,,,,,,,,,,,,,,,,,,,,,,,,,,,,,,,,,,,,,,,,,,,,,,,2015_Jul_02_1246,59.9905315085,LearningTask,1,14,
200,s,-200,,,,,,,,,,,,,,,,,1,0,1,0,18,1,73,2,,,,,,,,,,,,,,,,,,,,,,,,,,,,,s,1,0.401527166367,None,0,,4.0,linecyan.gif,go,,,,,,,,,,,,,,,,,,,,,,,,,,,,,,,4.04,0.514205932617,0.00110697746277,0.401527166367,1,s,960.843194008,,,,,,,,,,,,,,,,,,,,,,,,,,,,,,,,,,,,,,,,,,,,,,,,,,,,,,2015_Jul_02_1246,59.9905315085,LearningTask,1,14,
-200,q,200,,,,,,,,,,,,,,,,,1,0,1,0,18,2,74,1,,,,,,,,,,,,,,,,,,,,,,,,,,,,,q,1,0.400623083115,None,0,,1.0,circlemagenta.gif,stop,,,,,,,,,,,,,,,,,,,,,,,,,,,,,,,0.91,0.514430999756,0.000883102416992,0.400623083115,1,q,963.84631896,,,,,,,,,,,,,,,,,,,,,,,,,,,,,,,,,,,,,,,,,,,,,,,,,,,,,,2015_Jul_02_1246,59.9905315085,LearningTask,1,14,
-200,a,-200,,,,,,,,,,,,,,,,,1,0,1,0,18,3,75,3,,,,,,,,,,,,,,,,,,,,,,,,,,,,,a,1,0.334362983704,None,0,,1.0,circlemagenta.gif,stop,,,,,,,,,,,,,,,,,,,,,,,,,,,,,,,0,0.514276981354,0.000878095626831,0.334362983704,1,a,966.849788189,,,,,,,,,,,,,,,,,,,,,,,,,,,,,,,,,,,,,,,,,,,,,,,,,,,,,,2015_Jul_02_1246,59.9905315085,LearningTask,1,14,
-200,a,-200,,,,,,,,,,,,,,,,,1,0,1,0,19,0,76,3,,,,,,,,,,,,,,,,,,,,,,,,,,,,,a,1,0.450695037842,None,0,,0.5,diamondgreen.gif,stop,,,,,,,,,,,,,,,,,,,,,,,,,,,,,,,0,0.514073848724,0.000991821289062,0.450695037842,1,a,969.853219032,,,,,,,,,,,,,,,,,,,,,,,,,,,,,,,,,,,,,,,,,,,,,,,,,,,,,,2015_Jul_02_1246,59.9905315085,LearningTask,1,14,
200,w,200,,,,,,,,,,,,,,,,,1,0,1,0,19,1,77,0,,,,,,,,,,,,,,,,,,,,,,,,,,,,,w,1,0.567804098129,None,0,,4.0,invertedtriangleyellow.gif,stop,,,,,,,,,,,,,,,,,,,,,,,,,,,,,,,3.92,0.514261007309,0.000878095626831,0.567804098129,1,w,972.856513977,,,,,,,,,,,,,,,,,,,,,,,,,,,,,,,,,,,,,,,,,,,,,,,,,,,,,,2015_Jul_02_1246,59.9905315085,LearningTask,1,14,
-200,q,200,,,,,,,,,,,,,,,,,1,0,1,0,19,2,78,1,,,,,,,,,,,,,,,,,,,,,,,,,,,,,q,1,0.484612226486,None,0,,1.0,circlemagenta.gif,stop,,,,,,,,,,,,,,,,,,,,,,,,,,,,,,,1.08,0.514345884323,0.000895023345947,0.484612226486,1,q,975.859986067,,,,,,,,,,,,,,,,,,,,,,,,,,,,,,,,,,,,,,,,,,,,,,,,,,,,,,2015_Jul_02_1246,59.9905315085,LearningTask,1,14,
-200,q,200,,,,,,,,,,,,,,,,,1,0,1,0,19,3,79,1,,,,,,,,,,,,,,,,,,,,,,,,,,,,,q,1,0.667490959167,None,0,,1.0,circlemagenta.gif,stop,,,,,,,,,,,,,,,,,,,,,,,,,,,,,,,0.95,0.514189958572,0.000962972640991,0.667490959167,1,q,978.863252163,,,,,,,,,,,,,,,,,,,,,,,,,,,,,,,,,,,,,,,,,,,,,,,,,,,,,,2015_Jul_02_1246,59.9905315085,LearningTask,1,14,
200,s,-200,,,,,,,,,,,,,,,,,1,0,1,0,20,0,80,2,,,,,,,,,,,,,,,,,,,,,,,,,,,,,s,1,0.468278884888,None,0,,1.0,squarewhite.gif,go,,,,,,,,,,,,,,,,,,,,,,,,,,,,,,,0.97,0.514343976974,0.00119495391846,0.468278884888,1,s,981.866847992,,,,,,,,,,,,,,,,,,,,,,,,,,,,,,,,,,,,,,,,,,,,,,,,,,,,,,2015_Jul_02_1246,59.9905315085,LearningTask,1,14,
-200,a,-200,,,,,,,,,,,,,,,,,1,0,1,0,20,1,81,3,,,,,,,,,,,,,,,,,,,,,,,,,,,,,a,1,0.517727851868,None,0,,0.5,diamondgreen.gif,stop,,,,,,,,,,,,,,,,,,,,,,,,,,,,,,,0,0.514027118683,0.00088095664978,0.517727851868,1,a,984.870345116,,,,,,,,,,,,,,,,,,,,,,,,,,,,,,,,,,,,,,,,,,,,,,,,,,,,,,2015_Jul_02_1246,59.9905315085,LearningTask,1,14,
-200,q,200,,,,,,,,,,,,,,,,,1,0,1,0,20,2,82,1,,,,,,,,,,,,,,,,,,,,,,,,,,,,,q,1,0.384157896042,None,0,,0.5,diamondgreen.gif,stop,,,,,,,,,,,,,,,,,,,,,,,,,,,,,,,0,0.513767957687,0.000946998596191,0.384157896042,1,q,987.873955011,,,,,,,,,,,,,,,,,,,,,,,,,,,,,,,,,,,,,,,,,,,,,,,,,,,,,,2015_Jul_02_1246,59.9905315085,LearningTask,1,14,
200,w,200,,,,,,,,,,,,,,,,,1,0,1,0,20,3,83,0,,,,,,,,,,,,,,,,,,,,,,,,,,,,,w,1,0.518023014069,None,0,,0.5,diamondgreen.gif,stop,,,,,,,,,,,,,,,,,,,,,,,,,,,,,,,0,0.513841867447,0.000921010971069,0.518023014069,1,w,990.876960039,,,,,,,,,,,,,,,,,,,,,,,,,,,,,,,,,,,,,,,,,,,,,,,,,,,,,,2015_Jul_02_1246,59.9905315085,LearningTask,1,14,
-200,q,200,,,,,,,,,,,,,,,,,1,0,1,0,21,0,84,1,,,,,,,,,,,,,,,,,,,,,,,,,,,,,q,1,0.4178211689,None,0,,1.0,circlemagenta.gif,stop,,,,,,,,,,,,,,,,,,,,,,,,,,,,,,,0.78,0.514115095139,0.000882148742676,0.4178211689,1,q,993.88026309,,,,,,,,,,,,,,,,,,,,,,,,,,,,,,,,,,,,,,,,,,,,,,,,,,,,,,2015_Jul_02_1246,59.9905315085,LearningTask,1,14,
-200,q,200,,,,,,,,,,,,,,,,,1,0,1,0,21,1,85,1,,,,,,,,,,,,,,,,,,,,,,,,,,,,,q,1,0.434572935104,None,0,,0.5,hexagongray.gif,go,,,,,,,,,,,,,,,,,,,,,,,,,,,,,,,0.3,0.514240026474,0.000933885574341,0.434572935104,1,q,996.883448124,,,,,,,,,,,,,,,,,,,,,,,,,,,,,,,,,,,,,,,,,,,,,,,,,,,,,,2015_Jul_02_1246,59.9905315085,LearningTask,1,14,
200,w,200,,,,,,,,,,,,,,,,,1,0,1,0,21,2,86,0,,,,,,,,,,,,,,,,,,,,,,,,,,,,,w,1,0.418280124664,None,0,,2.0,crossblue.gif,stop,,,,,,,,,,,,,,,,,,,,,,,,,,,,,,,0,0.51424908638,0.00110507011414,0.467248916626,0,s,999.886792183,1.99,0.515424013138,0.00095009803772,0.418280124664,1,w,1002.89065599,,,,,,,,,,,,,,,,,,,,,,,,,,,,,,,,,,,,,,,,,,,,,,,2015_Jul_02_1246,59.9905315085,LearningTask,1,14,
200,w,200,,,,,,,,,,,,,,,,,1,0,1,0,21,3,87,0,,,,,,,,,,,,,,,,,,,,,,,,,,,,,w,1,0.434582233429,None,0,,4.0,invertedtriangleyellow.gif,stop,,,,,,,,,,,,,,,,,,,,,,,,,,,,,,,0,0.513593912125,0.00087308883667,0.434582233429,1,w,1005.89369202,,,,,,,,,,,,,,,,,,,,,,,,,,,,,,,,,,,,,,,,,,,,,,,,,,,,,,2015_Jul_02_1246,59.9905315085,LearningTask,1,14,
-200,q,200,,,,,,,,,,,,,,,,,1,0,1,0,22,0,88,1,,,,,,,,,,,,,,,,,,,,,,,,,,,,,q,1,0.434273958206,None,0,,2.0,triangleorange.gif,go,,,,,,,,,,,,,,,,,,,,,,,,,,,,,,,1.99,0.514250993729,0.00105381011963,0.434273958206,1,q,1008.89712501,,,,,,,,,,,,,,,,,,,,,,,,,,,,,,,,,,,,,,,,,,,,,,,,,,,,,,2015_Jul_02_1246,59.9905315085,LearningTask,1,14,
-200,a,-200,,,,,,,,,,,,,,,,,1,0,1,0,22,1,89,3,,,,,,,,,,,,,,,,,,,,,,,,,,,,,a,1,0.517611980438,None,0,,2.0,triangleorange.gif,go,,,,,,,,,,,,,,,,,,,,,,,,,,,,,,,2.01,0.514250993729,0.000876903533936,0.517611980438,1,a,1011.90053105,,,,,,,,,,,,,,,,,,,,,,,,,,,,,,,,,,,,,,,,,,,,,,,,,,,,,,2015_Jul_02_1246,59.9905315085,LearningTask,1,14,
200,s,-200,,,,,,,,,,,,,,,,,1,0,1,0,22,2,90,2,,,,,,,,,,,,,,,,,,,,,,,,,,,,,s,1,0.584408998489,None,0,,4.0,linecyan.gif,go,,,,,,,,,,,,,,,,,,,,,,,,,,,,,,,4.21,0.514180898666,0.00088095664978,0.584408998489,1,s,1014.90368319,,,,,,,,,,,,,,,,,,,,,,,,,,,,,,,,,,,,,,,,,,,,,,,,,,,,,,2015_Jul_02_1246,59.9905315085,LearningTask,1,14,
-200,a,-200,,,,,,,,,,,,,,,,,1,0,1,0,22,3,91,3,,,,,,,,,,,,,,,,,,,,,,,,,,,,,a,1,0.451324939728,None,0,,2.0,crossblue.gif,stop,,,,,,,,,,,,,,,,,,,,,,,,,,,,,,,0,0.513849973679,0.000933885574341,0.451324939728,1,a,1017.90698504,,,,,,,,,,,,,,,,,,,,,,,,,,,,,,,,,,,,,,,,,,,,,,,,,,,,,,2015_Jul_02_1246,59.9905315085,LearningTask,1,14,
200,s,-200,,,,,,,,,,,,,,,,,1,0,1,0,23,0,92,2,,,,,,,,,,,,,,,,,,,,,,,,,,,,,s,1,0.467123031616,None,0,,4.0,linecyan.gif,go,,,,,,,,,,,,,,,,,,,,,,,,,,,,,,,4.09,0.514814138412,0.000913143157959,0.467123031616,1,s,1020.91082501,,,,,,,,,,,,,,,,,,,,,,,,,,,,,,,,,,,,,,,,,,,,,,,,,,,,,,2015_Jul_02_1246,59.9905315085,LearningTask,1,14,
200,s,-200,,,,,,,,,,,,,,,,,1,0,1,0,23,1,93,2,,,,,,,,,,,,,,,,,,,,,,,,,,,,,s,1,0.434094905853,None,0,,1.0,squarewhite.gif,go,,,,,,,,,,,,,,,,,,,,,,,,,,,,,,,0,0.514133214951,0.000872135162354,0.434094905853,1,s,1023.91406512,,,,,,,,,,,,,,,,,,,,,,,,,,,,,,,,,,,,,,,,,,,,,,,,,,,,,,2015_Jul_02_1246,59.9905315085,LearningTask,1,14,
200,w,200,,,,,,,,,,,,,,,,,1,0,1,0,23,2,94,0,,,,,,,,,,,,,,,,,,,,,,,,,,,,,w,1,0.51784491539,None,0,,0.5,hexagongray.gif,go,,,,,,,,,,,,,,,,,,,,,,,,,,,,,,,0.51,0.513635873795,0.00102090835571,0.51784491539,1,w,1026.91733909,,,,,,,,,,,,,,,,,,,,,,,,,,,,,,,,,,,,,,,,,,,,,,,,,,,,,,2015_Jul_02_1246,59.9905315085,LearningTask,1,14,
-200,q,200,,,,,,,,,,,,,,,,,1,0,1,0,23,3,95,1,,,,,,,,,,,,,,,,,,,,,,,,,,,,,q,1,0.384579896927,None,0,,1.0,squarewhite.gif,go,,,,,,,,,,,,,,,,,,,,,,,,,,,,,,,1.05,0.514243841171,0.000871896743774,0.384579896927,1,q,1029.92059803,,,,,,,,,,,,,,,,,,,,,,,,,,,,,,,,,,,,,,,,,,,,,,,,,,,,,,2015_Jul_02_1246,59.9905315085,LearningTask,1,14,
200,w,200,,,,,,,,,,,,,,,,,1,0,1,0,24,0,96,0,,,,,,,,,,,,,,,,,,,,,,,,,,,,,w,1,0.584710836411,None,0,,1.0,circlemagenta.gif,stop,,,,,,,,,,,,,,,,,,,,,,,,,,,,,,,0.91,0.514323234558,0.000882148742676,0.584710836411,1,w,1032.92471218,,,,,,,,,,,,,,,,,,,,,,,,,,,,,,,,,,,,,,,,,,,,,,,,,,,,,,2015_Jul_02_1246,59.9905315085,LearningTask,1,14,
-200,q,200,,,,,,,,,,,,,,,,,1,0,1,0,24,1,97,1,,,,,,,,,,,,,,,,,,,,,,,,,,,,,q,1,0.416949987411,None,0,,1.0,squarewhite.gif,go,,,,,,,,,,,,,,,,,,,,,,,,,,,,,,,0.78,0.513792037964,0.00093412399292,0.416949987411,1,q,1035.92757201,,,,,,,,,,,,,,,,,,,,,,,,,,,,,,,,,,,,,,,,,,,,,,,,,,,,,,2015_Jul_02_1246,59.9905315085,LearningTask,1,14,
-200,a,-200,,,,,,,,,,,,,,,,,1,0,1,0,24,2,98,3,,,,,,,,,,,,,,,,,,,,,,,,,,,,,a,1,0.517524957657,None,0,,4.0,invertedtriangleyellow.gif,stop,,,,,,,,,,,,,,,,,,,,,,,,,,,,,,,3.92,0.514260053635,0.000877857208252,0.517524957657,1,a,1038.93067598,,,,,,,,,,,,,,,,,,,,,,,,,,,,,,,,,,,,,,,,,,,,,,,,,,,,,,2015_Jul_02_1246,59.9905315085,LearningTask,1,14,
-200,a,-200,,,,,,,,,,,,,,,,,1,0,1,0,24,3,99,3,,,,,,,,,,,,,,,,,,,,,,,,,,,,,a,1,0.434061050415,None,0,,0.5,diamondgreen.gif,stop,,,,,,,,,,,,,,,,,,,,,,,,,,,,,,,0.47,0.514459848404,0.000876903533936,0.434061050415,1,a,1041.93432808,,,,,,,,,,,,,,,,,,,,,,,,,,,,,,,,,,,,,,,,,,,,,,,,,,,,,,2015_Jul_02_1246,59.9905315085,LearningTask,1,14,
,,,,,,,,,,,,,,,,,,,1,0,1,0,,,,,,,,,,,,,,,,,,,,,,,,,,,,,,,,,,,,,,,,,,,,,,,,,,,,,,,,,,,,,,,,,,,,,,,,,,,,,,,,,,,,,,,,,,,,,,,,,,,,,,,,,,,9,14.9737808704,,,,,,,,,,,,,,,,,,,,,,,,2015_Jul_02_1246,59.9905315085,LearningTask,1,14,
-200,q,200,,,,,,,,,,,,,,,,,2,0,2,0,0,0,0,1,,,,,,,,,,,,,,,,,,,,,,,,,,,,,q,1,0.567708969116,None,0,,2.0,triangleorange.gif,go,,,,,,,,,,,,,,,,,,,,,,,,,,,,,,,1.81,0.509874105453,0.000868082046509,0.567708969116,1,q,1060.82253098,,,,,,,,,,,,,,,,,,,,,,,,,,,,,,,,,,,,,,,,,,,,,,,,,,,,,,2015_Jul_02_1246,59.9905315085,LearningTask,1,14,
-200,a,-200,,,,,,,,,,,,,,,,,2,0,2,0,0,1,1,3,,,,,,,,,,,,,,,,,,,,,,,,,,,,,a,1,0.717764139175,None,0,,2.0,triangleorange.gif,go,,,,,,,,,,,,,,,,,,,,,,,,,,,,,,,2.02,0.513606071472,0.000939130783081,0.717764139175,1,a,1063.82597017,,,,,,,,,,,,,,,,,,,,,,,,,,,,,,,,,,,,,,,,,,,,,,,,,,,,,,2015_Jul_02_1246,59.9905315085,LearningTask,1,14,
200,s,-200,,,,,,,,,,,,,,,,,2,0,2,0,0,2,2,2,,,,,,,,,,,,,,,,,,,,,,,,,,,,,s,1,0.417144060135,None,0,,2.0,triangleorange.gif,go,,,,,,,,,,,,,,,,,,,,,,,,,,,,,,,2.24,0.513636112213,0.000881195068359,0.417144060135,1,s,1066.82875204,,,,,,,,,,,,,,,,,,,,,,,,,,,,,,,,,,,,,,,,,,,,,,,,,,,,,,2015_Jul_02_1246,59.9905315085,LearningTask,1,14,
-200,q,200,,,,,,,,,,,,,,,,,2,0,2,0,0,3,3,1,,,,,,,,,,,,,,,,,,,,,,,,,,,,,q,1,0.468086004257,None,0,,4.0,invertedtriangleyellow.gif,stop,,,,,,,,,,,,,,,,,,,,,,,,,,,,,,,0,0.514128923416,0.000883817672729,0.468086004257,1,q,1069.83218312,,,,,,,,,,,,,,,,,,,,,,,,,,,,,,,,,,,,,,,,,,,,,,,,,,,,,,2015_Jul_02_1246,59.9905315085,LearningTask,1,14,
200,s,-200,,,,,,,,,,,,,,,,,2,0,2,0,1,0,4,2,,,,,,,,,,,,,,,,,,,,,,,,,,,,,s,1,0.501240968704,None,0,,2.0,crossblue.gif,stop,,,,,,,,,,,,,,,,,,,,,,,,,,,,,,,1.87,0.514230966568,0.000969886779785,0.501240968704,1,s,1072.835742,,,,,,,,,,,,,,,,,,,,,,,,,,,,,,,,,,,,,,,,,,,,,,,,,,,,,,2015_Jul_02_1246,59.9905315085,LearningTask,1,14,
-200,a,-200,,,,,,,,,,,,,,,,,2,0,2,0,1,1,5,3,,,,,,,,,,,,,,,,,,,,,,,,,,,,,a,1,0.63445186615,None,0,,1.0,circlemagenta.gif,stop,,,,,,,,,,,,,,,,,,,,,,,,,,,,,,,0,0.514143943787,0.00088095664978,0.63445186615,1,a,1075.83944201,,,,,,,,,,,,,,,,,,,,,,,,,,,,,,,,,,,,,,,,,,,,,,,,,,,,,,2015_Jul_02_1246,59.9905315085,LearningTask,1,14,
-200,q,200,,,,,,,,,,,,,,,,,2,0,2,0,1,2,6,1,,,,,,,,,,,,,,,,,,,,,,,,,,,,,q,1,0.434108972549,None,0,,0.5,diamondgreen.gif,stop,,,,,,,,,,,,,,,,,,,,,,,,,,,,,,,0,0.513481140137,0.000927209854126,0.434108972549,1,q,1078.84271097,,,,,,,,,,,,,,,,,,,,,,,,,,,,,,,,,,,,,,,,,,,,,,,,,,,,,,2015_Jul_02_1246,59.9905315085,LearningTask,1,14,
200,s,-200,,,,,,,,,,,,,,,,,2,0,2,0,1,3,7,2,,,,,,,,,,,,,,,,,,,,,,,,,,,,,s,1,0.434609889984,None,0,,2.0,triangleorange.gif,go,,,,,,,,,,,,,,,,,,,,,,,,,,,,,,,0,0.513490915298,0.000876903533936,0.434609889984,1,s,1081.84566402,,,,,,,,,,,,,,,,,,,,,,,,,,,,,,,,,,,,,,,,,,,,,,,,,,,,,,2015_Jul_02_1246,59.9905315085,LearningTask,1,14,
200,w,200,,,,,,,,,,,,,,,,,2,0,2,0,2,0,8,0,,,,,,,,,,,,,,,,,,,,,,,,,,,,,w,1,0.500962018967,None,0,,2.0,crossblue.gif,stop,,,,,,,,,,,,,,,,,,,,,,,,,,,,,,,0,0.514369010925,0.000967979431152,0.500962018967,1,w,1084.84923506,,,,,,,,,,,,,,,,,,,,,,,,,,,,,,,,,,,,,,,,,,,,,,,,,,,,,,2015_Jul_02_1246,59.9905315085,LearningTask,1,14,
200,s,-200,,,,,,,,,,,,,,,,,2,0,2,0,2,1,9,2,,,,,,,,,,,,,,,,,,,,,,,,,,,,,s,1,0.484732866287,None,0,,0.5,diamondgreen.gif,stop,,,,,,,,,,,,,,,,,,,,,,,,,,,,,,,0.29,0.513960123062,0.000921010971069,0.484732866287,1,s,1087.85244608,,,,,,,,,,,,,,,,,,,,,,,,,,,,,,,,,,,,,,,,,,,,,,,,,,,,,,2015_Jul_02_1246,59.9905315085,LearningTask,1,14,
200,w,200,,,,,,,,,,,,,,,,,2,0,2,0,2,2,10,0,,,,,,,,,,,,,,,,,,,,,,,,,,,,,w,1,0.467439174652,None,0,,4.0,invertedtriangleyellow.gif,stop,,,,,,,,,,,,,,,,,,,,,,,,,,,,,,,4.16,0.514544010162,0.000890016555786,0.467439174652,1,w,1090.85597706,,,,,,,,,,,,,,,,,,,,,,,,,,,,,,,,,,,,,,,,,,,,,,,,,,,,,,2015_Jul_02_1246,59.9905315085,LearningTask,1,14,
200,w,200,,,,,,,,,,,,,,,,,2,0,2,0,2,3,11,0,,,,,,,,,,,,,,,,,,,,,,,,,,,,,w,1,0.484225034714,None,0,,2.0,crossblue.gif,stop,,,,,,,,,,,,,,,,,,,,,,,,,,,,,,,0,0.514312982559,0.000878810882568,0.484225034714,1,w,1093.85925007,,,,,,,,,,,,,,,,,,,,,,,,,,,,,,,,,,,,,,,,,,,,,,,,,,,,,,2015_Jul_02_1246,59.9905315085,LearningTask,1,14,
-200,q,200,,,,,,,,,,,,,,,,,2,0,2,0,3,0,12,1,,,,,,,,,,,,,,,,,,,,,,,,,,,,,q,1,0.367580890656,None,0,,2.0,triangleorange.gif,go,,,,,,,,,,,,,,,,,,,,,,,,,,,,,,,1.78,0.514223098755,0.00092601776123,0.367580890656,1,q,1096.86263299,,,,,,,,,,,,,,,,,,,,,,,,,,,,,,,,,,,,,,,,,,,,,,,,,,,,,,2015_Jul_02_1246,59.9905315085,LearningTask,1,14,
200,w,200,,,,,,,,,,,,,,,,,2,0,2,0,3,1,13,0,,,,,,,,,,,,,,,,,,,,,,,,,,,,,w,1,0.45059299469,None,0,,2.0,crossblue.gif,stop,,,,,,,,,,,,,,,,,,,,,,,,,,,,,,,0,0.514137983322,0.000875949859619,0.45059299469,1,w,1099.86609316,,,,,,,,,,,,,,,,,,,,,,,,,,,,,,,,,,,,,,,,,,,,,,,,,,,,,,2015_Jul_02_1246,59.9905315085,LearningTask,1,14,
-200,a,-200,,,,,,,,,,,,,,,,,2,0,2,0,3,2,14,3,,,,,,,,,,,,,,,,,,,,,,,,,,,,,a,1,0.46744799614,None,0,,0.5,diamondgreen.gif,stop,,,,,,,,,,,,,,,,,,,,,,,,,,,,,,,0.42,0.514183998108,0.000911951065063,0.46744799614,1,a,1102.86940408,,,,,,,,,,,,,,,,,,,,,,,,,,,,,,,,,,,,,,,,,,,,,,,,,,,,,,2015_Jul_02_1246,59.9905315085,LearningTask,1,14,
200,w,200,,,,,,,,,,,,,,,,,2,0,2,0,3,3,15,0,,,,,,,,,,,,,,,,,,,,,,,,,,,,,w,1,0.350607872009,None,0,,4.0,invertedtriangleyellow.gif,stop,,,,,,,,,,,,,,,,,,,,,,,,,,,,,,,3.82,0.514207839966,0.000897884368896,0.350607872009,1,w,1105.87279701,,,,,,,,,,,,,,,,,,,,,,,,,,,,,,,,,,,,,,,,,,,,,,,,,,,,,,2015_Jul_02_1246,59.9905315085,LearningTask,1,14,
-200,q,200,,,,,,,,,,,,,,,,,2,0,2,0,4,0,16,1,,,,,,,,,,,,,,,,,,,,,,,,,,,,,q,1,0.367192029953,None,0,,0.5,diamondgreen.gif,stop,,,,,,,,,,,,,,,,,,,,,,,,,,,,,,,0,0.514459133148,0.000868082046509,0.367192029953,1,q,1108.87610316,,,,,,,,,,,,,,,,,,,,,,,,,,,,,,,,,,,,,,,,,,,,,,,,,,,,,,2015_Jul_02_1246,59.9905315085,LearningTask,1,14,
-200,a,-200,,,,,,,,,,,,,,,,,2,0,2,0,4,1,17,3,,,,,,,,,,,,,,,,,,,,,,,,,,,,,a,1,0.450714111328,None,0,,4.0,invertedtriangleyellow.gif,stop,,,,,,,,,,,,,,,,,,,,,,,,,,,,,,,3.9,0.514420986176,0.000881910324097,0.450714111328,1,a,1111.88002896,,,,,,,,,,,,,,,,,,,,,,,,,,,,,,,,,,,,,,,,,,,,,,,,,,,,,,2015_Jul_02_1246,59.9905315085,LearningTask,1,14,
-200,q,200,,,,,,,,,,,,,,,,,2,0,2,0,4,2,18,1,,,,,,,,,,,,,,,,,,,,,,,,,,,,,q,1,0.367774963379,None,0,,0.5,hexagongray.gif,go,,,,,,,,,,,,,,,,,,,,,,,,,,,,,,,0.26,0.51389503479,0.000914096832275,0.367774963379,1,q,1114.88265705,,,,,,,,,,,,,,,,,,,,,,,,,,,,,,,,,,,,,,,,,,,,,,,,,,,,,,2015_Jul_02_1246,59.9905315085,LearningTask,1,14,
200,s,-200,,,,,,,,,,,,,,,,,2,0,2,0,4,3,19,2,,,,,,,,,,,,,,,,,,,,,,,,,,,,,s,1,0.434064865112,None,0,,2.0,crossblue.gif,stop,,,,,,,,,,,,,,,,,,,,,,,,,,,,,,,1.88,0.514499902725,0.000887870788574,0.434064865112,1,s,1117.88606,,,,,,,,,,,,,,,,,,,,,,,,,,,,,,,,,,,,,,,,,,,,,,,,,,,,,,2015_Jul_02_1246,59.9905315085,LearningTask,1,14,
-200,a,-200,,,,,,,,,,,,,,,,,2,0,2,0,5,0,20,3,,,,,,,,,,,,,,,,,,,,,,,,,,,,,a,1,0.451014995575,None,0,,4.0,invertedtriangleyellow.gif,stop,,,,,,,,,,,,,,,,,,,,,,,,,,,,,,,0,0.514416217804,0.000917196273804,0.451014995575,1,a,1120.88971019,,,,,,,,,,,,,,,,,,,,,,,,,,,,,,,,,,,,,,,,,,,,,,,,,,,,,,2015_Jul_02_1246,59.9905315085,LearningTask,1,14,
200,s,-200,,,,,,,,,,,,,,,,,2,0,2,0,5,1,21,2,,,,,,,,,,,,,,,,,,,,,,,,,,,,,s,1,0.384449005127,None,0,,1.0,squarewhite.gif,go,,,,,,,,,,,,,,,,,,,,,,,,,,,,,,,0.87,0.514219045639,0.000879049301147,0.384449005127,1,s,1123.8931191,,,,,,,,,,,,,,,,,,,,,,,,,,,,,,,,,,,,,,,,,,,,,,,,,,,,,,2015_Jul_02_1246,59.9905315085,LearningTask,1,14,
-200,a,-200,,,,,,,,,,,,,,,,,2,0,2,0,5,2,22,3,,,,,,,,,,,,,,,,,,,,,,,,,,,,,a,1,0.383924007416,None,0,,0.5,hexagongray.gif,go,,,,,,,,,,,,,,,,,,,,,,,,,,,,,,,0,0.514164924622,0.00113797187805,0.383924007416,1,a,1126.89630198,,,,,,,,,,,,,,,,,,,,,,,,,,,,,,,,,,,,,,,,,,,,,,,,,,,,,,2015_Jul_02_1246,59.9905315085,LearningTask,1,14,
-200,a,-200,,,,,,,,,,,,,,,,,2,0,2,0,5,3,23,3,,,,,,,,,,,,,,,,,,,,,,,,,,,,,a,1,0.38446688652,None,0,,0.5,hexagongray.gif,go,,,,,,,,,,,,,,,,,,,,,,,,,,,,,,,0.4,0.513992071152,0.000883102416992,0.38446688652,1,a,1129.89972806,,,,,,,,,,,,,,,,,,,,,,,,,,,,,,,,,,,,,,,,,,,,,,,,,,,,,,2015_Jul_02_1246,59.9905315085,LearningTask,1,14,
-200,q,200,,,,,,,,,,,,,,,,,2,0,2,0,6,0,24,1,,,,,,,,,,,,,,,,,,,,,,,,,,,,,q,1,0.417719841003,None,0,,1.0,squarewhite.gif,go,,,,,,,,,,,,,,,,,,,,,,,,,,,,,,,1.13,0.514465093613,0.000861883163452,0.417719841003,1,q,1132.90303516,,,,,,,,,,,,,,,,,,,,,,,,,,,,,,,,,,,,,,,,,,,,,,,,,,,,,,2015_Jul_02_1246,59.9905315085,LearningTask,1,14,
-200,a,-200,,,,,,,,,,,,,,,,,2,0,2,0,6,1,25,3,,,,,,,,,,,,,,,,,,,,,,,,,,,,,a,1,0.434449911118,None,0,,1.0,circlemagenta.gif,stop,,,,,,,,,,,,,,,,,,,,,,,,,,,,,,,1.25,0.513860940933,0.000925064086914,0.434449911118,1,a,1135.90670514,,,,,,,,,,,,,,,,,,,,,,,,,,,,,,,,,,,,,,,,,,,,,,,,,,,,,,2015_Jul_02_1246,59.9905315085,LearningTask,1,14,
200,w,200,,,,,,,,,,,,,,,,,2,0,2,0,6,2,26,0,,,,,,,,,,,,,,,,,,,,,,,,,,,,,w,1,0.484019994736,None,0,,0.5,diamondgreen.gif,stop,,,,,,,,,,,,,,,,,,,,,,,,,,,,,,,0.47,0.514063119888,0.000878095626831,0.484019994736,1,w,1138.90989518,,,,,,,,,,,,,,,,,,,,,,,,,,,,,,,,,,,,,,,,,,,,,,,,,,,,,,2015_Jul_02_1246,59.9905315085,LearningTask,1,14,
-200,a,-200,,,,,,,,,,,,,,,,,2,0,2,0,6,3,27,3,,,,,,,,,,,,,,,,,,,,,,,,,,,,,a,1,0.400813102722,None,0,,1.0,squarewhite.gif,go,,,,,,,,,,,,,,,,,,,,,,,,,,,,,,,0,0.514297962189,0.000874042510986,0.400813102722,1,a,1141.91381407,,,,,,,,,,,,,,,,,,,,,,,,,,,,,,,,,,,,,,,,,,,,,,,,,,,,,,2015_Jul_02_1246,59.9905315085,LearningTask,1,14,
200,s,-200,,,,,,,,,,,,,,,,,2,0,2,0,7,0,28,2,,,,,,,,,,,,,,,,,,,,,,,,,,,,,s,1,0.567773103714,None,0,,0.5,hexagongray.gif,go,,,,,,,,,,,,,,,,,,,,,,,,,,,,,,,0.39,0.513557910919,0.000915050506592,0.567773103714,1,s,1144.91679811,,,,,,,,,,,,,,,,,,,,,,,,,,,,,,,,,,,,,,,,,,,,,,,,,,,,,,2015_Jul_02_1246,59.9905315085,LearningTask,1,14,
-200,q,200,,,,,,,,,,,,,,,,,2,0,2,0,7,1,29,1,,,,,,,,,,,,,,,,,,,,,,,,,,,,,q,1,0.501384019852,None,0,,1.0,circlemagenta.gif,stop,,,,,,,,,,,,,,,,,,,,,,,,,,,,,,,1.08,0.513943910599,0.000880002975464,0.501384019852,1,q,1147.92002606,,,,,,,,,,,,,,,,,,,,,,,,,,,,,,,,,,,,,,,,,,,,,,,,,,,,,,2015_Jul_02_1246,59.9905315085,LearningTask,1,14,
-200,a,-200,,,,,,,,,,,,,,,,,2,0,2,0,7,2,30,3,,,,,,,,,,,,,,,,,,,,,,,,,,,,,a,1,0.484858989716,None,0,,0.5,diamondgreen.gif,stop,,,,,,,,,,,,,,,,,,,,,,,,,,,,,,,0.39,0.514192819595,0.000875949859619,0.484858989716,1,a,1150.92387795,,,,,,,,,,,,,,,,,,,,,,,,,,,,,,,,,,,,,,,,,,,,,,,,,,,,,,2015_Jul_02_1246,59.9905315085,LearningTask,1,14,
200,s,-200,,,,,,,,,,,,,,,,,2,0,2,0,7,3,31,2,,,,,,,,,,,,,,,,,,,,,,,,,,,,,s,1,0.434470891953,None,0,,2.0,crossblue.gif,stop,,,,,,,,,,,,,,,,,,,,,,,,,,,,,,,1.82,0.513540029526,0.00106596946716,0.434470891953,1,s,1153.92691302,,,,,,,,,,,,,,,,,,,,,,,,,,,,,,,,,,,,,,,,,,,,,,,,,,,,,,2015_Jul_02_1246,59.9905315085,LearningTask,1,14,
-200,q,200,,,,,,,,,,,,,,,,,2,0,2,0,8,0,32,1,,,,,,,,,,,,,,,,,,,,,,,,,,,,,q,1,0.400752782822,None,0,,0.5,hexagongray.gif,go,,,,,,,,,,,,,,,,,,,,,,,,,,,,,,,0.75,0.51420378685,0.00088095664978,0.400752782822,1,q,1156.9302001,,,,,,,,,,,,,,,,,,,,,,,,,,,,,,,,,,,,,,,,,,,,,,,,,,,,,,2015_Jul_02_1246,59.9905315085,LearningTask,1,14,
-200,q,200,,,,,,,,,,,,,,,,,2,0,2,0,8,1,33,1,,,,,,,,,,,,,,,,,,,,,,,,,,,,,q,1,0.417635917664,None,0,,0.5,hexagongray.gif,go,,,,,,,,,,,,,,,,,,,,,,,,,,,,,,,0,0.514255046844,0.000993013381958,0.417635917664,1,q,1159.93385005,,,,,,,,,,,,,,,,,,,,,,,,,,,,,,,,,,,,,,,,,,,,,,,,,,,,,,2015_Jul_02_1246,59.9905315085,LearningTask,1,14,
200,s,-200,,,,,,,,,,,,,,,,,2,0,2,0,8,2,34,2,,,,,,,,,,,,,,,,,,,,,,,,,,,,,s,1,0.368046045303,None,0,,1.0,squarewhite.gif,go,,,,,,,,,,,,,,,,,,,,,,,,,,,,,,,1.15,0.513741016388,0.000869989395142,0.368046045303,1,s,1162.93687105,,,,,,,,,,,,,,,,,,,,,,,,,,,,,,,,,,,,,,,,,,,,,,,,,,,,,,2015_Jul_02_1246,59.9905315085,LearningTask,1,14,
200,w,200,,,,,,,,,,,,,,,,,2,0,2,0,8,3,35,0,,,,,,,,,,,,,,,,,,,,,,,,,,,,,w,1,0.551143169403,None,0,,2.0,triangleorange.gif,go,,,,,,,,,,,,,,,,,,,,,,,,,,,,,,,2.19,0.514226913452,0.00105690956116,0.551143169403,1,w,1165.94064903,,,,,,,,,,,,,,,,,,,,,,,,,,,,,,,,,,,,,,,,,,,,,,,,,,,,,,2015_Jul_02_1246,59.9905315085,LearningTask,1,14,
-200,q,200,,,,,,,,,,,,,,,,,2,0,2,0,9,0,36,1,,,,,,,,,,,,,,,,,,,,,,,,,,,,,q,1,0.418161869049,None,0,,1.0,squarewhite.gif,go,,,,,,,,,,,,,,,,,,,,,,,,,,,,,,,1.1,0.513707876205,0.000891923904419,0.418161869049,1,q,1168.94374013,,,,,,,,,,,,,,,,,,,,,,,,,,,,,,,,,,,,,,,,,,,,,,,,,,,,,,2015_Jul_02_1246,59.9905315085,LearningTask,1,14,
-200,a,-200,,,,,,,,,,,,,,,,,2,0,2,0,9,1,37,3,,,,,,,,,,,,,,,,,,,,,,,,,,,,,a,1,0.434597969055,None,0,,4.0,invertedtriangleyellow.gif,stop,,,,,,,,,,,,,,,,,,,,,,,,,,,,,,,3.93,0.514183044434,0.000880002975464,0.434597969055,1,a,1171.94712496,,,,,,,,,,,,,,,,,,,,,,,,,,,,,,,,,,,,,,,,,,,,,,,,,,,,,,2015_Jul_02_1246,59.9905315085,LearningTask,1,14,
-200,q,200,,,,,,,,,,,,,,,,,2,0,2,0,9,2,38,1,,,,,,,,,,,,,,,,,,,,,,,,,,,,,q,1,0.367574930191,None,0,,1.0,circlemagenta.gif,stop,,,,,,,,,,,,,,,,,,,,,,,,,,,,,,,0,0.513846158981,0.00106811523438,0.367574930191,1,q,1174.95054007,,,,,,,,,,,,,,,,,,,,,,,,,,,,,,,,,,,,,,,,,,,,,,,,,,,,,,2015_Jul_02_1246,59.9905315085,LearningTask,1,14,
-200,a,-200,,,,,,,,,,,,,,,,,2,0,2,0,9,3,39,3,,,,,,,,,,,,,,,,,,,,,,,,,,,,,a,1,0.434103012085,None,0,,4.0,linecyan.gif,go,,,,,,,,,,,,,,,,,,,,,,,,,,,,,,,3.82,0.514399051666,0.0016782283783,0.434103012085,1,a,1177.953825,,,,,,,,,,,,,,,,,,,,,,,,,,,,,,,,,,,,,,,,,,,,,,,,,,,,,,2015_Jul_02_1246,59.9905315085,LearningTask,1,14,
-200,a,-200,,,,,,,,,,,,,,,,,2,0,2,0,10,0,40,3,,,,,,,,,,,,,,,,,,,,,,,,,,,,,a,1,0.384279966354,None,0,,0.5,hexagongray.gif,go,,,,,,,,,,,,,,,,,,,,,,,,,,,,,,,0.31,0.514271974564,0.000886917114258,0.384279966354,1,a,1180.95742011,,,,,,,,,,,,,,,,,,,,,,,,,,,,,,,,,,,,,,,,,,,,,,,,,,,,,,2015_Jul_02_1246,59.9905315085,LearningTask,1,14,
-200,q,200,,,,,,,,,,,,,,,,,2,0,2,0,10,1,41,1,,,,,,,,,,,,,,,,,,,,,,,,,,,,,q,1,0.417076826096,None,0,,0.5,diamondgreen.gif,stop,,,,,,,,,,,,,,,,,,,,,,,,,,,,,,,0.54,0.513990163803,0.000916004180908,0.417076826096,1,q,1183.96062613,,,,,,,,,,,,,,,,,,,,,,,,,,,,,,,,,,,,,,,,,,,,,,,,,,,,,,2015_Jul_02_1246,59.9905315085,LearningTask,1,14,
-200,a,-200,,,,,,,,,,,,,,,,,2,0,2,0,10,2,42,3,,,,,,,,,,,,,,,,,,,,,,,,,,,,,a,1,0.417749881744,None,0,,1.0,squarewhite.gif,go,,,,,,,,,,,,,,,,,,,,,,,,,,,,,,,0,0.51433300972,0.000871896743774,0.417749881744,1,a,1186.96420097,,,,,,,,,,,,,,,,,,,,,,,,,,,,,,,,,,,,,,,,,,,,,,,,,,,,,,2015_Jul_02_1246,59.9905315085,LearningTask,1,14,
200,s,-200,,,,,,,,,,,,,,,,,2,0,2,0,10,3,43,2,,,,,,,,,,,,,,,,,,,,,,,,,,,,,s,1,0.717679023743,None,0,,1.0,squarewhite.gif,go,,,,,,,,,,,,,,,,,,,,,,,,,,,,,,,1.14,0.514028072357,0.000868082046509,0.717679023743,1,s,1189.967695,,,,,,,,,,,,,,,,,,,,,,,,,,,,,,,,,,,,,,,,,,,,,,,,,,,,,,2015_Jul_02_1246,59.9905315085,LearningTask,1,14,
200,w,200,,,,,,,,,,,,,,,,,2,0,2,0,11,0,44,0,,,,,,,,,,,,,,,,,,,,,,,,,,,,,w,1,0.433750867844,None,0,,1.0,circlemagenta.gif,stop,,,,,,,,,,,,,,,,,,,,,,,,,,,,,,,0.92,0.51390004158,0.000906944274902,0.433750867844,1,w,1192.970927,,,,,,,,,,,,,,,,,,,,,,,,,,,,,,,,,,,,,,,,,,,,,,,,,,,,,,2015_Jul_02_1246,59.9905315085,LearningTask,1,14,
200,w,200,,,,,,,,,,,,,,,,,2,0,2,0,11,1,45,0,,,,,,,,,,,,,,,,,,,,,,,,,,,,,w,1,0.384558916092,None,0,,0.5,diamondgreen.gif,stop,,,,,,,,,,,,,,,,,,,,,,,,,,,,,,,0.29,0.513884067535,0.000879049301147,0.384558916092,1,w,1195.97397518,,,,,,,,,,,,,,,,,,,,,,,,,,,,,,,,,,,,,,,,,,,,,,,,,,,,,,2015_Jul_02_1246,59.9905315085,LearningTask,1,14,
-200,q,200,,,,,,,,,,,,,,,,,2,0,2,0,11,2,46,1,,,,,,,,,,,,,,,,,,,,,,,,,,,,,q,1,0.36720085144,None,0,,0.5,hexagongray.gif,go,,,,,,,,,,,,,,,,,,,,,,,,,,,,,,,0.27,0.514595031738,0.00130105018616,0.36720085144,1,q,1198.97777009,,,,,,,,,,,,,,,,,,,,,,,,,,,,,,,,,,,,,,,,,,,,,,,,,,,,,,2015_Jul_02_1246,59.9905315085,LearningTask,1,14,
-200,a,-200,,,,,,,,,,,,,,,,,2,0,2,0,11,3,47,3,,,,,,,,,,,,,,,,,,,,,,,,,,,,,a,1,0.384160995483,None,0,,2.0,triangleorange.gif,go,,,,,,,,,,,,,,,,,,,,,,,,,,,,,,,2.07,0.513732910156,0.00088906288147,0.384160995483,1,a,1201.98094106,,,,,,,,,,,,,,,,,,,,,,,,,,,,,,,,,,,,,,,,,,,,,,,,,,,,,,2015_Jul_02_1246,59.9905315085,LearningTask,1,14,
200,s,-200,,,,,,,,,,,,,,,,,2,0,2,0,12,0,48,2,,,,,,,,,,,,,,,,,,,,,,,,,,,,,s,1,0.417479991913,None,0,,4.0,linecyan.gif,go,,,,,,,,,,,,,,,,,,,,,,,,,,,,,,,4.13,0.514029979706,0.000949859619141,0.417479991913,1,s,1204.98405409,,,,,,,,,,,,,,,,,,,,,,,,,,,,,,,,,,,,,,,,,,,,,,,,,,,,,,2015_Jul_02_1246,59.9905315085,LearningTask,1,14,
200,s,-200,,,,,,,,,,,,,,,,,2,0,2,0,12,1,49,2,,,,,,,,,,,,,,,,,,,,,,,,,,,,,s,1,0.434062004089,None,0,,4.0,invertedtriangleyellow.gif,stop,,,,,,,,,,,,,,,,,,,,,,,,,,,,,,,3.92,0.51469707489,0.00093412399292,0.434062004089,1,s,1207.98774815,,,,,,,,,,,,,,,,,,,,,,,,,,,,,,,,,,,,,,,,,,,,,,,,,,,,,,2015_Jul_02_1246,59.9905315085,LearningTask,1,14,
-200,a,-200,,,,,,,,,,,,,,,,,2,0,2,0,12,2,50,3,,,,,,,,,,,,,,,,,,,,,,,,,,,,,a,1,0.367949962616,None,0,,1.0,circlemagenta.gif,stop,,,,,,,,,,,,,,,,,,,,,,,,,,,,,,,1.02,0.514019966125,0.000882863998413,0.367949962616,1,a,1210.99102116,,,,,,,,,,,,,,,,,,,,,,,,,,,,,,,,,,,,,,,,,,,,,,,,,,,,,,2015_Jul_02_1246,59.9905315085,LearningTask,1,14,
200,s,-200,,,,,,,,,,,,,,,,,2,0,2,0,12,3,51,2,,,,,,,,,,,,,,,,,,,,,,,,,,,,,s,1,0.43418598175,None,0,,4.0,invertedtriangleyellow.gif,stop,,,,,,,,,,,,,,,,,,,,,,,,,,,,,,,4.11,0.514346837997,0.00117087364197,0.43418598175,1,s,1213.99425817,,,,,,,,,,,,,,,,,,,,,,,,,,,,,,,,,,,,,,,,,,,,,,,,,,,,,,2015_Jul_02_1246,59.9905315085,LearningTask,1,14,
200,w,200,,,,,,,,,,,,,,,,,2,0,2,0,13,0,52,0,,,,,,,,,,,,,,,,,,,,,,,,,,,,,w,1,0.534455060959,None,0,,2.0,crossblue.gif,stop,,,,,,,,,,,,,,,,,,,,,,,,,,,,,,,2.14,0.514132976532,0.000908136367798,0.534455060959,1,w,1216.99765515,,,,,,,,,,,,,,,,,,,,,,,,,,,,,,,,,,,,,,,,,,,,,,,,,,,,,,2015_Jul_02_1246,59.9905315085,LearningTask,1,14,
200,s,-200,,,,,,,,,,,,,,,,,2,0,2,0,13,1,53,2,,,,,,,,,,,,,,,,,,,,,,,,,,,,,s,1,0.400671005249,None,0,,0.5,diamondgreen.gif,stop,,,,,,,,,,,,,,,,,,,,,,,,,,,,,,,0.32,0.5143699646,0.000885963439941,0.400671005249,1,s,1220.00078511,,,,,,,,,,,,,,,,,,,,,,,,,,,,,,,,,,,,,,,,,,,,,,,,,,,,,,2015_Jul_02_1246,59.9905315085,LearningTask,1,14,
200,w,200,,,,,,,,,,,,,,,,,2,0,2,0,13,2,54,0,,,,,,,,,,,,,,,,,,,,,,,,,,,,,w,1,0.550858974457,None,0,,4.0,linecyan.gif,go,,,,,,,,,,,,,,,,,,,,,,,,,,,,,,,0,0.514311075211,0.00108098983765,0.550858974457,1,w,1223.00468802,,,,,,,,,,,,,,,,,,,,,,,,,,,,,,,,,,,,,,,,,,,,,,,,,,,,,,2015_Jul_02_1246,59.9905315085,LearningTask,1,14,
-200,q,200,,,,,,,,,,,,,,,,,2,0,2,0,13,3,55,1,,,,,,,,,,,,,,,,,,,,,,,,,,,,,q,1,0.401023864746,None,0,,1.0,squarewhite.gif,go,,,,,,,,,,,,,,,,,,,,,,,,,,,,,,,0,0.513936042786,0.00087308883667,0.434588909149,0,a,1226.00775814,0,0.515432834625,0.000934839248657,0.401023864746,1,q,1229.01172614,,,,,,,,,,,,,,,,,,,,,,,,,,,,,,,,,,,,,,,,,,,,,,,2015_Jul_02_1246,59.9905315085,LearningTask,1,14,
200,w,200,,,,,,,,,,,,,,,,,2,0,2,0,14,0,56,0,,,,,,,,,,,,,,,,,,,,,,,,,,,,,w,1,0.467765808105,None,0,,4.0,linecyan.gif,go,,,,,,,,,,,,,,,,,,,,,,,,,,,,,,,4.22,0.513674020767,0.000893115997314,0.467765808105,1,w,1232.01455498,,,,,,,,,,,,,,,,,,,,,,,,,,,,,,,,,,,,,,,,,,,,,,,,,,,,,,2015_Jul_02_1246,59.9905315085,LearningTask,1,14,
-200,q,200,,,,,,,,,,,,,,,,,2,0,2,0,14,1,57,1,,,,,,,,,,,,,,,,,,,,,,,,,,,,,q,1,0.367827177048,None,0,,1.0,squarewhite.gif,go,,,,,,,,,,,,,,,,,,,,,,,,,,,,,,,0.93,0.514006853104,0.00086784362793,0.367827177048,1,q,1235.01800704,,,,,,,,,,,,,,,,,,,,,,,,,,,,,,,,,,,,,,,,,,,,,,,,,,,,,,2015_Jul_02_1246,59.9905315085,LearningTask,1,14,
200,s,-200,,,,,,,,,,,,,,,,,2,0,2,0,14,2,58,2,,,,,,,,,,,,,,,,,,,,,,,,,,,,,s,1,0.450921058655,None,0,,4.0,linecyan.gif,go,,,,,,,,,,,,,,,,,,,,,,,,,,,,,,,3.78,0.514245986938,0.000880002975464,0.450921058655,1,s,1238.02181315,,,,,,,,,,,,,,,,,,,,,,,,,,,,,,,,,,,,,,,,,,,,,,,,,,,,,,2015_Jul_02_1246,59.9905315085,LearningTask,1,14,
200,w,200,,,,,,,,,,,,,,,,,2,0,2,0,14,3,59,0,,,,,,,,,,,,,,,,,,,,,,,,,,,,,w,1,0.434561014175,None,0,,4.0,invertedtriangleyellow.gif,stop,,,,,,,,,,,,,,,,,,,,,,,,,,,,,,,3.84,0.513739109039,0.000883102416992,0.434561014175,1,w,1241.02463317,,,,,,,,,,,,,,,,,,,,,,,,,,,,,,,,,,,,,,,,,,,,,,,,,,,,,,2015_Jul_02_1246,59.9905315085,LearningTask,1,14,
-200,a,-200,,,,,,,,,,,,,,,,,2,0,2,0,15,0,60,3,,,,,,,,,,,,,,,,,,,,,,,,,,,,,a,1,0.450988054276,None,0,,2.0,triangleorange.gif,go,,,,,,,,,,,,,,,,,,,,,,,,,,,,,,,2.08,0.514382123947,0.000946044921875,0.450988054276,1,a,1244.02814817,,,,,,,,,,,,,,,,,,,,,,,,,,,,,,,,,,,,,,,,,,,,,,,,,,,,,,2015_Jul_02_1246,59.9905315085,LearningTask,1,14,
-200,a,-200,,,,,,,,,,,,,,,,,2,0,2,0,15,1,61,3,,,,,,,,,,,,,,,,,,,,,,,,,,,,,a,1,0.434507846832,None,0,,2.0,crossblue.gif,stop,,,,,,,,,,,,,,,,,,,,,,,,,,,,,,,2.22,0.514231920242,0.000932931900024,0.434507846832,1,a,1247.03206301,,,,,,,,,,,,,,,,,,,,,,,,,,,,,,,,,,,,,,,,,,,,,,,,,,,,,,2015_Jul_02_1246,59.9905315085,LearningTask,1,14,
200,s,-200,,,,,,,,,,,,,,,,,2,0,2,0,15,2,62,2,,,,,,,,,,,,,,,,,,,,,,,,,,,,,s,1,0.450803995132,None,0,,2.0,triangleorange.gif,go,,,,,,,,,,,,,,,,,,,,,,,,,,,,,,,2.18,0.513840913773,0.000875949859619,0.450803995132,1,s,1250.03473496,,,,,,,,,,,,,,,,,,,,,,,,,,,,,,,,,,,,,,,,,,,,,,,,,,,,,,2015_Jul_02_1246,59.9905315085,LearningTask,1,14,
200,s,-200,,,,,,,,,,,,,,,,,2,0,2,0,15,3,63,2,,,,,,,,,,,,,,,,,,,,,,,,,,,,,s,1,0.434580087662,None,0,,4.0,invertedtriangleyellow.gif,stop,,,,,,,,,,,,,,,,,,,,,,,,,,,,,,,4.24,0.514346122742,0.000964164733887,0.434580087662,1,s,1253.03791714,,,,,,,,,,,,,,,,,,,,,,,,,,,,,,,,,,,,,,,,,,,,,,,,,,,,,,2015_Jul_02_1246,59.9905315085,LearningTask,1,14,
200,w,200,,,,,,,,,,,,,,,,,2,0,2,0,16,0,64,0,,,,,,,,,,,,,,,,,,,,,,,,,,,,,w,1,0.534102201462,None,0,,1.0,squarewhite.gif,go,,,,,,,,,,,,,,,,,,,,,,,,,,,,,,,1.13,0.51447892189,0.000988960266113,0.534102201462,1,w,1256.04159808,,,,,,,,,,,,,,,,,,,,,,,,,,,,,,,,,,,,,,,,,,,,,,,,,,,,,,2015_Jul_02_1246,59.9905315085,LearningTask,1,14,
200,s,-200,,,,,,,,,,,,,,,,,2,0,2,0,16,1,65,2,,,,,,,,,,,,,,,,,,,,,,,,,,,,,s,1,0.400651216507,None,0,,4.0,invertedtriangleyellow.gif,stop,,,,,,,,,,,,,,,,,,,,,,,,,,,,,,,4.08,0.514289855957,0.000874996185303,0.400651216507,1,s,1259.045228,,,,,,,,,,,,,,,,,,,,,,,,,,,,,,,,,,,,,,,,,,,,,,,,,,,,,,2015_Jul_02_1246,59.9905315085,LearningTask,1,14,
-200,a,-200,,,,,,,,,,,,,,,,,2,0,2,0,16,2,66,3,,,,,,,,,,,,,,,,,,,,,,,,,,,,,a,1,0.500960111618,None,0,,2.0,triangleorange.gif,go,,,,,,,,,,,,,,,,,,,,,,,,,,,,,,,2.04,0.513558864594,0.000931978225708,0.500960111618,1,a,1262.04861498,,,,,,,,,,,,,,,,,,,,,,,,,,,,,,,,,,,,,,,,,,,,,,,,,,,,,,2015_Jul_02_1246,59.9905315085,LearningTask,1,14,
