xPos,corrAns,yPos,corrGoResp,yPosGoStim,xPosGoStim,pracTrials.thisRepN,pracTrials.thisTrialN,pracTrials.thisN,pracTrials.thisIndex,ReDoLoopPrac.thisRepN,ReDoLoopPrac.thisTrialN,ReDoLoopPrac.thisN,ReDoLoopPrac.thisIndex,ReDoLoopPrac.thisTrial,pracStopTrials.thisRepN,pracStopTrials.thisTrialN,pracStopTrials.thisN,pracStopTrials.thisIndex,Blocks.thisRepN,Blocks.thisTrialN,Blocks.thisN,Blocks.thisIndex,trials.thisRepN,trials.thisTrialN,trials.thisN,trials.thisIndex,ReDoLoopMain.thisRepN,ReDoLoopMain.thisTrialN,ReDoLoopMain.thisN,ReDoLoopMain.thisIndex,ReDoLoopMain.thisTrial,StopBlocks.thisRepN,StopBlocks.thisTrialN,StopBlocks.thisN,StopBlocks.thisIndex,StopTrials.thisRepN,StopTrials.thisTrialN,StopTrials.thisN,StopTrials.thisIndex,auctionBlocks.thisRepN,auctionBlocks.thisTrialN,auctionBlocks.thisN,auctionBlocks.thisIndex,auctionTrials.thisRepN,auctionTrials.thisTrialN,auctionTrials.thisN,auctionTrials.thisIndex,learningTrialList,learningPracTrialList,stopTrialList,stopPracTrialList,auctionTrialList,ok1.keys,ok1.rt,resp.keys,resp.corr,feedbackResp.keys,feedbackResp.corr,feedbackResp.rt,currentReward,currentStimulus,currentStimType,firstPracComputedRewardOutput,firstPracLearningStimOnset,firstPracLearningFixOnset,firstPracPresentationRT,firstPracPresentationAcc,firstPracPresentationResp,firstPracEndTrialTimeStamp,resp.rt,secondPracComputedRewardOutput,secondPracLearningStimOnset,secondPracLearningFixOnset,secondPracPresentationRT,secondPracPresentationAcc,secondPracPresentationResp,secondPracEndTrialTimeStamp,StartTrialTimeStamp,trialType,goStim,stimType,stopStimValue,goResp.keys,goResp.corr,goResp.rt,key_resp_9.keys,key_resp_9.corr,fixStopOnset,goStimOnset,stopSignalOnset,EndTrialTimeStamp,key_resp_3.keys,key_resp_3.rt,firstComputedRewardOutput,firstLearningStimOnset,firstLearningFixOnset,firstPresentationRT,firstPresentationAcc,firstPresentationResp,firstEndTrialTimeStamp,key_resp_7.keys,key_resp_7.rt,beginningSSD,EndingSSD,key_resp_9.rt,key_resp_4.keys,key_resp_4.rt,auctionResponse.keys,auctionResponse.rt,auctionStimDuration,auctionStim,auctionAmounts,auctionStimValue,auctionCondition,chosenAuctionAmount,key_resp_5.keys,key_resp_5.rt,shuffledRewardList,chosenReward1,chosenReward2,chosenReward3,chosenReward4,chosenReward5,key_resp_6.keys,key_resp_6.rt,date,frameRate,expName,session,participant,
,,,,,,,,,,,,,,,,,,,,,,,,,,,,,,,,,,,,,,,,,,,,,,,,[],[],[],[],[],9,101.56744194,,,,,,,,,,,,,,,,,,,,,,,,,,,,,,,,,,,,,,,,,,,,,,,,,,,,,,,,,,,,,,,,,,,,,,,,2015_Jun_23_1140,59.9610295852,LearningTask,1,15,
-200,a,-200,,,,0,0,0,3,,,,,,,,,,,,,,,,,,,,,,,,,,,,,,,,,,,,,,,,,,,,,,a,1,None,0,0.0578429698944,2.0,invertedtriangleyellow.gif,go,0,0.507192850113,0.0210268497467,[],0,None,122.077363014,0.567468881607,1.86,0.515612840652,0.00118184089661,0.567468881607,1,a,125.080601931,,,,,,,,,,,,,,,,,,,,,,,,,,,,,,,,,,,,,,,,,,,,,,,,,2015_Jun_23_1140,59.9610295852,LearningTask,1,15,
200,w,200,,,,0,1,1,0,,,,,,,,,,,,,,,,,,,,,,,,,,,,,,,,,,,,,,,,,,,,,,w,1,None,0,,2.0,invertedtriangleyellow.gif,go,2.15,0.514720916748,0.000894069671631,0.551057100296,1,w,128.083502054,0.551057100296,,,,,,,,,,,,,,,,,,,,,,,,,,,,,,,,,,,,,,,,,,,,,,,,,,,,,,,,2015_Jun_23_1140,59.9610295852,LearningTask,1,15,
200,w,200,,,,0,2,2,4,,,,,,,,,,,,,,,,,,,,,,,,,,,,,,,,,,,,,,,,,,,,,,w,1,None,0,,0.5,hexagongreen.gif,go,0.35,0.515287876129,0.00130987167358,0.534335136414,1,w,131.087188005,0.534335136414,,,,,,,,,,,,,,,,,,,,,,,,,,,,,,,,,,,,,,,,,,,,,,,,,,,,,,,,2015_Jun_23_1140,59.9610295852,LearningTask,1,15,
200,w,200,,,,0,3,3,8,,,,,,,,,,,,,,,,,,,,,,,,,,,,,,,,,,,,,,,,,,,,,,w,1,None,0,,4.0,diamondmagenta.gif,go,0,0.51460814476,0.00138115882874,0.367506980896,1,w,134.090370893,0.367506980896,,,,,,,,,,,,,,,,,,,,,,,,,,,,,,,,,,,,,,,,,,,,,,,,,,,,,,,,2015_Jun_23_1140,59.9610295852,LearningTask,1,15,
-200,q,200,,,,0,4,4,5,,,,,,,,,,,,,,,,,,,,,,,,,,,,,,,,,,,,,,,,,,,,,,q,1,None,0,,1.0,triangleorange.gif,stop,0.82,0.515158891678,0.00130796432495,0.467772006989,1,q,137.094008923,0.467772006989,,,,,,,,,,,,,,,,,,,,,,,,,,,,,,,,,,,,,,,,,,,,,,,,,,,,,,,,2015_Jun_23_1140,59.9610295852,LearningTask,1,15,
200,s,-200,,,,0,5,5,6,,,,,,,,,,,,,,,,,,,,,,,,,,,,,,,,,,,,,,,,,,,,,,s,1,None,0,,2.0,invertedtriangleyellow.gif,go,2.09,0.514762163162,0.00127911567688,0.434714078903,1,s,140.096966982,0.434714078903,,,,,,,,,,,,,,,,,,,,,,,,,,,,,,,,,,,,,,,,,,,,,,,,,,,,,,,,2015_Jun_23_1140,59.9610295852,LearningTask,1,15,
-200,q,200,,,,0,6,6,9,,,,,,,,,,,,,,,,,,,,,,,,,,,,,,,,,,,,,,,,,,,,,,q,1,None,0,,0.5,hexagongreen.gif,go,0.27,0.515064001083,0.00091290473938,0.43413901329,1,q,143.100445986,0.43413901329,,,,,,,,,,,,,,,,,,,,,,,,,,,,,,,,,,,,,,,,,,,,,,,,,,,,,,,,2015_Jun_23_1140,59.9610295852,LearningTask,1,15,
-200,a,-200,,,,0,7,7,7,,,,,,,,,,,,,,,,,,,,,,,,,,,,,,,,,,,,,,,,,,,,,,a,1,None,0,,4.0,crossblue.gif,stop,0,0.515038013458,0.00130200386047,0.434314012527,1,a,146.103632927,0.434314012527,,,,,,,,,,,,,,,,,,,,,,,,,,,,,,,,,,,,,,,,,,,,,,,,,,,,,,,,2015_Jun_23_1140,59.9610295852,LearningTask,1,15,
200,s,-200,,,,0,8,8,2,,,,,,,,,,,,,,,,,,,,,,,,,,,,,,,,,,,,,,,,,,,,,,s,1,None,0,,4.0,diamondmagenta.gif,go,4.05,0.51496219635,0.00100803375244,0.501384973526,1,s,149.107258081,0.501384973526,,,,,,,,,,,,,,,,,,,,,,,,,,,,,,,,,,,,,,,,,,,,,,,,,,,,,,,,2015_Jun_23_1140,59.9610295852,LearningTask,1,15,
-200,q,200,,,,0,9,9,1,,,,,,,,,,,,,,,,,,,,,,,,,,,,,,,,,,,,,,,,,,,,,,q,1,None,0,,2.0,invertedtriangleyellow.gif,go,0,0.51487493515,0.000922918319702,0.534327983856,1,q,152.110266924,0.534327983856,,,,,,,,,,,,,,,,,,,,,,,,,,,,,,,,,,,,,,,,,,,,,,,,,,,,,,,,2015_Jun_23_1140,59.9610295852,LearningTask,1,15,
,,,m,0,200,,,,,,,,,,0,0,0,1,,,,,,,,,,,,,,,,,,,,,,,,,,,,,,,,,,,,,,,,,,,,,,,,,,,,,,,,,,,,194.619739056,stop,crossblue.gif,stop,4.0,m,1,0.517910957336,None,0,0.00133800506592,0.504032850266,0.754240989685,197.61166501,,,,,,,,,,,,,,,,,,,,,,,,,,,,,,,,,,,2015_Jun_23_1140,59.9610295852,LearningTask,1,15,
,,,z,0,-200,,,,,,,,,,0,1,1,0,,,,,,,,,,,,,,,,,,,,,,,,,,,,,,,,,,,,,,,,,,,,,,,,,,,,,,,,,,,,197.612067938,stop,crossblue.gif,stop,4.0,None,0,,None,0,0.000960826873779,0.515472888947,0.765920877457,200.614793062,,,,,,,,,,,,,,,,,,,,,,,,,,,,,,,,,,,2015_Jun_23_1140,59.9610295852,LearningTask,1,15,
,,,z,0,-200,,,,,,,,,,1,0,2,0,,,,,,,,,,,,,,,,,,,,,,,,,,,,,,,,,,,,,,,,,,,,,,,,,,,,,,,,,,,,200.61518693,stop,circlewhite.gif,stop,2.0,None,0,,None,0,0.00146389007568,0.515752077103,0.766058921814,203.618244886,,,,,,,,,,,,,,,,,,,,,,,,,,,,,,,,,,,2015_Jun_23_1140,59.9610295852,LearningTask,1,15,
,,,m,0,200,,,,,,,,,,1,1,3,1,,,,,,,,,,,,,,,,,,,,,,,,,,,,,,,,,,,,,,,,,,,,,,,,,,,,,,,,,,,,203.618618965,stop,crossblue.gif,stop,4.0,m,1,0.467771053314,None,0,0.000958919525146,0.515800952911,0.766058921814,206.621788025,,,,,,,,,,,,,,,,,,,,,,,,,,,,,,,,,,,2015_Jun_23_1140,59.9610295852,LearningTask,1,15,
,,,m,0,200,,,,,,,,,,2,0,4,1,,,,,,,,,,,,,,,,,,,,,,,,,,,,,,,,,,,,,,,,,,,,,,,,,,,,,,,,,,,,206.622158051,go,diamondmagenta.gif,go,4.0,m,1,0.484467029572,None,0,0.000972986221313,0.515523910522,,209.624841928,,,,,,,,,,,,,,,,,,,,,,,,,,,,,,,,,,,2015_Jun_23_1140,59.9610295852,LearningTask,1,15,
,,,m,0,200,,,,,,,,,,2,1,5,1,,,,,,,,,,,,,,,,,,,,,,,,,,,,,,,,,,,,,,,,,,,,,,,,,,,,,,,,,,,,209.625217915,stop,triangleorange.gif,stop,1.0,None,0,,None,0,0.00102281570435,0.515968799591,0.766179800034,212.628190041,,,,,,,,,,,,,,,,,,,,,,,,,,,,,,,,,,,2015_Jun_23_1140,59.9610295852,LearningTask,1,15,
,,,z,0,-200,,,,,,,,,,3,0,6,0,,,,,,,,,,,,,,,,,,,,,,,,,,,,,,,,,,,,,,,,,,,,,,,,,,,,,,,,,,,,212.62857008,go,invertedtriangleyellow.gif,go,2.0,z,1,0.634902000427,None,0,0.00100684165955,0.515848875046,,215.631691933,,,,,,,,,,,,,,,,,,,,,,,,,,,,,,,,,,,2015_Jun_23_1140,59.9610295852,LearningTask,1,15,
,,,z,0,-200,,,,,,,,,,3,1,7,0,,,,,,,,,,,,,,,,,,,,,,,,,,,,,,,,,,,,,,,,,,,,,,,,,,,,,,,,,,,,215.632154942,go,invertedtriangleyellow.gif,go,2.0,z,1,0.634274959564,None,0,0.000998020172119,0.515580892563,,218.634950876,,,,,,,,,,,,,,,,,,,,,,,,,,,,,,,,,,,2015_Jun_23_1140,59.9610295852,LearningTask,1,15,
,,,m,0,200,,,,,,,,,,4,0,8,1,,,,,,,,,,,,,,,,,,,,,,,,,,,,,,,,,,,,,,,,,,,,,,,,,,,,,,,,,,,,218.635328054,stop,linecyan.gif,stop,0.5,None,0,,None,0,0.00132584571838,0.515921831131,0.765907049179,221.638581991,,,,,,,,,,,,,,,,,,,,,,,,,,,,,,,,,,,2015_Jun_23_1140,59.9610295852,LearningTask,1,15,
,,,z,0,-200,,,,,,,,,,4,1,9,0,,,,,,,,,,,,,,,,,,,,,,,,,,,,,,,,,,,,,,,,,,,,,,,,,,,,,,,,,,,,221.638953924,stop,triangleorange.gif,stop,1.0,z,1,0.450302839279,None,0,0.00137186050415,0.515775918961,0.766183853149,224.641929865,,,,,,,,,,,,,,,,,,,,,,,,,,,,,,,,,,,2015_Jun_23_1140,59.9610295852,LearningTask,1,15,
,,,,,,,,,,,,,,,,,,,,,,,,,,,,,,,,,,,,,,,,,,,,,,,,,,,,,,,,,,,,,,,,,,,,,,,,,,,,,,,,,,,,,,,,,,,,9,62.963299036,,,,,,,,,,,,,,,,,,,,,,,,,,,,,,,,,2015_Jun_23_1140,59.9610295852,LearningTask,1,15,
,,,,,,,,,,,,,,,,,,,,,,,,,,,,,,,,,,,,,,,,,,,,,,,,,,,,,9,3.03667807579,,,,,,,,,,,,,,,,,,,,,,,,,,,,,,,,,,,,,,,,,,,,,,,,,,,,,,,,,,,,,,,,,,,,,,,,2015_Jun_23_1140,59.9610295852,LearningTask,1,15,
200,s,-200,,,,,,,,,,,,,,,,,0,0,0,0,0,0,0,2,,,,,,,,,,,,,,,,,,,,,,,,,,,,,s,1,None,0,,1.0,squaregray.gif,go,,,,,,,,0.618134021759,,,,,,,,,,,,,,,,,,,,,,,,0,0.508081912994,0.00133085250854,0.618134021759,1,s,293.787405014,,,,,,,,,,,,,,,,,,,,,,,,,,2015_Jun_23_1140,59.9610295852,LearningTask,1,15,
200,w,200,,,,,,,,,,,,,,,,,0,0,0,0,0,1,1,0,,,,,,,,,,,,,,,,,,,,,,,,,,,,,w,1,None,0,,0.5,linecyan.gif,stop,,,,,,,,0.51767206192,,,,,,,,,,,,,,,,,,,,,,,,0,0.514042139053,0.000901222229004,0.51767206192,1,w,296.790364981,,,,,,,,,,,,,,,,,,,,,,,,,,2015_Jun_23_1140,59.9610295852,LearningTask,1,15,
200,w,200,,,,,,,,,,,,,,,,,0,0,0,0,0,2,2,0,,,,,,,,,,,,,,,,,,,,,,,,,,,,,w,1,None,0,,2.0,circlewhite.gif,stop,,,,,,,,0.433772087097,,,,,,,,,,,,,,,,,,,,,,,,0,0.514477014542,0.000916957855225,0.433772087097,1,w,299.793761969,,,,,,,,,,,,,,,,,,,,,,,,,,2015_Jun_23_1140,59.9610295852,LearningTask,1,15,
-200,q,200,,,,,,,,,,,,,,,,,0,0,0,0,0,3,3,1,,,,,,,,,,,,,,,,,,,,,,,,,,,,,q,1,None,0,,0.5,hexagongreen.gif,go,,,,,,,,0.484337091446,,,,,,,,,,,,,,,,,,,,,,,,0.46,0.514111995697,0.000907897949219,0.484337091446,1,q,302.797137976,,,,,,,,,,,,,,,,,,,,,,,,,,2015_Jun_23_1140,59.9610295852,LearningTask,1,15,
200,w,200,,,,,,,,,,,,,,,,,0,0,0,0,1,0,4,0,,,,,,,,,,,,,,,,,,,,,,,,,,,,,w,1,None,0,,1.0,triangleorange.gif,stop,,,,,,,,0.434278011322,,,,,,,,,,,,,,,,,,,,,,,,0,0.513828039169,0.00108194351196,0.434278011322,1,w,305.800670862,,,,,,,,,,,,,,,,,,,,,,,,,,2015_Jun_23_1140,59.9610295852,LearningTask,1,15,
200,s,-200,,,,,,,,,,,,,,,,,0,0,0,0,1,1,5,2,,,,,,,,,,,,,,,,,,,,,,,,,,,,,s,1,None,0,,4.0,crossblue.gif,stop,,,,,,,,0.434487104416,,,,,,,,,,,,,,,,,,,,,,,,3.79,0.513815164566,0.000915050506592,0.434487104416,1,s,308.803885937,,,,,,,,,,,,,,,,,,,,,,,,,,2015_Jun_23_1140,59.9610295852,LearningTask,1,15,
200,w,200,,,,,,,,,,,,,,,,,0,0,0,0,1,2,6,0,,,,,,,,,,,,,,,,,,,,,,,,,,,,,w,1,None,0,,1.0,triangleorange.gif,stop,,,,,,,,0.534539937973,,,,,,,,,,,,,,,,,,,,,,,,1.17,0.514227867126,0.000930070877075,0.534539937973,1,w,311.806962967,,,,,,,,,,,,,,,,,,,,,,,,,,2015_Jun_23_1140,59.9610295852,LearningTask,1,15,
-200,a,-200,,,,,,,,,,,,,,,,,0,0,0,0,1,3,7,3,,,,,,,,,,,,,,,,,,,,,,,,,,,,,a,1,None,0,,0.5,linecyan.gif,stop,,,,,,,,0.48436498642,,,,,,,,,,,,,,,,,,,,,,,,0.62,0.51429605484,0.000970125198364,0.48436498642,1,a,314.810956955,,,,,,,,,,,,,,,,,,,,,,,,,,2015_Jun_23_1140,59.9610295852,LearningTask,1,15,
200,s,-200,,,,,,,,,,,,,,,,,0,0,0,0,2,0,8,2,,,,,,,,,,,,,,,,,,,,,,,,,,,,,s,1,None,0,,4.0,diamondmagenta.gif,go,,,,,,,,0.467537879944,,,,,,,,,,,,,,,,,,,,,,,,3.86,0.513837099075,0.00101804733276,0.467537879944,1,s,317.813838005,,,,,,,,,,,,,,,,,,,,,,,,,,2015_Jun_23_1140,59.9610295852,LearningTask,1,15,
200,w,200,,,,,,,,,,,,,,,,,0,0,0,0,2,1,9,0,,,,,,,,,,,,,,,,,,,,,,,,,,,,,w,1,None,0,,2.0,invertedtriangleyellow.gif,go,,,,,,,,0.467617988586,,,,,,,,,,,,,,,,,,,,,,,,1.78,0.51442193985,0.00089693069458,0.467617988586,1,w,320.817178965,,,,,,,,,,,,,,,,,,,,,,,,,,2015_Jun_23_1140,59.9610295852,LearningTask,1,15,
-200,q,200,,,,,,,,,,,,,,,,,0,0,0,0,2,2,10,1,,,,,,,,,,,,,,,,,,,,,,,,,,,,,q,1,None,0,,1.0,triangleorange.gif,stop,,,,,,,,0.467600107193,,,,,,,,,,,,,,,,,,,,,,,,0.95,0.51429104805,0.000976085662842,0.467600107193,1,q,323.820714951,,,,,,,,,,,,,,,,,,,,,,,,,,2015_Jun_23_1140,59.9610295852,LearningTask,1,15,
-200,q,200,,,,,,,,,,,,,,,,,0,0,0,0,2,3,11,1,,,,,,,,,,,,,,,,,,,,,,,,,,,,,q,1,None,0,,2.0,invertedtriangleyellow.gif,go,,,,,,,,0.584197998047,,,,,,,,,,,,,,,,,,,,,,,,1.8,0.514061927795,0.000914812088013,0.584197998047,1,q,326.824019909,,,,,,,,,,,,,,,,,,,,,,,,,,2015_Jun_23_1140,59.9610295852,LearningTask,1,15,
200,s,-200,,,,,,,,,,,,,,,,,0,0,0,0,3,0,12,2,,,,,,,,,,,,,,,,,,,,,,,,,,,,,s,1,None,0,,0.5,linecyan.gif,stop,,,,,,,,0.467783212662,,,,,,,,,,,,,,,,,,,,,,,,0.51,0.514379024506,0.00108504295349,0.467783212662,1,s,329.827610016,,,,,,,,,,,,,,,,,,,,,,,,,,2015_Jun_23_1140,59.9610295852,LearningTask,1,15,
-200,a,-200,,,,,,,,,,,,,,,,,0,0,0,0,3,1,13,3,,,,,,,,,,,,,,,,,,,,,,,,,,,,,a,1,None,0,,2.0,invertedtriangleyellow.gif,go,,,,,,,,0.500741958618,,,,,,,,,,,,,,,,,,,,,,,,0,0.51425409317,0.00090503692627,0.500741958618,1,a,332.830761909,,,,,,,,,,,,,,,,,,,,,,,,,,2015_Jun_23_1140,59.9610295852,LearningTask,1,15,
200,s,-200,,,,,,,,,,,,,,,,,0,0,0,0,3,2,14,2,,,,,,,,,,,,,,,,,,,,,,,,,,,,,s,1,None,0,,1.0,squaregray.gif,go,,,,,,,,0.534879922867,,,,,,,,,,,,,,,,,,,,,,,,0.91,0.514199972153,0.000911951065063,0.534879922867,1,s,335.834097862,,,,,,,,,,,,,,,,,,,,,,,,,,2015_Jun_23_1140,59.9610295852,LearningTask,1,15,
-200,q,200,,,,,,,,,,,,,,,,,0,0,0,0,3,3,15,1,,,,,,,,,,,,,,,,,,,,,,,,,,,,,q,1,None,0,,0.5,hexagongreen.gif,go,,,,,,,,0.601066827774,,,,,,,,,,,,,,,,,,,,,,,,0.4,0.513848781586,0.00103282928467,0.601066827774,1,q,338.83762002,,,,,,,,,,,,,,,,,,,,,,,,,,2015_Jun_23_1140,59.9610295852,LearningTask,1,15,
200,w,200,,,,,,,,,,,,,,,,,0,0,0,0,4,0,16,0,,,,,,,,,,,,,,,,,,,,,,,,,,,,,w,1,None,0,,2.0,circlewhite.gif,stop,,,,,,,,0.550812005997,,,,,,,,,,,,,,,,,,,,,,,,1.98,0.514223098755,0.000910997390747,0.550812005997,1,w,341.840801954,,,,,,,,,,,,,,,,,,,,,,,,,,2015_Jun_23_1140,59.9610295852,LearningTask,1,15,
-200,a,-200,,,,,,,,,,,,,,,,,0,0,0,0,4,1,17,3,,,,,,,,,,,,,,,,,,,,,,,,,,,,,a,1,None,0,,0.5,linecyan.gif,stop,,,,,,,,0.517771959305,,,,,,,,,,,,,,,,,,,,,,,,0,0.51420712471,0.000908136367798,0.517771959305,1,a,344.844318867,,,,,,,,,,,,,,,,,,,,,,,,,,2015_Jun_23_1140,59.9610295852,LearningTask,1,15,
-200,a,-200,,,,,,,,,,,,,,,,,0,0,0,0,4,2,18,3,,,,,,,,,,,,,,,,,,,,,,,,,,,,,a,1,None,0,,1.0,triangleorange.gif,stop,,,,,,,,0.483933925629,,,,,,,,,,,,,,,,,,,,,,,,1.25,0.514168024063,0.000939846038818,0.483933925629,1,a,347.847881079,,,,,,,,,,,,,,,,,,,,,,,,,,2015_Jun_23_1140,59.9610295852,LearningTask,1,15,
-200,q,200,,,,,,,,,,,,,,,,,0,0,0,0,4,3,19,1,,,,,,,,,,,,,,,,,,,,,,,,,,,,,q,1,None,0,,1.0,squaregray.gif,go,,,,,,,,0.417880058289,,,,,,,,,,,,,,,,,,,,,,,,0.83,0.513964891434,0.000890016555786,0.417880058289,1,q,350.851054907,,,,,,,,,,,,,,,,,,,,,,,,,,2015_Jun_23_1140,59.9610295852,LearningTask,1,15,
200,s,-200,,,,,,,,,,,,,,,,,0,0,0,0,5,0,20,2,,,,,,,,,,,,,,,,,,,,,,,,,,,,,s,1,None,0,,0.5,hexagongreen.gif,go,,,,,,,,0.601172924042,,,,,,,,,,,,,,,,,,,,,,,,0.5,0.51423406601,0.000931978225708,0.601172924042,1,s,353.854618073,,,,,,,,,,,,,,,,,,,,,,,,,,2015_Jun_23_1140,59.9610295852,LearningTask,1,15,
200,s,-200,,,,,,,,,,,,,,,,,0,0,0,0,5,1,21,2,,,,,,,,,,,,,,,,,,,,,,,,,,,,,s,1,None,0,,2.0,invertedtriangleyellow.gif,go,,,,,,,,0.468086957932,,,,,,,,,,,,,,,,,,,,,,,,0,0.513819932938,0.000921010971069,0.468086957932,1,s,356.857835054,,,,,,,,,,,,,,,,,,,,,,,,,,2015_Jun_23_1140,59.9610295852,LearningTask,1,15,
200,w,200,,,,,,,,,,,,,,,,,0,0,0,0,5,2,22,0,,,,,,,,,,,,,,,,,,,,,,,,,,,,,w,1,None,0,,4.0,crossblue.gif,stop,,,,,,,,0.517832994461,,,,,,,,,,,,,,,,,,,,,,,,4.22,0.51432299614,0.00089693069458,0.517832994461,1,w,359.861047029,,,,,,,,,,,,,,,,,,,,,,,,,,2015_Jun_23_1140,59.9610295852,LearningTask,1,15,
200,s,-200,,,,,,,,,,,,,,,,,0,0,0,0,5,3,23,2,,,,,,,,,,,,,,,,,,,,,,,,,,,,,s,1,None,0,,4.0,diamondmagenta.gif,go,,,,,,,,0.417522907257,,,,,,,,,,,,,,,,,,,,,,,,3.78,0.514625072479,0.00101804733276,0.417522907257,1,s,362.864786863,,,,,,,,,,,,,,,,,,,,,,,,,,2015_Jun_23_1140,59.9610295852,LearningTask,1,15,
-200,q,200,,,,,,,,,,,,,,,,,0,0,0,0,6,0,24,1,,,,,,,,,,,,,,,,,,,,,,,,,,,,,q,1,None,0,,0.5,linecyan.gif,stop,,,,,,,,0.517559051514,,,,,,,,,,,,,,,,,,,,,,,,0.34,0.51442694664,0.00089693069458,0.517559051514,1,q,365.868048906,,,,,,,,,,,,,,,,,,,,,,,,,,2015_Jun_23_1140,59.9610295852,LearningTask,1,15,
-200,q,200,,,,,,,,,,,,,,,,,0,0,0,0,6,1,25,1,,,,,,,,,,,,,,,,,,,,,,,,,,,,,q,1,None,0,,1.0,triangleorange.gif,stop,,,,,,,,0.534312963486,,,,,,,,,,,,,,,,,,,,,,,,1.13,0.513938188553,0.00102710723877,0.534312963486,1,q,368.871145964,,,,,,,,,,,,,,,,,,,,,,,,,,2015_Jun_23_1140,59.9610295852,LearningTask,1,15,
-200,q,200,,,,,,,,,,,,,,,,,0,0,0,0,6,2,26,1,,,,,,,,,,,,,,,,,,,,,,,,,,,,,q,1,None,0,,0.5,linecyan.gif,stop,,,,,,,,0.534101009369,,,,,,,,,,,,,,,,,,,,,,,,0.74,0.514132022858,0.000967025756836,0.534101009369,1,q,371.87481904,,,,,,,,,,,,,,,,,,,,,,,,,,2015_Jun_23_1140,59.9610295852,LearningTask,1,15,
200,s,-200,,,,,,,,,,,,,,,,,0,0,0,0,6,3,27,2,,,,,,,,,,,,,,,,,,,,,,,,,,,,,s,1,None,0,,4.0,diamondmagenta.gif,go,,,,,,,,0.433791875839,,,,,,,,,,,,,,,,,,,,,,,,4.22,0.514046907425,0.00100207328796,0.433791875839,1,s,374.877872944,,,,,,,,,,,,,,,,,,,,,,,,,,2015_Jun_23_1140,59.9610295852,LearningTask,1,15,
-200,a,-200,,,,,,,,,,,,,,,,,0,0,0,0,7,0,28,3,,,,,,,,,,,,,,,,,,,,,,,,,,,,,a,1,None,0,,0.5,hexagongreen.gif,go,,,,,,,,0.467558145523,,,,,,,,,,,,,,,,,,,,,,,,0.3,0.514383792877,0.000952959060669,0.467558145523,1,a,377.881280899,,,,,,,,,,,,,,,,,,,,,,,,,,2015_Jun_23_1140,59.9610295852,LearningTask,1,15,
200,s,-200,,,,,,,,,,,,,,,,,0,0,0,0,7,1,29,2,,,,,,,,,,,,,,,,,,,,,,,,,,,,,s,1,None,0,,2.0,circlewhite.gif,stop,,,,,,,,0.484256982803,,,,,,,,,,,,,,,,,,,,,,,,2.02,0.51425909996,0.000903129577637,0.484256982803,1,s,380.884856939,,,,,,,,,,,,,,,,,,,,,,,,,,2015_Jun_23_1140,59.9610295852,LearningTask,1,15,
-200,a,-200,,,,,,,,,,,,,,,,,0,0,0,0,7,2,30,3,,,,,,,,,,,,,,,,,,,,,,,,,,,,,a,1,None,0,,2.0,invertedtriangleyellow.gif,go,,,,,,,,0.434502124786,,,,,,,,,,,,,,,,,,,,,,,,2.03,0.513857841492,0.000974893569946,0.434502124786,1,a,383.888038874,,,,,,,,,,,,,,,,,,,,,,,,,,2015_Jun_23_1140,59.9610295852,LearningTask,1,15,
200,s,-200,,,,,,,,,,,,,,,,,0,0,0,0,7,3,31,2,,,,,,,,,,,,,,,,,,,,,,,,,,,,,s,1,None,0,,2.0,circlewhite.gif,stop,,,,,,,,0.351103782654,,,,,,,,,,,,,,,,,,,,,,,,0,0.514055013657,0.00108122825623,0.351103782654,1,s,386.891354084,,,,,,,,,,,,,,,,,,,,,,,,,,2015_Jun_23_1140,59.9610295852,LearningTask,1,15,
200,w,200,,,,,,,,,,,,,,,,,0,0,0,0,8,0,32,0,,,,,,,,,,,,,,,,,,,,,,,,,,,,,w,1,None,0,,0.5,linecyan.gif,stop,,,,,,,,0.501077890396,,,,,,,,,,,,,,,,,,,,,,,,0.38,0.514311075211,0.000907897949219,0.501077890396,1,w,389.89486289,,,,,,,,,,,,,,,,,,,,,,,,,,2015_Jun_23_1140,59.9610295852,LearningTask,1,15,
-200,q,200,,,,,,,,,,,,,,,,,0,0,0,0,8,1,33,1,,,,,,,,,,,,,,,,,,,,,,,,,,,,,q,1,None,0,,1.0,triangleorange.gif,stop,,,,,,,,0.517642021179,,,,,,,,,,,,,,,,,,,,,,,,0.93,0.514372110367,0.000910997390747,0.517642021179,1,q,392.898602009,,,,,,,,,,,,,,,,,,,,,,,,,,2015_Jun_23_1140,59.9610295852,LearningTask,1,15,
-200,a,-200,,,,,,,,,,,,,,,,,0,0,0,0,8,2,34,3,,,,,,,,,,,,,,,,,,,,,,,,,,,,,a,1,None,0,,2.0,invertedtriangleyellow.gif,go,,,,,,,,0.584221124649,,,,,,,,,,,,,,,,,,,,,,,,0,0.513557910919,0.000931978225708,0.584221124649,1,a,395.901712894,,,,,,,,,,,,,,,,,,,,,,,,,,2015_Jun_23_1140,59.9610295852,LearningTask,1,15,
-200,a,-200,,,,,,,,,,,,,,,,,0,0,0,0,8,3,35,3,,,,,,,,,,,,,,,,,,,,,,,,,,,,,a,1,None,0,,0.5,linecyan.gif,stop,,,,,,,,0.768161058426,,,,,,,,,,,,,,,,,,,,,,,,0.28,0.514225006104,0.000906944274902,0.768161058426,1,a,398.904942036,,,,,,,,,,,,,,,,,,,,,,,,,,2015_Jun_23_1140,59.9610295852,LearningTask,1,15,
-200,q,200,,,,,,,,,,,,,,,,,0,0,0,0,9,0,36,1,,,,,,,,,,,,,,,,,,,,,,,,,,,,,q,1,None,0,,4.0,crossblue.gif,stop,,,,,,,,0.567557096481,,,,,,,,,,,,,,,,,,,,,,,,4.2,0.514420032501,0.000906944274902,0.567557096481,1,q,401.908608913,,,,,,,,,,,,,,,,,,,,,,,,,,2015_Jun_23_1140,59.9610295852,LearningTask,1,15,
200,s,-200,,,,,,,,,,,,,,,,,0,0,0,0,9,1,37,2,,,,,,,,,,,,,,,,,,,,,,,,,,,,,s,1,None,0,,2.0,circlewhite.gif,stop,,,,,,,,0.484311103821,,,,,,,,,,,,,,,,,,,,,,,,1.87,0.513949871063,0.000936985015869,0.484311103821,1,s,404.912088871,,,,,,,,,,,,,,,,,,,,,,,,,,2015_Jun_23_1140,59.9610295852,LearningTask,1,15,
-200,q,200,,,,,,,,,,,,,,,,,0,0,0,0,9,2,38,1,,,,,,,,,,,,,,,,,,,,,,,,,,,,,q,1,None,0,,4.0,crossblue.gif,stop,,,,,,,,0.517740011215,,,,,,,,,,,,,,,,,,,,,,,,3.89,0.513180971146,0.0013530254364,0.517740011215,1,q,407.915235043,,,,,,,,,,,,,,,,,,,,,,,,,,2015_Jun_23_1140,59.9610295852,LearningTask,1,15,
-200,q,200,,,,,,,,,,,,,,,,,0,0,0,0,9,3,39,1,,,,,,,,,,,,,,,,,,,,,,,,,,,,,q,1,None,0,,1.0,triangleorange.gif,stop,,,,,,,,0.484317064285,,,,,,,,,,,,,,,,,,,,,,,,1.06,0.514158010483,0.000961065292358,0.484317064285,1,q,410.918552876,,,,,,,,,,,,,,,,,,,,,,,,,,2015_Jun_23_1140,59.9610295852,LearningTask,1,15,
-200,q,200,,,,,,,,,,,,,,,,,0,0,0,0,10,0,40,1,,,,,,,,,,,,,,,,,,,,,,,,,,,,,q,1,None,0,,2.0,invertedtriangleyellow.gif,go,,,,,,,,0.434318065643,,,,,,,,,,,,,,,,,,,,,,,,2.01,0.514250040054,0.000911951065063,0.434318065643,1,q,413.921911001,,,,,,,,,,,,,,,,,,,,,,,,,,2015_Jun_23_1140,59.9610295852,LearningTask,1,15,
-200,q,200,,,,,,,,,,,,,,,,,0,0,0,0,10,1,41,1,,,,,,,,,,,,,,,,,,,,,,,,,,,,,q,1,None,0,,0.5,hexagongreen.gif,go,,,,,,,,0.517665147781,,,,,,,,,,,,,,,,,,,,,,,,0,0.514255046844,0.000985145568848,0.517665147781,1,q,416.925715923,,,,,,,,,,,,,,,,,,,,,,,,,,2015_Jun_23_1140,59.9610295852,LearningTask,1,15,
200,w,200,,,,,,,,,,,,,,,,,0,0,0,0,10,2,42,0,,,,,,,,,,,,,,,,,,,,,,,,,,,,,w,1,None,0,,1.0,triangleorange.gif,stop,,,,,,,,0.684412956238,,,,,,,,,,,,,,,,,,,,,,,,1.11,0.513958930969,0.00090503692627,0.684412956238,1,w,419.928662062,,,,,,,,,,,,,,,,,,,,,,,,,,2015_Jun_23_1140,59.9610295852,LearningTask,1,15,
200,w,200,,,,,,,,,,,,,,,,,0,0,0,0,10,3,43,0,,,,,,,,,,,,,,,,,,,,,,,,,,,,,w,1,None,0,,2.0,circlewhite.gif,stop,,,,,,,,0.501183986664,,,,,,,,,,,,,,,,,,,,,,,,0,0.514253854752,0.000913858413696,0.501183986664,1,w,422.931782961,,,,,,,,,,,,,,,,,,,,,,,,,,2015_Jun_23_1140,59.9610295852,LearningTask,1,15,
-200,a,-200,,,,,,,,,,,,,,,,,0,0,0,0,11,0,44,3,,,,,,,,,,,,,,,,,,,,,,,,,,,,,a,1,None,0,,2.0,invertedtriangleyellow.gif,go,,,,,,,,0.417723894119,,,,,,,,,,,,,,,,,,,,,,,,1.85,0.514467000961,0.00102019309998,0.417723894119,1,a,425.935390949,,,,,,,,,,,,,,,,,,,,,,,,,,2015_Jun_23_1140,59.9610295852,LearningTask,1,15,
-200,a,-200,,,,,,,,,,,,,,,,,0,0,0,0,11,1,45,3,,,,,,,,,,,,,,,,,,,,,,,,,,,,,a,1,None,0,,0.5,hexagongreen.gif,go,,,,,,,,0.467689037323,,,,,,,,,,,,,,,,,,,,,,,,0,0.514137029648,0.000900983810425,0.467689037323,1,a,428.938674927,,,,,,,,,,,,,,,,,,,,,,,,,,2015_Jun_23_1140,59.9610295852,LearningTask,1,15,
200,w,200,,,,,,,,,,,,,,,,,0,0,0,0,11,2,46,0,,,,,,,,,,,,,,,,,,,,,,,,,,,,,w,1,None,0,,0.5,hexagongreen.gif,go,,,,,,,,0.517776966095,,,,,,,,,,,,,,,,,,,,,,,,0.45,0.514347076416,0.000915050506592,0.517776966095,1,w,431.942192078,,,,,,,,,,,,,,,,,,,,,,,,,,2015_Jun_23_1140,59.9610295852,LearningTask,1,15,
-200,q,200,,,,,,,,,,,,,,,,,0,0,0,0,11,3,47,1,,,,,,,,,,,,,,,,,,,,,,,,,,,,,q,1,None,0,,0.5,linecyan.gif,stop,,,,,,,,0.550658941269,,,,,,,,,,,,,,,,,,,,,,,,0.69,0.514404058456,0.000917911529541,0.550658941269,1,q,434.945667028,,,,,,,,,,,,,,,,,,,,,,,,,,2015_Jun_23_1140,59.9610295852,LearningTask,1,15,
200,s,-200,,,,,,,,,,,,,,,,,0,0,0,0,12,0,48,2,,,,,,,,,,,,,,,,,,,,,,,,,,,,,s,1,None,0,,1.0,triangleorange.gif,stop,,,,,,,,0.534286975861,,,,,,,,,,,,,,,,,,,,,,,,0,0.514155864716,0.0013108253479,0.534286975861,1,s,437.94878602,,,,,,,,,,,,,,,,,,,,,,,,,,2015_Jun_23_1140,59.9610295852,LearningTask,1,15,
-200,a,-200,,,,,,,,,,,,,,,,,0,0,0,0,12,1,49,3,,,,,,,,,,,,,,,,,,,,,,,,,,,,,a,1,None,0,,1.0,triangleorange.gif,stop,,,,,,,,0.467443943024,,,,,,,,,,,,,,,,,,,,,,,,0.77,0.514331817627,0.000923871994019,0.467443943024,1,a,440.952354908,,,,,,,,,,,,,,,,,,,,,,,,,,2015_Jun_23_1140,59.9610295852,LearningTask,1,15,
200,s,-200,,,,,,,,,,,,,,,,,0,0,0,0,12,2,50,2,,,,,,,,,,,,,,,,,,,,,,,,,,,,,s,1,None,0,,4.0,crossblue.gif,stop,,,,,,,,0.467693090439,,,,,,,,,,,,,,,,,,,,,,,,0,0.513937950134,0.000944852828979,0.467693090439,1,s,443.955867052,,,,,,,,,,,,,,,,,,,,,,,,,,2015_Jun_23_1140,59.9610295852,LearningTask,1,15,
200,w,200,,,,,,,,,,,,,,,,,0,0,0,0,12,3,51,0,,,,,,,,,,,,,,,,,,,,,,,,,,,,,w,1,None,0,,1.0,squaregray.gif,go,,,,,,,,0.500768899918,,,,,,,,,,,,,,,,,,,,,,,,0.79,0.514347076416,0.000895023345947,0.500768899918,1,w,446.959073067,,,,,,,,,,,,,,,,,,,,,,,,,,2015_Jun_23_1140,59.9610295852,LearningTask,1,15,
-200,a,-200,,,,,,,,,,,,,,,,,0,0,0,0,13,0,52,3,,,,,,,,,,,,,,,,,,,,,,,,,,,,,a,1,None,0,,4.0,diamondmagenta.gif,go,,,,,,,,0.517746210098,,,,,,,,,,,,,,,,,,,,,,,,4.07,0.514655828476,0.000985860824585,0.517746210098,1,a,449.962836981,,,,,,,,,,,,,,,,,,,,,,,,,,2015_Jun_23_1140,59.9610295852,LearningTask,1,15,
200,w,200,,,,,,,,,,,,,,,,,0,0,0,0,13,1,53,0,,,,,,,,,,,,,,,,,,,,,,,,,,,,,w,1,None,0,,4.0,crossblue.gif,stop,,,,,,,,0.484493970871,,,,,,,,,,,,,,,,,,,,,,,,3.99,0.513839960098,0.000923871994019,0.484493970871,1,w,452.966063023,,,,,,,,,,,,,,,,,,,,,,,,,,2015_Jun_23_1140,59.9610295852,LearningTask,1,15,
-200,a,-200,,,,,,,,,,,,,,,,,0,0,0,0,13,2,54,3,,,,,,,,,,,,,,,,,,,,,,,,,,,,,a,1,None,0,,4.0,diamondmagenta.gif,go,,,,,,,,0.451246023178,,,,,,,,,,,,,,,,,,,,,,,,4.09,0.513967990875,0.00102114677429,0.451246023178,1,a,455.969110966,,,,,,,,,,,,,,,,,,,,,,,,,,2015_Jun_23_1140,59.9610295852,LearningTask,1,15,
-200,q,200,,,,,,,,,,,,,,,,,0,0,0,0,13,3,55,1,,,,,,,,,,,,,,,,,,,,,,,,,,,,,q,1,None,0,,4.0,crossblue.gif,stop,,,,,,,,0.534629106522,,,,,,,,,,,,,,,,,,,,,,,,3.88,0.514251947403,0.000961065292358,0.534629106522,1,q,458.972465038,,,,,,,,,,,,,,,,,,,,,,,,,,2015_Jun_23_1140,59.9610295852,LearningTask,1,15,
-200,q,200,,,,,,,,,,,,,,,,,0,0,0,0,14,0,56,1,,,,,,,,,,,,,,,,,,,,,,,,,,,,,q,1,None,0,,1.0,squaregray.gif,go,,,,,,,,0.584321975708,,,,,,,,,,,,,,,,,,,,,,,,0.78,0.514494895935,0.000903844833374,0.584321975708,1,q,461.975831985,,,,,,,,,,,,,,,,,,,,,,,,,,2015_Jun_23_1140,59.9610295852,LearningTask,1,15,
200,s,-200,,,,,,,,,,,,,,,,,0,0,0,0,14,1,57,2,,,,,,,,,,,,,,,,,,,,,,,,,,,,,s,1,None,0,,2.0,invertedtriangleyellow.gif,go,,,,,,,,0.433917999268,,,,,,,,,,,,,,,,,,,,,,,,2.13,0.514498949051,0.00118684768677,0.433917999268,1,s,464.97931385,,,,,,,,,,,,,,,,,,,,,,,,,,2015_Jun_23_1140,59.9610295852,LearningTask,1,15,
-200,q,200,,,,,,,,,,,,,,,,,0,0,0,0,14,2,58,1,,,,,,,,,,,,,,,,,,,,,,,,,,,,,q,1,None,0,,2.0,invertedtriangleyellow.gif,go,,,,,,,,0.483533143997,,,,,,,,,,,,,,,,,,,,,,,,2.16,0.514396905899,0.000905990600586,0.483533143997,1,q,467.982620001,,,,,,,,,,,,,,,,,,,,,,,,,,2015_Jun_23_1140,59.9610295852,LearningTask,1,15,
-200,a,-200,,,,,,,,,,,,,,,,,0,0,0,0,14,3,59,3,,,,,,,,,,,,,,,,,,,,,,,,,,,,,a,1,None,0,,0.5,hexagongreen.gif,go,,,,,,,,0.501186847687,,,,,,,,,,,,,,,,,,,,,,,,0.63,0.514235019684,0.000905990600586,0.501186847687,1,a,470.985929966,,,,,,,,,,,,,,,,,,,,,,,,,,2015_Jun_23_1140,59.9610295852,LearningTask,1,15,
200,s,-200,,,,,,,,,,,,,,,,,0,0,0,0,15,0,60,2,,,,,,,,,,,,,,,,,,,,,,,,,,,,,s,1,None,0,,1.0,triangleorange.gif,stop,,,,,,,,0.418010950089,,,,,,,,,,,,,,,,,,,,,,,,0.87,0.514113903046,0.000953912734985,0.418010950089,1,s,473.989387989,,,,,,,,,,,,,,,,,,,,,,,,,,2015_Jun_23_1140,59.9610295852,LearningTask,1,15,
-200,a,-200,,,,,,,,,,,,,,,,,0,0,0,0,15,1,61,3,,,,,,,,,,,,,,,,,,,,,,,,,,,,,a,1,None,0,,0.5,linecyan.gif,stop,,,,,,,,0.617832899094,,,,,,,,,,,,,,,,,,,,,,,,0.6,0.514409780502,0.000897884368896,0.617832899094,1,a,476.993339062,,,,,,,,,,,,,,,,,,,,,,,,,,2015_Jun_23_1140,59.9610295852,LearningTask,1,15,
-200,q,200,,,,,,,,,,,,,,,,,0,0,0,0,15,2,62,1,,,,,,,,,,,,,,,,,,,,,,,,,,,,,q,1,None,0,,0.5,linecyan.gif,stop,,,,,,,,0.56784081459,,,,,,,,,,,,,,,,,,,,,,,,0.51,0.51368522644,0.00098705291748,0.56784081459,1,q,479.996556044,,,,,,,,,,,,,,,,,,,,,,,,,,2015_Jun_23_1140,59.9610295852,LearningTask,1,15,
200,w,200,,,,,,,,,,,,,,,,,0,0,0,0,15,3,63,0,,,,,,,,,,,,,,,,,,,,,,,,,,,,,w,1,None,0,,0.5,hexagongreen.gif,go,,,,,,,,0.484176874161,,,,,,,,,,,,,,,,,,,,,,,,0.43,0.51366686821,0.000926971435547,0.484176874161,1,w,482.999749899,,,,,,,,,,,,,,,,,,,,,,,,,,2015_Jun_23_1140,59.9610295852,LearningTask,1,15,
200,s,-200,,,,,,,,,,,,,,,,,0,0,0,0,16,0,64,2,,,,,,,,,,,,,,,,,,,,,,,,,,,,,s,1,None,0,,1.0,squaregray.gif,go,,,,,,,,0.467699050903,,,,,,,,,,,,,,,,,,,,,,,,0.81,0.514099121094,0.000900030136108,0.467699050903,1,s,486.003007889,,,,,,,,,,,,,,,,,,,,,,,,,,2015_Jun_23_1140,59.9610295852,LearningTask,1,15,
-200,q,200,,,,,,,,,,,,,,,,,0,0,0,0,16,1,65,1,,,,,,,,,,,,,,,,,,,,,,,,,,,,,q,1,None,0,,1.0,squaregray.gif,go,,,,,,,,0.534641027451,,,,,,,,,,,,,,,,,,,,,,,,0.93,0.514102220535,0.000904083251953,0.534641027451,1,q,489.006411076,,,,,,,,,,,,,,,,,,,,,,,,,,2015_Jun_23_1140,59.9610295852,LearningTask,1,15,
200,w,200,,,,,,,,,,,,,,,,,0,0,0,0,16,2,66,0,,,,,,,,,,,,,,,,,,,,,,,,,,,,,w,1,None,0,,0.5,linecyan.gif,stop,,,,,,,,0.417777061462,,,,,,,,,,,,,,,,,,,,,,,,0.38,0.513889074326,0.000922918319702,0.417777061462,1,w,492.009732962,,,,,,,,,,,,,,,,,,,,,,,,,,2015_Jun_23_1140,59.9610295852,LearningTask,1,15,
200,w,200,,,,,,,,,,,,,,,,,0,0,0,0,16,3,67,0,,,,,,,,,,,,,,,,,,,,,,,,,,,,,w,1,None,0,,0.5,linecyan.gif,stop,,,,,,,,0.434329986572,,,,,,,,,,,,,,,,,,,,,,,,0.43,0.514277935028,0.000902891159058,0.434329986572,1,w,495.012935877,,,,,,,,,,,,,,,,,,,,,,,,,,2015_Jun_23_1140,59.9610295852,LearningTask,1,15,
-200,q,200,,,,,,,,,,,,,,,,,0,0,0,0,17,0,68,1,,,,,,,,,,,,,,,,,,,,,,,,,,,,,q,1,None,0,,2.0,invertedtriangleyellow.gif,go,,,,,,,,0.500938892365,,,,,,,,,,,,,,,,,,,,,,,,0,0.51443696022,0.000971078872681,0.500938892365,1,q,498.016577959,,,,,,,,,,,,,,,,,,,,,,,,,,2015_Jun_23_1140,59.9610295852,LearningTask,1,15,
-200,a,-200,,,,,,,,,,,,,,,,,0,0,0,0,17,1,69,3,,,,,,,,,,,,,,,,,,,,,,,,,,,,,a,1,None,0,,0.5,hexagongreen.gif,go,,,,,,,,0.651547908783,,,,,,,,,,,,,,,,,,,,,,,,0.29,0.514183044434,0.000909090042114,0.651547908783,1,a,501.01967597,,,,,,,,,,,,,,,,,,,,,,,,,,2015_Jun_23_1140,59.9610295852,LearningTask,1,15,
-200,a,-200,,,,,,,,,,,,,,,,,0,0,0,0,17,2,70,3,,,,,,,,,,,,,,,,,,,,,,,,,,,,,a,1,None,0,,0.5,hexagongreen.gif,go,,,,,,,,0.60126709938,,,,,,,,,,,,,,,,,,,,,,,,0.35,0.514290094376,0.000940084457397,0.60126709938,1,a,504.02295804,,,,,,,,,,,,,,,,,,,,,,,,,,2015_Jun_23_1140,59.9610295852,LearningTask,1,15,
-200,a,-200,,,,,,,,,,,,,,,,,0,0,0,0,17,3,71,3,,,,,,,,,,,,,,,,,,,,,,,,,,,,,a,1,None,0,,4.0,diamondmagenta.gif,go,,,,,,,,0.551496982574,,,,,,,,,,,,,,,,,,,,,,,,3.78,0.514262914658,0.000949859619141,0.551496982574,1,a,507.026759863,,,,,,,,,,,,,,,,,,,,,,,,,,2015_Jun_23_1140,59.9610295852,LearningTask,1,15,
200,w,200,,,,,,,,,,,,,,,,,0,0,0,0,18,0,72,0,,,,,,,,,,,,,,,,,,,,,,,,,,,,,w,1,None,0,,2.0,invertedtriangleyellow.gif,go,,,,,,,,0.467271089554,,,,,,,,,,,,,,,,,,,,,,,,1.86,0.514741897583,0.00089693069458,0.467271089554,1,w,510.029875994,,,,,,,,,,,,,,,,,,,,,,,,,,2015_Jun_23_1140,59.9610295852,LearningTask,1,15,
-200,a,-200,,,,,,,,,,,,,,,,,0,0,0,0,18,1,73,3,,,,,,,,,,,,,,,,,,,,,,,,,,,,,a,1,None,0,,0.5,hexagongreen.gif,go,,,,,,,,0.501003026962,,,,,,,,,,,,,,,,,,,,,,,,0.38,0.514109134674,0.00096321105957,0.501003026962,1,a,513.033385038,,,,,,,,,,,,,,,,,,,,,,,,,,2015_Jun_23_1140,59.9610295852,LearningTask,1,15,
200,s,-200,,,,,,,,,,,,,,,,,0,0,0,0,18,2,74,2,,,,,,,,,,,,,,,,,,,,,,,,,,,,,s,1,None,0,,0.5,linecyan.gif,stop,,,,,,,,0.451086044312,,,,,,,,,,,,,,,,,,,,,,,,0,0.513865947723,0.000921010971069,0.451086044312,1,s,516.036544085,,,,,,,,,,,,,,,,,,,,,,,,,,2015_Jun_23_1140,59.9610295852,LearningTask,1,15,
200,s,-200,,,,,,,,,,,,,,,,,0,0,0,0,18,3,75,2,,,,,,,,,,,,,,,,,,,,,,,,,,,,,s,1,None,0,,1.0,squaregray.gif,go,,,,,,,,0.501216173172,,,,,,,,,,,,,,,,,,,,,,,,0.93,0.514307022095,0.000894069671631,0.501216173172,1,s,519.04005003,,,,,,,,,,,,,,,,,,,,,,,,,,2015_Jun_23_1140,59.9610295852,LearningTask,1,15,
200,w,200,,,,,,,,,,,,,,,,,0,0,0,0,19,0,76,0,,,,,,,,,,,,,,,,,,,,,,,,,,,,,w,1,None,0,,2.0,invertedtriangleyellow.gif,go,,,,,,,,0.467778921127,,,,,,,,,,,,,,,,,,,,,,,,2.21,0.513915061951,0.000921964645386,0.467778921127,1,w,522.043653965,,,,,,,,,,,,,,,,,,,,,,,,,,2015_Jun_23_1140,59.9610295852,LearningTask,1,15,
200,w,200,,,,,,,,,,,,,,,,,0,0,0,0,19,1,77,0,,,,,,,,,,,,,,,,,,,,,,,,,,,,,w,1,None,0,,2.0,invertedtriangleyellow.gif,go,,,,,,,,0.43438577652,,,,,,,,,,,,,,,,,,,,,,,,1.89,0.513988018036,0.000897169113159,0.43438577652,1,w,525.046696901,,,,,,,,,,,,,,,,,,,,,,,,,,2015_Jun_23_1140,59.9610295852,LearningTask,1,15,
200,w,200,,,,,,,,,,,,,,,,,0,0,0,0,19,2,78,0,,,,,,,,,,,,,,,,,,,,,,,,,,,,,w,1,None,0,,2.0,invertedtriangleyellow.gif,go,,,,,,,,0.684801101685,,,,,,,,,,,,,,,,,,,,,,,,0,0.514369010925,0.000909090042114,0.684801101685,1,w,528.050392866,,,,,,,,,,,,,,,,,,,,,,,,,,2015_Jun_23_1140,59.9610295852,LearningTask,1,15,
200,w,200,,,,,,,,,,,,,,,,,0,0,0,0,19,3,79,0,,,,,,,,,,,,,,,,,,,,,,,,,,,,,w,1,None,0,,0.5,linecyan.gif,stop,,,,,,,,0.517980098724,,,,,,,,,,,,,,,,,,,,,,,,0.26,0.513873100281,0.000938177108765,0.517980098724,1,w,531.053551912,,,,,,,,,,,,,,,,,,,,,,,,,,2015_Jun_23_1140,59.9610295852,LearningTask,1,15,
200,w,200,,,,,,,,,,,,,,,,,0,0,0,0,20,0,80,0,,,,,,,,,,,,,,,,,,,,,,,,,,,,,w,1,None,0,,4.0,diamondmagenta.gif,go,,,,,,,,0.584866046906,,,,,,,,,,,,,,,,,,,,,,,,4.25,0.514167070389,0.000909090042114,0.584866046906,1,w,534.056828022,,,,,,,,,,,,,,,,,,,,,,,,,,2015_Jun_23_1140,59.9610295852,LearningTask,1,15,
200,w,200,,,,,,,,,,,,,,,,,0,0,0,0,20,1,81,0,,,,,,,,,,,,,,,,,,,,,,,,,,,,,w,1,None,0,,4.0,diamondmagenta.gif,go,,,,,,,,0.45062994957,,,,,,,,,,,,,,,,,,,,,,,,4.2,0.514727115631,0.000945091247559,0.45062994957,1,w,537.060899019,,,,,,,,,,,,,,,,,,,,,,,,,,2015_Jun_23_1140,59.9610295852,LearningTask,1,15,
200,s,-200,,,,,,,,,,,,,,,,,0,0,0,0,20,2,82,2,,,,,,,,,,,,,,,,,,,,,,,,,,,,,s,1,None,0,,4.0,diamondmagenta.gif,go,,,,,,,,0.550941944122,,,,,,,,,,,,,,,,,,,,,,,,4.11,0.513676166534,0.000915050506592,0.550941944122,1,s,540.063695908,,,,,,,,,,,,,,,,,,,,,,,,,,2015_Jun_23_1140,59.9610295852,LearningTask,1,15,
-200,a,-200,,,,,,,,,,,,,,,,,0,0,0,0,20,3,83,3,,,,,,,,,,,,,,,,,,,,,,,,,,,,,a,1,None,0,,2.0,invertedtriangleyellow.gif,go,,,,,,,,0.484488964081,,,,,,,,,,,,,,,,,,,,,,,,1.86,0.51429605484,0.000900983810425,0.484488964081,1,a,543.066998005,,,,,,,,,,,,,,,,,,,,,,,,,,2015_Jun_23_1140,59.9610295852,LearningTask,1,15,
-200,a,-200,,,,,,,,,,,,,,,,,0,0,0,0,21,0,84,3,,,,,,,,,,,,,,,,,,,,,,,,,,,,,a,1,None,0,,2.0,circlewhite.gif,stop,,,,,,,,0.55119395256,,,,,,,,,,,,,,,,,,,,,,,,1.87,0.514116048813,0.000977993011475,0.55119395256,1,a,546.070452929,,,,,,,,,,,,,,,,,,,,,,,,,,2015_Jun_23_1140,59.9610295852,LearningTask,1,15,
-200,a,-200,,,,,,,,,,,,,,,,,0,0,0,0,21,1,85,3,,,,,,,,,,,,,,,,,,,,,,,,,,,,,a,1,None,0,,1.0,triangleorange.gif,stop,,,,,,,,0.517562150955,,,,,,,,,,,,,,,,,,,,,,,,1.11,0.514137983322,0.000916957855225,0.517562150955,1,a,549.073607922,,,,,,,,,,,,,,,,,,,,,,,,,,2015_Jun_23_1140,59.9610295852,LearningTask,1,15,
-200,a,-200,,,,,,,,,,,,,,,,,0,0,0,0,21,2,86,3,,,,,,,,,,,,,,,,,,,,,,,,,,,,,a,1,None,0,,1.0,triangleorange.gif,stop,,,,,,,,0.517645835876,,,,,,,,,,,,,,,,,,,,,,,,1.14,0.51474404335,0.00111889839172,0.517645835876,1,a,552.077286005,,,,,,,,,,,,,,,,,,,,,,,,,,2015_Jun_23_1140,59.9610295852,LearningTask,1,15,
200,s,-200,,,,,,,,,,,,,,,,,0,0,0,0,21,3,87,2,,,,,,,,,,,,,,,,,,,,,,,,,,,,,s,1,None,0,,1.0,squaregray.gif,go,,,,,,,,0.484269142151,,,,,,,,,,,,,,,,,,,,,,,,0.87,0.51442694664,0.00089693069458,0.484269142151,1,s,555.080492973,,,,,,,,,,,,,,,,,,,,,,,,,,2015_Jun_23_1140,59.9610295852,LearningTask,1,15,
200,w,200,,,,,,,,,,,,,,,,,0,0,0,0,22,0,88,0,,,,,,,,,,,,,,,,,,,,,,,,,,,,,w,1,None,0,,1.0,triangleorange.gif,stop,,,,,,,,0.56765294075,,,,,,,,,,,,,,,,,,,,,,,,0.95,0.514230012894,0.000932216644287,0.56765294075,1,w,558.083945036,,,,,,,,,,,,,,,,,,,,,,,,,,2015_Jun_23_1140,59.9610295852,LearningTask,1,15,
-200,q,200,,,,,,,,,,,,,,,,,0,0,0,0,22,1,89,1,,,,,,,,,,,,,,,,,,,,,,,,,,,,,q,1,None,0,,2.0,circlewhite.gif,stop,,,,,,,,0.451123952866,,,,,,,,,,,,,,,,,,,,,,,,1.9,0.514007806778,0.000957012176514,0.451123952866,1,q,561.087270975,,,,,,,,,,,,,,,,,,,,,,,,,,2015_Jun_23_1140,59.9610295852,LearningTask,1,15,
-200,a,-200,,,,,,,,,,,,,,,,,0,0,0,0,22,2,90,3,,,,,,,,,,,,,,,,,,,,,,,,,,,,,a,1,None,0,,1.0,squaregray.gif,go,,,,,,,,0.484233856201,,,,,,,,,,,,,,,,,,,,,,,,0.96,0.514245033264,0.00089693069458,0.484233856201,1,a,564.090620995,,,,,,,,,,,,,,,,,,,,,,,,,,2015_Jun_23_1140,59.9610295852,LearningTask,1,15,
-200,q,200,,,,,,,,,,,,,,,,,0,0,0,0,22,3,91,1,,,,,,,,,,,,,,,,,,,,,,,,,,,,,q,1,None,0,,2.0,invertedtriangleyellow.gif,go,,,,,,,,0.517750024796,,,,,,,,,,,,,,,,,,,,,,,,2.04,0.514127969742,0.000902891159058,0.517750024796,1,q,567.094204903,,,,,,,,,,,,,,,,,,,,,,,,,,2015_Jun_23_1140,59.9610295852,LearningTask,1,15,
-200,q,200,,,,,,,,,,,,,,,,,0,0,0,0,23,0,92,1,,,,,,,,,,,,,,,,,,,,,,,,,,,,,q,1,None,0,,2.0,circlewhite.gif,stop,,,,,,,,0.500830888748,,,,,,,,,,,,,,,,,,,,,,,,2.23,0.51390004158,0.000921010971069,0.500830888748,1,q,570.097558022,,,,,,,,,,,,,,,,,,,,,,,,,,2015_Jun_23_1140,59.9610295852,LearningTask,1,15,
-200,a,-200,,,,,,,,,,,,,,,,,0,0,0,0,23,1,93,3,,,,,,,,,,,,,,,,,,,,,,,,,,,,,a,1,None,0,,0.5,hexagongreen.gif,go,,,,,,,,0.50127196312,,,,,,,,,,,,,,,,,,,,,,,,0.54,0.514106988907,0.000910043716431,0.50127196312,1,a,573.100712061,,,,,,,,,,,,,,,,,,,,,,,,,,2015_Jun_23_1140,59.9610295852,LearningTask,1,15,
200,w,200,,,,,,,,,,,,,,,,,0,0,0,0,23,2,94,0,,,,,,,,,,,,,,,,,,,,,,,,,,,,,w,1,None,0,,4.0,crossblue.gif,stop,,,,,,,,0.601300954819,,,,,,,,,,,,,,,,,,,,,,,,3.98,0.514352083206,0.00118803977966,0.601300954819,1,w,576.104568958,,,,,,,,,,,,,,,,,,,,,,,,,,2015_Jun_23_1140,59.9610295852,LearningTask,1,15,
200,s,-200,,,,,,,,,,,,,,,,,0,0,0,0,23,3,95,2,,,,,,,,,,,,,,,,,,,,,,,,,,,,,s,1,None,0,,2.0,circlewhite.gif,stop,,,,,,,,0.434595108032,,,,,,,,,,,,,,,,,,,,,,,,2.18,0.513784885406,0.000970840454102,0.434595108032,1,s,579.107639074,,,,,,,,,,,,,,,,,,,,,,,,,,2015_Jun_23_1140,59.9610295852,LearningTask,1,15,
200,s,-200,,,,,,,,,,,,,,,,,0,0,0,0,24,0,96,2,,,,,,,,,,,,,,,,,,,,,,,,,,,,,s,1,None,0,,4.0,diamondmagenta.gif,go,,,,,,,,0.434564828873,,,,,,,,,,,,,,,,,,,,,,,,3.85,0.514097213745,0.000910043716431,0.434564828873,1,s,582.111032963,,,,,,,,,,,,,,,,,,,,,,,,,,2015_Jun_23_1140,59.9610295852,LearningTask,1,15,
200,s,-200,,,,,,,,,,,,,,,,,0,0,0,0,24,1,97,2,,,,,,,,,,,,,,,,,,,,,,,,,,,,,s,1,None,0,,1.0,triangleorange.gif,stop,,,,,,,,0.384243965149,,,,,,,,,,,,,,,,,,,,,,,,1.19,0.514255046844,0.000955104827881,0.384243965149,1,s,585.114501953,,,,,,,,,,,,,,,,,,,,,,,,,,2015_Jun_23_1140,59.9610295852,LearningTask,1,15,
200,s,-200,,,,,,,,,,,,,,,,,0,0,0,0,24,2,98,2,,,,,,,,,,,,,,,,,,,,,,,,,,,,,s,1,None,0,,4.0,diamondmagenta.gif,go,,,,,,,,0.400839090347,,,,,,,,,,,,,,,,,,,,,,,,4.08,0.514061927795,0.000911951065063,0.400839090347,1,s,588.117537975,,,,,,,,,,,,,,,,,,,,,,,,,,2015_Jun_23_1140,59.9610295852,LearningTask,1,15,
-200,q,200,,,,,,,,,,,,,,,,,0,0,0,0,24,3,99,1,,,,,,,,,,,,,,,,,,,,,,,,,,,,,q,1,None,0,,2.0,circlewhite.gif,stop,,,,,,,,0.550879001617,,,,,,,,,,,,,,,,,,,,,,,,2.04,0.514434814453,0.000932931900024,0.550879001617,1,q,591.120862961,,,,,,,,,,,,,,,,,,,,,,,,,,2015_Jun_23_1140,59.9610295852,LearningTask,1,15,
,,,,,,,,,,,,,,,,,,,0,0,0,0,,,,,,,,,,,,,,,,,,,,,,,,,,,,,,,,,,,,,,,,,,,,,,,,,,,,,,,,,,,,,,,,,,,,,,,,,,,,,,,9,27.6278049946,,,,,,,,,,,,,,,,,,,,,,,,2015_Jun_23_1140,59.9610295852,LearningTask,1,15,
200,w,200,,,,,,,,,,,,,,,,,1,0,1,0,0,0,0,0,,,,,,,,,,,,,,,,,,,,,,,,,,,,,w,1,None,0,,0.5,hexagongreen.gif,go,,,,,,,,0.501519203186,,,,,,,,,,,,,,,,,,,,,,,,0,0.51016998291,0.000895977020264,0.501519203186,1,w,622.072980881,,,,,,,,,,,,,,,,,,,,,,,,,,2015_Jun_23_1140,59.9610295852,LearningTask,1,15,
200,s,-200,,,,,,,,,,,,,,,,,1,0,1,0,0,1,1,2,,,,,,,,,,,,,,,,,,,,,,,,,,,,,s,1,None,0,,0.5,hexagongreen.gif,go,,,,,,,,0.501378059387,,,,,,,,,,,,,,,,,,,,,,,,0.62,0.513763904572,0.00095796585083,0.501378059387,1,s,625.076058865,,,,,,,,,,,,,,,,,,,,,,,,,,2015_Jun_23_1140,59.9610295852,LearningTask,1,15,
200,w,200,,,,,,,,,,,,,,,,,1,0,1,0,0,2,2,0,,,,,,,,,,,,,,,,,,,,,,,,,,,,,w,1,None,0,,1.0,triangleorange.gif,stop,,,,,,,,0.517327070236,,,,,,,,,,,,,,,,,,,,,,,,0,0.514216899872,0.00089693069458,0.517327070236,1,w,628.07920599,,,,,,,,,,,,,,,,,,,,,,,,,,2015_Jun_23_1140,59.9610295852,LearningTask,1,15,
-200,q,200,,,,,,,,,,,,,,,,,1,0,1,0,0,3,3,1,,,,,,,,,,,,,,,,,,,,,,,,,,,,,q,1,None,0,,4.0,crossblue.gif,stop,,,,,,,,0.517429113388,,,,,,,,,,,,,,,,,,,,,,,,3.86,0.514383077621,0.000910997390747,0.517429113388,1,q,631.08249402,,,,,,,,,,,,,,,,,,,,,,,,,,2015_Jun_23_1140,59.9610295852,LearningTask,1,15,
-200,q,200,,,,,,,,,,,,,,,,,1,0,1,0,1,0,4,1,,,,,,,,,,,,,,,,,,,,,,,,,,,,,q,1,None,0,,4.0,crossblue.gif,stop,,,,,,,,0.551213979721,,,,,,,,,,,,,,,,,,,,,,,,3.88,0.514043092728,0.00100207328796,0.551213979721,1,q,634.086097002,,,,,,,,,,,,,,,,,,,,,,,,,,2015_Jun_23_1140,59.9610295852,LearningTask,1,15,
-200,q,200,,,,,,,,,,,,,,,,,1,0,1,0,1,1,5,1,,,,,,,,,,,,,,,,,,,,,,,,,,,,,q,1,None,0,,2.0,circlewhite.gif,stop,,,,,,,,0.567760944366,,,,,,,,,,,,,,,,,,,,,,,,1.78,0.514106988907,0.000924110412598,0.567760944366,1,q,637.089333057,,,,,,,,,,,,,,,,,,,,,,,,,,2015_Jun_23_1140,59.9610295852,LearningTask,1,15,
200,s,-200,,,,,,,,,,,,,,,,,1,0,1,0,1,2,6,2,,,,,,,,,,,,,,,,,,,,,,,,,,,,,s,1,None,0,,0.5,linecyan.gif,stop,,,,,,,,0.501315832138,,,,,,,,,,,,,,,,,,,,,,,,0.63,0.514410018921,0.000897884368896,0.501315832138,1,s,640.092712879,,,,,,,,,,,,,,,,,,,,,,,,,,2015_Jun_23_1140,59.9610295852,LearningTask,1,15,
200,w,200,,,,,,,,,,,,,,,,,1,0,1,0,1,3,7,0,,,,,,,,,,,,,,,,,,,,,,,,,,,,,w,1,None,0,,4.0,crossblue.gif,stop,,,,,,,,0.450940132141,,,,,,,,,,,,,,,,,,,,,,,,0,0.514196872711,0.000917911529541,0.450940132141,1,w,643.096101999,,,,,,,,,,,,,,,,,,,,,,,,,,2015_Jun_23_1140,59.9610295852,LearningTask,1,15,
-200,a,-200,,,,,,,,,,,,,,,,,1,0,1,0,2,0,8,3,,,,,,,,,,,,,,,,,,,,,,,,,,,,,a,1,None,0,,4.0,diamondmagenta.gif,go,,,,,,,,0.618181943893,,,,,,,,,,,,,,,,,,,,,,,,4.03,0.514346122742,0.000906944274902,0.618181943893,1,a,646.099622965,,,,,,,,,,,,,,,,,,,,,,,,,,2015_Jun_23_1140,59.9610295852,LearningTask,1,15,
-200,a,-200,,,,,,,,,,,,,,,,,1,0,1,0,2,1,9,3,,,,,,,,,,,,,,,,,,,,,,,,,,,,,a,1,None,0,,1.0,squaregray.gif,go,,,,,,,,0.517663955688,,,,,,,,,,,,,,,,,,,,,,,,0.8,0.514141082764,0.00090217590332,0.517663955688,1,a,649.103223085,,,,,,,,,,,,,,,,,,,,,,,,,,2015_Jun_23_1140,59.9610295852,LearningTask,1,15,
-200,a,-200,,,,,,,,,,,,,,,,,1,0,1,0,2,2,10,3,,,,,,,,,,,,,,,,,,,,,,,,,,,,,a,1,None,0,,1.0,squaregray.gif,go,,,,,,,,0.434240102768,,,,,,,,,,,,,,,,,,,,,,,,0.9,0.513673067093,0.000899076461792,0.434240102768,1,a,652.106215,,,,,,,,,,,,,,,,,,,,,,,,,,2015_Jun_23_1140,59.9610295852,LearningTask,1,15,
200,w,200,,,,,,,,,,,,,,,,,1,0,1,0,2,3,11,0,,,,,,,,,,,,,,,,,,,,,,,,,,,,,w,1,None,0,,2.0,invertedtriangleyellow.gif,go,,,,,,,,0.517663002014,,,,,,,,,,,,,,,,,,,,,,,,2.14,0.514281988144,0.000903129577637,0.517663002014,1,w,655.109560013,,,,,,,,,,,,,,,,,,,,,,,,,,2015_Jun_23_1140,59.9610295852,LearningTask,1,15,
-200,a,-200,,,,,,,,,,,,,,,,,1,0,1,0,3,0,12,3,,,,,,,,,,,,,,,,,,,,,,,,,,,,,a,1,None,0,,0.5,hexagongreen.gif,go,,,,,,,,0.417714118958,,,,,,,,,,,,,,,,,,,,,,,,0,0.514413118362,0.00090503692627,0.417714118958,1,a,658.113133907,,,,,,,,,,,,,,,,,,,,,,,,,,2015_Jun_23_1140,59.9610295852,LearningTask,1,15,
-200,q,200,,,,,,,,,,,,,,,,,1,0,1,0,3,1,13,1,,,,,,,,,,,,,,,,,,,,,,,,,,,,,q,1,None,0,,0.5,hexagongreen.gif,go,,,,,,,,0.534317016602,,,,,,,,,,,,,,,,,,,,,,,,0.4,0.514168977737,0.000915050506592,0.534317016602,1,q,661.116348982,,,,,,,,,,,,,,,,,,,,,,,,,,2015_Jun_23_1140,59.9610295852,LearningTask,1,15,
-200,q,200,,,,,,,,,,,,,,,,,1,0,1,0,3,2,14,1,,,,,,,,,,,,,,,,,,,,,,,,,,,,,q,1,None,0,,1.0,triangleorange.gif,stop,,,,,,,,0.53447508812,,,,,,,,,,,,,,,,,,,,,,,,1.06,0.514321804047,0.00104594230652,0.53447508812,1,q,664.119529963,,,,,,,,,,,,,,,,,,,,,,,,,,2015_Jun_23_1140,59.9610295852,LearningTask,1,15,
200,s,-200,,,,,,,,,,,,,,,,,1,0,1,0,3,3,15,2,,,,,,,,,,,,,,,,,,,,,,,,,,,,,s,1,None,0,,2.0,circlewhite.gif,stop,,,,,,,,0.483898878098,,,,,,,,,,,,,,,,,,,,,,,,1.82,0.514636993408,0.000913143157959,0.483898878098,1,s,667.123046875,,,,,,,,,,,,,,,,,,,,,,,,,,2015_Jun_23_1140,59.9610295852,LearningTask,1,15,
-200,a,-200,,,,,,,,,,,,,,,,,1,0,1,0,4,0,16,3,,,,,,,,,,,,,,,,,,,,,,,,,,,,,a,1,None,0,,1.0,squaregray.gif,go,,,,,,,,0.400904893875,,,,,,,,,,,,,,,,,,,,,,,,0.9,0.514389038086,0.00089693069458,0.400904893875,1,a,670.126465082,,,,,,,,,,,,,,,,,,,,,,,,,,2015_Jun_23_1140,59.9610295852,LearningTask,1,15,
-200,a,-200,,,,,,,,,,,,,,,,,1,0,1,0,4,1,17,3,,,,,,,,,,,,,,,,,,,,,,,,,,,,,a,1,None,0,,4.0,crossblue.gif,stop,,,,,,,,0.434122085571,,,,,,,,,,,,,,,,,,,,,,,,3.98,0.514111995697,0.00104594230652,0.434122085571,1,a,673.129778862,,,,,,,,,,,,,,,,,,,,,,,,,,2015_Jun_23_1140,59.9610295852,LearningTask,1,15,
200,s,-200,,,,,,,,,,,,,,,,,1,0,1,0,4,2,18,2,,,,,,,,,,,,,,,,,,,,,,,,,,,,,s,1,None,0,,2.0,invertedtriangleyellow.gif,go,,,,,,,,0.450589895248,,,,,,,,,,,,,,,,,,,,,,,,0,0.51450586319,0.000897884368896,0.450589895248,1,s,676.133236885,,,,,,,,,,,,,,,,,,,,,,,,,,2015_Jun_23_1140,59.9610295852,LearningTask,1,15,
-200,a,-200,,,,,,,,,,,,,,,,,1,0,1,0,4,3,19,3,,,,,,,,,,,,,,,,,,,,,,,,,,,,,a,1,None,0,,4.0,crossblue.gif,stop,,,,,,,,0.417583942413,,,,,,,,,,,,,,,,,,,,,,,,3.86,0.514214992523,0.00108599662781,0.417583942413,1,a,679.136453867,,,,,,,,,,,,,,,,,,,,,,,,,,2015_Jun_23_1140,59.9610295852,LearningTask,1,15,
-200,a,-200,,,,,,,,,,,,,,,,,1,0,1,0,5,0,20,3,,,,,,,,,,,,,,,,,,,,,,,,,,,,,a,1,None,0,,1.0,squaregray.gif,go,,,,,,,,0.467645168304,,,,,,,,,,,,,,,,,,,,,,,,0,0.514698028564,0.000922203063965,0.467645168304,1,a,682.139980078,,,,,,,,,,,,,,,,,,,,,,,,,,2015_Jun_23_1140,59.9610295852,LearningTask,1,15,
200,s,-200,,,,,,,,,,,,,,,,,1,0,1,0,5,1,21,2,,,,,,,,,,,,,,,,,,,,,,,,,,,,,s,1,None,0,,4.0,crossblue.gif,stop,,,,,,,,0.401252031326,,,,,,,,,,,,,,,,,,,,,,,,3.96,0.514317989349,0.000885963439941,0.401252031326,1,s,685.143332005,,,,,,,,,,,,,,,,,,,,,,,,,,2015_Jun_23_1140,59.9610295852,LearningTask,1,15,
-200,a,-200,,,,,,,,,,,,,,,,,1,0,1,0,5,2,22,3,,,,,,,,,,,,,,,,,,,,,,,,,,,,,a,1,None,0,,2.0,circlewhite.gif,stop,,,,,,,,0.401191949844,,,,,,,,,,,,,,,,,,,,,,,,1.87,0.51438498497,0.000897884368896,0.401191949844,1,a,688.14682889,,,,,,,,,,,,,,,,,,,,,,,,,,2015_Jun_23_1140,59.9610295852,LearningTask,1,15,
200,s,-200,,,,,,,,,,,,,,,,,1,0,1,0,5,3,23,2,,,,,,,,,,,,,,,,,,,,,,,,,,,,,s,1,None,0,,0.5,linecyan.gif,stop,,,,,,,,0.400799036026,,,,,,,,,,,,,,,,,,,,,,,,0.35,0.513857841492,0.000959873199463,0.400799036026,1,s,691.150368929,,,,,,,,,,,,,,,,,,,,,,,,,,2015_Jun_23_1140,59.9610295852,LearningTask,1,15,
-200,a,-200,,,,,,,,,,,,,,,,,1,0,1,0,6,0,24,3,,,,,,,,,,,,,,,,,,,,,,,,,,,,,a,1,None,0,,0.5,hexagongreen.gif,go,,,,,,,,0.367710828781,,,,,,,,,,,,,,,,,,,,,,,,0.61,0.513888120651,0.000947952270508,0.367710828781,1,a,694.153580904,,,,,,,,,,,,,,,,,,,,,,,,,,2015_Jun_23_1140,59.9610295852,LearningTask,1,15,
-200,a,-200,,,,,,,,,,,,,,,,,1,0,1,0,6,1,25,3,,,,,,,,,,,,,,,,,,,,,,,,,,,,,a,1,None,0,,4.0,diamondmagenta.gif,go,,,,,,,,0.400867938995,,,,,,,,,,,,,,,,,,,,,,,,4.24,0.514312982559,0.000890970230103,0.400867938995,1,a,697.157351017,,,,,,,,,,,,,,,,,,,,,,,,,,2015_Jun_23_1140,59.9610295852,LearningTask,1,15,
200,w,200,,,,,,,,,,,,,,,,,1,0,1,0,6,2,26,0,,,,,,,,,,,,,,,,,,,,,,,,,,,,,w,1,None,0,,2.0,circlewhite.gif,stop,,,,,,,,0.667793035507,,,,,,,,,,,,,,,,,,,,,,,,1.76,0.513781070709,0.00085711479187,0.667793035507,1,w,700.160264015,,,,,,,,,,,,,,,,,,,,,,,,,,2015_Jun_23_1140,59.9610295852,LearningTask,1,15,
-200,q,200,,,,,,,,,,,,,,,,,1,0,1,0,6,3,27,1,,,,,,,,,,,,,,,,,,,,,,,,,,,,,q,1,None,0,,0.5,hexagongreen.gif,go,,,,,,,,0.517721891403,,,,,,,,,,,,,,,,,,,,,,,,0.39,0.514041185379,0.000888109207153,0.517721891403,1,q,703.163469076,,,,,,,,,,,,,,,,,,,,,,,,,,2015_Jun_23_1140,59.9610295852,LearningTask,1,15,
-200,a,-200,,,,,,,,,,,,,,,,,1,0,1,0,7,0,28,3,,,,,,,,,,,,,,,,,,,,,,,,,,,,,a,1,None,0,,4.0,diamondmagenta.gif,go,,,,,,,,0.451211929321,,,,,,,,,,,,,,,,,,,,,,,,0,0.513576030731,0.0012309551239,0.451211929321,1,a,706.167155981,,,,,,,,,,,,,,,,,,,,,,,,,,2015_Jun_23_1140,59.9610295852,LearningTask,1,15,
-200,q,200,,,,,,,,,,,,,,,,,1,0,1,0,7,1,29,1,,,,,,,,,,,,,,,,,,,,,,,,,,,,,q,1,None,0,,1.0,squaregray.gif,go,,,,,,,,0.517783880234,,,,,,,,,,,,,,,,,,,,,,,,0,0.514124155045,0.0012731552124,0.517783880234,1,q,709.170193911,,,,,,,,,,,,,,,,,,,,,,,,,,2015_Jun_23_1140,59.9610295852,LearningTask,1,15,
200,s,-200,,,,,,,,,,,,,,,,,1,0,1,0,7,2,30,2,,,,,,,,,,,,,,,,,,,,,,,,,,,,,s,1,None,0,,4.0,diamondmagenta.gif,go,,,,,,,,0.517644882202,,,,,,,,,,,,,,,,,,,,,,,,3.87,0.514633178711,0.00101709365845,0.517644882202,1,s,712.173882008,,,,,,,,,,,,,,,,,,,,,,,,,,2015_Jun_23_1140,59.9610295852,LearningTask,1,15,
200,s,-200,,,,,,,,,,,,,,,,,1,0,1,0,7,3,31,2,,,,,,,,,,,,,,,,,,,,,,,,,,,,,s,1,None,0,,0.5,linecyan.gif,stop,,,,,,,,0.484456062317,,,,,,,,,,,,,,,,,,,,,,,,0.48,0.514238834381,0.00126886367798,0.484456062317,1,s,715.177097082,,,,,,,,,,,,,,,,,,,,,,,,,,2015_Jun_23_1140,59.9610295852,LearningTask,1,15,
200,s,-200,,,,,,,,,,,,,,,,,1,0,1,0,8,0,32,2,,,,,,,,,,,,,,,,,,,,,,,,,,,,,s,1,None,0,,4.0,crossblue.gif,stop,,,,,,,,0.517920970917,,,,,,,,,,,,,,,,,,,,,,,,0,0.51429104805,0.00126791000366,0.517920970917,1,s,718.181164026,,,,,,,,,,,,,,,,,,,,,,,,,,2015_Jun_23_1140,59.9610295852,LearningTask,1,15,
-200,q,200,,,,,,,,,,,,,,,,,1,0,1,0,8,1,33,1,,,,,,,,,,,,,,,,,,,,,,,,,,,,,q,1,None,0,,0.5,linecyan.gif,stop,,,,,,,,0.534327983856,,,,,,,,,,,,,,,,,,,,,,,,0.35,0.513324975967,0.00101184844971,0.534327983856,1,q,721.183937073,,,,,,,,,,,,,,,,,,,,,,,,,,2015_Jun_23_1140,59.9610295852,LearningTask,1,15,
200,w,200,,,,,,,,,,,,,,,,,1,0,1,0,8,2,34,0,,,,,,,,,,,,,,,,,,,,,,,,,,,,,w,1,None,0,,1.0,squaregray.gif,go,,,,,,,,0.568016052246,,,,,,,,,,,,,,,,,,,,,,,,1.11,0.514242887497,0.000890016555786,0.568016052246,1,w,724.187201977,,,,,,,,,,,,,,,,,,,,,,,,,,2015_Jun_23_1140,59.9610295852,LearningTask,1,15,
200,w,200,,,,,,,,,,,,,,,,,1,0,1,0,8,3,35,0,,,,,,,,,,,,,,,,,,,,,,,,,,,,,w,1,None,0,,2.0,circlewhite.gif,stop,,,,,,,,0.600797891617,,,,,,,,,,,,,,,,,,,,,,,,1.97,0.51430606842,0.00136208534241,0.600797891617,1,w,727.190711975,,,,,,,,,,,,,,,,,,,,,,,,,,2015_Jun_23_1140,59.9610295852,LearningTask,1,15,
-200,q,200,,,,,,,,,,,,,,,,,1,0,1,0,9,0,36,1,,,,,,,,,,,,,,,,,,,,,,,,,,,,,q,1,None,0,,1.0,triangleorange.gif,stop,,,,,,,,0.467641830444,,,,,,,,,,,,,,,,,,,,,,,,0,0.514089822769,0.00141382217407,0.467641830444,1,q,730.193916082,,,,,,,,,,,,,,,,,,,,,,,,,,2015_Jun_23_1140,59.9610295852,LearningTask,1,15,
-200,a,-200,,,,,,,,,,,,,,,,,1,0,1,0,9,1,37,3,,,,,,,,,,,,,,,,,,,,,,,,,,,,,a,1,None,0,,1.0,squaregray.gif,go,,,,,,,,0.484457969666,,,,,,,,,,,,,,,,,,,,,,,,0.83,0.514475107193,0.000877141952515,0.484457969666,1,a,733.197352886,,,,,,,,,,,,,,,,,,,,,,,,,,2015_Jun_23_1140,59.9610295852,LearningTask,1,15,
200,s,-200,,,,,,,,,,,,,,,,,1,0,1,0,9,2,38,2,,,,,,,,,,,,,,,,,,,,,,,,,,,,,s,1,None,0,,2.0,invertedtriangleyellow.gif,go,,,,,,,,0.434357881546,,,,,,,,,,,,,,,,,,,,,,,,1.97,0.514373064041,0.00128602981567,0.434357881546,1,s,736.200927973,,,,,,,,,,,,,,,,,,,,,,,,,,2015_Jun_23_1140,59.9610295852,LearningTask,1,15,
200,w,200,,,,,,,,,,,,,,,,,1,0,1,0,9,3,39,0,,,,,,,,,,,,,,,,,,,,,,,,,,,,,w,1,None,0,,2.0,circlewhite.gif,stop,,,,,,,,0.467725992203,,,,,,,,,,,,,,,,,,,,,,,,0,0.514034032822,0.000902891159058,0.467725992203,1,w,739.204128981,,,,,,,,,,,,,,,,,,,,,,,,,,2015_Jun_23_1140,59.9610295852,LearningTask,1,15,
200,s,-200,,,,,,,,,,,,,,,,,1,0,1,0,10,0,40,2,,,,,,,,,,,,,,,,,,,,,,,,,,,,,s,1,None,0,,0.5,hexagongreen.gif,go,,,,,,,,0.467997074127,,,,,,,,,,,,,,,,,,,,,,,,0.46,0.514290094376,0.00127601623535,0.467997074127,1,s,742.20758605,,,,,,,,,,,,,,,,,,,,,,,,,,2015_Jun_23_1140,59.9610295852,LearningTask,1,15,
200,w,200,,,,,,,,,,,,,,,,,1,0,1,0,10,1,41,0,,,,,,,,,,,,,,,,,,,,,,,,,,,,,w,1,None,0,,4.0,crossblue.gif,stop,,,,,,,,0.417874097824,,,,,,,,,,,,,,,,,,,,,,,,3.82,0.514374017715,0.000906944274902,0.417874097824,1,w,745.210985899,,,,,,,,,,,,,,,,,,,,,,,,,,2015_Jun_23_1140,59.9610295852,LearningTask,1,15,
200,w,200,,,,,,,,,,,,,,,,,1,0,1,0,10,2,42,0,,,,,,,,,,,,,,,,,,,,,,,,,,,,,w,1,None,0,,2.0,circlewhite.gif,stop,,,,,,,,0.467649936676,,,,,,,,,,,,,,,,,,,,,,,,2.0,0.513924837112,0.000883817672729,0.467649936676,1,w,748.214237928,,,,,,,,,,,,,,,,,,,,,,,,,,2015_Jun_23_1140,59.9610295852,LearningTask,1,15,
-200,q,200,,,,,,,,,,,,,,,,,1,0,1,0,10,3,43,1,,,,,,,,,,,,,,,,,,,,,,,,,,,,,q,1,None,0,,4.0,crossblue.gif,stop,,,,,,,,0.584469079971,,,,,,,,,,,,,,,,,,,,,,,,0,0.514361143112,0.000881195068359,0.584469079971,1,q,751.217489004,,,,,,,,,,,,,,,,,,,,,,,,,,2015_Jun_23_1140,59.9610295852,LearningTask,1,15,
-200,a,-200,,,,,,,,,,,,,,,,,1,0,1,0,11,0,44,3,,,,,,,,,,,,,,,,,,,,,,,,,,,,,a,1,None,0,,1.0,squaregray.gif,go,,,,,,,,0.517581224442,,,,,,,,,,,,,,,,,,,,,,,,0,0.514442920685,0.000890970230103,0.517581224442,1,a,754.221265078,,,,,,,,,,,,,,,,,,,,,,,,,,2015_Jun_23_1140,59.9610295852,LearningTask,1,15,
-200,q,200,,,,,,,,,,,,,,,,,1,0,1,0,11,1,45,1,,,,,,,,,,,,,,,,,,,,,,,,,,,,,q,1,None,0,,1.0,triangleorange.gif,stop,,,,,,,,0.584853887558,,,,,,,,,,,,,,,,,,,,,,,,1.24,0.514068126678,0.000912189483643,0.584853887558,1,q,757.22438693,,,,,,,,,,,,,,,,,,,,,,,,,,2015_Jun_23_1140,59.9610295852,LearningTask,1,15,
-200,q,200,,,,,,,,,,,,,,,,,1,0,1,0,11,2,46,1,,,,,,,,,,,,,,,,,,,,,,,,,,,,,q,1,None,0,,2.0,circlewhite.gif,stop,,,,,,,,0.600965976715,,,,,,,,,,,,,,,,,,,,,,,,1.91,0.514282941818,0.000946044921875,0.600965976715,1,q,760.227771997,,,,,,,,,,,,,,,,,,,,,,,,,,2015_Jun_23_1140,59.9610295852,LearningTask,1,15,
200,s,-200,,,,,,,,,,,,,,,,,1,0,1,0,11,3,47,2,,,,,,,,,,,,,,,,,,,,,,,,,,,,,s,1,None,0,,0.5,linecyan.gif,stop,,,,,,,,0.550802946091,,,,,,,,,,,,,,,,,,,,,,,,0.5,0.514348983765,0.000883817672729,0.550802946091,1,s,763.231116056,,,,,,,,,,,,,,,,,,,,,,,,,,2015_Jun_23_1140,59.9610295852,LearningTask,1,15,
200,s,-200,,,,,,,,,,,,,,,,,1,0,1,0,12,0,48,2,,,,,,,,,,,,,,,,,,,,,,,,,,,,,s,1,None,0,,1.0,triangleorange.gif,stop,,,,,,,,0.484385967255,,,,,,,,,,,,,,,,,,,,,,,,0.89,0.514376163483,0.000888109207153,0.484385967255,1,s,766.234539986,,,,,,,,,,,,,,,,,,,,,,,,,,2015_Jun_23_1140,59.9610295852,LearningTask,1,15,
200,w,200,,,,,,,,,,,,,,,,,1,0,1,0,12,1,49,0,,,,,,,,,,,,,,,,,,,,,,,,,,,,,w,1,None,0,,1.0,squaregray.gif,go,,,,,,,,0.484659910202,,,,,,,,,,,,,,,,,,,,,,,,1.04,0.513795137405,0.000912189483643,0.484659910202,1,w,769.237849951,,,,,,,,,,,,,,,,,,,,,,,,,,2015_Jun_23_1140,59.9610295852,LearningTask,1,15,
200,w,200,,,,,,,,,,,,,,,,,1,0,1,0,12,2,50,0,,,,,,,,,,,,,,,,,,,,,,,,,,,,,w,1,None,0,,1.0,squaregray.gif,go,,,,,,,,0.484536170959,,,,,,,,,,,,,,,,,,,,,,,,1.25,0.51432299614,0.00088095664978,0.484536170959,1,w,772.241241932,,,,,,,,,,,,,,,,,,,,,,,,,,2015_Jun_23_1140,59.9610295852,LearningTask,1,15,
-200,a,-200,,,,,,,,,,,,,,,,,1,0,1,0,12,3,51,3,,,,,,,,,,,,,,,,,,,,,,,,,,,,,a,1,None,0,,4.0,diamondmagenta.gif,go,,,,,,,,0.55154299736,,,,,,,,,,,,,,,,,,,,,,,,0,0.514415025711,0.000895977020264,0.55154299736,1,a,775.244920969,,,,,,,,,,,,,,,,,,,,,,,,,,2015_Jun_23_1140,59.9610295852,LearningTask,1,15,
200,s,-200,,,,,,,,,,,,,,,,,1,0,1,0,13,0,52,2,,,,,,,,,,,,,,,,,,,,,,,,,,,,,s,1,None,0,,0.5,linecyan.gif,stop,,,,,,,,0.451235055923,,,,,,,,,,,,,,,,,,,,,,,,0.46,0.513600826263,0.000893831253052,0.451235055923,1,s,778.247958899,,,,,,,,,,,,,,,,,,,,,,,,,,2015_Jun_23_1140,59.9610295852,LearningTask,1,15,
200,s,-200,,,,,,,,,,,,,,,,,1,0,1,0,13,1,53,2,,,,,,,,,,,,,,,,,,,,,,,,,,,,,s,1,None,0,,4.0,crossblue.gif,stop,,,,,,,,0.567855119705,,,,,,,,,,,,,,,,,,,,,,,,4.25,0.514560937881,0.000895023345947,0.567855119705,1,s,781.251410961,,,,,,,,,,,,,,,,,,,,,,,,,,2015_Jun_23_1140,59.9610295852,LearningTask,1,15,
200,w,200,,,,,,,,,,,,,,,,,1,0,1,0,13,2,54,0,,,,,,,,,,,,,,,,,,,,,,,,,,,,,w,1,None,0,,2.0,invertedtriangleyellow.gif,go,,,,,,,,0.451133966446,,,,,,,,,,,,,,,,,,,,,,,,2.24,0.514166116714,0.000890016555786,0.451133966446,1,w,784.255034924,,,,,,,,,,,,,,,,,,,,,,,,,,2015_Jun_23_1140,59.9610295852,LearningTask,1,15,
200,s,-200,,,,,,,,,,,,,,,,,1,0,1,0,13,3,55,2,,,,,,,,,,,,,,,,,,,,,,,,,,,,,s,1,None,0,,2.0,circlewhite.gif,stop,,,,,,,,0.434502840042,,,,,,,,,,,,,,,,,,,,,,,,0,0.513981103897,0.000900983810425,0.434502840042,1,s,787.258162975,,,,,,,,,,,,,,,,,,,,,,,,,,2015_Jun_23_1140,59.9610295852,LearningTask,1,15,
-200,a,-200,,,,,,,,,,,,,,,,,1,0,1,0,14,0,56,3,,,,,,,,,,,,,,,,,,,,,,,,,,,,,a,1,None,0,,1.0,squaregray.gif,go,,,,,,,,0.501412153244,,,,,,,,,,,,,,,,,,,,,,,,0.77,0.514117002487,0.000876903533936,0.501412153244,1,a,790.26147294,,,,,,,,,,,,,,,,,,,,,,,,,,2015_Jun_23_1140,59.9610295852,LearningTask,1,15,
200,w,200,,,,,,,,,,,,,,,,,1,0,1,0,14,1,57,0,,,,,,,,,,,,,,,,,,,,,,,,,,,,,w,1,None,0,,2.0,circlewhite.gif,stop,,,,,,,,0.400813102722,,,,,,,,,,,,,,,,,,,,,,,,1.85,0.514312982559,0.000895977020264,0.400813102722,1,w,793.265173912,,,,,,,,,,,,,,,,,,,,,,,,,,2015_Jun_23_1140,59.9610295852,LearningTask,1,15,
-200,q,200,,,,,,,,,,,,,,,,,1,0,1,0,14,2,58,1,,,,,,,,,,,,,,,,,,,,,,,,,,,,,q,1,None,0,,0.5,hexagongreen.gif,go,,,,,,,,0.534350156784,,,,,,,,,,,,,,,,,,,,,,,,0.47,0.513992786407,0.000891923904419,0.534350156784,1,q,796.268346071,,,,,,,,,,,,,,,,,,,,,,,,,,2015_Jun_23_1140,59.9610295852,LearningTask,1,15,
200,s,-200,,,,,,,,,,,,,,,,,1,0,1,0,14,3,59,2,,,,,,,,,,,,,,,,,,,,,,,,,,,,,s,1,None,0,,1.0,triangleorange.gif,stop,,,,,,,,0.467741012573,,,,,,,,,,,,,,,,,,,,,,,,0.83,0.514190196991,0.00107502937317,0.467741012573,1,s,799.271859884,,,,,,,,,,,,,,,,,,,,,,,,,,2015_Jun_23_1140,59.9610295852,LearningTask,1,15,
200,s,-200,,,,,,,,,,,,,,,,,1,0,1,0,15,0,60,2,,,,,,,,,,,,,,,,,,,,,,,,,,,,,s,1,None,0,,4.0,diamondmagenta.gif,go,,,,,,,,0.501376152039,,,,,,,,,,,,,,,,,,,,,,,,3.8,0.51406288147,0.000901937484741,0.501376152039,1,s,802.27501893,,,,,,,,,,,,,,,,,,,,,,,,,,2015_Jun_23_1140,59.9610295852,LearningTask,1,15,
200,s,-200,,,,,,,,,,,,,,,,,1,0,1,0,15,1,61,2,,,,,,,,,,,,,,,,,,,,,,,,,,,,,s,1,None,0,,2.0,invertedtriangleyellow.gif,go,,,,,,,,0.534405946732,,,,,,,,,,,,,,,,,,,,,,,,0,0.514157056808,0.00089693069458,0.534405946732,1,s,805.278378963,,,,,,,,,,,,,,,,,,,,,,,,,,2015_Jun_23_1140,59.9610295852,LearningTask,1,15,
-200,q,200,,,,,,,,,,,,,,,,,1,0,1,0,15,2,62,1,,,,,,,,,,,,,,,,,,,,,,,,,,,,,q,1,None,0,,1.0,squaregray.gif,go,,,,,,,,0.651121854782,,,,,,,,,,,,,,,,,,,,,,,,0.98,0.513992071152,0.000977039337158,0.651121854782,1,q,808.281790018,,,,,,,,,,,,,,,,,,,,,,,,,,2015_Jun_23_1140,59.9610295852,LearningTask,1,15,
-200,q,200,,,,,,,,,,,,,,,,,1,0,1,0,15,3,63,1,,,,,,,,,,,,,,,,,,,,,,,,,,,,,q,1,None,0,,2.0,circlewhite.gif,stop,,,,,,,,0.618008136749,,,,,,,,,,,,,,,,,,,,,,,,1.88,0.51410484314,0.000886917114258,0.618008136749,1,q,811.28518796,,,,,,,,,,,,,,,,,,,,,,,,,,2015_Jun_23_1140,59.9610295852,LearningTask,1,15,
-200,q,200,,,,,,,,,,,,,,,,,1,0,1,0,16,0,64,1,,,,,,,,,,,,,,,,,,,,,,,,,,,,,q,1,None,0,,4.0,crossblue.gif,stop,,,,,,,,0.567523002625,,,,,,,,,,,,,,,,,,,,,,,,3.97,0.514539957047,0.000907182693481,0.567523002625,1,q,814.288805962,,,,,,,,,,,,,,,,,,,,,,,,,,2015_Jun_23_1140,59.9610295852,LearningTask,1,15,
200,s,-200,,,,,,,,,,,,,,,,,1,0,1,0,16,1,65,2,,,,,,,,,,,,,,,,,,,,,,,,,,,,,s,1,None,0,,2.0,circlewhite.gif,stop,,,,,,,,0.483852863312,,,,,,,,,,,,,,,,,,,,,,,,2.08,0.513997793198,0.000888824462891,0.483852863312,1,s,817.291965008,,,,,,,,,,,,,,,,,,,,,,,,,,2015_Jun_23_1140,59.9610295852,LearningTask,1,15,
200,w,200,,,,,,,,,,,,,,,,,1,0,1,0,16,2,66,0,,,,,,,,,,,,,,,,,,,,,,,,,,,,,w,1,None,0,,4.0,diamondmagenta.gif,go,,,,,,,,0.417929172516,,,,,,,,,,,,,,,,,,,,,,,,4.24,0.514178037643,0.000874996185303,0.417929172516,1,w,820.295268059,,,,,,,,,,,,,,,,,,,,,,,,,,2015_Jun_23_1140,59.9610295852,LearningTask,1,15,
200,s,-200,,,,,,,,,,,,,,,,,1,0,1,0,16,3,67,2,,,,,,,,,,,,,,,,,,,,,,,,,,,,,s,1,None,0,,0.5,linecyan.gif,stop,,,,,,,,0.451101064682,,,,,,,,,,,,,,,,,,,,,,,,0,0.514255046844,0.000884056091309,0.451101064682,1,s,823.299237967,,,,,,,,,,,,,,,,,,,,,,,,,,2015_Jun_23_1140,59.9610295852,LearningTask,1,15,
200,w,200,,,,,,,,,,,,,,,,,1,0,1,0,17,0,68,0,,,,,,,,,,,,,,,,,,,,,,,,,,,,,w,1,None,0,,2.0,invertedtriangleyellow.gif,go,,,,,,,,0.41789484024,,,,,,,,,,,,,,,,,,,,,,,,1.98,0.513406038284,0.000943899154663,0.41789484024,1,w,826.302238941,,,,,,,,,,,,,,,,,,,,,,,,,,2015_Jun_23_1140,59.9610295852,LearningTask,1,15,
-200,a,-200,,,,,,,,,,,,,,,,,1,0,1,0,17,1,69,3,,,,,,,,,,,,,,,,,,,,,,,,,,,,,a,1,None,0,,0.5,linecyan.gif,stop,,,,,,,,0.600818872452,,,,,,,,,,,,,,,,,,,,,,,,0,0.514328956604,0.00088095664978,0.600818872452,1,a,829.305520058,,,,,,,,,,,,,,,,,,,,,,,,,,2015_Jun_23_1140,59.9610295852,LearningTask,1,15,
-200,a,-200,,,,,,,,,,,,,,,,,1,0,1,0,17,2,70,3,,,,,,,,,,,,,,,,,,,,,,,,,,,,,a,1,None,0,,1.0,triangleorange.gif,stop,,,,,,,,0.518313169479,,,,,,,,,,,,,,,,,,,,,,,,1.04,0.514093875885,0.000883817672729,0.518313169479,1,a,832.309169054,,,,,,,,,,,,,,,,,,,,,,,,,,2015_Jun_23_1140,59.9610295852,LearningTask,1,15,
200,w,200,,,,,,,,,,,,,,,,,1,0,1,0,17,3,71,0,,,,,,,,,,,,,,,,,,,,,,,,,,,,,w,1,None,0,,2.0,circlewhite.gif,stop,,,,,,,,0.484337091446,,,,,,,,,,,,,,,,,,,,,,,,2.14,0.513891935349,0.000892877578735,0.484337091446,1,w,835.312186003,,,,,,,,,,,,,,,,,,,,,,,,,,2015_Jun_23_1140,59.9610295852,LearningTask,1,15,
-200,q,200,,,,,,,,,,,,,,,,,1,0,1,0,18,0,72,1,,,,,,,,,,,,,,,,,,,,,,,,,,,,,q,1,None,0,,0.5,hexagongreen.gif,go,,,,,,,,0.451423168182,,,,,,,,,,,,,,,,,,,,,,,,0.65,0.514277935028,0.000951051712036,0.451423168182,1,q,838.31555891,,,,,,,,,,,,,,,,,,,,,,,,,,2015_Jun_23_1140,59.9610295852,LearningTask,1,15,
-200,a,-200,,,,,,,,,,,,,,,,,1,0,1,0,18,1,73,3,,,,,,,,,,,,,,,,,,,,,,,,,,,,,a,1,None,0,,2.0,invertedtriangleyellow.gif,go,,,,,,,,0.50089597702,,,,,,,,,,,,,,,,,,,,,,,,1.75,0.514327049255,0.000890970230103,0.50089597702,1,a,841.31899786,,,,,,,,,,,,,,,,,,,,,,,,,,2015_Jun_23_1140,59.9610295852,LearningTask,1,15,
200,s,-200,,,,,,,,,,,,,,,,,1,0,1,0,18,2,74,2,,,,,,,,,,,,,,,,,,,,,,,,,,,,,s,1,None,0,,1.0,squaregray.gif,go,,,,,,,,0.450958967209,,,,,,,,,,,,,,,,,,,,,,,,0.8,0.514495134354,0.000885009765625,0.450958967209,1,s,844.322216034,,,,,,,,,,,,,,,,,,,,,,,,,,2015_Jun_23_1140,59.9610295852,LearningTask,1,15,
-200,a,-200,,,,,,,,,,,,,,,,,1,0,1,0,18,3,75,3,,,,,,,,,,,,,,,,,,,,,,,,,,,,,a,1,None,0,,2.0,invertedtriangleyellow.gif,go,,,,,,,,0.383985042572,,,,,,,,,,,,,,,,,,,,,,,,1.96,0.514536142349,0.00108504295349,0.383985042572,1,a,847.325922966,,,,,,,,,,,,,,,,,,,,,,,,,,2015_Jun_23_1140,59.9610295852,LearningTask,1,15,
200,w,200,,,,,,,,,,,,,,,,,1,0,1,0,19,0,76,0,,,,,,,,,,,,,,,,,,,,,,,,,,,,,w,1,None,0,,1.0,triangleorange.gif,stop,,,,,,,,0.433861017227,,,,,,,,,,,,,,,,,,,,,,,,0,0.514086961746,0.000888109207153,0.433861017227,1,w,850.329055071,,,,,,,,,,,,,,,,,,,,,,,,,,2015_Jun_23_1140,59.9610295852,LearningTask,1,15,
-200,q,200,,,,,,,,,,,,,,,,,1,0,1,0,19,1,77,1,,,,,,,,,,,,,,,,,,,,,,,,,,,,,q,1,None,0,,1.0,triangleorange.gif,stop,,,,,,,,0.401215076447,,,,,,,,,,,,,,,,,,,,,,,,0.98,0.514194965363,0.000887870788574,0.401215076447,1,q,853.332419872,,,,,,,,,,,,,,,,,,,,,,,,,,2015_Jun_23_1140,59.9610295852,LearningTask,1,15,
-200,q,200,,,,,,,,,,,,,,,,,1,0,1,0,19,2,78,1,,,,,,,,,,,,,,,,,,,,,,,,,,,,,q,1,None,0,,1.0,squaregray.gif,go,,,,,,,,0.534570932388,,,,,,,,,,,,,,,,,,,,,,,,1.05,0.514019012451,0.000915050506592,0.534570932388,1,q,856.335836887,,,,,,,,,,,,,,,,,,,,,,,,,,2015_Jun_23_1140,59.9610295852,LearningTask,1,15,
200,s,-200,,,,,,,,,,,,,,,,,1,0,1,0,19,3,79,2,,,,,,,,,,,,,,,,,,,,,,,,,,,,,s,1,None,0,,4.0,diamondmagenta.gif,go,,,,,,,,0.451106071472,,,,,,,,,,,,,,,,,,,,,,,,3.85,0.514236927032,0.000878095626831,0.451106071472,1,s,859.339250088,,,,,,,,,,,,,,,,,,,,,,,,,,2015_Jun_23_1140,59.9610295852,LearningTask,1,15,
200,s,-200,,,,,,,,,,,,,,,,,1,0,1,0,20,0,80,2,,,,,,,,,,,,,,,,,,,,,,,,,,,,,s,1,None,0,,0.5,linecyan.gif,stop,,,,,,,,0.58447098732,,,,,,,,,,,,,,,,,,,,,,,,0.7,0.51407790184,0.000934839248657,0.58447098732,1,s,862.342648983,,,,,,,,,,,,,,,,,,,,,,,,,,2015_Jun_23_1140,59.9610295852,LearningTask,1,15,
-200,q,200,,,,,,,,,,,,,,,,,1,0,1,0,20,1,81,1,,,,,,,,,,,,,,,,,,,,,,,,,,,,,q,1,None,0,,2.0,invertedtriangleyellow.gif,go,,,,,,,,0.450993776321,,,,,,,,,,,,,,,,,,,,,,,,0,0.514059066772,0.000915050506592,0.450993776321,1,q,865.345956087,,,,,,,,,,,,,,,,,,,,,,,,,,2015_Jun_23_1140,59.9610295852,LearningTask,1,15,
200,w,200,,,,,,,,,,,,,,,,,1,0,1,0,20,2,82,0,,,,,,,,,,,,,,,,,,,,,,,,,,,,,w,1,None,0,,4.0,crossblue.gif,stop,,,,,,,,0.467533111572,,,,,,,,,,,,,,,,,,,,,,,,0,0.514307975769,0.000890016555786,0.467533111572,1,w,868.34937191,,,,,,,,,,,,,,,,,,,,,,,,,,2015_Jun_23_1140,59.9610295852,LearningTask,1,15,
-200,q,200,,,,,,,,,,,,,,,,,1,0,1,0,20,3,83,1,,,,,,,,,,,,,,,,,,,,,,,,,,,,,q,1,None,0,,1.0,triangleorange.gif,stop,,,,,,,,0.317384958267,,,,,,,,,,,,,,,,,,,,,,,,1.08,0.514173984528,0.000888824462891,0.317384958267,1,q,871.352963924,,,,,,,,,,,,,,,,,,,,,,,,,,2015_Jun_23_1140,59.9610295852,LearningTask,1,15,
200,s,-200,,,,,,,,,,,,,,,,,1,0,1,0,21,0,84,2,,,,,,,,,,,,,,,,,,,,,,,,,,,,,s,1,None,0,,4.0,crossblue.gif,stop,,,,,,,,0.450392007828,,,,,,,,,,,,,,,,,,,,,,,,3.95,0.513990879059,0.000900030136108,0.450392007828,1,s,874.356050968,,,,,,,,,,,,,,,,,,,,,,,,,,2015_Jun_23_1140,59.9610295852,LearningTask,1,15,
-200,a,-200,,,,,,,,,,,,,,,,,1,0,1,0,21,1,85,3,,,,,,,,,,,,,,,,,,,,,,,,,,,,,a,1,None,0,,4.0,diamondmagenta.gif,go,,,,,,,,0.483793020248,,,,,,,,,,,,,,,,,,,,,,,,4.03,0.514512062073,0.000881910324097,0.483793020248,1,a,877.359477043,,,,,,,,,,,,,,,,,,,,,,,,,,2015_Jun_23_1140,59.9610295852,LearningTask,1,15,
-200,a,-200,,,,,,,,,,,,,,,,,1,0,1,0,21,2,86,3,,,,,,,,,,,,,,,,,,,,,,,,,,,,,a,1,None,0,,4.0,crossblue.gif,stop,,,,,,,,0.551148176193,,,,,,,,,,,,,,,,,,,,,,,,3.8,0.514358043671,0.000883102416992,0.551148176193,1,a,880.362961054,,,,,,,,,,,,,,,,,,,,,,,,,,2015_Jun_23_1140,59.9610295852,LearningTask,1,15,
-200,q,200,,,,,,,,,,,,,,,,,1,0,1,0,21,3,87,1,,,,,,,,,,,,,,,,,,,,,,,,,,,,,q,1,None,0,,2.0,circlewhite.gif,stop,,,,,,,,0.500803947449,,,,,,,,,,,,,,,,,,,,,,,,1.81,0.514218091965,0.000898122787476,0.500803947449,1,q,883.366214991,,,,,,,,,,,,,,,,,,,,,,,,,,2015_Jun_23_1140,59.9610295852,LearningTask,1,15,
-200,a,-200,,,,,,,,,,,,,,,,,1,0,1,0,22,0,88,3,,,,,,,,,,,,,,,,,,,,,,,,,,,,,a,1,None,0,,1.0,triangleorange.gif,stop,,,,,,,,0.517782926559,,,,,,,,,,,,,,,,,,,,,,,,0.89,0.514326095581,0.00101208686829,0.517782926559,1,a,886.369428873,,,,,,,,,,,,,,,,,,,,,,,,,,2015_Jun_23_1140,59.9610295852,LearningTask,1,15,
200,w,200,,,,,,,,,,,,,,,,,1,0,1,0,22,1,89,0,,,,,,,,,,,,,,,,,,,,,,,,,,,,,w,1,None,0,,2.0,circlewhite.gif,stop,,,,,,,,0.434298992157,,,,,,,,,,,,,,,,,,,,,,,,1.94,0.514390945435,0.000887870788574,0.434298992157,1,w,889.373184919,,,,,,,,,,,,,,,,,,,,,,,,,,2015_Jun_23_1140,59.9610295852,LearningTask,1,15,
-200,q,200,,,,,,,,,,,,,,,,,1,0,1,0,22,2,90,1,,,,,,,,,,,,,,,,,,,,,,,,,,,,,q,1,None,0,,0.5,hexagongreen.gif,go,,,,,,,,0.500806808472,,,,,,,,,,,,,,,,,,,,,,,,0.64,0.514260053635,0.000910997390747,0.500806808472,1,q,892.376340866,,,,,,,,,,,,,,,,,,,,,,,,,,2015_Jun_23_1140,59.9610295852,LearningTask,1,15,
200,w,200,,,,,,,,,,,,,,,,,1,0,1,0,22,3,91,0,,,,,,,,,,,,,,,,,,,,,,,,,,,,,w,1,None,0,,2.0,circlewhite.gif,stop,,,,,,,,0.550881147385,,,,,,,,,,,,,,,,,,,,,,,,0,0.514173030853,0.000923156738281,0.550881147385,1,w,895.379747868,,,,,,,,,,,,,,,,,,,,,,,,,,2015_Jun_23_1140,59.9610295852,LearningTask,1,15,
-200,a,-200,,,,,,,,,,,,,,,,,1,0,1,0,23,0,92,3,,,,,,,,,,,,,,,,,,,,,,,,,,,,,a,1,None,0,,4.0,crossblue.gif,stop,,,,,,,,0.484260082245,,,,,,,,,,,,,,,,,,,,,,,,4.22,0.514353990555,0.000884056091309,0.484260082245,1,a,898.38331008,,,,,,,,,,,,,,,,,,,,,,,,,,2015_Jun_23_1140,59.9610295852,LearningTask,1,15,
-200,q,200,,,,,,,,,,,,,,,,,1,0,1,0,23,1,93,1,,,,,,,,,,,,,,,,,,,,,,,,,,,,,q,1,None,0,,4.0,crossblue.gif,stop,,,,,,,,0.567650079727,,,,,,,,,,,,,,,,,,,,,,,,4.06,0.514236927032,0.000885963439941,0.567650079727,1,q,901.386694908,,,,,,,,,,,,,,,,,,,,,,,,,,2015_Jun_23_1140,59.9610295852,LearningTask,1,15,
-200,a,-200,,,,,,,,,,,,,,,,,1,0,1,0,23,2,94,3,,,,,,,,,,,,,,,,,,,,,,,,,,,,,a,1,None,0,,1.0,squaregray.gif,go,,,,,,,,0.567135095596,,,,,,,,,,,,,,,,,,,,,,,,0.9,0.514173984528,0.000875949859619,0.567135095596,1,a,904.390022039,,,,,,,,,,,,,,,,,,,,,,,,,,2015_Jun_23_1140,59.9610295852,LearningTask,1,15,
200,w,200,,,,,,,,,,,,,,,,,1,0,1,0,23,3,95,0,,,,,,,,,,,,,,,,,,,,,,,,,,,,,w,1,None,0,,0.5,hexagongreen.gif,go,,,,,,,,0.434149026871,,,,,,,,,,,,,,,,,,,,,,,,0.36,0.5141518116,0.000883817672729,0.434149026871,1,w,907.393337965,,,,,,,,,,,,,,,,,,,,,,,,,,2015_Jun_23_1140,59.9610295852,LearningTask,1,15,
-200,q,200,,,,,,,,,,,,,,,,,1,0,1,0,24,0,96,1,,,,,,,,,,,,,,,,,,,,,,,,,,,,,q,1,None,0,,0.5,linecyan.gif,stop,,,,,,,,0.484285831451,,,,,,,,,,,,,,,,,,,,,,,,0,0.514175891876,0.000885009765625,0.484285831451,1,q,910.396750927,,,,,,,,,,,,,,,,,,,,,,,,,,2015_Jun_23_1140,59.9610295852,LearningTask,1,15,
200,w,200,,,,,,,,,,,,,,,,,1,0,1,0,24,1,97,0,,,,,,,,,,,,,,,,,,,,,,,,,,,,,w,1,None,0,,1.0,triangleorange.gif,stop,,,,,,,,0.517550945282,,,,,,,,,,,,,,,,,,,,,,,,1.21,0.513922929764,0.000908851623535,0.517550945282,1,w,913.400038958,,,,,,,,,,,,,,,,,,,,,,,,,,2015_Jun_23_1140,59.9610295852,LearningTask,1,15,
200,w,200,,,,,,,,,,,,,,,,,1,0,1,0,24,2,98,0,,,,,,,,,,,,,,,,,,,,,,,,,,,,,w,1,None,0,,1.0,triangleorange.gif,stop,,,,,,,,0.534296989441,,,,,,,,,,,,,,,,,,,,,,,,1.21,0.514009952545,0.000891923904419,0.534296989441,1,w,916.403339863,,,,,,,,,,,,,,,,,,,,,,,,,,2015_Jun_23_1140,59.9610295852,LearningTask,1,15,
200,w,200,,,,,,,,,,,,,,,,,1,0,1,0,24,3,99,0,,,,,,,,,,,,,,,,,,,,,,,,,,,,,w,1,None,0,,2.0,circlewhite.gif,stop,,,,,,,,0.501000881195,,,,,,,,,,,,,,,,,,,,,,,,2.25,0.514621019363,0.000885009765625,0.501000881195,1,w,919.40724206,,,,,,,,,,,,,,,,,,,,,,,,,,2015_Jun_23_1140,59.9610295852,LearningTask,1,15,
,,,,,,,,,,,,,,,,,,,1,0,1,0,,,,,,,,,,,,,,,,,,,,,,,,,,,,,,,,,,,,,,,,,,,,,,,,,,,,,,,,,,,,,,,,,,,,,,,,,,,,,,,9,55.1314759254,,,,,,,,,,,,,,,,,,,,,,,,2015_Jun_23_1140,59.9610295852,LearningTask,1,15,
-200,a,-200,,,,,,,,,,,,,,,,,2,0,2,0,0,0,0,3,,,,,,,,,,,,,,,,,,,,,,,,,,,,,a,1,None,0,,0.5,hexagongreen.gif,go,,,,,,,,0.517645120621,,,,,,,,,,,,,,,,,,,,,,,,0.41,0.508461952209,0.00111508369446,0.517645120621,1,a,977.973478079,,,,,,,,,,,,,,,,,,,,,,,,,,2015_Jun_23_1140,59.9610295852,LearningTask,1,15,
-200,q,200,,,,,,,,,,,,,,,,,2,0,2,0,0,1,1,1,,,,,,,,,,,,,,,,,,,,,,,,,,,,,q,1,None,0,,0.5,linecyan.gif,stop,,,,,,,,0.417630910873,,,,,,,,,,,,,,,,,,,,,,,,0.73,0.513035058975,0.000917911529541,0.417630910873,1,q,980.976109982,,,,,,,,,,,,,,,,,,,,,,,,,,2015_Jun_23_1140,59.9610295852,LearningTask,1,15,
-200,q,200,,,,,,,,,,,,,,,,,2,0,2,0,0,2,2,1,,,,,,,,,,,,,,,,,,,,,,,,,,,,,q,1,None,0,,1.0,triangleorange.gif,stop,,,,,,,,0.484457969666,,,,,,,,,,,,,,,,,,,,,,,,1.2,0.514102935791,0.000885009765625,0.484457969666,1,q,983.979289055,,,,,,,,,,,,,,,,,,,,,,,,,,2015_Jun_23_1140,59.9610295852,LearningTask,1,15,
-200,a,-200,,,,,,,,,,,,,,,,,2,0,2,0,0,3,3,3,,,,,,,,,,,,,,,,,,,,,,,,,,,,,a,1,None,0,,0.5,linecyan.gif,stop,,,,,,,,0.383913040161,,,,,,,,,,,,,,,,,,,,,,,,0.66,0.514312028885,0.000953912734985,0.383913040161,1,a,986.982825994,,,,,,,,,,,,,,,,,,,,,,,,,,2015_Jun_23_1140,59.9610295852,LearningTask,1,15,
-200,a,-200,,,,,,,,,,,,,,,,,2,0,2,0,1,0,4,3,,,,,,,,,,,,,,,,,,,,,,,,,,,,,a,1,None,0,,0.5,hexagongreen.gif,go,,,,,,,,0.38440990448,,,,,,,,,,,,,,,,,,,,,,,,0.27,0.514299154282,0.000895023345947,0.38440990448,1,a,989.985944033,,,,,,,,,,,,,,,,,,,,,,,,,,2015_Jun_23_1140,59.9610295852,LearningTask,1,15,
-200,q,200,,,,,,,,,,,,,,,,,2,0,2,0,1,1,5,1,,,,,,,,,,,,,,,,,,,,,,,,,,,,,q,1,None,0,,2.0,invertedtriangleyellow.gif,go,,,,,,,,0.517982006073,,,,,,,,,,,,,,,,,,,,,,,,1.97,0.514412879944,0.000895977020264,0.517982006073,1,q,992.989217043,,,,,,,,,,,,,,,,,,,,,,,,,,2015_Jun_23_1140,59.9610295852,LearningTask,1,15,
-200,a,-200,,,,,,,,,,,,,,,,,2,0,2,0,1,2,6,3,,,,,,,,,,,,,,,,,,,,,,,,,,,,,a,1,None,0,,2.0,circlewhite.gif,stop,,,,,,,,0.333870887756,,,,,,,,,,,,,,,,,,,,,,,,1.89,0.514642000198,0.000891923904419,0.333870887756,1,a,995.992784977,,,,,,,,,,,,,,,,,,,,,,,,,,2015_Jun_23_1140,59.9610295852,LearningTask,1,15,
-200,a,-200,,,,,,,,,,,,,,,,,2,0,2,0,1,3,7,3,,,,,,,,,,,,,,,,,,,,,,,,,,,,,a,1,None,0,,2.0,invertedtriangleyellow.gif,go,,,,,,,,0.384280920029,,,,,,,,,,,,,,,,,,,,,,,,0,0.514318943024,0.000885963439941,0.384280920029,1,a,998.996305943,,,,,,,,,,,,,,,,,,,,,,,,,,2015_Jun_23_1140,59.9610295852,LearningTask,1,15,
-200,a,-200,,,,,,,,,,,,,,,,,2,0,2,0,2,0,8,3,,,,,,,,,,,,,,,,,,,,,,,,,,,,,a,1,None,0,,4.0,crossblue.gif,stop,,,,,,,,0.384130954742,,,,,,,,,,,,,,,,,,,,,,,,4.12,0.513451814651,0.000988006591797,0.384130954742,1,a,1001.99969387,,,,,,,,,,,,,,,,,,,,,,,,,,2015_Jun_23_1140,59.9610295852,LearningTask,1,15,
200,w,200,,,,,,,,,,,,,,,,,2,0,2,0,2,1,9,0,,,,,,,,,,,,,,,,,,,,,,,,,,,,,w,1,None,0,,2.0,circlewhite.gif,stop,,,,,,,,0.518117904663,,,,,,,,,,,,,,,,,,,,,,,,2.2,0.514042139053,0.000924110412598,0.518117904663,1,w,1005.00295687,,,,,,,,,,,,,,,,,,,,,,,,,,2015_Jun_23_1140,59.9610295852,LearningTask,1,15,
-200,q,200,,,,,,,,,,,,,,,,,2,0,2,0,2,2,10,1,,,,,,,,,,,,,,,,,,,,,,,,,,,,,q,1,None,0,,1.0,squaregray.gif,go,,,,,,,,0.433882951736,,,,,,,,,,,,,,,,,,,,,,,,1.1,0.514430999756,0.00128602981567,0.433882951736,1,q,1008.00631905,,,,,,,,,,,,,,,,,,,,,,,,,,2015_Jun_23_1140,59.9610295852,LearningTask,1,15,
-200,q,200,,,,,,,,,,,,,,,,,2,0,2,0,2,3,11,1,,,,,,,,,,,,,,,,,,,,,,,,,,,,,q,1,None,0,,2.0,circlewhite.gif,stop,,,,,,,,0.401121139526,,,,,,,,,,,,,,,,,,,,,,,,1.96,0.513839006424,0.000922918319702,0.401121139526,1,q,1011.00966191,,,,,,,,,,,,,,,,,,,,,,,,,,2015_Jun_23_1140,59.9610295852,LearningTask,1,15,
-200,a,-200,,,,,,,,,,,,,,,,,2,0,2,0,3,0,12,3,,,,,,,,,,,,,,,,,,,,,,,,,,,,,a,1,None,0,,0.5,linecyan.gif,stop,,,,,,,,0.384504079819,,,,,,,,,,,,,,,,,,,,,,,,0.62,0.51434803009,0.000885009765625,0.384504079819,1,a,1014.01317906,,,,,,,,,,,,,,,,,,,,,,,,,,2015_Jun_23_1140,59.9610295852,LearningTask,1,15,
200,s,-200,,,,,,,,,,,,,,,,,2,0,2,0,3,1,13,2,,,,,,,,,,,,,,,,,,,,,,,,,,,,,s,1,None,0,,2.0,circlewhite.gif,stop,,,,,,,,0.467554092407,,,,,,,,,,,,,,,,,,,,,,,,2.24,0.514183998108,0.000972986221313,0.467554092407,1,s,1017.01624489,,,,,,,,,,,,,,,,,,,,,,,,,,2015_Jun_23_1140,59.9610295852,LearningTask,1,15,
200,s,-200,,,,,,,,,,,,,,,,,2,0,2,0,3,2,14,2,,,,,,,,,,,,,,,,,,,,,,,,,,,,,s,1,None,0,,4.0,diamondmagenta.gif,go,,,,,,,,0.484549999237,,,,,,,,,,,,,,,,,,,,,,,,4.2,0.514370918274,0.000881910324097,0.484549999237,1,s,1020.01978397,,,,,,,,,,,,,,,,,,,,,,,,,,2015_Jun_23_1140,59.9610295852,LearningTask,1,15,
200,s,-200,,,,,,,,,,,,,,,,,2,0,2,0,3,3,15,2,,,,,,,,,,,,,,,,,,,,,,,,,,,,,s,1,None,0,,2.0,invertedtriangleyellow.gif,go,,,,,,,,0.434475183487,,,,,,,,,,,,,,,,,,,,,,,,1.91,0.514112949371,0.000907897949219,0.434475183487,1,s,1023.02324605,,,,,,,,,,,,,,,,,,,,,,,,,,2015_Jun_23_1140,59.9610295852,LearningTask,1,15,
-200,q,200,,,,,,,,,,,,,,,,,2,0,2,0,4,0,16,1,,,,,,,,,,,,,,,,,,,,,,,,,,,,,q,1,None,0,,4.0,diamondmagenta.gif,go,,,,,,,,0.517660140991,,,,,,,,,,,,,,,,,,,,,,,,0,0.514034032822,0.000939130783081,0.517660140991,1,q,1026.02686501,,,,,,,,,,,,,,,,,,,,,,,,,,2015_Jun_23_1140,59.9610295852,LearningTask,1,15,
200,s,-200,,,,,,,,,,,,,,,,,2,0,2,0,4,1,17,2,,,,,,,,,,,,,,,,,,,,,,,,,,,,,s,1,None,0,,4.0,crossblue.gif,stop,,,,,,,,0.434104919434,,,,,,,,,,,,,,,,,,,,,,,,0,0.513965129852,0.000903129577637,0.434104919434,1,s,1029.02997088,,,,,,,,,,,,,,,,,,,,,,,,,,2015_Jun_23_1140,59.9610295852,LearningTask,1,15,
-200,q,200,,,,,,,,,,,,,,,,,2,0,2,0,4,2,18,1,,,,,,,,,,,,,,,,,,,,,,,,,,,,,q,1,None,0,,2.0,circlewhite.gif,stop,,,,,,,,0.501015901566,,,,,,,,,,,,,,,,,,,,,,,,2.14,0.514177083969,0.000890970230103,0.501015901566,1,q,1032.03328109,,,,,,,,,,,,,,,,,,,,,,,,,,2015_Jun_23_1140,59.9610295852,LearningTask,1,15,
200,w,200,,,,,,,,,,,,,,,,,2,0,2,0,4,3,19,0,,,,,,,,,,,,,,,,,,,,,,,,,,,,,w,1,None,0,,1.0,squaregray.gif,go,,,,,,,,0.467305898666,,,,,,,,,,,,,,,,,,,,,,,,1.01,0.514279127121,0.000897169113159,0.467305898666,1,w,1035.03673005,,,,,,,,,,,,,,,,,,,,,,,,,,2015_Jun_23_1140,59.9610295852,LearningTask,1,15,
-200,q,200,,,,,,,,,,,,,,,,,2,0,2,0,5,0,20,1,,,,,,,,,,,,,,,,,,,,,,,,,,,,,q,1,None,0,,2.0,circlewhite.gif,stop,,,,,,,,0.434509992599,,,,,,,,,,,,,,,,,,,,,,,,1.9,0.514225959778,0.000885963439941,0.434509992599,1,q,1038.04005194,,,,,,,,,,,,,,,,,,,,,,,,,,2015_Jun_23_1140,59.9610295852,LearningTask,1,15,
200,s,-200,,,,,,,,,,,,,,,,,2,0,2,0,5,1,21,2,,,,,,,,,,,,,,,,,,,,,,,,,,,,,s,1,None,0,,2.0,invertedtriangleyellow.gif,go,,,,,,,,0.450829029083,,,,,,,,,,,,,,,,,,,,,,,,2.0,0.514551877975,0.00095796585083,0.450829029083,1,s,1041.04346108,,,,,,,,,,,,,,,,,,,,,,,,,,2015_Jun_23_1140,59.9610295852,LearningTask,1,15,
-200,q,200,,,,,,,,,,,,,,,,,2,0,2,0,5,2,22,1,,,,,,,,,,,,,,,,,,,,,,,,,,,,,q,1,None,0,,4.0,diamondmagenta.gif,go,,,,,,,,0.467878818512,,,,,,,,,,,,,,,,,,,,,,,,4.14,0.514163017273,0.000993967056274,0.467878818512,1,q,1044.04682899,,,,,,,,,,,,,,,,,,,,,,,,,,2015_Jun_23_1140,59.9610295852,LearningTask,1,15,
-200,q,200,,,,,,,,,,,,,,,,,2,0,2,0,5,3,23,1,,,,,,,,,,,,,,,,,,,,,,,,,,,,,q,1,None,0,,0.5,hexagongreen.gif,go,,,,,,,,0.451190948486,,,,,,,,,,,,,,,,,,,,,,,,0.36,0.514335870743,0.000890970230103,0.451190948486,1,q,1047.05010295,,,,,,,,,,,,,,,,,,,,,,,,,,2015_Jun_23_1140,59.9610295852,LearningTask,1,15,
-200,a,-200,,,,,,,,,,,,,,,,,2,0,2,0,6,0,24,3,,,,,,,,,,,,,,,,,,,,,,,,,,,,,a,1,None,0,,1.0,squaregray.gif,go,,,,,,,,0.517637968063,,,,,,,,,,,,,,,,,,,,,,,,0,0.514122962952,0.000940084457397,0.517637968063,1,a,1050.05402088,,,,,,,,,,,,,,,,,,,,,,,,,,2015_Jun_23_1140,59.9610295852,LearningTask,1,15,
200,s,-200,,,,,,,,,,,,,,,,,2,0,2,0,6,1,25,2,,,,,,,,,,,,,,,,,,,,,,,,,,,,,s,1,None,0,,4.0,crossblue.gif,stop,,,,,,,,0.450907945633,,,,,,,,,,,,,,,,,,,,,,,,3.81,0.51389503479,0.000881910324097,0.450907945633,1,s,1053.05702806,,,,,,,,,,,,,,,,,,,,,,,,,,2015_Jun_23_1140,59.9610295852,LearningTask,1,15,
200,s,-200,,,,,,,,,,,,,,,,,2,0,2,0,6,2,26,2,,,,,,,,,,,,,,,,,,,,,,,,,,,,,s,1,None,0,,4.0,crossblue.gif,stop,,,,,,,,0.46776008606,,,,,,,,,,,,,,,,,,,,,,,,3.84,0.514151096344,0.00090217590332,0.46776008606,1,s,1056.06044793,,,,,,,,,,,,,,,,,,,,,,,,,,2015_Jun_23_1140,59.9610295852,LearningTask,1,15,
200,w,200,,,,,,,,,,,,,,,,,2,0,2,0,6,3,27,0,,,,,,,,,,,,,,,,,,,,,,,,,,,,,w,1,None,0,,0.5,linecyan.gif,stop,,,,,,,,0.517367839813,,,,,,,,,,,,,,,,,,,,,,,,0.61,0.514243125916,0.000929117202759,0.517367839813,1,w,1059.06391001,,,,,,,,,,,,,,,,,,,,,,,,,,2015_Jun_23_1140,59.9610295852,LearningTask,1,15,
200,w,200,,,,,,,,,,,,,,,,,2,0,2,0,7,0,28,0,,,,,,,,,,,,,,,,,,,,,,,,,,,,,w,1,None,0,,2.0,invertedtriangleyellow.gif,go,,,,,,,,0.534162044525,,,,,,,,,,,,,,,,,,,,,,,,0,0.51415014267,0.000885963439941,0.534162044525,1,w,1062.06706095,,,,,,,,,,,,,,,,,,,,,,,,,,2015_Jun_23_1140,59.9610295852,LearningTask,1,15,
200,s,-200,,,,,,,,,,,,,,,,,2,0,2,0,7,1,29,2,,,,,,,,,,,,,,,,,,,,,,,,,,,,,s,1,None,0,,1.0,squaregray.gif,go,,,,,,,,0.451506137848,,,,,,,,,,,,,,,,,,,,,,,,1.01,0.514145851135,0.000900983810425,0.451506137848,1,s,1065.07153106,,,,,,,,,,,,,,,,,,,,,,,,,,2015_Jun_23_1140,59.9610295852,LearningTask,1,15,
200,w,200,,,,,,,,,,,,,,,,,2,0,2,0,7,2,30,0,,,,,,,,,,,,,,,,,,,,,,,,,,,,,w,1,None,0,,4.0,crossblue.gif,stop,,,,,,,,0.384253025055,,,,,,,,,,,,,,,,,,,,,,,,0,0.512853145599,0.000924110412598,0.384253025055,1,w,1068.07395005,,,,,,,,,,,,,,,,,,,,,,,,,,2015_Jun_23_1140,59.9610295852,LearningTask,1,15,
200,s,-200,,,,,,,,,,,,,,,,,2,0,2,0,7,3,31,2,,,,,,,,,,,,,,,,,,,,,,,,,,,,,s,1,None,0,,2.0,invertedtriangleyellow.gif,go,,,,,,,,0.451134204865,,,,,,,,,,,,,,,,,,,,,,,,1.9,0.514181852341,0.000890016555786,0.451134204865,1,s,1071.0771699,,,,,,,,,,,,,,,,,,,,,,,,,,2015_Jun_23_1140,59.9610295852,LearningTask,1,15,
-200,q,200,,,,,,,,,,,,,,,,,2,0,2,0,8,0,32,1,,,,,,,,,,,,,,,,,,,,,,,,,,,,,q,1,None,0,,2.0,circlewhite.gif,stop,,,,,,,,0.467283010483,,,,,,,,,,,,,,,,,,,,,,,,2.25,0.514490842819,0.000953912734985,0.467283010483,1,q,1074.0810349,,,,,,,,,,,,,,,,,,,,,,,,,,2015_Jun_23_1140,59.9610295852,LearningTask,1,15,
200,w,200,,,,,,,,,,,,,,,,,2,0,2,0,8,1,33,0,,,,,,,,,,,,,,,,,,,,,,,,,,,,,w,1,None,0,,0.5,hexagongreen.gif,go,,,,,,,,0.400996923447,,,,,,,,,,,,,,,,,,,,,,,,0.7,0.513736009598,0.000891923904419,0.400996923447,1,w,1077.0839479,,,,,,,,,,,,,,,,,,,,,,,,,,2015_Jun_23_1140,59.9610295852,LearningTask,1,15,
200,w,200,,,,,,,,,,,,,,,,,2,0,2,0,8,2,34,0,,,,,,,,,,,,,,,,,,,,,,,,,,,,,w,1,None,0,,4.0,crossblue.gif,stop,,,,,,,,0.567696094513,,,,,,,,,,,,,,,,,,,,,,,,4.08,0.514365911484,0.000898838043213,0.567696094513,1,w,1080.08764005,,,,,,,,,,,,,,,,,,,,,,,,,,2015_Jun_23_1140,59.9610295852,LearningTask,1,15,
200,s,-200,,,,,,,,,,,,,,,,,2,0,2,0,8,3,35,2,,,,,,,,,,,,,,,,,,,,,,,,,,,,,s,1,None,0,,0.5,hexagongreen.gif,go,,,,,,,,0.467090129852,,,,,,,,,,,,,,,,,,,,,,,,0.32,0.514210939407,0.000885963439941,0.467090129852,1,s,1083.09136796,,,,,,,,,,,,,,,,,,,,,,,,,,2015_Jun_23_1140,59.9610295852,LearningTask,1,15,
200,w,200,,,,,,,,,,,,,,,,,2,0,2,0,9,0,36,0,,,,,,,,,,,,,,,,,,,,,,,,,,,,,w,1,None,0,,1.0,squaregray.gif,go,,,,,,,,0.4346139431,,,,,,,,,,,,,,,,,,,,,,,,0,0.513594150543,0.000882148742676,0.4346139431,1,w,1086.09423995,,,,,,,,,,,,,,,,,,,,,,,,,,2015_Jun_23_1140,59.9610295852,LearningTask,1,15,
200,s,-200,,,,,,,,,,,,,,,,,2,0,2,0,9,1,37,2,,,,,,,,,,,,,,,,,,,,,,,,,,,,,s,1,None,0,,1.0,squaregray.gif,go,,,,,,,,0.484125137329,,,,,,,,,,,,,,,,,,,,,,,,1.24,0.514039039612,0.00109601020813,0.484125137329,1,s,1089.09765005,,,,,,,,,,,,,,,,,,,,,,,,,,2015_Jun_23_1140,59.9610295852,LearningTask,1,15,
-200,a,-200,,,,,,,,,,,,,,,,,2,0,2,0,9,2,38,3,,,,,,,,,,,,,,,,,,,,,,,,,,,,,a,1,None,0,,4.0,diamondmagenta.gif,go,,,,,,,,0.651479959488,,,,,,,,,,,,,,,,,,,,,,,,0,0.513977050781,0.000890016555786,0.651479959488,1,a,1092.10124397,,,,,,,,,,,,,,,,,,,,,,,,,,2015_Jun_23_1140,59.9610295852,LearningTask,1,15,
-200,a,-200,,,,,,,,,,,,,,,,,2,0,2,0,9,3,39,3,,,,,,,,,,,,,,,,,,,,,,,,,,,,,a,1,None,0,,2.0,invertedtriangleyellow.gif,go,,,,,,,,0.550859928131,,,,,,,,,,,,,,,,,,,,,,,,0,0.514014005661,0.000892877578735,0.550859928131,1,a,1095.10441995,,,,,,,,,,,,,,,,,,,,,,,,,,2015_Jun_23_1140,59.9610295852,LearningTask,1,15,
-200,q,200,,,,,,,,,,,,,,,,,2,0,2,0,10,0,40,1,,,,,,,,,,,,,,,,,,,,,,,,,,,,,q,1,None,0,,4.0,crossblue.gif,stop,,,,,,,,0.55144906044,,,,,,,,,,,,,,,,,,,,,,,,3.84,0.513618946075,0.00133490562439,0.55144906044,1,q,1098.10775089,,,,,,,,,,,,,,,,,,,,,,,,,,2015_Jun_23_1140,59.9610295852,LearningTask,1,15,
200,s,-200,,,,,,,,,,,,,,,,,2,0,2,0,10,1,41,2,,,,,,,,,,,,,,,,,,,,,,,,,,,,,s,1,None,0,,4.0,diamondmagenta.gif,go,,,,,,,,0.450810909271,,,,,,,,,,,,,,,,,,,,,,,,4.17,0.51421713829,0.000920057296753,0.450810909271,1,s,1101.11107087,,,,,,,,,,,,,,,,,,,,,,,,,,2015_Jun_23_1140,59.9610295852,LearningTask,1,15,
-200,a,-200,,,,,,,,,,,,,,,,,2,0,2,0,10,2,42,3,,,,,,,,,,,,,,,,,,,,,,,,,,,,,a,1,None,0,,2.0,invertedtriangleyellow.gif,go,,,,,,,,0.417650938034,,,,,,,,,,,,,,,,,,,,,,,,2.04,0.514149904251,0.000925779342651,0.417650938034,1,a,1104.11447692,,,,,,,,,,,,,,,,,,,,,,,,,,2015_Jun_23_1140,59.9610295852,LearningTask,1,15,
200,s,-200,,,,,,,,,,,,,,,,,2,0,2,0,10,3,43,2,,,,,,,,,,,,,,,,,,,,,,,,,,,,,s,1,None,0,,0.5,linecyan.gif,stop,,,,,,,,0.417554855347,,,,,,,,,,,,,,,,,,,,,,,,0,0.513743162155,0.000912189483643,0.417554855347,1,s,1107.11783385,,,,,,,,,,,,,,,,,,,,,,,,,,2015_Jun_23_1140,59.9610295852,LearningTask,1,15,
200,s,-200,,,,,,,,,,,,,,,,,2,0,2,0,11,0,44,2,,,,,,,,,,,,,,,,,,,,,,,,,,,,,s,1,None,0,,0.5,linecyan.gif,stop,,,,,,,,0.400872945786,,,,,,,,,,,,,,,,,,,,,,,,0.37,0.514173984528,0.00092601776123,0.400872945786,1,s,1110.12119007,,,,,,,,,,,,,,,,,,,,,,,,,,2015_Jun_23_1140,59.9610295852,LearningTask,1,15,
-200,q,200,,,,,,,,,,,,,,,,,2,0,2,0,11,1,45,1,,,,,,,,,,,,,,,,,,,,,,,,,,,,,q,1,None,0,,1.0,triangleorange.gif,stop,,,,,,,,0.484624862671,,,,,,,,,,,,,,,,,,,,,,,,0.78,0.514139890671,0.000946044921875,0.484624862671,1,q,1113.12516093,,,,,,,,,,,,,,,,,,,,,,,,,,2015_Jun_23_1140,59.9610295852,LearningTask,1,15,
-200,q,200,,,,,,,,,,,,,,,,,2,0,2,0,11,2,46,1,,,,,,,,,,,,,,,,,,,,,,,,,,,,,q,1,None,0,,4.0,crossblue.gif,stop,,,,,,,,0.534285783768,,,,,,,,,,,,,,,,,,,,,,,,3.91,0.513427019119,0.000938177108765,0.534285783768,1,q,1116.12804508,,,,,,,,,,,,,,,,,,,,,,,,,,2015_Jun_23_1140,59.9610295852,LearningTask,1,15,
-200,a,-200,,,,,,,,,,,,,,,,,2,0,2,0,11,3,47,3,,,,,,,,,,,,,,,,,,,,,,,,,,,,,a,1,None,0,,0.5,hexagongreen.gif,go,,,,,,,,0.601407051086,,,,,,,,,,,,,,,,,,,,,,,,0.37,0.5142121315,0.000890970230103,0.601407051086,1,a,1119.13121605,,,,,,,,,,,,,,,,,,,,,,,,,,2015_Jun_23_1140,59.9610295852,LearningTask,1,15,
200,w,200,,,,,,,,,,,,,,,,,2,0,2,0,12,0,48,0,,,,,,,,,,,,,,,,,,,,,,,,,,,,,w,1,None,0,,1.0,squaregray.gif,go,,,,,,,,0.501105070114,,,,,,,,,,,,,,,,,,,,,,,,0.84,0.514088869095,0.000918865203857,0.501105070114,1,w,1122.13483095,,,,,,,,,,,,,,,,,,,,,,,,,,2015_Jun_23_1140,59.9610295852,LearningTask,1,15,
-200,q,200,,,,,,,,,,,,,,,,,2,0,2,0,12,1,49,1,,,,,,,,,,,,,,,,,,,,,,,,,,,,,q,1,None,0,,2.0,circlewhite.gif,stop,,,,,,,,0.433974981308,,,,,,,,,,,,,,,,,,,,,,,,2.07,0.514228105545,0.000898122787476,0.433974981308,1,q,1125.13797998,,,,,,,,,,,,,,,,,,,,,,,,,,2015_Jun_23_1140,59.9610295852,LearningTask,1,15,
200,w,200,,,,,,,,,,,,,,,,,2,0,2,0,12,2,50,0,,,,,,,,,,,,,,,,,,,,,,,,,,,,,w,1,None,0,,2.0,circlewhite.gif,stop,,,,,,,,0.517968893051,,,,,,,,,,,,,,,,,,,,,,,,2.07,0.514137983322,0.000999927520752,0.517968893051,1,w,1128.14131904,,,,,,,,,,,,,,,,,,,,,,,,,,2015_Jun_23_1140,59.9610295852,LearningTask,1,15,
-200,q,200,,,,,,,,,,,,,,,,,2,0,2,0,12,3,51,1,,,,,,,,,,,,,,,,,,,,,,,,,,,,,q,1,None,0,,0.5,hexagongreen.gif,go,,,,,,,,0.467402935028,,,,,,,,,,,,,,,,,,,,,,,,0,0.514300107956,0.00088906288147,0.467402935028,1,q,1131.14472103,,,,,,,,,,,,,,,,,,,,,,,,,,2015_Jun_23_1140,59.9610295852,LearningTask,1,15,
-200,q,200,,,,,,,,,,,,,,,,,2,0,2,0,13,0,52,1,,,,,,,,,,,,,,,,,,,,,,,,,,,,,q,1,None,0,,1.0,triangleorange.gif,stop,,,,,,,,0.417646169662,,,,,,,,,,,,,,,,,,,,,,,,0,0.514415979385,0.000885963439941,0.417646169662,1,q,1134.14818406,,,,,,,,,,,,,,,,,,,,,,,,,,2015_Jun_23_1140,59.9610295852,LearningTask,1,15,
200,w,200,,,,,,,,,,,,,,,,,2,0,2,0,13,1,53,0,,,,,,,,,,,,,,,,,,,,,,,,,,,,,w,1,None,0,,0.5,hexagongreen.gif,go,,,,,,,,0.333852052689,,,,,,,,,,,,,,,,,,,,,,,,0.3,0.513782978058,0.000938892364502,0.333852052689,1,w,1137.15196204,,,,,,,,,,,,,,,,,,,,,,,,,,2015_Jun_23_1140,59.9610295852,LearningTask,1,15,
200,w,200,,,,,,,,,,,,,,,,,2,0,2,0,13,2,54,0,,,,,,,,,,,,,,,,,,,,,,,,,,,,,w,1,None,0,,1.0,squaregray.gif,go,,,,,,,,0.400896072388,,,,,,,,,,,,,,,,,,,,,,,,0.81,0.513864994049,0.000917196273804,0.400896072388,1,w,1140.154989,,,,,,,,,,,,,,,,,,,,,,,,,,2015_Jun_23_1140,59.9610295852,LearningTask,1,15,
-200,a,-200,,,,,,,,,,,,,,,,,2,0,2,0,13,3,55,3,,,,,,,,,,,,,,,,,,,,,,,,,,,,,a,1,None,0,,4.0,diamondmagenta.gif,go,,,,,,,,0.451040029526,,,,,,,,,,,,,,,,,,,,,,,,4.0,0.514163017273,0.000892162322998,0.451040029526,1,a,1143.15830398,,,,,,,,,,,,,,,,,,,,,,,,,,2015_Jun_23_1140,59.9610295852,LearningTask,1,15,
200,w,200,,,,,,,,,,,,,,,,,2,0,2,0,14,0,56,0,,,,,,,,,,,,,,,,,,,,,,,,,,,,,w,1,None,0,,2.0,circlewhite.gif,stop,,,,,,,,0.467557907104,,,,,,,,,,,,,,,,,,,,,,,,1.87,0.514403104782,0.000894069671631,0.467557907104,1,w,1146.1619699,,,,,,,,,,,,,,,,,,,,,,,,,,2015_Jun_23_1140,59.9610295852,LearningTask,1,15,
200,w,200,,,,,,,,,,,,,,,,,2,0,2,0,14,1,57,0,,,,,,,,,,,,,,,,,,,,,,,,,,,,,w,1,None,0,,4.0,crossblue.gif,stop,,,,,,,,0.56831407547,,,,,,,,,,,,,,,,,,,,,,,,0,0.513710975647,0.000930070877075,0.56831407547,1,w,1149.16497803,,,,,,,,,,,,,,,,,,,,,,,,,,2015_Jun_23_1140,59.9610295852,LearningTask,1,15,
-200,q,200,,,,,,,,,,,,,,,,,2,0,2,0,14,2,58,1,,,,,,,,,,,,,,,,,,,,,,,,,,,,,q,1,None,0,,2.0,circlewhite.gif,stop,,,,,,,,0.484103918076,,,,,,,,,,,,,,,,,,,,,,,,2.09,0.514354944229,0.000898838043213,0.484103918076,1,q,1152.16926193,,,,,,,,,,,,,,,,,,,,,,,,,,2015_Jun_23_1140,59.9610295852,LearningTask,1,15,
-200,a,-200,,,,,,,,,,,,,,,,,2,0,2,0,14,3,59,3,,,,,,,,,,,,,,,,,,,,,,,,,,,,,a,1,None,0,,0.5,linecyan.gif,stop,,,,,,,,0.61786198616,,,,,,,,,,,,,,,,,,,,,,,,0.38,0.513203144073,0.00089693069458,0.61786198616,1,a,1155.17184496,,,,,,,,,,,,,,,,,,,,,,,,,,2015_Jun_23_1140,59.9610295852,LearningTask,1,15,
200,s,-200,,,,,,,,,,,,,,,,,2,0,2,0,15,0,60,2,,,,,,,,,,,,,,,,,,,,,,,,,,,,,s,1,None,0,,0.5,hexagongreen.gif,go,,,,,,,,0.517518997192,,,,,,,,,,,,,,,,,,,,,,,,0.43,0.514205932617,0.000883102416992,0.517518997192,1,s,1158.17526698,,,,,,,,,,,,,,,,,,,,,,,,,,2015_Jun_23_1140,59.9610295852,LearningTask,1,15,
200,s,-200,,,,,,,,,,,,,,,,,2,0,2,0,15,1,61,2,,,,,,,,,,,,,,,,,,,,,,,,,,,,,s,1,None,0,,1.0,squaregray.gif,go,,,,,,,,0.567544937134,,,,,,,,,,,,,,,,,,,,,,,,0.95,0.514144182205,0.000931024551392,0.567544937134,1,s,1161.17886901,,,,,,,,,,,,,,,,,,,,,,,,,,2015_Jun_23_1140,59.9610295852,LearningTask,1,15,
-200,a,-200,,,,,,,,,,,,,,,,,2,0,2,0,15,2,62,3,,,,,,,,,,,,,,,,,,,,,,,,,,,,,a,1,None,0,,4.0,diamondmagenta.gif,go,,,,,,,,0.468111038208,,,,,,,,,,,,,,,,,,,,,,,,3.81,0.513912200928,0.000879049301147,0.468111038208,1,a,1164.18192792,,,,,,,,,,,,,,,,,,,,,,,,,,2015_Jun_23_1140,59.9610295852,LearningTask,1,15,
200,s,-200,,,,,,,,,,,,,,,,,2,0,2,0,15,3,63,2,,,,,,,,,,,,,,,,,,,,,,,,,,,,,s,1,None,0,,0.5,linecyan.gif,stop,,,,,,,,0.384097099304,,,,,,,,,,,,,,,,,,,,,,,,0.65,0.514280080795,0.00101804733276,0.384097099304,1,s,1167.18520999,,,,,,,,,,,,,,,,,,,,,,,,,,2015_Jun_23_1140,59.9610295852,LearningTask,1,15,
-200,a,-200,,,,,,,,,,,,,,,,,2,0,2,0,16,0,64,3,,,,,,,,,,,,,,,,,,,,,,,,,,,,,a,1,None,0,,4.0,diamondmagenta.gif,go,,,,,,,,0.350315093994,,,,,,,,,,,,,,,,,,,,,,,,0,0.514466047287,0.000885963439941,0.350315093994,1,a,1170.18863797,,,,,,,,,,,,,,,,,,,,,,,,,,2015_Jun_23_1140,59.9610295852,LearningTask,1,15,
200,w,200,,,,,,,,,,,,,,,,,2,0,2,0,16,1,65,0,,,,,,,,,,,,,,,,,,,,,,,,,,,,,w,1,None,0,,0.5,hexagongreen.gif,go,,,,,,,,0.484435796738,,,,,,,,,,,,,,,,,,,,,,,,0.4,0.514221191406,0.000890016555786,0.484435796738,1,w,1173.19199395,,,,,,,,,,,,,,,,,,,,,,,,,,2015_Jun_23_1140,59.9610295852,LearningTask,1,15,
200,w,200,,,,,,,,,,,,,,,,,2,0,2,0,16,2,66,0,,,,,,,,,,,,,,,,,,,,,,,,,,,,,w,1,None,0,,4.0,crossblue.gif,stop,,,,,,,,0.584889888763,,,,,,,,,,,,,,,,,,,,,,,,4.09,0.51424407959,0.0011351108551,0.584889888763,1,w,1176.19574404,,,,,,,,,,,,,,,,,,,,,,,,,,2015_Jun_23_1140,59.9610295852,LearningTask,1,15,
200,s,-200,,,,,,,,,,,,,,,,,2,0,2,0,16,3,67,2,,,,,,,,,,,,,,,,,,,,,,,,,,,,,s,1,None,0,,2.0,circlewhite.gif,stop,,,,,,,,0.384281158447,,,,,,,,,,,,,,,,,,,,,,,,1.98,0.51394701004,0.00088906288147,0.384281158447,1,s,1179.19878507,,,,,,,,,,,,,,,,,,,,,,,,,,2015_Jun_23_1140,59.9610295852,LearningTask,1,15,
200,w,200,,,,,,,,,,,,,,,,,2,0,2,0,17,0,68,0,,,,,,,,,,,,,,,,,,,,,,,,,,,,,w,1,None,0,,2.0,invertedtriangleyellow.gif,go,,,,,,,,0.417587995529,,,,,,,,,,,,,,,,,,,,,,,,0,0.514265775681,0.000881910324097,0.417587995529,1,w,1182.20214391,,,,,,,,,,,,,,,,,,,,,,,,,,2015_Jun_23_1140,59.9610295852,LearningTask,1,15,
200,s,-200,,,,,,,,,,,,,,,,,2,0,2,0,17,1,69,2,,,,,,,,,,,,,,,,,,,,,,,,,,,,,s,1,None,0,,2.0,circlewhite.gif,stop,,,,,,,,0.401074886322,,,,,,,,,,,,,,,,,,,,,,,,2.24,0.514055967331,0.000939846038818,0.401074886322,1,s,1185.20569706,,,,,,,,,,,,,,,,,,,,,,,,,,2015_Jun_23_1140,59.9610295852,LearningTask,1,15,
200,s,-200,,,,,,,,,,,,,,,,,2,0,2,0,17,2,70,2,,,,,,,,,,,,,,,,,,,,,,,,,,,,,s,1,None,0,,1.0,triangleorange.gif,stop,,,,,,,,0.601248979568,,,,,,,,,,,,,,,,,,,,,,,,1.0,0.513961076736,0.000926971435547,0.601248979568,1,s,1188.20889306,,,,,,,,,,,,,,,,,,,,,,,,,,2015_Jun_23_1140,59.9610295852,LearningTask,1,15,
200,w,200,,,,,,,,,,,,,,,,,2,0,2,0,17,3,71,0,,,,,,,,,,,,,,,,,,,,,,,,,,,,,w,1,None,0,,4.0,diamondmagenta.gif,go,,,,,,,,0.450802087784,,,,,,,,,,,,,,,,,,,,,,,,4.15,0.514410972595,0.000887870788574,0.450802087784,1,w,1191.21245098,,,,,,,,,,,,,,,,,,,,,,,,,,2015_Jun_23_1140,59.9610295852,LearningTask,1,15,
200,w,200,,,,,,,,,,,,,,,,,2,0,2,0,18,0,72,0,,,,,,,,,,,,,,,,,,,,,,,,,,,,,w,1,None,0,,0.5,hexagongreen.gif,go,,,,,,,,0.433943986893,,,,,,,,,,,,,,,,,,,,,,,,0.48,0.514023780823,0.000910997390747,0.433943986893,1,w,1194.21562386,,,,,,,,,,,,,,,,,,,,,,,,,,2015_Jun_23_1140,59.9610295852,LearningTask,1,15,
200,w,200,,,,,,,,,,,,,,,,,2,0,2,0,18,1,73,0,,,,,,,,,,,,,,,,,,,,,,,,,,,,,w,1,None,0,,2.0,invertedtriangleyellow.gif,go,,,,,,,,0.451392173767,,,,,,,,,,,,,,,,,,,,,,,,2.22,0.514286994934,0.000890016555786,0.451392173767,1,w,1197.21894288,,,,,,,,,,,,,,,,,,,,,,,,,,2015_Jun_23_1140,59.9610295852,LearningTask,1,15,
200,w,200,,,,,,,,,,,,,,,,,2,0,2,0,18,2,74,0,,,,,,,,,,,,,,,,,,,,,,,,,,,,,w,1,None,0,,2.0,circlewhite.gif,stop,,,,,,,,0.467652082443,,,,,,,,,,,,,,,,,,,,,,,,1.88,0.514323949814,0.000990867614746,0.467652082443,1,w,1200.22288299,,,,,,,,,,,,,,,,,,,,,,,,,,2015_Jun_23_1140,59.9610295852,LearningTask,1,15,
-200,a,-200,,,,,,,,,,,,,,,,,2,0,2,0,18,3,75,3,,,,,,,,,,,,,,,,,,,,,,,,,,,,,a,1,None,0,,0.5,hexagongreen.gif,go,,,,,,,,0.58411192894,,,,,,,,,,,,,,,,,,,,,,,,0.66,0.513715982437,0.000899076461792,0.58411192894,1,a,1203.22589588,,,,,,,,,,,,,,,,,,,,,,,,,,2015_Jun_23_1140,59.9610295852,LearningTask,1,15,
200,w,200,,,,,,,,,,,,,,,,,2,0,2,0,19,0,76,0,,,,,,,,,,,,,,,,,,,,,,,,,,,,,w,1,None,0,,1.0,triangleorange.gif,stop,,,,,,,,0.434111833572,,,,,,,,,,,,,,,,,,,,,,,,0,0.514225959778,0.000884056091309,0.434111833572,1,w,1206.22916102,,,,,,,,,,,,,,,,,,,,,,,,,,2015_Jun_23_1140,59.9610295852,LearningTask,1,15,
200,s,-200,,,,,,,,,,,,,,,,,2,0,2,0,19,1,77,2,,,,,,,,,,,,,,,,,,,,,,,,,,,,,s,1,None,0,,0.5,linecyan.gif,stop,,,,,,,,0.434392213821,,,,,,,,,,,,,,,,,,,,,,,,0.6,0.514003992081,0.000957012176514,0.434392213821,1,s,1209.23268795,,,,,,,,,,,,,,,,,,,,,,,,,,2015_Jun_23_1140,59.9610295852,LearningTask,1,15,
-200,a,-200,,,,,,,,,,,,,,,,,2,0,2,0,19,2,78,3,,,,,,,,,,,,,,,,,,,,,,,,,,,,,a,1,None,0,,4.0,crossblue.gif,stop,,,,,,,,0.450917005539,,,,,,,,,,,,,,,,,,,,,,,,4.23,0.514058113098,0.000883102416992,0.450917005539,1,a,1212.23589396,,,,,,,,,,,,,,,,,,,,,,,,,,2015_Jun_23_1140,59.9610295852,LearningTask,1,15,
200,s,-200,,,,,,,,,,,,,,,,,2,0,2,0,19,3,79,2,,,,,,,,,,,,,,,,,,,,,,,,,,,,,s,1,None,0,,1.0,squaregray.gif,go,,,,,,,,0.468173027039,,,,,,,,,,,,,,,,,,,,,,,,0.88,0.51429605484,0.000895977020264,0.468173027039,1,s,1215.23915792,,,,,,,,,,,,,,,,,,,,,,,,,,2015_Jun_23_1140,59.9610295852,LearningTask,1,15,
-200,q,200,,,,,,,,,,,,,,,,,2,0,2,0,20,0,80,1,,,,,,,,,,,,,,,,,,,,,,,,,,,,,q,1,None,0,,1.0,squaregray.gif,go,,,,,,,,0.567471981049,,,,,,,,,,,,,,,,,,,,,,,,0.95,0.514663934708,0.000874996185303,0.567471981049,1,q,1218.24287701,,,,,,,,,,,,,,,,,,,,,,,,,,2015_Jun_23_1140,59.9610295852,LearningTask,1,15,
-200,q,200,,,,,,,,,,,,,,,,,2,0,2,0,20,1,81,1,,,,,,,,,,,,,,,,,,,,,,,,,,,,,q,1,None,0,,4.0,crossblue.gif,stop,,,,,,,,0.551208019257,,,,,,,,,,,,,,,,,,,,,,,,3.93,0.514071941376,0.00090479850769,0.551208019257,1,q,1221.24598503,,,,,,,,,,,,,,,,,,,,,,,,,,2015_Jun_23_1140,59.9610295852,LearningTask,1,15,
-200,a,-200,,,,,,,,,,,,,,,,,2,0,2,0,20,2,82,3,,,,,,,,,,,,,,,,,,,,,,,,,,,,,a,1,None,0,,2.0,invertedtriangleyellow.gif,go,,,,,,,,0.584495067596,,,,,,,,,,,,,,,,,,,,,,,,1.78,0.514112949371,0.000945091247559,0.584495067596,1,a,1224.24971485,,,,,,,,,,,,,,,,,,,,,,,,,,2015_Jun_23_1140,59.9610295852,LearningTask,1,15,
-200,a,-200,,,,,,,,,,,,,,,,,2,0,2,0,20,3,83,3,,,,,,,,,,,,,,,,,,,,,,,,,,,,,a,1,None,0,,2.0,circlewhite.gif,stop,,,,,,,,0.551223039627,,,,,,,,,,,,,,,,,,,,,,,,1.89,0.513976097107,0.000891923904419,0.551223039627,1,a,1227.25281096,,,,,,,,,,,,,,,,,,,,,,,,,,2015_Jun_23_1140,59.9610295852,LearningTask,1,15,
-200,a,-200,,,,,,,,,,,,,,,,,2,0,2,0,21,0,84,3,,,,,,,,,,,,,,,,,,,,,,,,,,,,,a,1,None,0,,2.0,invertedtriangleyellow.gif,go,,,,,,,,0.450861930847,,,,,,,,,,,,,,,,,,,,,,,,1.78,0.514292955399,0.000885963439941,0.450861930847,1,a,1230.256423,,,,,,,,,,,,,,,,,,,,,,,,,,2015_Jun_23_1140,59.9610295852,LearningTask,1,15,
200,w,200,,,,,,,,,,,,,,,,,2,0,2,0,21,1,85,0,,,,,,,,,,,,,,,,,,,,,,,,,,,,,w,1,None,0,,1.0,triangleorange.gif,stop,,,,,,,,0.484570026398,,,,,,,,,,,,,,,,,,,,,,,,1.24,0.513479232788,0.00090217590332,0.484570026398,1,w,1233.25973797,,,,,,,,,,,,,,,,,,,,,,,,,,2015_Jun_23_1140,59.9610295852,LearningTask,1,15,
200,s,-200,,,,,,,,,,,,,,,,,2,0,2,0,21,2,86,2,,,,,,,,,,,,,,,,,,,,,,,,,,,,,s,1,None,0,,2.0,circlewhite.gif,stop,,,,,,,,0.501020908356,,,,,,,,,,,,,,,,,,,,,,,,0,0.514115810394,0.000895023345947,0.501020908356,1,s,1236.26296806,,,,,,,,,,,,,,,,,,,,,,,,,,2015_Jun_23_1140,59.9610295852,LearningTask,1,15,
-200,a,-200,,,,,,,,,,,,,,,,,2,0,2,0,21,3,87,3,,,,,,,,,,,,,,,,,,,,,,,,,,,,,a,1,None,0,,0.5,hexagongreen.gif,go,,,,,,,,0.434334993362,,,,,,,,,,,,,,,,,,,,,,,,0.47,0.514222860336,0.000902891159058,0.434334993362,1,a,1239.26619196,,,,,,,,,,,,,,,,,,,,,,,,,,2015_Jun_23_1140,59.9610295852,LearningTask,1,15,
-200,a,-200,,,,,,,,,,,,,,,,,2,0,2,0,22,0,88,3,,,,,,,,,,,,,,,,,,,,,,,,,,,,,a,1,None,0,,0.5,hexagongreen.gif,go,,,,,,,,0.434388875961,,,,,,,,,,,,,,,,,,,,,,,,0.64,0.514139175415,0.000916004180908,0.434388875961,1,a,1242.26959395,,,,,,,,,,,,,,,,,,,,,,,,,,2015_Jun_23_1140,59.9610295852,LearningTask,1,15,
200,s,-200,,,,,,,,,,,,,,,,,2,0,2,0,22,1,89,2,,,,,,,,,,,,,,,,,,,,,,,,,,,,,s,1,None,0,,4.0,crossblue.gif,stop,,,,,,,,0.467841148376,,,,,,,,,,,,,,,,,,,,,,,,0,0.514261960983,0.00117707252502,0.467841148376,1,s,1245.27317595,,,,,,,,,,,,,,,,,,,,,,,,,,2015_Jun_23_1140,59.9610295852,LearningTask,1,15,
200,w,200,,,,,,,,,,,,,,,,,2,0,2,0,22,2,90,0,,,,,,,,,,,,,,,,,,,,,,,,,,,,,w,1,None,0,,0.5,hexagongreen.gif,go,,,,,,,,0.401247024536,,,,,,,,,,,,,,,,,,,,,,,,0.3,0.51385307312,0.000941038131714,0.401247024536,1,w,1248.27705288,,,,,,,,,,,,,,,,,,,,,,,,,,2015_Jun_23_1140,59.9610295852,LearningTask,1,15,
-200,q,200,,,,,,,,,,,,,,,,,2,0,2,0,22,3,91,1,,,,,,,,,,,,,,,,,,,,,,,,,,,,,q,1,None,0,,4.0,diamondmagenta.gif,go,,,,,,,,0.433738946915,,,,,,,,,,,,,,,,,,,,,,,,0,0.513533830643,0.00089693069458,0.433738946915,1,q,1251.2797699,,,,,,,,,,,,,,,,,,,,,,,,,,2015_Jun_23_1140,59.9610295852,LearningTask,1,15,
-200,q,200,,,,,,,,,,,,,,,,,2,0,2,0,23,0,92,1,,,,,,,,,,,,,,,,,,,,,,,,,,,,,q,1,None,0,,4.0,crossblue.gif,stop,,,,,,,,0.467443943024,,,,,,,,,,,,,,,,,,,,,,,,4.07,0.514292001724,0.000881910324097,0.467443943024,1,q,1254.28315401,,,,,,,,,,,,,,,,,,,,,,,,,,2015_Jun_23_1140,59.9610295852,LearningTask,1,15,
200,s,-200,,,,,,,,,,,,,,,,,2,0,2,0,23,1,93,2,,,,,,,,,,,,,,,,,,,,,,,,,,,,,s,1,None,0,,2.0,invertedtriangleyellow.gif,go,,,,,,,,0.501461982727,,,,,,,,,,,,,,,,,,,,,,,,1.94,0.513892889023,0.000893115997314,0.501461982727,1,s,1257.28671193,,,,,,,,,,,,,,,,,,,,,,,,,,2015_Jun_23_1140,59.9610295852,LearningTask,1,15,
-200,q,200,,,,,,,,,,,,,,,,,2,0,2,0,23,2,94,1,,,,,,,,,,,,,,,,,,,,,,,,,,,,,q,1,None,0,,0.5,linecyan.gif,stop,,,,,,,,0.534734964371,,,,,,,,,,,,,,,,,,,,,,,,0.58,0.514019966125,0.000946044921875,0.534734964371,1,q,1260.28998709,,,,,,,,,,,,,,,,,,,,,,,,,,2015_Jun_23_1140,59.9610295852,LearningTask,1,15,
-200,q,200,,,,,,,,,,,,,,,,,2,0,2,0,23,3,95,1,,,,,,,,,,,,,,,,,,,,,,,,,,,,,q,1,None,0,,1.0,squaregray.gif,go,,,,,,,,0.500869989395,,,,,,,,,,,,,,,,,,,,,,,,1.15,0.514092922211,0.00109100341797,0.500869989395,1,q,1263.29328394,,,,,,,,,,,,,,,,,,,,,,,,,,2015_Jun_23_1140,59.9610295852,LearningTask,1,15,
-200,q,200,,,,,,,,,,,,,,,,,2,0,2,0,24,0,96,1,,,,,,,,,,,,,,,,,,,,,,,,,,,,,q,1,None,0,,4.0,diamondmagenta.gif,go,,,,,,,,0.518165826797,,,,,,,,,,,,,,,,,,,,,,,,0,0.514214992523,0.000898838043213,0.518165826797,1,q,1266.296597,,,,,,,,,,,,,,,,,,,,,,,,,,2015_Jun_23_1140,59.9610295852,LearningTask,1,15,
200,w,200,,,,,,,,,,,,,,,,,2,0,2,0,24,1,97,0,,,,,,,,,,,,,,,,,,,,,,,,,,,,,w,1,None,0,,2.0,invertedtriangleyellow.gif,go,,,,,,,,0.551221847534,,,,,,,,,,,,,,,,,,,,,,,,2.17,0.514363050461,0.000885009765625,0.551221847534,1,w,1269.30003595,,,,,,,,,,,,,,,,,,,,,,,,,,2015_Jun_23_1140,59.9610295852,LearningTask,1,15,
-200,a,-200,,,,,,,,,,,,,,,,,2,0,2,0,24,2,98,3,,,,,,,,,,,,,,,,,,,,,,,,,,,,,a,1,None,0,,4.0,crossblue.gif,stop,,,,,,,,0.484433889389,,,,,,,,,,,,,,,,,,,,,,,,4.1,0.513957977295,0.00104784965515,0.484433889389,1,a,1272.30353689,,,,,,,,,,,,,,,,,,,,,,,,,,2015_Jun_23_1140,59.9610295852,LearningTask,1,15,
-200,a,-200,,,,,,,,,,,,,,,,,2,0,2,0,24,3,99,3,,,,,,,,,,,,,,,,,,,,,,,,,,,,,a,1,None,0,,0.5,linecyan.gif,stop,,,,,,,,0.53456902504,,,,,,,,,,,,,,,,,,,,,,,,0,0.512299060822,0.000929117202759,0.53456902504,1,a,1275.30701303,,,,,,,,,,,,,,,,,,,,,,,,,,2015_Jun_23_1140,59.9610295852,LearningTask,1,15,
,,,,,,,,,,,,,,,,,,,2,0,2,0,,,,,,,,,,,,,,,,,,,,,,,,,,,,,,,,,,,,,,,,,,,,,,,,,,,,,,,,,,,,,,,,,,,,,,,,,,,,,,,9,70.9641571045,,,,,,,,,,,,,,,,,,,,,,,,2015_Jun_23_1140,59.9610295852,LearningTask,1,15,
200,w,200,,,,,,,,,,,,,,,,,3,0,3,0,0,0,0,0,,,,,,,,,,,,,,,,,,,,,,,,,,,,,w,1,None,0,,4.0,diamondmagenta.gif,go,,,,,,,,0.467538118362,,,,,,,,,,,,,,,,,,,,,,,,3.93,0.509829998016,0.000899076461792,0.467538118362,1,w,1349.89116907,,,,,,,,,,,,,,,,,,,,,,,,,,2015_Jun_23_1140,59.9610295852,LearningTask,1,15,
200,w,200,,,,,,,,,,,,,,,,,3,0,3,0,0,1,1,0,,,,,,,,,,,,,,,,,,,,,,,,,,,,,w,1,None,0,,1.0,triangleorange.gif,stop,,,,,,,,0.468043088913,,,,,,,,,,,,,,,,,,,,,,,,0.9,0.513682126999,0.000912189483643,0.468043088913,1,w,1352.89432597,,,,,,,,,,,,,,,,,,,,,,,,,,2015_Jun_23_1140,59.9610295852,LearningTask,1,15,
