xPos,corrAns,yPos,corrGoResp,yPosGoStim,xPosGoStim,pracTrials.thisRepN,pracTrials.thisTrialN,pracTrials.thisN,pracTrials.thisIndex,ReDoLoopPrac.thisRepN,ReDoLoopPrac.thisTrialN,ReDoLoopPrac.thisN,ReDoLoopPrac.thisIndex,ReDoLoopPrac.thisTrial,pracStopTrials.thisRepN,pracStopTrials.thisTrialN,pracStopTrials.thisN,pracStopTrials.thisIndex,Blocks.thisRepN,Blocks.thisTrialN,Blocks.thisN,Blocks.thisIndex,trials.thisRepN,trials.thisTrialN,trials.thisN,trials.thisIndex,ReDoLoopMain.thisRepN,ReDoLoopMain.thisTrialN,ReDoLoopMain.thisN,ReDoLoopMain.thisIndex,ReDoLoopMain.thisTrial,StopBlocks.thisRepN,StopBlocks.thisTrialN,StopBlocks.thisN,StopBlocks.thisIndex,StopTrials.thisRepN,StopTrials.thisTrialN,StopTrials.thisN,StopTrials.thisIndex,auctionBlocks.thisRepN,auctionBlocks.thisTrialN,auctionBlocks.thisN,auctionBlocks.thisIndex,auctionTrials.thisRepN,auctionTrials.thisTrialN,auctionTrials.thisN,auctionTrials.thisIndex,learningTrialList,learningPracTrialList,stopTrialList,stopPracTrialList,auctionTrialList,ok1.keys,ok1.rt,resp.keys,resp.corr,feedbackResp.keys,feedbackResp.corr,feedbackResp.rt,currentReward,currentStimulus,currentStimType,firstPracComputedRewardOutput,firstPracLearningStimOnset,firstPracLearningFixOnset,firstPracPresentationRT,firstPracPresentationAcc,firstPracPresentationResp,firstPracEndTrialTimeStamp,resp.rt,secondPracComputedRewardOutput,secondPracLearningStimOnset,secondPracLearningFixOnset,secondPracPresentationRT,secondPracPresentationAcc,secondPracPresentationResp,secondPracEndTrialTimeStamp,StartTrialTimeStamp,trialType,goStim,stimType,stopStimValue,goResp.keys,goResp.corr,goResp.rt,key_resp_9.keys,key_resp_9.corr,fixStopOnset,goStimOnset,stopSignalOnset,EndTrialTimeStamp,key_resp_3.keys,key_resp_3.rt,firstComputedRewardOutput,firstLearningStimOnset,firstLearningFixOnset,firstPresentationRT,firstPresentationAcc,firstPresentationResp,firstEndTrialTimeStamp,secondComputedRewardOutput,secondLearningStimOnset,secondLearningFixOnset,secondPresentationRT,secondPresentationAcc,secondPresentationResp,secondEndTrialTimeStamp,key_resp_7.keys,key_resp_7.rt,beginningSSD,EndingSSD,key_resp_9.rt,key_resp_4.keys,key_resp_4.rt,auctionResponse.keys,auctionResponse.rt,auctionStimDuration,auctionStim,auctionAmounts,auctionStimValue,auctionCondition,chosenAuctionAmount,key_resp_5.keys,key_resp_5.rt,shuffledRewardList,chosenReward1,chosenReward2,chosenReward3,chosenReward4,chosenReward5,key_resp_6.keys,key_resp_6.rt,date,frameRate,expName,session,participant,
,,,,,,,,,,,,,,,,,,,,,,,,,,,,,,,,,,,,,,,,,,,,,,,,[],[],[],[],[],9,79.2187049389,,,,,,,,,,,,,,,,,,,,,,,,,,,,,,,,,,,,,,,,,,,,,,,,,,,,,,,,,,,,,,,,,,,,,,,,,,,,,,,2015_Jun_23_1302,59.9858126816,LearningTask,1,61,
-200,q,200,,,,0,0,0,5,,,,,,,,,,,,,,,,,,,,,,,,,,,,,,,,,,,,,,,,,,,,,,q,1,None,0,0.0252101421356,0.5,squarewhite.gif,stop,0,0.506590843201,0.00285005569458,[],0,None,131.777296066,0.401422023773,0.48,0.515590906143,0.0011579990387,0.401422023773,1,q,134.780874968,,,,,,,,,,,,,,,,,,,,,,,,,,,,,,,,,,,,,,,,,,,,,,,,,,,,,,,,2015_Jun_23_1302,59.9858126816,LearningTask,1,61,
-200,q,200,,,,0,1,1,1,,,,,,,,,,,,,,,,,,,,,,,,,,,,,,,,,,,,,,,,,,,,,,q,1,None,0,,1.0,lineorange.gif,stop,0.95,0.514575004578,0.00131702423096,0.484215021133,1,q,137.783565044,0.484215021133,,,,,,,,,,,,,,,,,,,,,,,,,,,,,,,,,,,,,,,,,,,,,,,,,,,,,,,,,,,,,,,2015_Jun_23_1302,59.9858126816,LearningTask,1,61,
200,w,200,,,,0,2,2,4,,,,,,,,,,,,,,,,,,,,,,,,,,,,,,,,,,,,,,,,,,,,,,w,1,None,0,,4.0,hexagoncyan.gif,stop,3.96,0.515237808228,0.00134086608887,0.417564868927,1,w,140.786947012,0.417564868927,,,,,,,,,,,,,,,,,,,,,,,,,,,,,,,,,,,,,,,,,,,,,,,,,,,,,,,,,,,,,,,2015_Jun_23_1302,59.9858126816,LearningTask,1,61,
200,w,200,,,,0,3,3,0,,,,,,,,,,,,,,,,,,,,,,,,,,,,,,,,,,,,,,,,,,,,,,w,1,None,0,,0.5,squarewhite.gif,stop,0.57,0.515331983566,0.000877857208252,0.384552955627,1,w,143.791486025,0.384552955627,,,,,,,,,,,,,,,,,,,,,,,,,,,,,,,,,,,,,,,,,,,,,,,,,,,,,,,,,,,,,,,2015_Jun_23_1302,59.9858126816,LearningTask,1,61,
-200,q,200,,,,0,4,4,9,,,,,,,,,,,,,,,,,,,,,,,,,,,,,,,,,,,,,,,,,,,,,,q,1,None,0,,1.0,triangleblue.gif,go,0.8,0.513736963272,0.00132417678833,0.351035833359,1,q,146.793852091,0.351035833359,,,,,,,,,,,,,,,,,,,,,,,,,,,,,,,,,,,,,,,,,,,,,,,,,,,,,,,,,,,,,,,2015_Jun_23_1302,59.9858126816,LearningTask,1,61,
200,w,200,,,,0,5,5,8,,,,,,,,,,,,,,,,,,,,,,,,,,,,,,,,,,,,,,,,,,,,,,w,1,None,0,,4.0,hexagoncyan.gif,stop,4.25,0.515111923218,0.000927925109863,0.367652893066,1,w,149.797234058,0.367652893066,,,,,,,,,,,,,,,,,,,,,,,,,,,,,,,,,,,,,,,,,,,,,,,,,,,,,,,,,,,,,,,2015_Jun_23_1302,59.9858126816,LearningTask,1,61,
200,s,-200,,,,0,6,6,2,,,,,,,,,,,,,,,,,,,,,,,,,,,,,,,,,,,,,,,,,,,,,,s,1,None,0,,2.0,crossgreen.gif,stop,2.07,0.515227794647,0.00128388404846,0.417928934097,1,s,152.800863981,0.417928934097,,,,,,,,,,,,,,,,,,,,,,,,,,,,,,,,,,,,,,,,,,,,,,,,,,,,,,,,,,,,,,,2015_Jun_23_1302,59.9858126816,LearningTask,1,61,
200,s,-200,,,,0,7,7,6,,,,,,,,,,,,,,,,,,,,,,,,,,,,,,,,,,,,,,,,,,,,,,s,1,None,0,,2.0,invertedtriangleyellow.gif,go,2.05,0.514376163483,0.00133419036865,0.367724895477,1,s,155.803975105,0.367724895477,,,,,,,,,,,,,,,,,,,,,,,,,,,,,,,,,,,,,,,,,,,,,,,,,,,,,,,,,,,,,,,2015_Jun_23_1302,59.9858126816,LearningTask,1,61,
-200,a,-200,,,,0,8,8,3,,,,,,,,,,,,,,,,,,,,,,,,,,,,,,,,,,,,,,,,,,,,,,a,1,None,0,,0.5,circlemagenta.gif,go,0.26,0.515074014664,0.00131702423096,0.450844049454,1,a,158.807346106,0.450844049454,,,,,,,,,,,,,,,,,,,,,,,,,,,,,,,,,,,,,,,,,,,,,,,,,,,,,,,,,,,,,,,2015_Jun_23_1302,59.9858126816,LearningTask,1,61,
-200,a,-200,,,,0,9,9,7,,,,,,,,,,,,,,,,,,,,,,,,,,,,,,,,,,,,,,,,,,,,,,a,1,None,0,,0.5,circlemagenta.gif,go,0.55,0.515165090561,0.000895977020264,0.43408203125,1,a,161.811182022,0.43408203125,,,,,,,,,,,,,,,,,,,,,,,,,,,,,,,,,,,,,,,,,,,,,,,,,,,,,,,,,,,,,,,2015_Jun_23_1302,59.9858126816,LearningTask,1,61,
,,,m,0,200,,,,,,,,,,0,0,0,1,,,,,,,,,,,,,,,,,,,,,,,,,,,,,,,,,,,,,,,,,,,,,,,,,,,,,,,,,,,,244.442393064,stop,hexagoncyan.gif,stop,4.0,m,1,0.517524957657,None,0,0.00134587287903,0.510270833969,0.760450839996,247.440526009,,,,,,,,,,,,,,,,,,,,,,,,,,,,,,,,,,,,,,,,,,2015_Jun_23_1302,59.9858126816,LearningTask,1,61,
,,,z,0,-200,,,,,,,,,,0,1,1,0,,,,,,,,,,,,,,,,,,,,,,,,,,,,,,,,,,,,,,,,,,,,,,,,,,,,,,,,,,,,247.440979958,stop,crossgreen.gif,stop,2.0,z,1,0.300667047501,None,0,0.00096607208252,0.515232086182,0.765510082245,250.44350791,,,,,,,,,,,,,,,,,,,,,,,,,,,,,,,,,,,,,,,,,,2015_Jun_23_1302,59.9858126816,LearningTask,1,61,
,,,z,0,-200,,,,,,,,,,1,0,2,0,,,,,,,,,,,,,,,,,,,,,,,,,,,,,,,,,,,,,,,,,,,,,,,,,,,,,,,,,,,,250.443871975,go,circlemagenta.gif,go,0.5,z,1,0.36737203598,None,0,0.0010712146759,0.515924215317,,253.447046041,,,,,,,,,,,,,,,,,,,,,,,,,,,,,,,,,,,,,,,,,,2015_Jun_23_1302,59.9858126816,LearningTask,1,61,
,,,m,0,200,,,,,,,,,,1,1,3,1,,,,,,,,,,,,,,,,,,,,,,,,,,,,,,,,,,,,,,,,,,,,,,,,,,,,,,,,,,,,253.44746089,stop,squarewhite.gif,stop,0.5,m,1,0.384267091751,None,0,0.000952005386353,0.515311002731,0.76553606987,256.450126886,,,,,,,,,,,,,,,,,,,,,,,,,,,,,,,,,,,,,,,,,,2015_Jun_23_1302,59.9858126816,LearningTask,1,61,
,,,m,0,200,,,,,,,,,,2,0,4,1,,,,,,,,,,,,,,,,,,,,,,,,,,,,,,,,,,,,,,,,,,,,,,,,,,,,,,,,,,,,256.450531006,go,triangleblue.gif,go,1.0,m,1,0.450916051865,None,0,0.000941038131714,0.515870094299,,259.453634024,,,,,,,,,,,,,,,,,,,,,,,,,,,,,,,,,,,,,,,,,,2015_Jun_23_1302,59.9858126816,LearningTask,1,61,
,,,m,0,200,,,,,,,,,,2,1,5,1,,,,,,,,,,,,,,,,,,,,,,,,,,,,,,,,,,,,,,,,,,,,,,,,,,,,,,,,,,,,259.454009056,go,triangleblue.gif,go,1.0,m,1,0.484216213226,None,0,0.00100493431091,0.515772819519,,262.457082033,,,,,,,,,,,,,,,,,,,,,,,,,,,,,,,,,,,,,,,,,,2015_Jun_23_1302,59.9858126816,LearningTask,1,61,
,,,z,0,-200,,,,,,,,,,3,0,6,0,,,,,,,,,,,,,,,,,,,,,,,,,,,,,,,,,,,,,,,,,,,,,,,,,,,,,,,,,,,,262.457508087,go,circlemagenta.gif,go,0.5,z,1,0.333950042725,None,0,0.000965118408203,0.515619039536,,265.46026206,,,,,,,,,,,,,,,,,,,,,,,,,,,,,,,,,,,,,,,,,,2015_Jun_23_1302,59.9858126816,LearningTask,1,61,
,,,z,0,-200,,,,,,,,,,3,1,7,0,,,,,,,,,,,,,,,,,,,,,,,,,,,,,,,,,,,,,,,,,,,,,,,,,,,,,,,,,,,,265.460633993,go,invertedtriangleyellow.gif,go,2.0,z,1,0.334179878235,None,0,0.000946998596191,0.515815019608,,268.46363306,,,,,,,,,,,,,,,,,,,,,,,,,,,,,,,,,,,,,,,,,,2015_Jun_23_1302,59.9858126816,LearningTask,1,61,
,,,z,0,-200,,,,,,,,,,4,0,8,0,,,,,,,,,,,,,,,,,,,,,,,,,,,,,,,,,,,,,,,,,,,,,,,,,,,,,,,,,,,,268.464005947,go,triangleblue.gif,go,1.0,z,1,0.350381135941,None,0,0.000953197479248,0.516135215759,,271.467118025,,,,,,,,,,,,,,,,,,,,,,,,,,,,,,,,,,,,,,,,,,2015_Jun_23_1302,59.9858126816,LearningTask,1,61,
,,,m,0,200,,,,,,,,,,4,1,9,1,,,,,,,,,,,,,,,,,,,,,,,,,,,,,,,,,,,,,,,,,,,,,,,,,,,,,,,,,,,,271.467487097,go,circlemagenta.gif,go,0.5,m,1,0.317224979401,None,0,0.000947952270508,0.516147851944,,274.470423937,,,,,,,,,,,,,,,,,,,,,,,,,,,,,,,,,,,,,,,,,,2015_Jun_23_1302,59.9858126816,LearningTask,1,61,
,,,,,,,,,,,,,,,,,,,,,,,,,,,,,,,,,,,,,,,,,,,,,,,,,,,,,,,,,,,,,,,,,,,,,,,,,,,,,,,,,,,,,,,,,,,,9,87.0092499256,,,,,,,,,,,,,,,,,,,,,,,,,,,,,,,,,,,,,,,,2015_Jun_23_1302,59.9858126816,LearningTask,1,61,
,,,,,,,,,,,,,,,,,,,,,,,,,,,,,,,,,,,,,,,,,,,,,,,,,,,,,9,4.68831682205,,,,,,,,,,,,,,,,,,,,,,,,,,,,,,,,,,,,,,,,,,,,,,,,,,,,,,,,,,,,,,,,,,,,,,,,,,,,,,,2015_Jun_23_1302,59.9858126816,LearningTask,1,61,
200,w,200,,,,,,,,,,,,,,,,,0,0,0,0,0,0,0,0,,,,,,,,,,,,,,,,,,,,,,,,,,,,,w,1,None,0,,2.0,invertedtriangleyellow.gif,go,,,,,,,,0.534368038177,,,,,,,,,,,,,,,,,,,,,,,,1.91,0.50871515274,0.000957012176514,0.534368038177,1,w,369.311902046,,,,,,,,,,,,,,,,,,,,,,,,,,,,,,,,,2015_Jun_23_1302,59.9858126816,LearningTask,1,61,
200,s,-200,,,,,,,,,,,,,,,,,0,0,0,0,0,1,1,2,,,,,,,,,,,,,,,,,,,,,,,,,,,,,s,1,None,0,,4.0,diamondgray.gif,go,,,,,,,,0.417768955231,,,,,,,,,,,,,,,,,,,,,,,,3.86,0.513485193253,0.0434181690216,0.417768955231,1,s,372.314544916,,,,,,,,,,,,,,,,,,,,,,,,,,,,,,,,,2015_Jun_23_1302,59.9858126816,LearningTask,1,61,
-200,a,-200,,,,,,,,,,,,,,,,,0,0,0,0,0,2,2,3,,,,,,,,,,,,,,,,,,,,,,,,,,,,,a,1,None,0,,2.0,crossgreen.gif,stop,,,,,,,,0.433856010437,,,,,,,,,,,,,,,,,,,,,,,,0,0.514686822891,0.000888824462891,0.417348146439,0,q,375.318269968,1.8,0.515177965164,0.00101089477539,0.433856010437,1,a,378.321677923,,,,,,,,,,,,,,,,,,,,,,,,,,2015_Jun_23_1302,59.9858126816,LearningTask,1,61,
200,s,-200,,,,,,,,,,,,,,,,,0,0,0,0,0,3,3,2,,,,,,,,,,,,,,,,,,,,,,,,,,,,,s,1,None,0,,4.0,hexagoncyan.gif,stop,,,,,,,,0.400629997253,,,,,,,,,,,,,,,,,,,,,,,,4.15,0.514017820358,0.00104284286499,0.400629997253,1,s,381.324517965,,,,,,,,,,,,,,,,,,,,,,,,,,,,,,,,,2015_Jun_23_1302,59.9858126816,LearningTask,1,61,
-200,a,-200,,,,,,,,,,,,,,,,,0,0,0,0,1,0,4,3,,,,,,,,,,,,,,,,,,,,,,,,,,,,,a,1,None,0,,1.0,lineorange.gif,stop,,,,,,,,0.401206016541,,,,,,,,,,,,,,,,,,,,,,,,1.23,0.514565944672,0.000893831253052,0.401206016541,1,a,384.32802701,,,,,,,,,,,,,,,,,,,,,,,,,,,,,,,,,2015_Jun_23_1302,59.9858126816,LearningTask,1,61,
200,s,-200,,,,,,,,,,,,,,,,,0,0,0,0,1,1,5,2,,,,,,,,,,,,,,,,,,,,,,,,,,,,,s,1,None,0,,2.0,crossgreen.gif,stop,,,,,,,,0.333878040314,,,,,,,,,,,,,,,,,,,,,,,,2.09,0.514438867569,0.000897884368896,0.333878040314,1,s,387.331327915,,,,,,,,,,,,,,,,,,,,,,,,,,,,,,,,,2015_Jun_23_1302,59.9858126816,LearningTask,1,61,
-200,q,200,,,,,,,,,,,,,,,,,0,0,0,0,1,2,6,1,,,,,,,,,,,,,,,,,,,,,,,,,,,,,q,1,None,0,,2.0,crossgreen.gif,stop,,,,,,,,0.40064406395,,,,,,,,,,,,,,,,,,,,,,,,1.84,0.514621019363,0.00100111961365,0.40064406395,1,q,390.334866047,,,,,,,,,,,,,,,,,,,,,,,,,,,,,,,,,2015_Jun_23_1302,59.9858126816,LearningTask,1,61,
200,s,-200,,,,,,,,,,,,,,,,,0,0,0,0,1,3,7,2,,,,,,,,,,,,,,,,,,,,,,,,,,,,,s,1,None,0,,4.0,diamondgray.gif,go,,,,,,,,0.384463787079,,,,,,,,,,,,,,,,,,,,,,,,0,0.514230012894,0.000933170318604,0.384463787079,1,s,393.338181973,,,,,,,,,,,,,,,,,,,,,,,,,,,,,,,,,2015_Jun_23_1302,59.9858126816,LearningTask,1,61,
-200,q,200,,,,,,,,,,,,,,,,,0,0,0,0,2,0,8,1,,,,,,,,,,,,,,,,,,,,,,,,,,,,,q,1,None,0,,0.5,circlemagenta.gif,go,,,,,,,,0.384083032608,,,,,,,,,,,,,,,,,,,,,,,,0.56,0.514342069626,0.000890016555786,0.384083032608,1,q,396.341651917,,,,,,,,,,,,,,,,,,,,,,,,,,,,,,,,,2015_Jun_23_1302,59.9858126816,LearningTask,1,61,
200,s,-200,,,,,,,,,,,,,,,,,0,0,0,0,2,1,9,2,,,,,,,,,,,,,,,,,,,,,,,,,,,,,s,1,None,0,,2.0,crossgreen.gif,stop,,,,,,,,0.334272861481,,,,,,,,,,,,,,,,,,,,,,,,2.21,0.513992071152,0.000962972640991,0.334272861481,1,s,399.345160961,,,,,,,,,,,,,,,,,,,,,,,,,,,,,,,,,2015_Jun_23_1302,59.9858126816,LearningTask,1,61,
200,w,200,,,,,,,,,,,,,,,,,0,0,0,0,2,2,10,0,,,,,,,,,,,,,,,,,,,,,,,,,,,,,w,1,None,0,,0.5,squarewhite.gif,stop,,,,,,,,0.36766409874,,,,,,,,,,,,,,,,,,,,,,,,0.35,0.513725996017,0.000891923904419,0.36766409874,1,w,402.348282099,,,,,,,,,,,,,,,,,,,,,,,,,,,,,,,,,2015_Jun_23_1302,59.9858126816,LearningTask,1,61,
200,w,200,,,,,,,,,,,,,,,,,0,0,0,0,2,3,11,0,,,,,,,,,,,,,,,,,,,,,,,,,,,,,w,1,None,0,,2.0,invertedtriangleyellow.gif,go,,,,,,,,0.401327848434,,,,,,,,,,,,,,,,,,,,,,,,2.01,0.514375925064,0.00088906288147,0.401327848434,1,w,405.352217913,,,,,,,,,,,,,,,,,,,,,,,,,,,,,,,,,2015_Jun_23_1302,59.9858126816,LearningTask,1,61,
-200,q,200,,,,,,,,,,,,,,,,,0,0,0,0,3,0,12,1,,,,,,,,,,,,,,,,,,,,,,,,,,,,,q,1,None,0,,0.5,circlemagenta.gif,go,,,,,,,,0.317450046539,,,,,,,,,,,,,,,,,,,,,,,,0.65,0.513695001602,0.000919103622437,0.317450046539,1,q,408.355092049,,,,,,,,,,,,,,,,,,,,,,,,,,,,,,,,,2015_Jun_23_1302,59.9858126816,LearningTask,1,61,
-200,q,200,,,,,,,,,,,,,,,,,0,0,0,0,3,1,13,1,,,,,,,,,,,,,,,,,,,,,,,,,,,,,q,1,None,0,,4.0,hexagoncyan.gif,stop,,,,,,,,0.418041944504,,,,,,,,,,,,,,,,,,,,,,,,3.94,0.514270067215,0.000936985015869,0.418041944504,1,q,411.358433008,,,,,,,,,,,,,,,,,,,,,,,,,,,,,,,,,2015_Jun_23_1302,59.9858126816,LearningTask,1,61,
200,w,200,,,,,,,,,,,,,,,,,0,0,0,0,3,2,14,0,,,,,,,,,,,,,,,,,,,,,,,,,,,,,w,1,None,0,,1.0,triangleblue.gif,go,,,,,,,,0.351139068604,,,,,,,,,,,,,,,,,,,,,,,,0,0.514362096786,0.000892162322998,0.351139068604,1,w,414.362292051,,,,,,,,,,,,,,,,,,,,,,,,,,,,,,,,,2015_Jun_23_1302,59.9858126816,LearningTask,1,61,
-200,q,200,,,,,,,,,,,,,,,,,0,0,0,0,3,3,15,1,,,,,,,,,,,,,,,,,,,,,,,,,,,,,q,1,None,0,,1.0,lineorange.gif,stop,,,,,,,,0.350942134857,,,,,,,,,,,,,,,,,,,,,,,,0.86,0.51390004158,0.000997066497803,0.350942134857,1,q,417.365582943,,,,,,,,,,,,,,,,,,,,,,,,,,,,,,,,,2015_Jun_23_1302,59.9858126816,LearningTask,1,61,
-200,a,-200,,,,,,,,,,,,,,,,,0,0,0,0,4,0,16,3,,,,,,,,,,,,,,,,,,,,,,,,,,,,,a,1,None,0,,1.0,lineorange.gif,stop,,,,,,,,0.41765999794,,,,,,,,,,,,,,,,,,,,,,,,0.91,0.513787984848,0.00123500823975,0.41765999794,1,a,420.368709087,,,,,,,,,,,,,,,,,,,,,,,,,,,,,,,,,2015_Jun_23_1302,59.9858126816,LearningTask,1,61,
-200,a,-200,,,,,,,,,,,,,,,,,0,0,0,0,4,1,17,3,,,,,,,,,,,,,,,,,,,,,,,,,,,,,a,1,None,0,,1.0,lineorange.gif,stop,,,,,,,,0.401254892349,,,,,,,,,,,,,,,,,,,,,,,,0.96,0.514228820801,0.00090503692627,0.401254892349,1,a,423.372122049,,,,,,,,,,,,,,,,,,,,,,,,,,,,,,,,,2015_Jun_23_1302,59.9858126816,LearningTask,1,61,
-200,q,200,,,,,,,,,,,,,,,,,0,0,0,0,4,2,18,1,,,,,,,,,,,,,,,,,,,,,,,,,,,,,q,1,None,0,,2.0,invertedtriangleyellow.gif,go,,,,,,,,0.384691953659,,,,,,,,,,,,,,,,,,,,,,,,2.2,0.514167785645,0.000898838043213,0.384691953659,1,q,426.375298977,,,,,,,,,,,,,,,,,,,,,,,,,,,,,,,,,2015_Jun_23_1302,59.9858126816,LearningTask,1,61,
-200,a,-200,,,,,,,,,,,,,,,,,0,0,0,0,4,3,19,3,,,,,,,,,,,,,,,,,,,,,,,,,,,,,a,1,None,0,,4.0,hexagoncyan.gif,stop,,,,,,,,0.384272813797,,,,,,,,,,,,,,,,,,,,,,,,4.06,0.514419794083,0.000921964645386,0.384272813797,1,a,429.37847209,,,,,,,,,,,,,,,,,,,,,,,,,,,,,,,,,2015_Jun_23_1302,59.9858126816,LearningTask,1,61,
-200,q,200,,,,,,,,,,,,,,,,,0,0,0,0,5,0,20,1,,,,,,,,,,,,,,,,,,,,,,,,,,,,,q,1,None,0,,1.0,triangleblue.gif,go,,,,,,,,0.367838144302,,,,,,,,,,,,,,,,,,,,,,,,1.04,0.514717102051,0.000962018966675,0.367838144302,1,q,432.382214069,,,,,,,,,,,,,,,,,,,,,,,,,,,,,,,,,2015_Jun_23_1302,59.9858126816,LearningTask,1,61,
-200,a,-200,,,,,,,,,,,,,,,,,0,0,0,0,5,1,21,3,,,,,,,,,,,,,,,,,,,,,,,,,,,,,a,1,None,0,,4.0,diamondgray.gif,go,,,,,,,,0.367321968079,,,,,,,,,,,,,,,,,,,,,,,,0,0.514267921448,0.000907897949219,0.367321968079,1,a,435.385421991,,,,,,,,,,,,,,,,,,,,,,,,,,,,,,,,,2015_Jun_23_1302,59.9858126816,LearningTask,1,61,
200,s,-200,,,,,,,,,,,,,,,,,0,0,0,0,5,2,22,2,,,,,,,,,,,,,,,,,,,,,,,,,,,,,s,1,None,0,,2.0,crossgreen.gif,stop,,,,,,,,0.417493104935,,,,,,,,,,,,,,,,,,,,,,,,1.93,0.514081954956,0.000983953475952,0.417493104935,1,s,438.388865948,,,,,,,,,,,,,,,,,,,,,,,,,,,,,,,,,2015_Jun_23_1302,59.9858126816,LearningTask,1,61,
-200,a,-200,,,,,,,,,,,,,,,,,0,0,0,0,5,3,23,3,,,,,,,,,,,,,,,,,,,,,,,,,,,,,a,1,None,0,,4.0,hexagoncyan.gif,stop,,,,,,,,0.40118598938,,,,,,,,,,,,,,,,,,,,,,,,3.91,0.514041900635,0.000970840454102,0.40118598938,1,a,441.392141104,,,,,,,,,,,,,,,,,,,,,,,,,,,,,,,,,2015_Jun_23_1302,59.9858126816,LearningTask,1,61,
200,s,-200,,,,,,,,,,,,,,,,,0,0,0,0,6,0,24,2,,,,,,,,,,,,,,,,,,,,,,,,,,,,,s,1,None,0,,4.0,hexagoncyan.gif,stop,,,,,,,,0.401610136032,,,,,,,,,,,,,,,,,,,,,,,,4.04,0.51430106163,0.000891208648682,0.401610136032,1,s,444.395864964,,,,,,,,,,,,,,,,,,,,,,,,,,,,,,,,,2015_Jun_23_1302,59.9858126816,LearningTask,1,61,
-200,q,200,,,,,,,,,,,,,,,,,0,0,0,0,6,1,25,1,,,,,,,,,,,,,,,,,,,,,,,,,,,,,q,1,None,0,,4.0,diamondgray.gif,go,,,,,,,,0.384500980377,,,,,,,,,,,,,,,,,,,,,,,,4.17,0.513596057892,0.00095009803772,0.384500980377,1,q,447.399004936,,,,,,,,,,,,,,,,,,,,,,,,,,,,,,,,,2015_Jun_23_1302,59.9858126816,LearningTask,1,61,
-200,a,-200,,,,,,,,,,,,,,,,,0,0,0,0,6,2,26,3,,,,,,,,,,,,,,,,,,,,,,,,,,,,,a,1,None,0,,4.0,hexagoncyan.gif,stop,,,,,,,,0.367496967316,,,,,,,,,,,,,,,,,,,,,,,,3.86,0.51421880722,0.000895977020264,0.367496967316,1,a,450.402335882,,,,,,,,,,,,,,,,,,,,,,,,,,,,,,,,,2015_Jun_23_1302,59.9858126816,LearningTask,1,61,
200,w,200,,,,,,,,,,,,,,,,,0,0,0,0,6,3,27,0,,,,,,,,,,,,,,,,,,,,,,,,,,,,,w,1,None,0,,1.0,lineorange.gif,stop,,,,,,,,0.350793123245,,,,,,,,,,,,,,,,,,,,,,,,1.15,0.514356851578,0.000895977020264,0.350793123245,1,w,453.40597105,,,,,,,,,,,,,,,,,,,,,,,,,,,,,,,,,2015_Jun_23_1302,59.9858126816,LearningTask,1,61,
200,s,-200,,,,,,,,,,,,,,,,,0,0,0,0,7,0,28,2,,,,,,,,,,,,,,,,,,,,,,,,,,,,,s,1,None,0,,4.0,hexagoncyan.gif,stop,,,,,,,,0.36789393425,,,,,,,,,,,,,,,,,,,,,,,,4.1,0.513735055923,0.000899076461792,0.36789393425,1,s,456.409277916,,,,,,,,,,,,,,,,,,,,,,,,,,,,,,,,,2015_Jun_23_1302,59.9858126816,LearningTask,1,61,
-200,q,200,,,,,,,,,,,,,,,,,0,0,0,0,7,1,29,1,,,,,,,,,,,,,,,,,,,,,,,,,,,,,q,1,None,0,,1.0,triangleblue.gif,go,,,,,,,,0.300669908524,,,,,,,,,,,,,,,,,,,,,,,,0.88,0.514271020889,0.000898122787476,0.300669908524,1,q,459.412544966,,,,,,,,,,,,,,,,,,,,,,,,,,,,,,,,,2015_Jun_23_1302,59.9858126816,LearningTask,1,61,
200,w,200,,,,,,,,,,,,,,,,,0,0,0,0,7,2,30,0,,,,,,,,,,,,,,,,,,,,,,,,,,,,,w,1,None,0,,4.0,diamondgray.gif,go,,,,,,,,0.401247024536,,,,,,,,,,,,,,,,,,,,,,,,0,0.514065027237,0.0011990070343,0.401247024536,1,w,462.416327953,,,,,,,,,,,,,,,,,,,,,,,,,,,,,,,,,2015_Jun_23_1302,59.9858126816,LearningTask,1,61,
-200,q,200,,,,,,,,,,,,,,,,,0,0,0,0,7,3,31,1,,,,,,,,,,,,,,,,,,,,,,,,,,,,,q,1,None,0,,4.0,diamondgray.gif,go,,,,,,,,0.367732048035,,,,,,,,,,,,,,,,,,,,,,,,0,0.513850927353,0.000899076461792,0.367732048035,1,q,465.419564009,,,,,,,,,,,,,,,,,,,,,,,,,,,,,,,,,2015_Jun_23_1302,59.9858126816,LearningTask,1,61,
200,s,-200,,,,,,,,,,,,,,,,,0,0,0,0,8,0,32,2,,,,,,,,,,,,,,,,,,,,,,,,,,,,,s,1,None,0,,4.0,hexagoncyan.gif,stop,,,,,,,,0.434615850449,,,,,,,,,,,,,,,,,,,,,,,,0,0.514045000076,0.00091290473938,0.434615850449,1,s,468.42257905,,,,,,,,,,,,,,,,,,,,,,,,,,,,,,,,,2015_Jun_23_1302,59.9858126816,LearningTask,1,61,
-200,q,200,,,,,,,,,,,,,,,,,0,0,0,0,8,1,33,1,,,,,,,,,,,,,,,,,,,,,,,,,,,,,q,1,None,0,,2.0,invertedtriangleyellow.gif,go,,,,,,,,0.368188142776,,,,,,,,,,,,,,,,,,,,,,,,1.89,0.514287948608,0.000911951065063,0.368188142776,1,q,471.42599988,,,,,,,,,,,,,,,,,,,,,,,,,,,,,,,,,2015_Jun_23_1302,59.9858126816,LearningTask,1,61,
200,s,-200,,,,,,,,,,,,,,,,,0,0,0,0,8,2,34,2,,,,,,,,,,,,,,,,,,,,,,,,,,,,,s,1,None,0,,2.0,crossgreen.gif,stop,,,,,,,,0.38422203064,,,,,,,,,,,,,,,,,,,,,,,,2.2,0.514480829239,0.00090479850769,0.38422203064,1,s,474.429426908,,,,,,,,,,,,,,,,,,,,,,,,,,,,,,,,,2015_Jun_23_1302,59.9858126816,LearningTask,1,61,
-200,a,-200,,,,,,,,,,,,,,,,,0,0,0,0,8,3,35,3,,,,,,,,,,,,,,,,,,,,,,,,,,,,,a,1,None,0,,0.5,circlemagenta.gif,go,,,,,,,,0.417488098145,,,,,,,,,,,,,,,,,,,,,,,,0.46,0.514436006546,0.00104999542236,0.417488098145,1,a,477.432954073,,,,,,,,,,,,,,,,,,,,,,,,,,,,,,,,,2015_Jun_23_1302,59.9858126816,LearningTask,1,61,
-200,q,200,,,,,,,,,,,,,,,,,0,0,0,0,9,0,36,1,,,,,,,,,,,,,,,,,,,,,,,,,,,,,q,1,None,0,,0.5,circlemagenta.gif,go,,,,,,,,0.35121011734,,,,,,,,,,,,,,,,,,,,,,,,0.58,0.514188051224,0.000926971435547,0.35121011734,1,q,480.436115026,,,,,,,,,,,,,,,,,,,,,,,,,,,,,,,,,2015_Jun_23_1302,59.9858126816,LearningTask,1,61,
-200,q,200,,,,,,,,,,,,,,,,,0,0,0,0,9,1,37,1,,,,,,,,,,,,,,,,,,,,,,,,,,,,,q,1,None,0,,0.5,squarewhite.gif,stop,,,,,,,,0.384421825409,,,,,,,,,,,,,,,,,,,,,,,,0.71,0.514261007309,0.000892877578735,0.384421825409,1,q,483.43948102,,,,,,,,,,,,,,,,,,,,,,,,,,,,,,,,,2015_Jun_23_1302,59.9858126816,LearningTask,1,61,
200,w,200,,,,,,,,,,,,,,,,,0,0,0,0,9,2,38,0,,,,,,,,,,,,,,,,,,,,,,,,,,,,,w,1,None,0,,2.0,invertedtriangleyellow.gif,go,,,,,,,,0.317857980728,,,,,,,,,,,,,,,,,,,,,,,,2.13,0.513962984085,0.00107288360596,0.317857980728,1,w,486.443094969,,,,,,,,,,,,,,,,,,,,,,,,,,,,,,,,,2015_Jun_23_1302,59.9858126816,LearningTask,1,61,
200,w,200,,,,,,,,,,,,,,,,,0,0,0,0,9,3,39,0,,,,,,,,,,,,,,,,,,,,,,,,,,,,,w,1,None,0,,0.5,circlemagenta.gif,go,,,,,,,,0.351310014725,,,,,,,,,,,,,,,,,,,,,,,,0.3,0.513835906982,0.000904083251953,0.351310014725,1,w,489.44629693,,,,,,,,,,,,,,,,,,,,,,,,,,,,,,,,,2015_Jun_23_1302,59.9858126816,LearningTask,1,61,
200,w,200,,,,,,,,,,,,,,,,,0,0,0,0,10,0,40,0,,,,,,,,,,,,,,,,,,,,,,,,,,,,,w,1,None,0,,0.5,circlemagenta.gif,go,,,,,,,,0.350884914398,,,,,,,,,,,,,,,,,,,,,,,,0.61,0.514445066452,0.000898122787476,0.350884914398,1,w,492.449719906,,,,,,,,,,,,,,,,,,,,,,,,,,,,,,,,,2015_Jun_23_1302,59.9858126816,LearningTask,1,61,
200,s,-200,,,,,,,,,,,,,,,,,0,0,0,0,10,1,41,2,,,,,,,,,,,,,,,,,,,,,,,,,,,,,s,1,None,0,,0.5,squarewhite.gif,stop,,,,,,,,0.41747379303,,,,,,,,,,,,,,,,,,,,,,,,0.47,0.514070034027,0.000911951065063,0.41747379303,1,s,495.453382015,,,,,,,,,,,,,,,,,,,,,,,,,,,,,,,,,2015_Jun_23_1302,59.9858126816,LearningTask,1,61,
-200,q,200,,,,,,,,,,,,,,,,,0,0,0,0,10,2,42,1,,,,,,,,,,,,,,,,,,,,,,,,,,,,,q,1,None,0,,4.0,hexagoncyan.gif,stop,,,,,,,,0.317662000656,,,,,,,,,,,,,,,,,,,,,,,,0,0.51397395134,0.000897884368896,0.317662000656,1,q,498.456363916,,,,,,,,,,,,,,,,,,,,,,,,,,,,,,,,,2015_Jun_23_1302,59.9858126816,LearningTask,1,61,
200,s,-200,,,,,,,,,,,,,,,,,0,0,0,0,10,3,43,2,,,,,,,,,,,,,,,,,,,,,,,,,,,,,s,1,None,0,,4.0,diamondgray.gif,go,,,,,,,,0.400594949722,,,,,,,,,,,,,,,,,,,,,,,,4.02,0.514439105988,0.000893115997314,0.400594949722,1,s,501.460186005,,,,,,,,,,,,,,,,,,,,,,,,,,,,,,,,,2015_Jun_23_1302,59.9858126816,LearningTask,1,61,
-200,a,-200,,,,,,,,,,,,,,,,,0,0,0,0,11,0,44,3,,,,,,,,,,,,,,,,,,,,,,,,,,,,,a,1,None,0,,0.5,squarewhite.gif,stop,,,,,,,,0.450778007507,,,,,,,,,,,,,,,,,,,,,,,,0.27,0.513509988785,0.00089693069458,0.450778007507,1,a,504.46333003,,,,,,,,,,,,,,,,,,,,,,,,,,,,,,,,,2015_Jun_23_1302,59.9858126816,LearningTask,1,61,
-200,a,-200,,,,,,,,,,,,,,,,,0,0,0,0,11,1,45,3,,,,,,,,,,,,,,,,,,,,,,,,,,,,,a,1,None,0,,0.5,circlemagenta.gif,go,,,,,,,,0.417266845703,,,,,,,,,,,,,,,,,,,,,,,,0,0.514436006546,0.000911951065063,0.417266845703,1,a,507.466537952,,,,,,,,,,,,,,,,,,,,,,,,,,,,,,,,,2015_Jun_23_1302,59.9858126816,LearningTask,1,61,
200,w,200,,,,,,,,,,,,,,,,,0,0,0,0,11,2,46,0,,,,,,,,,,,,,,,,,,,,,,,,,,,,,w,1,None,0,,4.0,hexagoncyan.gif,stop,,,,,,,,0.30076789856,,,,,,,,,,,,,,,,,,,,,,,,4.07,0.514405012131,0.000901937484741,0.30076789856,1,w,510.470220089,,,,,,,,,,,,,,,,,,,,,,,,,,,,,,,,,2015_Jun_23_1302,59.9858126816,LearningTask,1,61,
-200,q,200,,,,,,,,,,,,,,,,,0,0,0,0,11,3,47,1,,,,,,,,,,,,,,,,,,,,,,,,,,,,,q,1,None,0,,4.0,diamondgray.gif,go,,,,,,,,0.334085941315,,,,,,,,,,,,,,,,,,,,,,,,3.93,0.514019966125,0.000887870788574,0.334085941315,1,q,513.473423958,,,,,,,,,,,,,,,,,,,,,,,,,,,,,,,,,2015_Jun_23_1302,59.9858126816,LearningTask,1,61,
200,s,-200,,,,,,,,,,,,,,,,,0,0,0,0,12,0,48,2,,,,,,,,,,,,,,,,,,,,,,,,,,,,,s,1,None,0,,0.5,circlemagenta.gif,go,,,,,,,,0.384095191956,,,,,,,,,,,,,,,,,,,,,,,,0.61,0.51441192627,0.00102496147156,0.384095191956,1,s,516.476910114,,,,,,,,,,,,,,,,,,,,,,,,,,,,,,,,,2015_Jun_23_1302,59.9858126816,LearningTask,1,61,
200,w,200,,,,,,,,,,,,,,,,,0,0,0,0,12,1,49,0,,,,,,,,,,,,,,,,,,,,,,,,,,,,,w,1,None,0,,0.5,circlemagenta.gif,go,,,,,,,,0.350681781769,,,,,,,,,,,,,,,,,,,,,,,,0,0.514199018478,0.000980138778687,0.350681781769,1,w,519.480531931,,,,,,,,,,,,,,,,,,,,,,,,,,,,,,,,,2015_Jun_23_1302,59.9858126816,LearningTask,1,61,
-200,q,200,,,,,,,,,,,,,,,,,0,0,0,0,12,2,50,1,,,,,,,,,,,,,,,,,,,,,,,,,,,,,q,1,None,0,,1.0,triangleblue.gif,go,,,,,,,,0.401036024094,,,,,,,,,,,,,,,,,,,,,,,,0,0.513601064682,0.000886917114258,0.401036024094,1,q,522.483525991,,,,,,,,,,,,,,,,,,,,,,,,,,,,,,,,,2015_Jun_23_1302,59.9858126816,LearningTask,1,61,
200,s,-200,,,,,,,,,,,,,,,,,0,0,0,0,12,3,51,2,,,,,,,,,,,,,,,,,,,,,,,,,,,,,s,1,None,0,,1.0,lineorange.gif,stop,,,,,,,,0.40137720108,,,,,,,,,,,,,,,,,,,,,,,,0,0.513695955276,0.000962972640991,0.40137720108,1,s,525.486799002,,,,,,,,,,,,,,,,,,,,,,,,,,,,,,,,,2015_Jun_23_1302,59.9858126816,LearningTask,1,61,
200,w,200,,,,,,,,,,,,,,,,,0,0,0,0,13,0,52,0,,,,,,,,,,,,,,,,,,,,,,,,,,,,,w,1,None,0,,1.0,lineorange.gif,stop,,,,,,,,0.350624799728,,,,,,,,,,,,,,,,,,,,,,,,0,0.514344930649,0.000949859619141,0.350624799728,1,w,528.490242004,,,,,,,,,,,,,,,,,,,,,,,,,,,,,,,,,2015_Jun_23_1302,59.9858126816,LearningTask,1,61,
-200,q,200,,,,,,,,,,,,,,,,,0,0,0,0,13,1,53,1,,,,,,,,,,,,,,,,,,,,,,,,,,,,,q,1,None,0,,4.0,diamondgray.gif,go,,,,,,,,0.333941221237,,,,,,,,,,,,,,,,,,,,,,,,4.16,0.514636039734,0.000894069671631,0.333941221237,1,q,531.49358201,,,,,,,,,,,,,,,,,,,,,,,,,,,,,,,,,2015_Jun_23_1302,59.9858126816,LearningTask,1,61,
-200,a,-200,,,,,,,,,,,,,,,,,0,0,0,0,13,2,54,3,,,,,,,,,,,,,,,,,,,,,,,,,,,,,a,1,None,0,,4.0,hexagoncyan.gif,stop,,,,,,,,0.417233943939,,,,,,,,,,,,,,,,,,,,,,,,3.93,0.514521837234,0.00092887878418,0.417233943939,1,a,534.49693799,,,,,,,,,,,,,,,,,,,,,,,,,,,,,,,,,2015_Jun_23_1302,59.9858126816,LearningTask,1,61,
-200,a,-200,,,,,,,,,,,,,,,,,0,0,0,0,13,3,55,3,,,,,,,,,,,,,,,,,,,,,,,,,,,,,a,1,None,0,,2.0,crossgreen.gif,stop,,,,,,,,0.400515079498,,,,,,,,,,,,,,,,,,,,,,,,2.03,0.514461040497,0.000936985015869,0.400515079498,1,a,537.500188112,,,,,,,,,,,,,,,,,,,,,,,,,,,,,,,,,2015_Jun_23_1302,59.9858126816,LearningTask,1,61,
200,s,-200,,,,,,,,,,,,,,,,,0,0,0,0,14,0,56,2,,,,,,,,,,,,,,,,,,,,,,,,,,,,,s,1,None,0,,0.5,squarewhite.gif,stop,,,,,,,,0.417587041855,,,,,,,,,,,,,,,,,,,,,,,,0.72,0.514471054077,0.000908851623535,0.417587041855,1,s,540.503799915,,,,,,,,,,,,,,,,,,,,,,,,,,,,,,,,,2015_Jun_23_1302,59.9858126816,LearningTask,1,61,
200,w,200,,,,,,,,,,,,,,,,,0,0,0,0,14,1,57,0,,,,,,,,,,,,,,,,,,,,,,,,,,,,,w,1,None,0,,4.0,hexagoncyan.gif,stop,,,,,,,,0.350591182709,,,,,,,,,,,,,,,,,,,,,,,,3.99,0.513869047165,0.000931024551392,0.350591182709,1,w,543.507111073,,,,,,,,,,,,,,,,,,,,,,,,,,,,,,,,,2015_Jun_23_1302,59.9858126816,LearningTask,1,61,
200,s,-200,,,,,,,,,,,,,,,,,0,0,0,0,14,2,58,2,,,,,,,,,,,,,,,,,,,,,,,,,,,,,s,1,None,0,,1.0,lineorange.gif,stop,,,,,,,,0.384254932404,,,,,,,,,,,,,,,,,,,,,,,,0.96,0.514337062836,0.00088906288147,0.384254932404,1,s,546.510514021,,,,,,,,,,,,,,,,,,,,,,,,,,,,,,,,,2015_Jun_23_1302,59.9858126816,LearningTask,1,61,
-200,a,-200,,,,,,,,,,,,,,,,,0,0,0,0,14,3,59,3,,,,,,,,,,,,,,,,,,,,,,,,,,,,,a,1,None,0,,2.0,invertedtriangleyellow.gif,go,,,,,,,,0.334139823914,,,,,,,,,,,,,,,,,,,,,,,,0,0.514248132706,0.000906944274902,0.334139823914,1,a,549.514214993,,,,,,,,,,,,,,,,,,,,,,,,,,,,,,,,,2015_Jun_23_1302,59.9858126816,LearningTask,1,61,
200,s,-200,,,,,,,,,,,,,,,,,0,0,0,0,15,0,60,2,,,,,,,,,,,,,,,,,,,,,,,,,,,,,s,1,None,0,,1.0,lineorange.gif,stop,,,,,,,,0.417386054993,,,,,,,,,,,,,,,,,,,,,,,,0.8,0.514042854309,0.000890970230103,0.417386054993,1,s,552.517402887,,,,,,,,,,,,,,,,,,,,,,,,,,,,,,,,,2015_Jun_23_1302,59.9858126816,LearningTask,1,61,
-200,a,-200,,,,,,,,,,,,,,,,,0,0,0,0,15,1,61,3,,,,,,,,,,,,,,,,,,,,,,,,,,,,,a,1,None,0,,2.0,crossgreen.gif,stop,,,,,,,,0.450884103775,,,,,,,,,,,,,,,,,,,,,,,,2.2,0.514231920242,0.000900030136108,0.450884103775,1,a,555.520503044,,,,,,,,,,,,,,,,,,,,,,,,,,,,,,,,,2015_Jun_23_1302,59.9858126816,LearningTask,1,61,
-200,a,-200,,,,,,,,,,,,,,,,,0,0,0,0,15,2,62,3,,,,,,,,,,,,,,,,,,,,,,,,,,,,,a,1,None,0,,0.5,circlemagenta.gif,go,,,,,,,,0.384166955948,,,,,,,,,,,,,,,,,,,,,,,,0.46,0.514414072037,0.000901937484741,0.384166955948,1,a,558.523869038,,,,,,,,,,,,,,,,,,,,,,,,,,,,,,,,,2015_Jun_23_1302,59.9858126816,LearningTask,1,61,
200,w,200,,,,,,,,,,,,,,,,,0,0,0,0,15,3,63,0,,,,,,,,,,,,,,,,,,,,,,,,,,,,,w,1,None,0,,2.0,invertedtriangleyellow.gif,go,,,,,,,,0.484188079834,,,,,,,,,,,,,,,,,,,,,,,,1.82,0.514583826065,0.000881910324097,0.484188079834,1,w,561.527425051,,,,,,,,,,,,,,,,,,,,,,,,,,,,,,,,,2015_Jun_23_1302,59.9858126816,LearningTask,1,61,
-200,a,-200,,,,,,,,,,,,,,,,,0,0,0,0,16,0,64,3,,,,,,,,,,,,,,,,,,,,,,,,,,,,,a,1,None,0,,1.0,lineorange.gif,stop,,,,,,,,0.384070158005,,,,,,,,,,,,,,,,,,,,,,,,0,0.514410972595,0.000963926315308,0.384070158005,1,a,564.53095603,,,,,,,,,,,,,,,,,,,,,,,,,,,,,,,,,2015_Jun_23_1302,59.9858126816,LearningTask,1,61,
200,w,200,,,,,,,,,,,,,,,,,0,0,0,0,16,1,65,0,,,,,,,,,,,,,,,,,,,,,,,,,,,,,w,1,None,0,,2.0,invertedtriangleyellow.gif,go,,,,,,,,0.434312105179,,,,,,,,,,,,,,,,,,,,,,,,2.06,0.514108896255,0.00092601776123,0.434312105179,1,w,567.534159899,,,,,,,,,,,,,,,,,,,,,,,,,,,,,,,,,2015_Jun_23_1302,59.9858126816,LearningTask,1,61,
-200,a,-200,,,,,,,,,,,,,,,,,0,0,0,0,16,2,66,3,,,,,,,,,,,,,,,,,,,,,,,,,,,,,a,1,None,0,,4.0,hexagoncyan.gif,stop,,,,,,,,0.367475986481,,,,,,,,,,,,,,,,,,,,,,,,3.92,0.514410018921,0.000894069671631,0.367475986481,1,a,570.537419081,,,,,,,,,,,,,,,,,,,,,,,,,,,,,,,,,2015_Jun_23_1302,59.9858126816,LearningTask,1,61,
-200,a,-200,,,,,,,,,,,,,,,,,0,0,0,0,16,3,67,3,,,,,,,,,,,,,,,,,,,,,,,,,,,,,a,1,None,0,,4.0,hexagoncyan.gif,stop,,,,,,,,0.36739897728,,,,,,,,,,,,,,,,,,,,,,,,4.25,0.514137029648,0.00103402137756,0.36739897728,1,a,573.540729046,,,,,,,,,,,,,,,,,,,,,,,,,,,,,,,,,2015_Jun_23_1302,59.9858126816,LearningTask,1,61,
200,w,200,,,,,,,,,,,,,,,,,0,0,0,0,17,0,68,0,,,,,,,,,,,,,,,,,,,,,,,,,,,,,w,1,None,0,,0.5,squarewhite.gif,stop,,,,,,,,0.451336145401,,,,,,,,,,,,,,,,,,,,,,,,0.38,0.514273881912,0.00119781494141,0.451336145401,1,w,576.544157982,,,,,,,,,,,,,,,,,,,,,,,,,,,,,,,,,2015_Jun_23_1302,59.9858126816,LearningTask,1,61,
-200,q,200,,,,,,,,,,,,,,,,,0,0,0,0,17,1,69,1,,,,,,,,,,,,,,,,,,,,,,,,,,,,,q,1,None,0,,2.0,invertedtriangleyellow.gif,go,,,,,,,,0.384172201157,,,,,,,,,,,,,,,,,,,,,,,,1.76,0.514511823654,0.000885009765625,0.384172201157,1,q,579.547738075,,,,,,,,,,,,,,,,,,,,,,,,,,,,,,,,,2015_Jun_23_1302,59.9858126816,LearningTask,1,61,
200,s,-200,,,,,,,,,,,,,,,,,0,0,0,0,17,2,70,2,,,,,,,,,,,,,,,,,,,,,,,,,,,,,s,1,None,0,,2.0,crossgreen.gif,stop,,,,,,,,0.400635957718,,,,,,,,,,,,,,,,,,,,,,,,2.16,0.514089107513,0.00093412399292,0.400635957718,1,s,582.550982952,,,,,,,,,,,,,,,,,,,,,,,,,,,,,,,,,2015_Jun_23_1302,59.9858126816,LearningTask,1,61,
200,s,-200,,,,,,,,,,,,,,,,,0,0,0,0,17,3,71,2,,,,,,,,,,,,,,,,,,,,,,,,,,,,,s,1,None,0,,0.5,circlemagenta.gif,go,,,,,,,,0.400917053223,,,,,,,,,,,,,,,,,,,,,,,,0.43,0.51429605484,0.000886917114258,0.400917053223,1,s,585.554339886,,,,,,,,,,,,,,,,,,,,,,,,,,,,,,,,,2015_Jun_23_1302,59.9858126816,LearningTask,1,61,
200,w,200,,,,,,,,,,,,,,,,,0,0,0,0,18,0,72,0,,,,,,,,,,,,,,,,,,,,,,,,,,,,,w,1,None,0,,1.0,triangleblue.gif,go,,,,,,,,0.334226131439,,,,,,,,,,,,,,,,,,,,,,,,0.92,0.5143699646,0.000985860824585,0.334226131439,1,w,588.557826996,,,,,,,,,,,,,,,,,,,,,,,,,,,,,,,,,2015_Jun_23_1302,59.9858126816,LearningTask,1,61,
200,s,-200,,,,,,,,,,,,,,,,,0,0,0,0,18,1,73,2,,,,,,,,,,,,,,,,,,,,,,,,,,,,,s,1,None,0,,0.5,circlemagenta.gif,go,,,,,,,,0.401165962219,,,,,,,,,,,,,,,,,,,,,,,,0,0.513757944107,0.000916004180908,0.401165962219,1,s,591.561371088,,,,,,,,,,,,,,,,,,,,,,,,,,,,,,,,,2015_Jun_23_1302,59.9858126816,LearningTask,1,61,
-200,a,-200,,,,,,,,,,,,,,,,,0,0,0,0,18,2,74,3,,,,,,,,,,,,,,,,,,,,,,,,,,,,,a,1,None,0,,2.0,invertedtriangleyellow.gif,go,,,,,,,,0.367884874344,,,,,,,,,,,,,,,,,,,,,,,,0,0.51414513588,0.000888109207153,0.367884874344,1,a,594.564483881,,,,,,,,,,,,,,,,,,,,,,,,,,,,,,,,,2015_Jun_23_1302,59.9858126816,LearningTask,1,61,
-200,q,200,,,,,,,,,,,,,,,,,0,0,0,0,18,3,75,1,,,,,,,,,,,,,,,,,,,,,,,,,,,,,q,1,None,0,,2.0,invertedtriangleyellow.gif,go,,,,,,,,0.400747060776,,,,,,,,,,,,,,,,,,,,,,,,1.85,0.514523029327,0.000899076461792,0.400747060776,1,q,597.568084955,,,,,,,,,,,,,,,,,,,,,,,,,,,,,,,,,2015_Jun_23_1302,59.9858126816,LearningTask,1,61,
-200,q,200,,,,,,,,,,,,,,,,,0,0,0,0,19,0,76,1,,,,,,,,,,,,,,,,,,,,,,,,,,,,,q,1,None,0,,1.0,triangleblue.gif,go,,,,,,,,0.417856931686,,,,,,,,,,,,,,,,,,,,,,,,0.86,0.514039039612,0.000938892364502,0.417856931686,1,q,600.571326971,,,,,,,,,,,,,,,,,,,,,,,,,,,,,,,,,2015_Jun_23_1302,59.9858126816,LearningTask,1,61,
-200,q,200,,,,,,,,,,,,,,,,,0,0,0,0,19,1,77,1,,,,,,,,,,,,,,,,,,,,,,,,,,,,,q,1,None,0,,1.0,lineorange.gif,stop,,,,,,,,0.367480039597,,,,,,,,,,,,,,,,,,,,,,,,0.9,0.514290094376,0.000898122787476,0.367480039597,1,q,603.574476004,,,,,,,,,,,,,,,,,,,,,,,,,,,,,,,,,2015_Jun_23_1302,59.9858126816,LearningTask,1,61,
200,w,200,,,,,,,,,,,,,,,,,0,0,0,0,19,2,78,0,,,,,,,,,,,,,,,,,,,,,,,,,,,,,w,1,None,0,,1.0,lineorange.gif,stop,,,,,,,,0.384490966797,,,,,,,,,,,,,,,,,,,,,,,,0.86,0.514385938644,0.000938892364502,0.384490966797,1,w,606.578416109,,,,,,,,,,,,,,,,,,,,,,,,,,,,,,,,,2015_Jun_23_1302,59.9858126816,LearningTask,1,61,
-200,a,-200,,,,,,,,,,,,,,,,,0,0,0,0,19,3,79,3,,,,,,,,,,,,,,,,,,,,,,,,,,,,,a,1,None,0,,1.0,lineorange.gif,stop,,,,,,,,0.418034076691,,,,,,,,,,,,,,,,,,,,,,,,0.88,0.513967037201,0.000899076461792,0.418034076691,1,a,609.581433058,,,,,,,,,,,,,,,,,,,,,,,,,,,,,,,,,2015_Jun_23_1302,59.9858126816,LearningTask,1,61,
-200,a,-200,,,,,,,,,,,,,,,,,0,0,0,0,20,0,80,3,,,,,,,,,,,,,,,,,,,,,,,,,,,,,a,1,None,0,,4.0,hexagoncyan.gif,stop,,,,,,,,0.350790023804,,,,,,,,,,,,,,,,,,,,,,,,3.79,0.514157056808,0.000959157943726,0.350790023804,1,a,612.584783077,,,,,,,,,,,,,,,,,,,,,,,,,,,,,,,,,2015_Jun_23_1302,59.9858126816,LearningTask,1,61,
-200,q,200,,,,,,,,,,,,,,,,,0,0,0,0,20,1,81,1,,,,,,,,,,,,,,,,,,,,,,,,,,,,,q,1,None,0,,0.5,squarewhite.gif,stop,,,,,,,,0.351111888885,,,,,,,,,,,,,,,,,,,,,,,,0.32,0.514317035675,0.000937938690186,0.351111888885,1,q,615.588046074,,,,,,,,,,,,,,,,,,,,,,,,,,,,,,,,,2015_Jun_23_1302,59.9858126816,LearningTask,1,61,
-200,q,200,,,,,,,,,,,,,,,,,0,0,0,0,20,2,82,1,,,,,,,,,,,,,,,,,,,,,,,,,,,,,q,1,None,0,,1.0,triangleblue.gif,go,,,,,,,,0.384299039841,,,,,,,,,,,,,,,,,,,,,,,,1.05,0.514441013336,0.000893115997314,0.384299039841,1,q,618.591342926,,,,,,,,,,,,,,,,,,,,,,,,,,,,,,,,,2015_Jun_23_1302,59.9858126816,LearningTask,1,61,
200,w,200,,,,,,,,,,,,,,,,,0,0,0,0,20,3,83,0,,,,,,,,,,,,,,,,,,,,,,,,,,,,,w,1,None,0,,1.0,lineorange.gif,stop,,,,,,,,0.334622859955,,,,,,,,,,,,,,,,,,,,,,,,1.05,0.514127016068,0.000946044921875,0.334622859955,1,w,621.594851971,,,,,,,,,,,,,,,,,,,,,,,,,,,,,,,,,2015_Jun_23_1302,59.9858126816,LearningTask,1,61,
-200,a,-200,,,,,,,,,,,,,,,,,0,0,0,0,21,0,84,3,,,,,,,,,,,,,,,,,,,,,,,,,,,,,a,1,None,0,,1.0,triangleblue.gif,go,,,,,,,,0.350519180298,,,,,,,,,,,,,,,,,,,,,,,,1.1,0.51472401619,0.000898122787476,0.350519180298,1,a,624.59819293,,,,,,,,,,,,,,,,,,,,,,,,,,,,,,,,,2015_Jun_23_1302,59.9858126816,LearningTask,1,61,
200,w,200,,,,,,,,,,,,,,,,,0,0,0,0,21,1,85,0,,,,,,,,,,,,,,,,,,,,,,,,,,,,,w,1,None,0,,1.0,lineorange.gif,stop,,,,,,,,0.351519823074,,,,,,,,,,,,,,,,,,,,,,,,1.03,0.514417886734,0.00089693069458,0.351519823074,1,w,627.601630926,,,,,,,,,,,,,,,,,,,,,,,,,,,,,,,,,2015_Jun_23_1302,59.9858126816,LearningTask,1,61,
200,s,-200,,,,,,,,,,,,,,,,,0,0,0,0,21,2,86,2,,,,,,,,,,,,,,,,,,,,,,,,,,,,,s,1,None,0,,4.0,diamondgray.gif,go,,,,,,,,0.434017181396,,,,,,,,,,,,,,,,,,,,,,,,0,0.513985872269,0.000929832458496,0.41737818718,0,a,630.605058908,4.09,0.515603065491,0.00100612640381,0.434017181396,1,s,633.608604908,,,,,,,,,,,,,,,,,,,,,,,,,,2015_Jun_23_1302,59.9858126816,LearningTask,1,61,
200,w,200,,,,,,,,,,,,,,,,,0,0,0,0,21,3,87,0,,,,,,,,,,,,,,,,,,,,,,,,,,,,,w,1,None,0,,1.0,triangleblue.gif,go,,,,,,,,0.367461919785,,,,,,,,,,,,,,,,,,,,,,,,0.77,0.51404094696,0.000900983810425,0.367461919785,1,w,636.61205411,,,,,,,,,,,,,,,,,,,,,,,,,,,,,,,,,2015_Jun_23_1302,59.9858126816,LearningTask,1,61,
200,w,200,,,,,,,,,,,,,,,,,0,0,0,0,22,0,88,0,,,,,,,,,,,,,,,,,,,,,,,,,,,,,w,1,None,0,,1.0,triangleblue.gif,go,,,,,,,,0.400703907013,,,,,,,,,,,,,,,,,,,,,,,,1.07,0.514049053192,0.00090503692627,0.400703907013,1,w,639.615451097,,,,,,,,,,,,,,,,,,,,,,,,,,,,,,,,,2015_Jun_23_1302,59.9858126816,LearningTask,1,61,
200,s,-200,,,,,,,,,,,,,,,,,0,0,0,0,22,1,89,2,,,,,,,,,,,,,,,,,,,,,,,,,,,,,s,1,None,0,,1.0,lineorange.gif,stop,,,,,,,,0.401086091995,,,,,,,,,,,,,,,,,,,,,,,,0,0.51388001442,0.000905990600586,0.401086091995,1,s,642.618480921,,,,,,,,,,,,,,,,,,,,,,,,,,,,,,,,,2015_Jun_23_1302,59.9858126816,LearningTask,1,61,
200,w,200,,,,,,,,,,,,,,,,,0,0,0,0,22,2,90,0,,,,,,,,,,,,,,,,,,,,,,,,,,,,,w,1,None,0,,4.0,hexagoncyan.gif,stop,,,,,,,,0.383830070496,,,,,,,,,,,,,,,,,,,,,,,,3.82,0.514646053314,0.00091814994812,0.383830070496,1,w,645.62193799,,,,,,,,,,,,,,,,,,,,,,,,,,,,,,,,,2015_Jun_23_1302,59.9858126816,LearningTask,1,61,
-200,q,200,,,,,,,,,,,,,,,,,0,0,0,0,22,3,91,1,,,,,,,,,,,,,,,,,,,,,,,,,,,,,q,1,None,0,,1.0,lineorange.gif,stop,,,,,,,,0.350791931152,,,,,,,,,,,,,,,,,,,,,,,,1.16,0.514331102371,0.000929117202759,0.350791931152,1,q,648.625381947,,,,,,,,,,,,,,,,,,,,,,,,,,,,,,,,,2015_Jun_23_1302,59.9858126816,LearningTask,1,61,
200,w,200,,,,,,,,,,,,,,,,,0,0,0,0,23,0,92,0,,,,,,,,,,,,,,,,,,,,,,,,,,,,,w,1,None,0,,4.0,hexagoncyan.gif,stop,,,,,,,,0.333863973618,,,,,,,,,,,,,,,,,,,,,,,,4.25,0.514558076859,0.000982046127319,0.333863973618,1,w,651.629053116,,,,,,,,,,,,,,,,,,,,,,,,,,,,,,,,,2015_Jun_23_1302,59.9858126816,LearningTask,1,61,
-200,a,-200,,,,,,,,,,,,,,,,,0,0,0,0,23,1,93,3,,,,,,,,,,,,,,,,,,,,,,,,,,,,,a,1,None,0,,1.0,lineorange.gif,stop,,,,,,,,0.400866985321,,,,,,,,,,,,,,,,,,,,,,,,0.95,0.513792037964,0.000952005386353,0.400866985321,1,a,654.63209796,,,,,,,,,,,,,,,,,,,,,,,,,,,,,,,,,2015_Jun_23_1302,59.9858126816,LearningTask,1,61,
200,s,-200,,,,,,,,,,,,,,,,,0,0,0,0,23,2,94,2,,,,,,,,,,,,,,,,,,,,,,,,,,,,,s,1,None,0,,1.0,triangleblue.gif,go,,,,,,,,0.368026018143,,,,,,,,,,,,,,,,,,,,,,,,1.04,0.513982057571,0.000900983810425,0.368026018143,1,s,657.635442972,,,,,,,,,,,,,,,,,,,,,,,,,,,,,,,,,2015_Jun_23_1302,59.9858126816,LearningTask,1,61,
200,s,-200,,,,,,,,,,,,,,,,,0,0,0,0,23,3,95,2,,,,,,,,,,,,,,,,,,,,,,,,,,,,,s,1,None,0,,1.0,lineorange.gif,stop,,,,,,,,0.417840003967,,,,,,,,,,,,,,,,,,,,,,,,1.14,0.514086961746,0.00106978416443,0.417840003967,1,s,660.638768911,,,,,,,,,,,,,,,,,,,,,,,,,,,,,,,,,2015_Jun_23_1302,59.9858126816,LearningTask,1,61,
200,w,200,,,,,,,,,,,,,,,,,0,0,0,0,24,0,96,0,,,,,,,,,,,,,,,,,,,,,,,,,,,,,w,1,None,0,,2.0,crossgreen.gif,stop,,,,,,,,0.384599924088,,,,,,,,,,,,,,,,,,,,,,,,1.84,0.514111042023,0.00093412399292,0.384599924088,1,w,663.642365932,,,,,,,,,,,,,,,,,,,,,,,,,,,,,,,,,2015_Jun_23_1302,59.9858126816,LearningTask,1,61,
200,s,-200,,,,,,,,,,,,,,,,,0,0,0,0,24,1,97,2,,,,,,,,,,,,,,,,,,,,,,,,,,,,,s,1,None,0,,4.0,hexagoncyan.gif,stop,,,,,,,,0.367558002472,,,,,,,,,,,,,,,,,,,,,,,,4.19,0.514086008072,0.000900983810425,0.367558002472,1,s,666.645612955,,,,,,,,,,,,,,,,,,,,,,,,,,,,,,,,,2015_Jun_23_1302,59.9858126816,LearningTask,1,61,
-200,a,-200,,,,,,,,,,,,,,,,,0,0,0,0,24,2,98,3,,,,,,,,,,,,,,,,,,,,,,,,,,,,,a,1,None,0,,0.5,squarewhite.gif,stop,,,,,,,,0.367545127869,,,,,,,,,,,,,,,,,,,,,,,,0,0.514283895493,0.000909090042114,0.367545127869,1,a,669.648881912,,,,,,,,,,,,,,,,,,,,,,,,,,,,,,,,,2015_Jun_23_1302,59.9858126816,LearningTask,1,61,
-200,q,200,,,,,,,,,,,,,,,,,0,0,0,0,24,3,99,1,,,,,,,,,,,,,,,,,,,,,,,,,,,,,q,1,None,0,,4.0,diamondgray.gif,go,,,,,,,,0.400811195374,,,,,,,,,,,,,,,,,,,,,,,,4.2,0.514460086823,0.000895023345947,0.400811195374,1,q,672.652262926,,,,,,,,,,,,,,,,,,,,,,,,,,,,,,,,,2015_Jun_23_1302,59.9858126816,LearningTask,1,61,
,,,,,,,,,,,,,,,,,,,0,0,0,0,,,,,,,,,,,,,,,,,,,,,,,,,,,,,,,,,,,,,,,,,,,,,,,,,,,,,,,,,,,,,,,,,,,,,,,,,,,,,,,,,,,,,,9,13.9618899822,,,,,,,,,,,,,,,,,,,,,,,,2015_Jun_23_1302,59.9858126816,LearningTask,1,61,
-200,a,-200,,,,,,,,,,,,,,,,,1,0,1,0,0,0,0,3,,,,,,,,,,,,,,,,,,,,,,,,,,,,,a,1,None,0,,2.0,crossgreen.gif,stop,,,,,,,,0.868640899658,,,,,,,,,,,,,,,,,,,,,,,,0,0.509381055832,0.00089693069458,0.868640899658,1,a,690.055522919,,,,,,,,,,,,,,,,,,,,,,,,,,,,,,,,,2015_Jun_23_1302,59.9858126816,LearningTask,1,61,
200,s,-200,,,,,,,,,,,,,,,,,1,0,1,0,0,1,1,2,,,,,,,,,,,,,,,,,,,,,,,,,,,,,s,1,None,0,,0.5,circlemagenta.gif,go,,,,,,,,0.401206016541,,,,,,,,,,,,,,,,,,,,,,,,0,0.514075040817,0.000938892364502,0.401206016541,1,s,693.058818102,,,,,,,,,,,,,,,,,,,,,,,,,,,,,,,,,2015_Jun_23_1302,59.9858126816,LearningTask,1,61,
-200,q,200,,,,,,,,,,,,,,,,,1,0,1,0,0,2,2,1,,,,,,,,,,,,,,,,,,,,,,,,,,,,,q,1,None,0,,4.0,diamondgray.gif,go,,,,,,,,0.351161956787,,,,,,,,,,,,,,,,,,,,,,,,4.25,0.514091968536,0.000920057296753,0.351161956787,1,q,696.061932087,,,,,,,,,,,,,,,,,,,,,,,,,,,,,,,,,2015_Jun_23_1302,59.9858126816,LearningTask,1,61,
200,s,-200,,,,,,,,,,,,,,,,,1,0,1,0,0,3,3,2,,,,,,,,,,,,,,,,,,,,,,,,,,,,,s,1,None,0,,0.5,squarewhite.gif,stop,,,,,,,,0.400367021561,,,,,,,,,,,,,,,,,,,,,,,,0,0.514102935791,0.000939846038818,0.400367021561,1,s,699.065344095,,,,,,,,,,,,,,,,,,,,,,,,,,,,,,,,,2015_Jun_23_1302,59.9858126816,LearningTask,1,61,
200,w,200,,,,,,,,,,,,,,,,,1,0,1,0,1,0,4,0,,,,,,,,,,,,,,,,,,,,,,,,,,,,,w,1,None,0,,0.5,circlemagenta.gif,go,,,,,,,,0.383801937103,,,,,,,,,,,,,,,,,,,,,,,,0.67,0.514630794525,0.000900983810425,0.383801937103,1,w,702.069020987,,,,,,,,,,,,,,,,,,,,,,,,,,,,,,,,,2015_Jun_23_1302,59.9858126816,LearningTask,1,61,
-200,a,-200,,,,,,,,,,,,,,,,,1,0,1,0,1,1,5,3,,,,,,,,,,,,,,,,,,,,,,,,,,,,,a,1,None,0,,2.0,crossgreen.gif,stop,,,,,,,,0.434192895889,,,,,,,,,,,,,,,,,,,,,,,,0,0.514013051987,0.000890016555786,0.367110013962,0,q,705.072359085,1.9,0.515097856522,0.00100302696228,0.434192895889,1,a,708.07584691,,,,,,,,,,,,,,,,,,,,,,,,,,2015_Jun_23_1302,59.9858126816,LearningTask,1,61,
-200,q,200,,,,,,,,,,,,,,,,,1,0,1,0,1,2,6,1,,,,,,,,,,,,,,,,,,,,,,,,,,,,,q,1,None,0,,0.5,squarewhite.gif,stop,,,,,,,,0.434615850449,,,,,,,,,,,,,,,,,,,,,,,,0.6,0.513773918152,0.000891923904419,0.434615850449,1,q,711.078910112,,,,,,,,,,,,,,,,,,,,,,,,,,,,,,,,,2015_Jun_23_1302,59.9858126816,LearningTask,1,61,
200,s,-200,,,,,,,,,,,,,,,,,1,0,1,0,1,3,7,2,,,,,,,,,,,,,,,,,,,,,,,,,,,,,s,1,None,0,,4.0,diamondgray.gif,go,,,,,,,,0.434555053711,,,,,,,,,,,,,,,,,,,,,,,,3.95,0.514213085175,0.000894069671631,0.434555053711,1,s,714.082281113,,,,,,,,,,,,,,,,,,,,,,,,,,,,,,,,,2015_Jun_23_1302,59.9858126816,LearningTask,1,61,
-200,a,-200,,,,,,,,,,,,,,,,,1,0,1,0,2,0,8,3,,,,,,,,,,,,,,,,,,,,,,,,,,,,,a,1,None,0,,0.5,circlemagenta.gif,go,,,,,,,,0.384293079376,,,,,,,,,,,,,,,,,,,,,,,,0.65,0.514209032059,0.000899076461792,0.384293079376,1,a,717.085791111,,,,,,,,,,,,,,,,,,,,,,,,,,,,,,,,,2015_Jun_23_1302,59.9858126816,LearningTask,1,61,
200,s,-200,,,,,,,,,,,,,,,,,1,0,1,0,2,1,9,2,,,,,,,,,,,,,,,,,,,,,,,,,,,,,s,1,None,0,,0.5,squarewhite.gif,stop,,,,,,,,0.450927019119,,,,,,,,,,,,,,,,,,,,,,,,0.44,0.514466047287,0.00102305412292,0.450927019119,1,s,720.08931303,,,,,,,,,,,,,,,,,,,,,,,,,,,,,,,,,2015_Jun_23_1302,59.9858126816,LearningTask,1,61,
-200,q,200,,,,,,,,,,,,,,,,,1,0,1,0,2,2,10,1,,,,,,,,,,,,,,,,,,,,,,,,,,,,,q,1,None,0,,0.5,squarewhite.gif,stop,,,,,,,,0.350778102875,,,,,,,,,,,,,,,,,,,,,,,,0,0.514017105103,0.00088095664978,0.350778102875,1,q,723.09235096,,,,,,,,,,,,,,,,,,,,,,,,,,,,,,,,,2015_Jun_23_1302,59.9858126816,LearningTask,1,61,
-200,q,200,,,,,,,,,,,,,,,,,1,0,1,0,2,3,11,1,,,,,,,,,,,,,,,,,,,,,,,,,,,,,q,1,None,0,,2.0,crossgreen.gif,stop,,,,,,,,0.434381008148,,,,,,,,,,,,,,,,,,,,,,,,1.98,0.514565944672,0.00105214118958,0.434381008148,1,q,726.095683098,,,,,,,,,,,,,,,,,,,,,,,,,,,,,,,,,2015_Jun_23_1302,59.9858126816,LearningTask,1,61,
200,s,-200,,,,,,,,,,,,,,,,,1,0,1,0,3,0,12,2,,,,,,,,,,,,,,,,,,,,,,,,,,,,,s,1,None,0,,2.0,crossgreen.gif,stop,,,,,,,,0.417261123657,,,,,,,,,,,,,,,,,,,,,,,,0,0.514200925827,0.00094199180603,0.417261123657,1,s,729.099090099,,,,,,,,,,,,,,,,,,,,,,,,,,,,,,,,,2015_Jun_23_1302,59.9858126816,LearningTask,1,61,
200,w,200,,,,,,,,,,,,,,,,,1,0,1,0,3,1,13,0,,,,,,,,,,,,,,,,,,,,,,,,,,,,,w,1,None,0,,2.0,invertedtriangleyellow.gif,go,,,,,,,,0.417196989059,,,,,,,,,,,,,,,,,,,,,,,,1.91,0.514451026917,0.000891923904419,0.417196989059,1,w,732.102560997,,,,,,,,,,,,,,,,,,,,,,,,,,,,,,,,,2015_Jun_23_1302,59.9858126816,LearningTask,1,61,
200,w,200,,,,,,,,,,,,,,,,,1,0,1,0,3,2,14,0,,,,,,,,,,,,,,,,,,,,,,,,,,,,,w,1,None,0,,2.0,invertedtriangleyellow.gif,go,,,,,,,,0.417181968689,,,,,,,,,,,,,,,,,,,,,,,,2.06,0.514554023743,0.00089693069458,0.417181968689,1,w,735.105746031,,,,,,,,,,,,,,,,,,,,,,,,,,,,,,,,,2015_Jun_23_1302,59.9858126816,LearningTask,1,61,
200,s,-200,,,,,,,,,,,,,,,,,1,0,1,0,3,3,15,2,,,,,,,,,,,,,,,,,,,,,,,,,,,,,s,1,None,0,,2.0,crossgreen.gif,stop,,,,,,,,0.417271137238,,,,,,,,,,,,,,,,,,,,,,,,2.11,0.514532089233,0.00094199180603,0.417271137238,1,s,738.109170914,,,,,,,,,,,,,,,,,,,,,,,,,,,,,,,,,2015_Jun_23_1302,59.9858126816,LearningTask,1,61,
-200,a,-200,,,,,,,,,,,,,,,,,1,0,1,0,4,0,16,3,,,,,,,,,,,,,,,,,,,,,,,,,,,,,a,1,None,0,,1.0,lineorange.gif,stop,,,,,,,,0.417762994766,,,,,,,,,,,,,,,,,,,,,,,,1.16,0.514277935028,0.000929832458496,0.417762994766,1,a,741.112881899,,,,,,,,,,,,,,,,,,,,,,,,,,,,,,,,,2015_Jun_23_1302,59.9858126816,LearningTask,1,61,
-200,a,-200,,,,,,,,,,,,,,,,,1,0,1,0,4,1,17,3,,,,,,,,,,,,,,,,,,,,,,,,,,,,,a,1,None,0,,1.0,lineorange.gif,stop,,,,,,,,0.417682886124,,,,,,,,,,,,,,,,,,,,,,,,0,0.51406621933,0.000874042510986,0.417682886124,1,a,744.11616993,,,,,,,,,,,,,,,,,,,,,,,,,,,,,,,,,2015_Jun_23_1302,59.9858126816,LearningTask,1,61,
-200,a,-200,,,,,,,,,,,,,,,,,1,0,1,0,4,2,18,3,,,,,,,,,,,,,,,,,,,,,,,,,,,,,a,1,None,0,,0.5,circlemagenta.gif,go,,,,,,,,0.351166009903,,,,,,,,,,,,,,,,,,,,,,,,0,0.514137029648,0.000877141952515,0.351166009903,1,a,747.119477034,,,,,,,,,,,,,,,,,,,,,,,,,,,,,,,,,2015_Jun_23_1302,59.9858126816,LearningTask,1,61,
-200,q,200,,,,,,,,,,,,,,,,,1,0,1,0,4,3,19,1,,,,,,,,,,,,,,,,,,,,,,,,,,,,,q,1,None,0,,2.0,invertedtriangleyellow.gif,go,,,,,,,,0.367135047913,,,,,,,,,,,,,,,,,,,,,,,,1.97,0.514438152313,0.000899076461792,0.367135047913,1,q,750.122811079,,,,,,,,,,,,,,,,,,,,,,,,,,,,,,,,,2015_Jun_23_1302,59.9858126816,LearningTask,1,61,
-200,q,200,,,,,,,,,,,,,,,,,1,0,1,0,5,0,20,1,,,,,,,,,,,,,,,,,,,,,,,,,,,,,q,1,None,0,,0.5,circlemagenta.gif,go,,,,,,,,0.384031057358,,,,,,,,,,,,,,,,,,,,,,,,0.63,0.51438498497,0.000881910324097,0.384031057358,1,q,753.126401901,,,,,,,,,,,,,,,,,,,,,,,,,,,,,,,,,2015_Jun_23_1302,59.9858126816,LearningTask,1,61,
200,w,200,,,,,,,,,,,,,,,,,1,0,1,0,5,1,21,0,,,,,,,,,,,,,,,,,,,,,,,,,,,,,w,1,None,0,,2.0,invertedtriangleyellow.gif,go,,,,,,,,0.384153842926,,,,,,,,,,,,,,,,,,,,,,,,1.76,0.514147996902,0.000886201858521,0.384153842926,1,w,756.129373074,,,,,,,,,,,,,,,,,,,,,,,,,,,,,,,,,2015_Jun_23_1302,59.9858126816,LearningTask,1,61,
-200,q,200,,,,,,,,,,,,,,,,,1,0,1,0,5,2,22,1,,,,,,,,,,,,,,,,,,,,,,,,,,,,,q,1,None,0,,4.0,diamondgray.gif,go,,,,,,,,0.384223937988,,,,,,,,,,,,,,,,,,,,,,,,4.08,0.514428853989,0.000936985015869,0.384223937988,1,q,759.132781982,,,,,,,,,,,,,,,,,,,,,,,,,,,,,,,,,2015_Jun_23_1302,59.9858126816,LearningTask,1,61,
-200,a,-200,,,,,,,,,,,,,,,,,1,0,1,0,5,3,23,3,,,,,,,,,,,,,,,,,,,,,,,,,,,,,a,1,None,0,,2.0,crossgreen.gif,stop,,,,,,,,0.434004068375,,,,,,,,,,,,,,,,,,,,,,,,1.89,0.514547109604,0.000878095626831,0.434004068375,1,a,762.136497974,,,,,,,,,,,,,,,,,,,,,,,,,,,,,,,,,2015_Jun_23_1302,59.9858126816,LearningTask,1,61,
-200,q,200,,,,,,,,,,,,,,,,,1,0,1,0,6,0,24,1,,,,,,,,,,,,,,,,,,,,,,,,,,,,,q,1,None,0,,1.0,triangleblue.gif,go,,,,,,,,0.351292133331,,,,,,,,,,,,,,,,,,,,,,,,0.78,0.514180898666,0.000884056091309,0.351292133331,1,q,765.139590025,,,,,,,,,,,,,,,,,,,,,,,,,,,,,,,,,2015_Jun_23_1302,59.9858126816,LearningTask,1,61,
-200,a,-200,,,,,,,,,,,,,,,,,1,0,1,0,6,1,25,3,,,,,,,,,,,,,,,,,,,,,,,,,,,,,a,1,None,0,,2.0,crossgreen.gif,stop,,,,,,,,0.400826931,,,,,,,,,,,,,,,,,,,,,,,,2.24,0.514561891556,0.00103092193604,0.400826931,1,a,768.142936945,,,,,,,,,,,,,,,,,,,,,,,,,,,,,,,,,2015_Jun_23_1302,59.9858126816,LearningTask,1,61,
-200,a,-200,,,,,,,,,,,,,,,,,1,0,1,0,6,2,26,3,,,,,,,,,,,,,,,,,,,,,,,,,,,,,a,1,None,0,,2.0,crossgreen.gif,stop,,,,,,,,0.36724281311,,,,,,,,,,,,,,,,,,,,,,,,2.07,0.51454782486,0.000888824462891,0.36724281311,1,a,771.146517992,,,,,,,,,,,,,,,,,,,,,,,,,,,,,,,,,2015_Jun_23_1302,59.9858126816,LearningTask,1,61,
200,w,200,,,,,,,,,,,,,,,,,1,0,1,0,6,3,27,0,,,,,,,,,,,,,,,,,,,,,,,,,,,,,w,1,None,0,,1.0,lineorange.gif,stop,,,,,,,,0.434467077255,,,,,,,,,,,,,,,,,,,,,,,,0,0.514189004898,0.000887155532837,0.434467077255,1,w,774.1497159,,,,,,,,,,,,,,,,,,,,,,,,,,,,,,,,,2015_Jun_23_1302,59.9858126816,LearningTask,1,61,
200,s,-200,,,,,,,,,,,,,,,,,1,0,1,0,7,0,28,2,,,,,,,,,,,,,,,,,,,,,,,,,,,,,s,1,None,0,,2.0,invertedtriangleyellow.gif,go,,,,,,,,0.434974193573,,,,,,,,,,,,,,,,,,,,,,,,2.24,0.514096975327,0.000923156738281,0.434974193573,1,s,777.153053999,,,,,,,,,,,,,,,,,,,,,,,,,,,,,,,,,2015_Jun_23_1302,59.9858126816,LearningTask,1,61,
-200,a,-200,,,,,,,,,,,,,,,,,1,0,1,0,7,1,29,3,,,,,,,,,,,,,,,,,,,,,,,,,,,,,a,1,None,0,,4.0,diamondgray.gif,go,,,,,,,,0.484292030334,,,,,,,,,,,,,,,,,,,,,,,,0,0.514316082001,0.000910043716431,0.484292030334,1,a,780.156914949,,,,,,,,,,,,,,,,,,,,,,,,,,,,,,,,,2015_Jun_23_1302,59.9858126816,LearningTask,1,61,
-200,q,200,,,,,,,,,,,,,,,,,1,0,1,0,7,2,30,1,,,,,,,,,,,,,,,,,,,,,,,,,,,,,q,1,None,0,,0.5,squarewhite.gif,stop,,,,,,,,0.450886011124,,,,,,,,,,,,,,,,,,,,,,,,0.71,0.51388001442,0.000944852828979,0.450886011124,1,q,783.159892082,,,,,,,,,,,,,,,,,,,,,,,,,,,,,,,,,2015_Jun_23_1302,59.9858126816,LearningTask,1,61,
200,s,-200,,,,,,,,,,,,,,,,,1,0,1,0,7,3,31,2,,,,,,,,,,,,,,,,,,,,,,,,,,,,,s,1,None,0,,1.0,triangleblue.gif,go,,,,,,,,0.434083938599,,,,,,,,,,,,,,,,,,,,,,,,0.86,0.513818979263,0.000916957855225,0.434083938599,1,s,786.163239002,,,,,,,,,,,,,,,,,,,,,,,,,,,,,,,,,2015_Jun_23_1302,59.9858126816,LearningTask,1,61,
-200,a,-200,,,,,,,,,,,,,,,,,1,0,1,0,8,0,32,3,,,,,,,,,,,,,,,,,,,,,,,,,,,,,a,1,None,0,,1.0,lineorange.gif,stop,,,,,,,,0.417734146118,,,,,,,,,,,,,,,,,,,,,,,,1.24,0.514442920685,0.001060962677,0.417734146118,1,a,789.166755915,,,,,,,,,,,,,,,,,,,,,,,,,,,,,,,,,2015_Jun_23_1302,59.9858126816,LearningTask,1,61,
-200,q,200,,,,,,,,,,,,,,,,,1,0,1,0,8,1,33,1,,,,,,,,,,,,,,,,,,,,,,,,,,,,,q,1,None,0,,2.0,invertedtriangleyellow.gif,go,,,,,,,,0.367416858673,,,,,,,,,,,,,,,,,,,,,,,,1.91,0.514356136322,0.000885009765625,0.367416858673,1,q,792.170120001,,,,,,,,,,,,,,,,,,,,,,,,,,,,,,,,,2015_Jun_23_1302,59.9858126816,LearningTask,1,61,
-200,q,200,,,,,,,,,,,,,,,,,1,0,1,0,8,2,34,1,,,,,,,,,,,,,,,,,,,,,,,,,,,,,q,1,None,0,,2.0,invertedtriangleyellow.gif,go,,,,,,,,0.350062131882,,,,,,,,,,,,,,,,,,,,,,,,1.98,0.514355897903,0.000877857208252,0.350062131882,1,q,795.173322916,,,,,,,,,,,,,,,,,,,,,,,,,,,,,,,,,2015_Jun_23_1302,59.9858126816,LearningTask,1,61,
200,w,200,,,,,,,,,,,,,,,,,1,0,1,0,8,3,35,0,,,,,,,,,,,,,,,,,,,,,,,,,,,,,w,1,None,0,,4.0,diamondgray.gif,go,,,,,,,,0.45116186142,,,,,,,,,,,,,,,,,,,,,,,,4.13,0.513917922974,0.00120210647583,0.45116186142,1,w,798.176898956,,,,,,,,,,,,,,,,,,,,,,,,,,,,,,,,,2015_Jun_23_1302,59.9858126816,LearningTask,1,61,
-200,q,200,,,,,,,,,,,,,,,,,1,0,1,0,9,0,36,1,,,,,,,,,,,,,,,,,,,,,,,,,,,,,q,1,None,0,,0.5,squarewhite.gif,stop,,,,,,,,0.350709915161,,,,,,,,,,,,,,,,,,,,,,,,0.4,0.51424908638,0.00127696990967,0.350709915161,1,q,801.180397987,,,,,,,,,,,,,,,,,,,,,,,,,,,,,,,,,2015_Jun_23_1302,59.9858126816,LearningTask,1,61,
-200,a,-200,,,,,,,,,,,,,,,,,1,0,1,0,9,1,37,3,,,,,,,,,,,,,,,,,,,,,,,,,,,,,a,1,None,0,,4.0,diamondgray.gif,go,,,,,,,,0.384333133698,,,,,,,,,,,,,,,,,,,,,,,,4.23,0.514437913895,0.000900983810425,0.384333133698,1,a,804.183655024,,,,,,,,,,,,,,,,,,,,,,,,,,,,,,,,,2015_Jun_23_1302,59.9858126816,LearningTask,1,61,
200,s,-200,,,,,,,,,,,,,,,,,1,0,1,0,9,2,38,2,,,,,,,,,,,,,,,,,,,,,,,,,,,,,s,1,None,0,,4.0,hexagoncyan.gif,stop,,,,,,,,0.400846004486,,,,,,,,,,,,,,,,,,,,,,,,3.99,0.514140844345,0.00132083892822,0.400846004486,1,s,807.187165976,,,,,,,,,,,,,,,,,,,,,,,,,,,,,,,,,2015_Jun_23_1302,59.9858126816,LearningTask,1,61,
200,w,200,,,,,,,,,,,,,,,,,1,0,1,0,9,3,39,0,,,,,,,,,,,,,,,,,,,,,,,,,,,,,w,1,None,0,,4.0,hexagoncyan.gif,stop,,,,,,,,0.35108089447,,,,,,,,,,,,,,,,,,,,,,,,3.87,0.514206171036,0.000881195068359,0.35108089447,1,w,810.190324068,,,,,,,,,,,,,,,,,,,,,,,,,,,,,,,,,2015_Jun_23_1302,59.9858126816,LearningTask,1,61,
200,s,-200,,,,,,,,,,,,,,,,,1,0,1,0,10,0,40,2,,,,,,,,,,,,,,,,,,,,,,,,,,,,,s,1,None,0,,0.5,squarewhite.gif,stop,,,,,,,,0.417579174042,,,,,,,,,,,,,,,,,,,,,,,,0.67,0.514353990555,0.000864028930664,0.417579174042,1,s,813.193660021,,,,,,,,,,,,,,,,,,,,,,,,,,,,,,,,,2015_Jun_23_1302,59.9858126816,LearningTask,1,61,
-200,q,200,,,,,,,,,,,,,,,,,1,0,1,0,10,1,41,1,,,,,,,,,,,,,,,,,,,,,,,,,,,,,q,1,None,0,,2.0,invertedtriangleyellow.gif,go,,,,,,,,0.367426872253,,,,,,,,,,,,,,,,,,,,,,,,1.79,0.514154195786,0.00094199180603,0.367426872253,1,q,816.196927071,,,,,,,,,,,,,,,,,,,,,,,,,,,,,,,,,2015_Jun_23_1302,59.9858126816,LearningTask,1,61,
-200,q,200,,,,,,,,,,,,,,,,,1,0,1,0,10,2,42,1,,,,,,,,,,,,,,,,,,,,,,,,,,,,,q,1,None,0,,2.0,invertedtriangleyellow.gif,go,,,,,,,,0.350864887238,,,,,,,,,,,,,,,,,,,,,,,,2.14,0.514386892319,0.000876903533936,0.350864887238,1,q,819.200421095,,,,,,,,,,,,,,,,,,,,,,,,,,,,,,,,,2015_Jun_23_1302,59.9858126816,LearningTask,1,61,
-200,q,200,,,,,,,,,,,,,,,,,1,0,1,0,10,3,43,1,,,,,,,,,,,,,,,,,,,,,,,,,,,,,q,1,None,0,,0.5,squarewhite.gif,stop,,,,,,,,0.350860118866,,,,,,,,,,,,,,,,,,,,,,,,0.48,0.51416516304,0.000908136367798,0.350860118866,1,q,822.203969955,,,,,,,,,,,,,,,,,,,,,,,,,,,,,,,,,2015_Jun_23_1302,59.9858126816,LearningTask,1,61,
200,w,200,,,,,,,,,,,,,,,,,1,0,1,0,11,0,44,0,,,,,,,,,,,,,,,,,,,,,,,,,,,,,w,1,None,0,,0.5,circlemagenta.gif,go,,,,,,,,0.400923013687,,,,,,,,,,,,,,,,,,,,,,,,0.64,0.514299869537,0.00130701065063,0.400923013687,1,w,825.207143068,,,,,,,,,,,,,,,,,,,,,,,,,,,,,,,,,2015_Jun_23_1302,59.9858126816,LearningTask,1,61,
-200,q,200,,,,,,,,,,,,,,,,,1,0,1,0,11,1,45,1,,,,,,,,,,,,,,,,,,,,,,,,,,,,,q,1,None,0,,4.0,hexagoncyan.gif,stop,,,,,,,,0.334233045578,,,,,,,,,,,,,,,,,,,,,,,,3.98,0.514476060867,0.000880002975464,0.334233045578,1,q,828.210479975,,,,,,,,,,,,,,,,,,,,,,,,,,,,,,,,,2015_Jun_23_1302,59.9858126816,LearningTask,1,61,
-200,a,-200,,,,,,,,,,,,,,,,,1,0,1,0,11,2,46,3,,,,,,,,,,,,,,,,,,,,,,,,,,,,,a,1,None,0,,0.5,circlemagenta.gif,go,,,,,,,,0.434239864349,,,,,,,,,,,,,,,,,,,,,,,,0.37,0.514405012131,0.000877857208252,0.434239864349,1,a,831.214190006,,,,,,,,,,,,,,,,,,,,,,,,,,,,,,,,,2015_Jun_23_1302,59.9858126816,LearningTask,1,61,
200,s,-200,,,,,,,,,,,,,,,,,1,0,1,0,11,3,47,2,,,,,,,,,,,,,,,,,,,,,,,,,,,,,s,1,None,0,,4.0,hexagoncyan.gif,stop,,,,,,,,0.468014001846,,,,,,,,,,,,,,,,,,,,,,,,3.83,0.513997077942,0.000879049301147,0.468014001846,1,s,834.217303038,,,,,,,,,,,,,,,,,,,,,,,,,,,,,,,,,2015_Jun_23_1302,59.9858126816,LearningTask,1,61,
200,w,200,,,,,,,,,,,,,,,,,1,0,1,0,12,0,48,0,,,,,,,,,,,,,,,,,,,,,,,,,,,,,w,1,None,0,,0.5,squarewhite.gif,stop,,,,,,,,0.417238950729,,,,,,,,,,,,,,,,,,,,,,,,0.46,0.514553785324,0.00086784362793,0.417238950729,1,w,837.220772982,,,,,,,,,,,,,,,,,,,,,,,,,,,,,,,,,2015_Jun_23_1302,59.9858126816,LearningTask,1,61,
-200,q,200,,,,,,,,,,,,,,,,,1,0,1,0,12,1,49,1,,,,,,,,,,,,,,,,,,,,,,,,,,,,,q,1,None,0,,0.5,circlemagenta.gif,go,,,,,,,,0.334381818771,,,,,,,,,,,,,,,,,,,,,,,,0.69,0.514065980911,0.000877141952515,0.334381818771,1,q,840.224617958,,,,,,,,,,,,,,,,,,,,,,,,,,,,,,,,,2015_Jun_23_1302,59.9858126816,LearningTask,1,61,
200,w,200,,,,,,,,,,,,,,,,,1,0,1,0,12,2,50,0,,,,,,,,,,,,,,,,,,,,,,,,,,,,,w,1,None,0,,1.0,triangleblue.gif,go,,,,,,,,0.367680072784,,,,,,,,,,,,,,,,,,,,,,,,0.93,0.513559818268,0.00126600265503,0.367680072784,1,w,843.227498055,,,,,,,,,,,,,,,,,,,,,,,,,,,,,,,,,2015_Jun_23_1302,59.9858126816,LearningTask,1,61,
200,s,-200,,,,,,,,,,,,,,,,,1,0,1,0,12,3,51,2,,,,,,,,,,,,,,,,,,,,,,,,,,,,,s,1,None,0,,1.0,triangleblue.gif,go,,,,,,,,0.400739908218,,,,,,,,,,,,,,,,,,,,,,,,0.91,0.514493942261,0.000871896743774,0.400739908218,1,s,846.230783939,,,,,,,,,,,,,,,,,,,,,,,,,,,,,,,,,2015_Jun_23_1302,59.9858126816,LearningTask,1,61,
-200,a,-200,,,,,,,,,,,,,,,,,1,0,1,0,13,0,52,3,,,,,,,,,,,,,,,,,,,,,,,,,,,,,a,1,None,0,,2.0,invertedtriangleyellow.gif,go,,,,,,,,0.450892925262,,,,,,,,,,,,,,,,,,,,,,,,0,0.514355182648,0.000869035720825,0.450892925262,1,a,849.234361887,,,,,,,,,,,,,,,,,,,,,,,,,,,,,,,,,2015_Jun_23_1302,59.9858126816,LearningTask,1,61,
-200,q,200,,,,,,,,,,,,,,,,,1,0,1,0,13,1,53,1,,,,,,,,,,,,,,,,,,,,,,,,,,,,,q,1,None,0,,0.5,circlemagenta.gif,go,,,,,,,,0.367918014526,,,,,,,,,,,,,,,,,,,,,,,,0.25,0.514195919037,0.000879764556885,0.367918014526,1,q,852.237739086,,,,,,,,,,,,,,,,,,,,,,,,,,,,,,,,,2015_Jun_23_1302,59.9858126816,LearningTask,1,61,
-200,a,-200,,,,,,,,,,,,,,,,,1,0,1,0,13,2,54,3,,,,,,,,,,,,,,,,,,,,,,,,,,,,,a,1,None,0,,2.0,invertedtriangleyellow.gif,go,,,,,,,,0.38417506218,,,,,,,,,,,,,,,,,,,,,,,,0,0.514178037643,0.000928163528442,0.38417506218,1,a,855.241038084,,,,,,,,,,,,,,,,,,,,,,,,,,,,,,,,,2015_Jun_23_1302,59.9858126816,LearningTask,1,61,
-200,q,200,,,,,,,,,,,,,,,,,1,0,1,0,13,3,55,1,,,,,,,,,,,,,,,,,,,,,,,,,,,,,q,1,None,0,,4.0,hexagoncyan.gif,stop,,,,,,,,0.350548028946,,,,,,,,,,,,,,,,,,,,,,,,0,0.514371156693,0.000879049301147,0.350548028946,1,q,858.244302988,,,,,,,,,,,,,,,,,,,,,,,,,,,,,,,,,2015_Jun_23_1302,59.9858126816,LearningTask,1,61,
200,w,200,,,,,,,,,,,,,,,,,1,0,1,0,14,0,56,0,,,,,,,,,,,,,,,,,,,,,,,,,,,,,w,1,None,0,,1.0,triangleblue.gif,go,,,,,,,,0.384348154068,,,,,,,,,,,,,,,,,,,,,,,,0.89,0.51429605484,0.000940084457397,0.384348154068,1,w,861.24762702,,,,,,,,,,,,,,,,,,,,,,,,,,,,,,,,,2015_Jun_23_1302,59.9858126816,LearningTask,1,61,
-200,a,-200,,,,,,,,,,,,,,,,,1,0,1,0,14,1,57,3,,,,,,,,,,,,,,,,,,,,,,,,,,,,,a,1,None,0,,4.0,diamondgray.gif,go,,,,,,,,0.451260089874,,,,,,,,,,,,,,,,,,,,,,,,3.78,0.514183998108,0.00092601776123,0.451260089874,1,a,864.251082897,,,,,,,,,,,,,,,,,,,,,,,,,,,,,,,,,2015_Jun_23_1302,59.9858126816,LearningTask,1,61,
200,w,200,,,,,,,,,,,,,,,,,1,0,1,0,14,2,58,0,,,,,,,,,,,,,,,,,,,,,,,,,,,,,w,1,None,0,,0.5,squarewhite.gif,stop,,,,,,,,0.36735200882,,,,,,,,,,,,,,,,,,,,,,,,0.39,0.514445781708,0.000906944274902,0.36735200882,1,w,867.254518986,,,,,,,,,,,,,,,,,,,,,,,,,,,,,,,,,2015_Jun_23_1302,59.9858126816,LearningTask,1,61,
200,w,200,,,,,,,,,,,,,,,,,1,0,1,0,14,3,59,0,,,,,,,,,,,,,,,,,,,,,,,,,,,,,w,1,None,0,,2.0,crossgreen.gif,stop,,,,,,,,0.48430109024,,,,,,,,,,,,,,,,,,,,,,,,1.94,0.514534950256,0.00126886367798,0.48430109024,1,w,870.257884026,,,,,,,,,,,,,,,,,,,,,,,,,,,,,,,,,2015_Jun_23_1302,59.9858126816,LearningTask,1,61,
200,s,-200,,,,,,,,,,,,,,,,,1,0,1,0,15,0,60,2,,,,,,,,,,,,,,,,,,,,,,,,,,,,,s,1,None,0,,2.0,crossgreen.gif,stop,,,,,,,,0.417275905609,,,,,,,,,,,,,,,,,,,,,,,,1.86,0.514321088791,0.000925064086914,0.417275905609,1,s,873.261271954,,,,,,,,,,,,,,,,,,,,,,,,,,,,,,,,,2015_Jun_23_1302,59.9858126816,LearningTask,1,61,
200,w,200,,,,,,,,,,,,,,,,,1,0,1,0,15,1,61,0,,,,,,,,,,,,,,,,,,,,,,,,,,,,,w,1,None,0,,4.0,diamondgray.gif,go,,,,,,,,0.384366035461,,,,,,,,,,,,,,,,,,,,,,,,4.08,0.514349937439,0.000870943069458,0.384366035461,1,w,876.264628887,,,,,,,,,,,,,,,,,,,,,,,,,,,,,,,,,2015_Jun_23_1302,59.9858126816,LearningTask,1,61,
200,s,-200,,,,,,,,,,,,,,,,,1,0,1,0,15,2,62,2,,,,,,,,,,,,,,,,,,,,,,,,,,,,,s,1,None,0,,2.0,invertedtriangleyellow.gif,go,,,,,,,,0.401079177856,,,,,,,,,,,,,,,,,,,,,,,,2.02,0.514275074005,0.000869989395142,0.401079177856,1,s,879.268795967,,,,,,,,,,,,,,,,,,,,,,,,,,,,,,,,,2015_Jun_23_1302,59.9858126816,LearningTask,1,61,
-200,a,-200,,,,,,,,,,,,,,,,,1,0,1,0,15,3,63,3,,,,,,,,,,,,,,,,,,,,,,,,,,,,,a,1,None,0,,4.0,hexagoncyan.gif,stop,,,,,,,,0.417712926865,,,,,,,,,,,,,,,,,,,,,,,,3.79,0.513365983963,0.000897884368896,0.417712926865,1,a,882.271327019,,,,,,,,,,,,,,,,,,,,,,,,,,,,,,,,,2015_Jun_23_1302,59.9858126816,LearningTask,1,61,
200,w,200,,,,,,,,,,,,,,,,,1,0,1,0,16,0,64,0,,,,,,,,,,,,,,,,,,,,,,,,,,,,,w,1,None,0,,0.5,circlemagenta.gif,go,,,,,,,,0.350760221481,,,,,,,,,,,,,,,,,,,,,,,,0.51,0.514477968216,0.000888109207153,0.350760221481,1,w,885.274769068,,,,,,,,,,,,,,,,,,,,,,,,,,,,,,,,,2015_Jun_23_1302,59.9858126816,LearningTask,1,61,
200,w,200,,,,,,,,,,,,,,,,,1,0,1,0,16,1,65,0,,,,,,,,,,,,,,,,,,,,,,,,,,,,,w,1,None,0,,2.0,invertedtriangleyellow.gif,go,,,,,,,,0.400517940521,,,,,,,,,,,,,,,,,,,,,,,,0,0.514448881149,0.000874996185303,0.400517940521,1,w,888.278671026,,,,,,,,,,,,,,,,,,,,,,,,,,,,,,,,,2015_Jun_23_1302,59.9858126816,LearningTask,1,61,
-200,a,-200,,,,,,,,,,,,,,,,,1,0,1,0,16,2,66,3,,,,,,,,,,,,,,,,,,,,,,,,,,,,,a,1,None,0,,0.5,circlemagenta.gif,go,,,,,,,,0.367293834686,,,,,,,,,,,,,,,,,,,,,,,,0,0.513808012009,0.000953912734985,0.367293834686,1,a,891.281563044,,,,,,,,,,,,,,,,,,,,,,,,,,,,,,,,,2015_Jun_23_1302,59.9858126816,LearningTask,1,61,
200,w,200,,,,,,,,,,,,,,,,,1,0,1,0,16,3,67,0,,,,,,,,,,,,,,,,,,,,,,,,,,,,,w,1,None,0,,2.0,crossgreen.gif,stop,,,,,,,,0.367685079575,,,,,,,,,,,,,,,,,,,,,,,,2.04,0.514171123505,0.0010621547699,0.367685079575,1,w,894.285329103,,,,,,,,,,,,,,,,,,,,,,,,,,,,,,,,,2015_Jun_23_1302,59.9858126816,LearningTask,1,61,
200,s,-200,,,,,,,,,,,,,,,,,1,0,1,0,17,0,68,2,,,,,,,,,,,,,,,,,,,,,,,,,,,,,s,1,None,0,,2.0,invertedtriangleyellow.gif,go,,,,,,,,0.434366941452,,,,,,,,,,,,,,,,,,,,,,,,2.09,0.513911008835,0.000877857208252,0.434366941452,1,s,897.288383007,,,,,,,,,,,,,,,,,,,,,,,,,,,,,,,,,2015_Jun_23_1302,59.9858126816,LearningTask,1,61,
200,s,-200,,,,,,,,,,,,,,,,,1,0,1,0,17,1,69,2,,,,,,,,,,,,,,,,,,,,,,,,,,,,,s,1,None,0,,2.0,invertedtriangleyellow.gif,go,,,,,,,,0.41749382019,,,,,,,,,,,,,,,,,,,,,,,,0,0.514246940613,0.000880002975464,0.41749382019,1,s,900.291836977,,,,,,,,,,,,,,,,,,,,,,,,,,,,,,,,,2015_Jun_23_1302,59.9858126816,LearningTask,1,61,
200,s,-200,,,,,,,,,,,,,,,,,1,0,1,0,17,2,70,2,,,,,,,,,,,,,,,,,,,,,,,,,,,,,s,1,None,0,,2.0,crossgreen.gif,stop,,,,,,,,0.401214122772,,,,,,,,,,,,,,,,,,,,,,,,2.18,0.513790130615,0.000946998596191,0.401214122772,1,s,903.295023918,,,,,,,,,,,,,,,,,,,,,,,,,,,,,,,,,2015_Jun_23_1302,59.9858126816,LearningTask,1,61,
200,s,-200,,,,,,,,,,,,,,,,,1,0,1,0,17,3,71,2,,,,,,,,,,,,,,,,,,,,,,,,,,,,,s,1,None,0,,0.5,squarewhite.gif,stop,,,,,,,,0.434144973755,,,,,,,,,,,,,,,,,,,,,,,,0.49,0.514716148376,0.000864028930664,0.434144973755,1,s,906.298450947,,,,,,,,,,,,,,,,,,,,,,,,,,,,,,,,,2015_Jun_23_1302,59.9858126816,LearningTask,1,61,
200,w,200,,,,,,,,,,,,,,,,,1,0,1,0,18,0,72,0,,,,,,,,,,,,,,,,,,,,,,,,,,,,,w,1,None,0,,0.5,squarewhite.gif,stop,,,,,,,,0.434610128403,,,,,,,,,,,,,,,,,,,,,,,,0,0.514196872711,0.000874996185303,0.434610128403,1,w,909.30212307,,,,,,,,,,,,,,,,,,,,,,,,,,,,,,,,,2015_Jun_23_1302,59.9858126816,LearningTask,1,61,
-200,a,-200,,,,,,,,,,,,,,,,,1,0,1,0,18,1,73,3,,,,,,,,,,,,,,,,,,,,,,,,,,,,,a,1,None,0,,2.0,invertedtriangleyellow.gif,go,,,,,,,,0.417147874832,,,,,,,,,,,,,,,,,,,,,,,,1.93,0.514098882675,0.000892877578735,0.417147874832,1,a,912.305114985,,,,,,,,,,,,,,,,,,,,,,,,,,,,,,,,,2015_Jun_23_1302,59.9858126816,LearningTask,1,61,
200,w,200,,,,,,,,,,,,,,,,,1,0,1,0,18,2,74,0,,,,,,,,,,,,,,,,,,,,,,,,,,,,,w,1,None,0,,1.0,lineorange.gif,stop,,,,,,,,0.367891788483,,,,,,,,,,,,,,,,,,,,,,,,1.08,0.514405012131,0.00124311447144,0.367891788483,1,w,915.308897972,,,,,,,,,,,,,,,,,,,,,,,,,,,,,,,,,2015_Jun_23_1302,59.9858126816,LearningTask,1,61,
200,s,-200,,,,,,,,,,,,,,,,,1,0,1,0,18,3,75,2,,,,,,,,,,,,,,,,,,,,,,,,,,,,,s,1,None,0,,0.5,circlemagenta.gif,go,,,,,,,,0.383618116379,,,,,,,,,,,,,,,,,,,,,,,,0,0.51397395134,0.000874996185303,0.383618116379,1,s,918.311990023,,,,,,,,,,,,,,,,,,,,,,,,,,,,,,,,,2015_Jun_23_1302,59.9858126816,LearningTask,1,61,
-200,a,-200,,,,,,,,,,,,,,,,,1,0,1,0,19,0,76,3,,,,,,,,,,,,,,,,,,,,,,,,,,,,,a,1,None,0,,4.0,diamondgray.gif,go,,,,,,,,0.417371034622,,,,,,,,,,,,,,,,,,,,,,,,4.01,0.514034032822,0.000903129577637,0.417371034622,1,a,921.315349102,,,,,,,,,,,,,,,,,,,,,,,,,,,,,,,,,2015_Jun_23_1302,59.9858126816,LearningTask,1,61,
-200,a,-200,,,,,,,,,,,,,,,,,1,0,1,0,19,1,77,3,,,,,,,,,,,,,,,,,,,,,,,,,,,,,a,1,None,0,,0.5,squarewhite.gif,stop,,,,,,,,0.417952060699,,,,,,,,,,,,,,,,,,,,,,,,0.3,0.51425909996,0.000874042510986,0.417952060699,1,a,924.318886042,,,,,,,,,,,,,,,,,,,,,,,,,,,,,,,,,2015_Jun_23_1302,59.9858126816,LearningTask,1,61,
200,s,-200,,,,,,,,,,,,,,,,,1,0,1,0,19,2,78,2,,,,,,,,,,,,,,,,,,,,,,,,,,,,,s,1,None,0,,4.0,diamondgray.gif,go,,,,,,,,0.467633962631,,,,,,,,,,,,,,,,,,,,,,,,3.75,0.514381885529,0.000875949859619,0.467633962631,1,s,927.322312117,,,,,,,,,,,,,,,,,,,,,,,,,,,,,,,,,2015_Jun_23_1302,59.9858126816,LearningTask,1,61,
-200,q,200,,,,,,,,,,,,,,,,,1,0,1,0,19,3,79,1,,,,,,,,,,,,,,,,,,,,,,,,,,,,,q,1,None,0,,4.0,hexagoncyan.gif,stop,,,,,,,,0.467485904694,,,,,,,,,,,,,,,,,,,,,,,,0,0.514081001282,0.00088095664978,0.467485904694,1,q,930.325835943,,,,,,,,,,,,,,,,,,,,,,,,,,,,,,,,,2015_Jun_23_1302,59.9858126816,LearningTask,1,61,
200,s,-200,,,,,,,,,,,,,,,,,1,0,1,0,20,0,80,2,,,,,,,,,,,,,,,,,,,,,,,,,,,,,s,1,None,0,,4.0,hexagoncyan.gif,stop,,,,,,,,0.434330940247,,,,,,,,,,,,,,,,,,,,,,,,3.88,0.513705015182,0.00106692314148,0.434330940247,1,s,933.328851938,,,,,,,,,,,,,,,,,,,,,,,,,,,,,,,,,2015_Jun_23_1302,59.9858126816,LearningTask,1,61,
-200,a,-200,,,,,,,,,,,,,,,,,1,0,1,0,20,1,81,3,,,,,,,,,,,,,,,,,,,,,,,,,,,,,a,1,None,0,,0.5,circlemagenta.gif,go,,,,,,,,0.451131105423,,,,,,,,,,,,,,,,,,,,,,,,0.66,0.514320850372,0.000889778137207,0.451131105423,1,a,936.331990004,,,,,,,,,,,,,,,,,,,,,,,,,,,,,,,,,2015_Jun_23_1302,59.9858126816,LearningTask,1,61,
200,w,200,,,,,,,,,,,,,,,,,1,0,1,0,20,2,82,0,,,,,,,,,,,,,,,,,,,,,,,,,,,,,w,1,None,0,,1.0,lineorange.gif,stop,,,,,,,,0.351025819778,,,,,,,,,,,,,,,,,,,,,,,,0,0.514423847198,0.000885963439941,0.351025819778,1,w,939.335647106,,,,,,,,,,,,,,,,,,,,,,,,,,,,,,,,,2015_Jun_23_1302,59.9858126816,LearningTask,1,61,
-200,a,-200,,,,,,,,,,,,,,,,,1,0,1,0,20,3,83,3,,,,,,,,,,,,,,,,,,,,,,,,,,,,,a,1,None,0,,1.0,lineorange.gif,stop,,,,,,,,0.350476026535,,,,,,,,,,,,,,,,,,,,,,,,0.75,0.514605998993,0.000938892364502,0.350476026535,1,a,942.339040995,,,,,,,,,,,,,,,,,,,,,,,,,,,,,,,,,2015_Jun_23_1302,59.9858126816,LearningTask,1,61,
200,s,-200,,,,,,,,,,,,,,,,,1,0,1,0,21,0,84,2,,,,,,,,,,,,,,,,,,,,,,,,,,,,,s,1,None,0,,4.0,diamondgray.gif,go,,,,,,,,0.45135307312,,,,,,,,,,,,,,,,,,,,,,,,4.05,0.514256000519,0.000874042510986,0.45135307312,1,s,945.342257023,,,,,,,,,,,,,,,,,,,,,,,,,,,,,,,,,2015_Jun_23_1302,59.9858126816,LearningTask,1,61,
-200,q,200,,,,,,,,,,,,,,,,,1,0,1,0,21,1,85,1,,,,,,,,,,,,,,,,,,,,,,,,,,,,,q,1,None,0,,1.0,triangleblue.gif,go,,,,,,,,0.400958061218,,,,,,,,,,,,,,,,,,,,,,,,0.79,0.514414787292,0.000871896743774,0.400958061218,1,q,948.345622063,,,,,,,,,,,,,,,,,,,,,,,,,,,,,,,,,2015_Jun_23_1302,59.9858126816,LearningTask,1,61,
-200,a,-200,,,,,,,,,,,,,,,,,1,0,1,0,21,2,86,3,,,,,,,,,,,,,,,,,,,,,,,,,,,,,a,1,None,0,,1.0,triangleblue.gif,go,,,,,,,,0.384655952454,,,,,,,,,,,,,,,,,,,,,,,,1.02,0.514126062393,0.00091814994812,0.384655952454,1,a,951.349129915,,,,,,,,,,,,,,,,,,,,,,,,,,,,,,,,,2015_Jun_23_1302,59.9858126816,LearningTask,1,61,
200,w,200,,,,,,,,,,,,,,,,,1,0,1,0,21,3,87,0,,,,,,,,,,,,,,,,,,,,,,,,,,,,,w,1,None,0,,4.0,hexagoncyan.gif,stop,,,,,,,,0.350847005844,,,,,,,,,,,,,,,,,,,,,,,,3.86,0.514173984528,0.000874042510986,0.350847005844,1,w,954.352498055,,,,,,,,,,,,,,,,,,,,,,,,,,,,,,,,,2015_Jun_23_1302,59.9858126816,LearningTask,1,61,
200,w,200,,,,,,,,,,,,,,,,,1,0,1,0,22,0,88,0,,,,,,,,,,,,,,,,,,,,,,,,,,,,,w,1,None,0,,0.5,squarewhite.gif,stop,,,,,,,,0.367378950119,,,,,,,,,,,,,,,,,,,,,,,,0.49,0.514548063278,0.000864028930664,0.367378950119,1,w,957.356060028,,,,,,,,,,,,,,,,,,,,,,,,,,,,,,,,,2015_Jun_23_1302,59.9858126816,LearningTask,1,61,
200,s,-200,,,,,,,,,,,,,,,,,1,0,1,0,22,1,89,2,,,,,,,,,,,,,,,,,,,,,,,,,,,,,s,1,None,0,,2.0,invertedtriangleyellow.gif,go,,,,,,,,0.400665998459,,,,,,,,,,,,,,,,,,,,,,,,0,0.514032125473,0.00092601776123,0.400665998459,1,s,960.359204054,,,,,,,,,,,,,,,,,,,,,,,,,,,,,,,,,2015_Jun_23_1302,59.9858126816,LearningTask,1,61,
-200,q,200,,,,,,,,,,,,,,,,,1,0,1,0,22,2,90,1,,,,,,,,,,,,,,,,,,,,,,,,,,,,,q,1,None,0,,1.0,triangleblue.gif,go,,,,,,,,0.434065818787,,,,,,,,,,,,,,,,,,,,,,,,1.25,0.514430046082,0.000869989395142,0.434065818787,1,q,963.362632036,,,,,,,,,,,,,,,,,,,,,,,,,,,,,,,,,2015_Jun_23_1302,59.9858126816,LearningTask,1,61,
200,w,200,,,,,,,,,,,,,,,,,1,0,1,0,22,3,91,0,,,,,,,,,,,,,,,,,,,,,,,,,,,,,w,1,None,0,,2.0,crossgreen.gif,stop,,,,,,,,0.367835044861,,,,,,,,,,,,,,,,,,,,,,,,1.91,0.514282941818,0.000894069671631,0.367835044861,1,w,966.366389036,,,,,,,,,,,,,,,,,,,,,,,,,,,,,,,,,2015_Jun_23_1302,59.9858126816,LearningTask,1,61,
-200,a,-200,,,,,,,,,,,,,,,,,1,0,1,0,23,0,92,3,,,,,,,,,,,,,,,,,,,,,,,,,,,,,a,1,None,0,,2.0,crossgreen.gif,stop,,,,,,,,0.417423009872,,,,,,,,,,,,,,,,,,,,,,,,2.24,0.513951063156,0.000888109207153,0.417423009872,1,a,969.36938405,,,,,,,,,,,,,,,,,,,,,,,,,,,,,,,,,2015_Jun_23_1302,59.9858126816,LearningTask,1,61,
200,s,-200,,,,,,,,,,,,,,,,,1,0,1,0,23,1,93,2,,,,,,,,,,,,,,,,,,,,,,,,,,,,,s,1,None,0,,4.0,diamondgray.gif,go,,,,,,,,0.417667865753,,,,,,,,,,,,,,,,,,,,,,,,3.94,0.514377117157,0.000880002975464,0.417667865753,1,s,972.372781038,,,,,,,,,,,,,,,,,,,,,,,,,,,,,,,,,2015_Jun_23_1302,59.9858126816,LearningTask,1,61,
200,w,200,,,,,,,,,,,,,,,,,1,0,1,0,23,2,94,0,,,,,,,,,,,,,,,,,,,,,,,,,,,,,w,1,None,0,,4.0,hexagoncyan.gif,stop,,,,,,,,0.350832939148,,,,,,,,,,,,,,,,,,,,,,,,4.19,0.514356136322,0.00088095664978,0.350832939148,1,w,975.376260042,,,,,,,,,,,,,,,,,,,,,,,,,,,,,,,,,2015_Jun_23_1302,59.9858126816,LearningTask,1,61,
200,s,-200,,,,,,,,,,,,,,,,,1,0,1,0,23,3,95,2,,,,,,,,,,,,,,,,,,,,,,,,,,,,,s,1,None,0,,1.0,triangleblue.gif,go,,,,,,,,0.384176015854,,,,,,,,,,,,,,,,,,,,,,,,0.87,0.514256000519,0.000875949859619,0.384176015854,1,s,978.379350901,,,,,,,,,,,,,,,,,,,,,,,,,,,,,,,,,2015_Jun_23_1302,59.9858126816,LearningTask,1,61,
-200,q,200,,,,,,,,,,,,,,,,,1,0,1,0,24,0,96,1,,,,,,,,,,,,,,,,,,,,,,,,,,,,,q,1,None,0,,4.0,hexagoncyan.gif,stop,,,,,,,,0.434087991714,,,,,,,,,,,,,,,,,,,,,,,,4.0,0.514598846436,0.000949859619141,0.434087991714,1,q,981.382699013,,,,,,,,,,,,,,,,,,,,,,,,,,,,,,,,,2015_Jun_23_1302,59.9858126816,LearningTask,1,61,
-200,q,200,,,,,,,,,,,,,,,,,1,0,1,0,24,1,97,1,,,,,,,,,,,,,,,,,,,,,,,,,,,,,q,1,None,0,,4.0,diamondgray.gif,go,,,,,,,,0.383526086807,,,,,,,,,,,,,,,,,,,,,,,,0,0.515125989914,0.000906944274902,0.383526086807,1,q,984.38647294,,,,,,,,,,,,,,,,,,,,,,,,,,,,,,,,,2015_Jun_23_1302,59.9858126816,LearningTask,1,61,
200,w,200,,,,,,,,,,,,,,,,,1,0,1,0,24,2,98,0,,,,,,,,,,,,,,,,,,,,,,,,,,,,,w,1,None,0,,0.5,circlemagenta.gif,go,,,,,,,,0.350417137146,,,,,,,,,,,,,,,,,,,,,,,,0,0.514349937439,0.00089693069458,0.350417137146,1,w,987.389720917,,,,,,,,,,,,,,,,,,,,,,,,,,,,,,,,,2015_Jun_23_1302,59.9858126816,LearningTask,1,61,
-200,q,200,,,,,,,,,,,,,,,,,1,0,1,0,24,3,99,1,,,,,,,,,,,,,,,,,,,,,,,,,,,,,q,1,None,0,,2.0,crossgreen.gif,stop,,,,,,,,0.368094921112,,,,,,,,,,,,,,,,,,,,,,,,2.0,0.5142121315,0.00100708007812,0.368094921112,1,q,990.392934084,,,,,,,,,,,,,,,,,,,,,,,,,,,,,,,,,2015_Jun_23_1302,59.9858126816,LearningTask,1,61,
,,,,,,,,,,,,,,,,,,,1,0,1,0,,,,,,,,,,,,,,,,,,,,,,,,,,,,,,,,,,,,,,,,,,,,,,,,,,,,,,,,,,,,,,,,,,,,,,,,,,,,,,,,,,,,,,9,11.7414460182,,,,,,,,,,,,,,,,,,,,,,,,2015_Jun_23_1302,59.9858126816,LearningTask,1,61,
200,s,-200,,,,,,,,,,,,,,,,,2,0,2,0,0,0,0,2,,,,,,,,,,,,,,,,,,,,,,,,,,,,,s,1,None,0,,0.5,squarewhite.gif,stop,,,,,,,,0.551321983337,,,,,,,,,,,,,,,,,,,,,,,,0,0.507626056671,0.000977039337158,0.551321983337,1,s,1005.82792902,,,,,,,,,,,,,,,,,,,,,,,,,,,,,,,,,2015_Jun_23_1302,59.9858126816,LearningTask,1,61,
-200,a,-200,,,,,,,,,,,,,,,,,2,0,2,0,0,1,1,3,,,,,,,,,,,,,,,,,,,,,,,,,,,,,a,1,None,0,,1.0,triangleblue.gif,go,,,,,,,,0.4173579216,,,,,,,,,,,,,,,,,,,,,,,,0,0.51350903511,0.00091290473938,0.4173579216,1,a,1008.83065796,,,,,,,,,,,,,,,,,,,,,,,,,,,,,,,,,2015_Jun_23_1302,59.9858126816,LearningTask,1,61,
200,s,-200,,,,,,,,,,,,,,,,,2,0,2,0,0,2,2,2,,,,,,,,,,,,,,,,,,,,,,,,,,,,,s,1,None,0,,1.0,lineorange.gif,stop,,,,,,,,0.450858831406,,,,,,,,,,,,,,,,,,,,,,,,0,0.514217853546,0.000872850418091,0.450858831406,1,s,1011.83393502,,,,,,,,,,,,,,,,,,,,,,,,,,,,,,,,,2015_Jun_23_1302,59.9858126816,LearningTask,1,61,
200,w,200,,,,,,,,,,,,,,,,,2,0,2,0,0,3,3,0,,,,,,,,,,,,,,,,,,,,,,,,,,,,,w,1,None,0,,4.0,hexagoncyan.gif,stop,,,,,,,,0.367417097092,,,,,,,,,,,,,,,,,,,,,,,,3.89,0.514158010483,0.00120401382446,0.367417097092,1,w,1014.83733106,,,,,,,,,,,,,,,,,,,,,,,,,,,,,,,,,2015_Jun_23_1302,59.9858126816,LearningTask,1,61,
-200,q,200,,,,,,,,,,,,,,,,,2,0,2,0,1,0,4,1,,,,,,,,,,,,,,,,,,,,,,,,,,,,,q,1,None,0,,0.5,squarewhite.gif,stop,,,,,,,,0.334268093109,,,,,,,,,,,,,,,,,,,,,,,,0.46,0.513804912567,0.000903844833374,0.334268093109,1,q,1017.84051704,,,,,,,,,,,,,,,,,,,,,,,,,,,,,,,,,2015_Jun_23_1302,59.9858126816,LearningTask,1,61,
200,s,-200,,,,,,,,,,,,,,,,,2,0,2,0,1,1,5,2,,,,,,,,,,,,,,,,,,,,,,,,,,,,,s,1,None,0,,1.0,lineorange.gif,stop,,,,,,,,0.401193857193,,,,,,,,,,,,,,,,,,,,,,,,0.94,0.514453887939,0.000866889953613,0.401193857193,1,s,1020.84390092,,,,,,,,,,,,,,,,,,,,,,,,,,,,,,,,,2015_Jun_23_1302,59.9858126816,LearningTask,1,61,
200,s,-200,,,,,,,,,,,,,,,,,2,0,2,0,1,2,6,2,,,,,,,,,,,,,,,,,,,,,,,,,,,,,s,1,None,0,,1.0,lineorange.gif,stop,,,,,,,,0.400654792786,,,,,,,,,,,,,,,,,,,,,,,,1.07,0.514582872391,0.000882863998413,0.400654792786,1,s,1023.84745002,,,,,,,,,,,,,,,,,,,,,,,,,,,,,,,,,2015_Jun_23_1302,59.9858126816,LearningTask,1,61,
200,w,200,,,,,,,,,,,,,,,,,2,0,2,0,1,3,7,0,,,,,,,,,,,,,,,,,,,,,,,,,,,,,w,1,None,0,,4.0,diamondgray.gif,go,,,,,,,,0.417557001114,,,,,,,,,,,,,,,,,,,,,,,,4.13,0.513844966888,0.000911951065063,0.417557001114,1,w,1026.85069489,,,,,,,,,,,,,,,,,,,,,,,,,,,,,,,,,2015_Jun_23_1302,59.9858126816,LearningTask,1,61,
200,s,-200,,,,,,,,,,,,,,,,,2,0,2,0,2,0,8,2,,,,,,,,,,,,,,,,,,,,,,,,,,,,,s,1,None,0,,4.0,hexagoncyan.gif,stop,,,,,,,,0.400952100754,,,,,,,,,,,,,,,,,,,,,,,,4.15,0.514432907104,0.000892877578735,0.400952100754,1,s,1029.85395408,,,,,,,,,,,,,,,,,,,,,,,,,,,,,,,,,2015_Jun_23_1302,59.9858126816,LearningTask,1,61,
-200,q,200,,,,,,,,,,,,,,,,,2,0,2,0,2,1,9,1,,,,,,,,,,,,,,,,,,,,,,,,,,,,,q,1,None,0,,0.5,squarewhite.gif,stop,,,,,,,,0.31755900383,,,,,,,,,,,,,,,,,,,,,,,,0.29,0.514434099197,0.00086498260498,0.31755900383,1,q,1032.858042,,,,,,,,,,,,,,,,,,,,,,,,,,,,,,,,,2015_Jun_23_1302,59.9858126816,LearningTask,1,61,
-200,a,-200,,,,,,,,,,,,,,,,,2,0,2,0,2,2,10,3,,,,,,,,,,,,,,,,,,,,,,,,,,,,,a,1,None,0,,0.5,circlemagenta.gif,go,,,,,,,,0.333924055099,,,,,,,,,,,,,,,,,,,,,,,,0.67,0.513852119446,0.000874042510986,0.333924055099,1,a,1035.86055589,,,,,,,,,,,,,,,,,,,,,,,,,,,,,,,,,2015_Jun_23_1302,59.9858126816,LearningTask,1,61,
-200,a,-200,,,,,,,,,,,,,,,,,2,0,2,0,2,3,11,3,,,,,,,,,,,,,,,,,,,,,,,,,,,,,a,1,None,0,,2.0,invertedtriangleyellow.gif,go,,,,,,,,0.401046037674,,,,,,,,,,,,,,,,,,,,,,,,0,0.514402151108,0.000898122787476,0.401046037674,1,a,1038.86430907,,,,,,,,,,,,,,,,,,,,,,,,,,,,,,,,,2015_Jun_23_1302,59.9858126816,LearningTask,1,61,
200,s,-200,,,,,,,,,,,,,,,,,2,0,2,0,3,0,12,2,,,,,,,,,,,,,,,,,,,,,,,,,,,,,s,1,None,0,,4.0,hexagoncyan.gif,stop,,,,,,,,0.400672912598,,,,,,,,,,,,,,,,,,,,,,,,0,0.514313936234,0.000874042510986,0.400672912598,1,s,1041.86783504,,,,,,,,,,,,,,,,,,,,,,,,,,,,,,,,,2015_Jun_23_1302,59.9858126816,LearningTask,1,61,
-200,q,200,,,,,,,,,,,,,,,,,2,0,2,0,3,1,13,1,,,,,,,,,,,,,,,,,,,,,,,,,,,,,q,1,None,0,,0.5,squarewhite.gif,stop,,,,,,,,0.351186037064,,,,,,,,,,,,,,,,,,,,,,,,0.71,0.513527870178,0.00113296508789,0.351186037064,1,q,1044.87091899,,,,,,,,,,,,,,,,,,,,,,,,,,,,,,,,,2015_Jun_23_1302,59.9858126816,LearningTask,1,61,
200,w,200,,,,,,,,,,,,,,,,,2,0,2,0,3,2,14,0,,,,,,,,,,,,,,,,,,,,,,,,,,,,,w,1,None,0,,2.0,invertedtriangleyellow.gif,go,,,,,,,,0.334125995636,,,,,,,,,,,,,,,,,,,,,,,,2.16,0.51426410675,0.00100016593933,0.334125995636,1,w,1047.87486601,,,,,,,,,,,,,,,,,,,,,,,,,,,,,,,,,2015_Jun_23_1302,59.9858126816,LearningTask,1,61,
200,s,-200,,,,,,,,,,,,,,,,,2,0,2,0,3,3,15,2,,,,,,,,,,,,,,,,,,,,,,,,,,,,,s,1,None,0,,2.0,crossgreen.gif,stop,,,,,,,,0.417531013489,,,,,,,,,,,,,,,,,,,,,,,,0,0.513637065887,0.000890016555786,0.417531013489,1,s,1050.87779999,,,,,,,,,,,,,,,,,,,,,,,,,,,,,,,,,2015_Jun_23_1302,59.9858126816,LearningTask,1,61,
-200,q,200,,,,,,,,,,,,,,,,,2,0,2,0,4,0,16,1,,,,,,,,,,,,,,,,,,,,,,,,,,,,,q,1,None,0,,2.0,invertedtriangleyellow.gif,go,,,,,,,,0.35095500946,,,,,,,,,,,,,,,,,,,,,,,,0,0.51438999176,0.000872135162354,0.35095500946,1,q,1053.88117409,,,,,,,,,,,,,,,,,,,,,,,,,,,,,,,,,2015_Jun_23_1302,59.9858126816,LearningTask,1,61,
200,s,-200,,,,,,,,,,,,,,,,,2,0,2,0,4,1,17,2,,,,,,,,,,,,,,,,,,,,,,,,,,,,,s,1,None,0,,2.0,invertedtriangleyellow.gif,go,,,,,,,,0.400759935379,,,,,,,,,,,,,,,,,,,,,,,,1.79,0.513981103897,0.000997066497803,0.400759935379,1,s,1056.88440609,,,,,,,,,,,,,,,,,,,,,,,,,,,,,,,,,2015_Jun_23_1302,59.9858126816,LearningTask,1,61,
200,s,-200,,,,,,,,,,,,,,,,,2,0,2,0,4,2,18,2,,,,,,,,,,,,,,,,,,,,,,,,,,,,,s,1,None,0,,0.5,circlemagenta.gif,go,,,,,,,,0.40066409111,,,,,,,,,,,,,,,,,,,,,,,,0.38,0.514695167542,0.00087308883667,0.40066409111,1,s,1059.88780403,,,,,,,,,,,,,,,,,,,,,,,,,,,,,,,,,2015_Jun_23_1302,59.9858126816,LearningTask,1,61,
-200,a,-200,,,,,,,,,,,,,,,,,2,0,2,0,4,3,19,3,,,,,,,,,,,,,,,,,,,,,,,,,,,,,a,1,None,0,,1.0,triangleblue.gif,go,,,,,,,,0.468164920807,,,,,,,,,,,,,,,,,,,,,,,,0.85,0.514325141907,0.000871181488037,0.468164920807,1,a,1062.8913281,,,,,,,,,,,,,,,,,,,,,,,,,,,,,,,,,2015_Jun_23_1302,59.9858126816,LearningTask,1,61,
200,s,-200,,,,,,,,,,,,,,,,,2,0,2,0,5,0,20,2,,,,,,,,,,,,,,,,,,,,,,,,,,,,,s,1,None,0,,4.0,hexagoncyan.gif,stop,,,,,,,,0.401376962662,,,,,,,,,,,,,,,,,,,,,,,,4.24,0.513556957245,0.00092601776123,0.401376962662,1,s,1065.89460206,,,,,,,,,,,,,,,,,,,,,,,,,,,,,,,,,2015_Jun_23_1302,59.9858126816,LearningTask,1,61,
200,w,200,,,,,,,,,,,,,,,,,2,0,2,0,5,1,21,0,,,,,,,,,,,,,,,,,,,,,,,,,,,,,w,1,None,0,,4.0,hexagoncyan.gif,stop,,,,,,,,0.384819030762,,,,,,,,,,,,,,,,,,,,,,,,4.23,0.514137029648,0.000875949859619,0.384819030762,1,w,1068.89803505,,,,,,,,,,,,,,,,,,,,,,,,,,,,,,,,,2015_Jun_23_1302,59.9858126816,LearningTask,1,61,
-200,q,200,,,,,,,,,,,,,,,,,2,0,2,0,5,2,22,1,,,,,,,,,,,,,,,,,,,,,,,,,,,,,q,1,None,0,,4.0,diamondgray.gif,go,,,,,,,,0.401057958603,,,,,,,,,,,,,,,,,,,,,,,,3.87,0.514290809631,0.000869989395142,0.401057958603,1,q,1071.90243912,,,,,,,,,,,,,,,,,,,,,,,,,,,,,,,,,2015_Jun_23_1302,59.9858126816,LearningTask,1,61,
-200,q,200,,,,,,,,,,,,,,,,,2,0,2,0,5,3,23,1,,,,,,,,,,,,,,,,,,,,,,,,,,,,,q,1,None,0,,0.5,circlemagenta.gif,go,,,,,,,,0.418119907379,,,,,,,,,,,,,,,,,,,,,,,,0.66,0.513000011444,0.000890970230103,0.418119907379,1,q,1074.90471292,,,,,,,,,,,,,,,,,,,,,,,,,,,,,,,,,2015_Jun_23_1302,59.9858126816,LearningTask,1,61,
-200,a,-200,,,,,,,,,,,,,,,,,2,0,2,0,6,0,24,3,,,,,,,,,,,,,,,,,,,,,,,,,,,,,a,1,None,0,,0.5,squarewhite.gif,stop,,,,,,,,0.467423915863,,,,,,,,,,,,,,,,,,,,,,,,0.3,0.514311790466,0.00103497505188,0.467423915863,1,a,1077.90867805,,,,,,,,,,,,,,,,,,,,,,,,,,,,,,,,,2015_Jun_23_1302,59.9858126816,LearningTask,1,61,
-200,q,200,,,,,,,,,,,,,,,,,2,0,2,0,6,1,25,1,,,,,,,,,,,,,,,,,,,,,,,,,,,,,q,1,None,0,,4.0,diamondgray.gif,go,,,,,,,,0.450646162033,,,,,,,,,,,,,,,,,,,,,,,,4.02,0.514174938202,0.000872850418091,0.450646162033,1,q,1080.91215801,,,,,,,,,,,,,,,,,,,,,,,,,,,,,,,,,2015_Jun_23_1302,59.9858126816,LearningTask,1,61,
200,w,200,,,,,,,,,,,,,,,,,2,0,2,0,6,2,26,0,,,,,,,,,,,,,,,,,,,,,,,,,,,,,w,1,None,0,,2.0,crossgreen.gif,stop,,,,,,,,0.400981903076,,,,,,,,,,,,,,,,,,,,,,,,1.77,0.513286828995,0.000890016555786,0.400981903076,1,w,1083.91527891,,,,,,,,,,,,,,,,,,,,,,,,,,,,,,,,,2015_Jun_23_1302,59.9858126816,LearningTask,1,61,
-200,a,-200,,,,,,,,,,,,,,,,,2,0,2,0,6,3,27,3,,,,,,,,,,,,,,,,,,,,,,,,,,,,,a,1,None,0,,2.0,crossgreen.gif,stop,,,,,,,,0.634462118149,,,,,,,,,,,,,,,,,,,,,,,,0,0.51395201683,0.00103616714478,0.634462118149,1,a,1086.91823006,,,,,,,,,,,,,,,,,,,,,,,,,,,,,,,,,2015_Jun_23_1302,59.9858126816,LearningTask,1,61,
-200,a,-200,,,,,,,,,,,,,,,,,2,0,2,0,7,0,28,3,,,,,,,,,,,,,,,,,,,,,,,,,,,,,a,1,None,0,,2.0,invertedtriangleyellow.gif,go,,,,,,,,0.401329040527,,,,,,,,,,,,,,,,,,,,,,,,1.77,0.514330148697,0.000877141952515,0.401329040527,1,a,1089.92182112,,,,,,,,,,,,,,,,,,,,,,,,,,,,,,,,,2015_Jun_23_1302,59.9858126816,LearningTask,1,61,
-200,q,200,,,,,,,,,,,,,,,,,2,0,2,0,7,1,29,1,,,,,,,,,,,,,,,,,,,,,,,,,,,,,q,1,None,0,,1.0,triangleblue.gif,go,,,,,,,,0.367474079132,,,,,,,,,,,,,,,,,,,,,,,,0.92,0.514231920242,0.000873804092407,0.367474079132,1,q,1092.92536592,,,,,,,,,,,,,,,,,,,,,,,,,,,,,,,,,2015_Jun_23_1302,59.9858126816,LearningTask,1,61,
-200,a,-200,,,,,,,,,,,,,,,,,2,0,2,0,7,2,30,3,,,,,,,,,,,,,,,,,,,,,,,,,,,,,a,1,None,0,,2.0,invertedtriangleyellow.gif,go,,,,,,,,0.3678150177,,,,,,,,,,,,,,,,,,,,,,,,1.81,0.513552904129,0.000941038131714,0.3678150177,1,a,1095.92853904,,,,,,,,,,,,,,,,,,,,,,,,,,,,,,,,,2015_Jun_23_1302,59.9858126816,LearningTask,1,61,
200,s,-200,,,,,,,,,,,,,,,,,2,0,2,0,7,3,31,2,,,,,,,,,,,,,,,,,,,,,,,,,,,,,s,1,None,0,,0.5,squarewhite.gif,stop,,,,,,,,0.417532920837,,,,,,,,,,,,,,,,,,,,,,,,0.63,0.514018058777,0.000870943069458,0.417532920837,1,s,1098.93177509,,,,,,,,,,,,,,,,,,,,,,,,,,,,,,,,,2015_Jun_23_1302,59.9858126816,LearningTask,1,61,
200,s,-200,,,,,,,,,,,,,,,,,2,0,2,0,8,0,32,2,,,,,,,,,,,,,,,,,,,,,,,,,,,,,s,1,None,0,,4.0,hexagoncyan.gif,stop,,,,,,,,0.400943994522,,,,,,,,,,,,,,,,,,,,,,,,4.15,0.514258861542,0.000903844833374,0.400943994522,1,s,1101.93519807,,,,,,,,,,,,,,,,,,,,,,,,,,,,,,,,,2015_Jun_23_1302,59.9858126816,LearningTask,1,61,
200,w,200,,,,,,,,,,,,,,,,,2,0,2,0,8,1,33,0,,,,,,,,,,,,,,,,,,,,,,,,,,,,,w,1,None,0,,1.0,triangleblue.gif,go,,,,,,,,0.384735822678,,,,,,,,,,,,,,,,,,,,,,,,1.19,0.51394701004,0.00119280815125,0.384735822678,1,w,1104.93853402,,,,,,,,,,,,,,,,,,,,,,,,,,,,,,,,,2015_Jun_23_1302,59.9858126816,LearningTask,1,61,
-200,q,200,,,,,,,,,,,,,,,,,2,0,2,0,8,2,34,1,,,,,,,,,,,,,,,,,,,,,,,,,,,,,q,1,None,0,,0.5,squarewhite.gif,stop,,,,,,,,0.351569890976,,,,,,,,,,,,,,,,,,,,,,,,0,0.514045000076,0.000967979431152,0.351569890976,1,q,1107.94211602,,,,,,,,,,,,,,,,,,,,,,,,,,,,,,,,,2015_Jun_23_1302,59.9858126816,LearningTask,1,61,
-200,a,-200,,,,,,,,,,,,,,,,,2,0,2,0,8,3,35,3,,,,,,,,,,,,,,,,,,,,,,,,,,,,,a,1,None,0,,1.0,triangleblue.gif,go,,,,,,,,0.383841991425,,,,,,,,,,,,,,,,,,,,,,,,1.08,0.51397395134,0.000891923904419,0.383841991425,1,a,1110.94552207,,,,,,,,,,,,,,,,,,,,,,,,,,,,,,,,,2015_Jun_23_1302,59.9858126816,LearningTask,1,61,
200,w,200,,,,,,,,,,,,,,,,,2,0,2,0,9,0,36,0,,,,,,,,,,,,,,,,,,,,,,,,,,,,,w,1,None,0,,4.0,hexagoncyan.gif,stop,,,,,,,,0.383612155914,,,,,,,,,,,,,,,,,,,,,,,,3.77,0.51405787468,0.000899076461792,0.383612155914,1,w,1113.94865894,,,,,,,,,,,,,,,,,,,,,,,,,,,,,,,,,2015_Jun_23_1302,59.9858126816,LearningTask,1,61,
-200,a,-200,,,,,,,,,,,,,,,,,2,0,2,0,9,1,37,3,,,,,,,,,,,,,,,,,,,,,,,,,,,,,a,1,None,0,,0.5,circlemagenta.gif,go,,,,,,,,0.38432097435,,,,,,,,,,,,,,,,,,,,,,,,0.67,0.514274120331,0.000869989395142,0.38432097435,1,a,1116.95192695,,,,,,,,,,,,,,,,,,,,,,,,,,,,,,,,,2015_Jun_23_1302,59.9858126816,LearningTask,1,61,
-200,q,200,,,,,,,,,,,,,,,,,2,0,2,0,9,2,38,1,,,,,,,,,,,,,,,,,,,,,,,,,,,,,q,1,None,0,,2.0,crossgreen.gif,stop,,,,,,,,0.417675971985,,,,,,,,,,,,,,,,,,,,,,,,1.76,0.514297962189,0.000874996185303,0.417675971985,1,q,1119.95591998,,,,,,,,,,,,,,,,,,,,,,,,,,,,,,,,,2015_Jun_23_1302,59.9858126816,LearningTask,1,61,
-200,q,200,,,,,,,,,,,,,,,,,2,0,2,0,9,3,39,1,,,,,,,,,,,,,,,,,,,,,,,,,,,,,q,1,None,0,,0.5,circlemagenta.gif,go,,,,,,,,0.400803089142,,,,,,,,,,,,,,,,,,,,,,,,0,0.513653039932,0.00088095664978,0.400803089142,1,q,1122.95884895,,,,,,,,,,,,,,,,,,,,,,,,,,,,,,,,,2015_Jun_23_1302,59.9858126816,LearningTask,1,61,
-200,q,200,,,,,,,,,,,,,,,,,2,0,2,0,10,0,40,1,,,,,,,,,,,,,,,,,,,,,,,,,,,,,q,1,None,0,,1.0,lineorange.gif,stop,,,,,,,,0.400548934937,,,,,,,,,,,,,,,,,,,,,,,,0,0.514515161514,0.000993013381958,0.400548934937,1,q,1125.96241903,,,,,,,,,,,,,,,,,,,,,,,,,,,,,,,,,2015_Jun_23_1302,59.9858126816,LearningTask,1,61,
-200,a,-200,,,,,,,,,,,,,,,,,2,0,2,0,10,1,41,3,,,,,,,,,,,,,,,,,,,,,,,,,,,,,a,1,None,0,,0.5,squarewhite.gif,stop,,,,,,,,0.384417057037,,,,,,,,,,,,,,,,,,,,,,,,0.54,0.514028072357,0.000880002975464,0.384417057037,1,a,1128.9659071,,,,,,,,,,,,,,,,,,,,,,,,,,,,,,,,,2015_Jun_23_1302,59.9858126816,LearningTask,1,61,
-200,q,200,,,,,,,,,,,,,,,,,2,0,2,0,10,2,42,1,,,,,,,,,,,,,,,,,,,,,,,,,,,,,q,1,None,0,,1.0,lineorange.gif,stop,,,,,,,,0.350909948349,,,,,,,,,,,,,,,,,,,,,,,,1.1,0.513952970505,0.000886917114258,0.350909948349,1,q,1131.96888089,,,,,,,,,,,,,,,,,,,,,,,,,,,,,,,,,2015_Jun_23_1302,59.9858126816,LearningTask,1,61,
-200,q,200,,,,,,,,,,,,,,,,,2,0,2,0,10,3,43,1,,,,,,,,,,,,,,,,,,,,,,,,,,,,,q,1,None,0,,1.0,triangleblue.gif,go,,,,,,,,0.40122294426,,,,,,,,,,,,,,,,,,,,,,,,1.21,0.51420712471,0.00124502182007,0.40122294426,1,q,1134.97227311,,,,,,,,,,,,,,,,,,,,,,,,,,,,,,,,,2015_Jun_23_1302,59.9858126816,LearningTask,1,61,
200,w,200,,,,,,,,,,,,,,,,,2,0,2,0,11,0,44,0,,,,,,,,,,,,,,,,,,,,,,,,,,,,,w,1,None,0,,2.0,crossgreen.gif,stop,,,,,,,,0.384004831314,,,,,,,,,,,,,,,,,,,,,,,,2.23,0.514503955841,0.000867128372192,0.384004831314,1,w,1137.97580004,,,,,,,,,,,,,,,,,,,,,,,,,,,,,,,,,2015_Jun_23_1302,59.9858126816,LearningTask,1,61,
200,s,-200,,,,,,,,,,,,,,,,,2,0,2,0,11,1,45,2,,,,,,,,,,,,,,,,,,,,,,,,,,,,,s,1,None,0,,0.5,squarewhite.gif,stop,,,,,,,,0.400816917419,,,,,,,,,,,,,,,,,,,,,,,,0.25,0.514420986176,0.00086784362793,0.400816917419,1,s,1140.97912502,,,,,,,,,,,,,,,,,,,,,,,,,,,,,,,,,2015_Jun_23_1302,59.9858126816,LearningTask,1,61,
-200,a,-200,,,,,,,,,,,,,,,,,2,0,2,0,11,2,46,3,,,,,,,,,,,,,,,,,,,,,,,,,,,,,a,1,None,0,,0.5,circlemagenta.gif,go,,,,,,,,0.43399810791,,,,,,,,,,,,,,,,,,,,,,,,0.41,0.514003992081,0.0010199546814,0.43399810791,1,a,1143.98271108,,,,,,,,,,,,,,,,,,,,,,,,,,,,,,,,,2015_Jun_23_1302,59.9858126816,LearningTask,1,61,
-200,a,-200,,,,,,,,,,,,,,,,,2,0,2,0,11,3,47,3,,,,,,,,,,,,,,,,,,,,,,,,,,,,,a,1,None,0,,1.0,triangleblue.gif,go,,,,,,,,0.418145895004,,,,,,,,,,,,,,,,,,,,,,,,1.17,0.513805866241,0.00095796585083,0.418145895004,1,a,1146.98609805,,,,,,,,,,,,,,,,,,,,,,,,,,,,,,,,,2015_Jun_23_1302,59.9858126816,LearningTask,1,61,
200,w,200,,,,,,,,,,,,,,,,,2,0,2,0,12,0,48,0,,,,,,,,,,,,,,,,,,,,,,,,,,,,,w,1,None,0,,0.5,circlemagenta.gif,go,,,,,,,,0.400949954987,,,,,,,,,,,,,,,,,,,,,,,,0,0.513857126236,0.000881195068359,0.400949954987,1,w,1149.98909807,,,,,,,,,,,,,,,,,,,,,,,,,,,,,,,,,2015_Jun_23_1302,59.9858126816,LearningTask,1,61,
200,w,200,,,,,,,,,,,,,,,,,2,0,2,0,12,1,49,0,,,,,,,,,,,,,,,,,,,,,,,,,,,,,w,1,None,0,,1.0,lineorange.gif,stop,,,,,,,,0.434841156006,,,,,,,,,,,,,,,,,,,,,,,,0.9,0.513860940933,0.000905990600586,0.434841156006,1,w,1152.99259806,,,,,,,,,,,,,,,,,,,,,,,,,,,,,,,,,2015_Jun_23_1302,59.9858126816,LearningTask,1,61,
200,w,200,,,,,,,,,,,,,,,,,2,0,2,0,12,2,50,0,,,,,,,,,,,,,,,,,,,,,,,,,,,,,w,1,None,0,,0.5,circlemagenta.gif,go,,,,,,,,0.367603063583,,,,,,,,,,,,,,,,,,,,,,,,0.49,0.514299869537,0.000877857208252,0.367603063583,1,w,1155.99605298,,,,,,,,,,,,,,,,,,,,,,,,,,,,,,,,,2015_Jun_23_1302,59.9858126816,LearningTask,1,61,
-200,q,200,,,,,,,,,,,,,,,,,2,0,2,0,12,3,51,1,,,,,,,,,,,,,,,,,,,,,,,,,,,,,q,1,None,0,,1.0,lineorange.gif,stop,,,,,,,,0.417518138885,,,,,,,,,,,,,,,,,,,,,,,,0.99,0.514391899109,0.000873804092407,0.417518138885,1,q,1158.99982691,,,,,,,,,,,,,,,,,,,,,,,,,,,,,,,,,2015_Jun_23_1302,59.9858126816,LearningTask,1,61,
-200,q,200,,,,,,,,,,,,,,,,,2,0,2,0,13,0,52,1,,,,,,,,,,,,,,,,,,,,,,,,,,,,,q,1,None,0,,0.5,circlemagenta.gif,go,,,,,,,,0.400718927383,,,,,,,,,,,,,,,,,,,,,,,,0.63,0.513550043106,0.000902891159058,0.400718927383,1,q,1162.00266504,,,,,,,,,,,,,,,,,,,,,,,,,,,,,,,,,2015_Jun_23_1302,59.9858126816,LearningTask,1,61,
200,w,200,,,,,,,,,,,,,,,,,2,0,2,0,13,1,53,0,,,,,,,,,,,,,,,,,,,,,,,,,,,,,w,1,None,0,,4.0,diamondgray.gif,go,,,,,,,,0.368010997772,,,,,,,,,,,,,,,,,,,,,,,,0,0.51425909996,0.00095796585083,0.368010997772,1,w,1165.00588989,,,,,,,,,,,,,,,,,,,,,,,,,,,,,,,,,2015_Jun_23_1302,59.9858126816,LearningTask,1,61,
-200,a,-200,,,,,,,,,,,,,,,,,2,0,2,0,13,2,54,3,,,,,,,,,,,,,,,,,,,,,,,,,,,,,a,1,None,0,,0.5,circlemagenta.gif,go,,,,,,,,0.384419202805,,,,,,,,,,,,,,,,,,,,,,,,0.4,0.514786958694,0.000874042510986,0.384419202805,1,a,1168.00991297,,,,,,,,,,,,,,,,,,,,,,,,,,,,,,,,,2015_Jun_23_1302,59.9858126816,LearningTask,1,61,
-200,a,-200,,,,,,,,,,,,,,,,,2,0,2,0,13,3,55,3,,,,,,,,,,,,,,,,,,,,,,,,,,,,,a,1,None,0,,4.0,diamondgray.gif,go,,,,,,,,0.400869131088,,,,,,,,,,,,,,,,,,,,,,,,3.96,0.513773918152,0.00087308883667,0.400869131088,1,a,1171.01281691,,,,,,,,,,,,,,,,,,,,,,,,,,,,,,,,,2015_Jun_23_1302,59.9858126816,LearningTask,1,61,
-200,q,200,,,,,,,,,,,,,,,,,2,0,2,0,14,0,56,1,,,,,,,,,,,,,,,,,,,,,,,,,,,,,q,1,None,0,,1.0,lineorange.gif,stop,,,,,,,,0.484124898911,,,,,,,,,,,,,,,,,,,,,,,,0.84,0.514286994934,0.000930070877075,0.484124898911,1,q,1174.01620698,,,,,,,,,,,,,,,,,,,,,,,,,,,,,,,,,2015_Jun_23_1302,59.9858126816,LearningTask,1,61,
-200,q,200,,,,,,,,,,,,,,,,,2,0,2,0,14,1,57,1,,,,,,,,,,,,,,,,,,,,,,,,,,,,,q,1,None,0,,0.5,squarewhite.gif,stop,,,,,,,,0.384745836258,,,,,,,,,,,,,,,,,,,,,,,,0,0.514346837997,0.00086784362793,0.384745836258,1,q,1177.0197401,,,,,,,,,,,,,,,,,,,,,,,,,,,,,,,,,2015_Jun_23_1302,59.9858126816,LearningTask,1,61,
-200,a,-200,,,,,,,,,,,,,,,,,2,0,2,0,14,2,58,3,,,,,,,,,,,,,,,,,,,,,,,,,,,,,a,1,None,0,,2.0,invertedtriangleyellow.gif,go,,,,,,,,0.383985996246,,,,,,,,,,,,,,,,,,,,,,,,0,0.514182090759,0.00087308883667,0.383985996246,1,a,1180.02302694,,,,,,,,,,,,,,,,,,,,,,,,,,,,,,,,,2015_Jun_23_1302,59.9858126816,LearningTask,1,61,
200,w,200,,,,,,,,,,,,,,,,,2,0,2,0,14,3,59,0,,,,,,,,,,,,,,,,,,,,,,,,,,,,,w,1,None,0,,1.0,triangleblue.gif,go,,,,,,,,0.417872905731,,,,,,,,,,,,,,,,,,,,,,,,1.14,0.51394200325,0.00102305412292,0.417872905731,1,w,1183.02663589,,,,,,,,,,,,,,,,,,,,,,,,,,,,,,,,,2015_Jun_23_1302,59.9858126816,LearningTask,1,61,
200,s,-200,,,,,,,,,,,,,,,,,2,0,2,0,15,0,60,2,,,,,,,,,,,,,,,,,,,,,,,,,,,,,s,1,None,0,,4.0,diamondgray.gif,go,,,,,,,,0.384359836578,,,,,,,,,,,,,,,,,,,,,,,,0,0.51421380043,0.00086784362793,0.384359836578,1,s,1186.02976394,,,,,,,,,,,,,,,,,,,,,,,,,,,,,,,,,2015_Jun_23_1302,59.9858126816,LearningTask,1,61,
200,s,-200,,,,,,,,,,,,,,,,,2,0,2,0,15,1,61,2,,,,,,,,,,,,,,,,,,,,,,,,,,,,,s,1,None,0,,2.0,invertedtriangleyellow.gif,go,,,,,,,,0.467306852341,,,,,,,,,,,,,,,,,,,,,,,,2.25,0.514361858368,0.000870943069458,0.467306852341,1,s,1189.03312302,,,,,,,,,,,,,,,,,,,,,,,,,,,,,,,,,2015_Jun_23_1302,59.9858126816,LearningTask,1,61,
-200,q,200,,,,,,,,,,,,,,,,,2,0,2,0,15,2,62,1,,,,,,,,,,,,,,,,,,,,,,,,,,,,,q,1,None,0,,0.5,squarewhite.gif,stop,,,,,,,,0.417476892471,,,,,,,,,,,,,,,,,,,,,,,,0,0.513918876648,0.000936031341553,0.417476892471,1,q,1192.03649998,,,,,,,,,,,,,,,,,,,,,,,,,,,,,,,,,2015_Jun_23_1302,59.9858126816,LearningTask,1,61,
200,w,200,,,,,,,,,,,,,,,,,2,0,2,0,15,3,63,0,,,,,,,,,,,,,,,,,,,,,,,,,,,,,w,1,None,0,,0.5,circlemagenta.gif,go,,,,,,,,0.450558900833,,,,,,,,,,,,,,,,,,,,,,,,0.47,0.514776945114,0.00086784362793,0.450558900833,1,w,1195.04000807,,,,,,,,,,,,,,,,,,,,,,,,,,,,,,,,,2015_Jun_23_1302,59.9858126816,LearningTask,1,61,
-200,a,-200,,,,,,,,,,,,,,,,,2,0,2,0,16,0,64,3,,,,,,,,,,,,,,,,,,,,,,,,,,,,,a,1,None,0,,1.0,triangleblue.gif,go,,,,,,,,0.467212915421,,,,,,,,,,,,,,,,,,,,,,,,1.22,0.514024019241,0.000895023345947,0.467212915421,1,a,1198.04336309,,,,,,,,,,,,,,,,,,,,,,,,,,,,,,,,,2015_Jun_23_1302,59.9858126816,LearningTask,1,61,
200,s,-200,,,,,,,,,,,,,,,,,2,0,2,0,16,1,65,2,,,,,,,,,,,,,,,,,,,,,,,,,,,,,s,1,None,0,,2.0,invertedtriangleyellow.gif,go,,,,,,,,0.450793027878,,,,,,,,,,,,,,,,,,,,,,,,1.96,0.514127969742,0.000909090042114,0.450793027878,1,s,1201.04661489,,,,,,,,,,,,,,,,,,,,,,,,,,,,,,,,,2015_Jun_23_1302,59.9858126816,LearningTask,1,61,
200,s,-200,,,,,,,,,,,,,,,,,2,0,2,0,16,2,66,2,,,,,,,,,,,,,,,,,,,,,,,,,,,,,s,1,None,0,,4.0,hexagoncyan.gif,stop,,,,,,,,0.484292030334,,,,,,,,,,,,,,,,,,,,,,,,0,0.514422893524,0.000895977020264,0.484292030334,1,s,1204.04991388,,,,,,,,,,,,,,,,,,,,,,,,,,,,,,,,,2015_Jun_23_1302,59.9858126816,LearningTask,1,61,
200,w,200,,,,,,,,,,,,,,,,,2,0,2,0,16,3,67,0,,,,,,,,,,,,,,,,,,,,,,,,,,,,,w,1,None,0,,2.0,crossgreen.gif,stop,,,,,,,,0.46756696701,,,,,,,,,,,,,,,,,,,,,,,,1.85,0.514409065247,0.000879049301147,0.46756696701,1,w,1207.05369997,,,,,,,,,,,,,,,,,,,,,,,,,,,,,,,,,2015_Jun_23_1302,59.9858126816,LearningTask,1,61,
-200,q,200,,,,,,,,,,,,,,,,,2,0,2,0,17,0,68,1,,,,,,,,,,,,,,,,,,,,,,,,,,,,,q,1,None,0,,0.5,circlemagenta.gif,go,,,,,,,,0.417897939682,,,,,,,,,,,,,,,,,,,,,,,,0.34,0.51375412941,0.000885963439941,0.417897939682,1,q,1210.05687308,,,,,,,,,,,,,,,,,,,,,,,,,,,,,,,,,2015_Jun_23_1302,59.9858126816,LearningTask,1,61,
200,w,200,,,,,,,,,,,,,,,,,2,0,2,0,17,1,69,0,,,,,,,,,,,,,,,,,,,,,,,,,,,,,w,1,None,0,,2.0,crossgreen.gif,stop,,,,,,,,0.417479038239,,,,,,,,,,,,,,,,,,,,,,,,2.13,0.514163970947,0.000982999801636,0.417479038239,1,w,1213.06039095,,,,,,,,,,,,,,,,,,,,,,,,,,,,,,,,,2015_Jun_23_1302,59.9858126816,LearningTask,1,61,
200,w,200,,,,,,,,,,,,,,,,,2,0,2,0,17,2,70,0,,,,,,,,,,,,,,,,,,,,,,,,,,,,,w,1,None,0,,1.0,lineorange.gif,stop,,,,,,,,0.450572013855,,,,,,,,,,,,,,,,,,,,,,,,0.83,0.514206886292,0.000872850418091,0.450572013855,1,w,1216.06367898,,,,,,,,,,,,,,,,,,,,,,,,,,,,,,,,,2015_Jun_23_1302,59.9858126816,LearningTask,1,61,
-200,a,-200,,,,,,,,,,,,,,,,,2,0,2,0,17,3,71,3,,,,,,,,,,,,,,,,,,,,,,,,,,,,,a,1,None,0,,2.0,crossgreen.gif,stop,,,,,,,,0.417560100555,,,,,,,,,,,,,,,,,,,,,,,,1.91,0.514120101929,0.00087308883667,0.417560100555,1,a,1219.06678891,,,,,,,,,,,,,,,,,,,,,,,,,,,,,,,,,2015_Jun_23_1302,59.9858126816,LearningTask,1,61,
200,w,200,,,,,,,,,,,,,,,,,2,0,2,0,18,0,72,0,,,,,,,,,,,,,,,,,,,,,,,,,,,,,w,1,None,0,,1.0,triangleblue.gif,go,,,,,,,,0.367835998535,,,,,,,,,,,,,,,,,,,,,,,,1.21,0.514292001724,0.00092601776123,0.367835998535,1,w,1222.07005596,,,,,,,,,,,,,,,,,,,,,,,,,,,,,,,,,2015_Jun_23_1302,59.9858126816,LearningTask,1,61,
200,s,-200,,,,,,,,,,,,,,,,,2,0,2,0,18,1,73,2,,,,,,,,,,,,,,,,,,,,,,,,,,,,,s,1,None,0,,4.0,hexagoncyan.gif,stop,,,,,,,,0.417480945587,,,,,,,,,,,,,,,,,,,,,,,,4.09,0.514582872391,0.000874996185303,0.417480945587,1,s,1225.07419705,,,,,,,,,,,,,,,,,,,,,,,,,,,,,,,,,2015_Jun_23_1302,59.9858126816,LearningTask,1,61,
-200,q,200,,,,,,,,,,,,,,,,,2,0,2,0,18,2,74,1,,,,,,,,,,,,,,,,,,,,,,,,,,,,,q,1,None,0,,2.0,crossgreen.gif,stop,,,,,,,,0.350331068039,,,,,,,,,,,,,,,,,,,,,,,,1.85,0.513689994812,0.000986099243164,0.350331068039,1,q,1228.07715106,,,,,,,,,,,,,,,,,,,,,,,,,,,,,,,,,2015_Jun_23_1302,59.9858126816,LearningTask,1,61,
-200,a,-200,,,,,,,,,,,,,,,,,2,0,2,0,18,3,75,3,,,,,,,,,,,,,,,,,,,,,,,,,,,,,a,1,None,0,,4.0,diamondgray.gif,go,,,,,,,,0.350931167603,,,,,,,,,,,,,,,,,,,,,,,,3.92,0.514132976532,0.00101399421692,0.350931167603,1,a,1231.08032608,,,,,,,,,,,,,,,,,,,,,,,,,,,,,,,,,2015_Jun_23_1302,59.9858126816,LearningTask,1,61,
200,s,-200,,,,,,,,,,,,,,,,,2,0,2,0,19,0,76,2,,,,,,,,,,,,,,,,,,,,,,,,,,,,,s,1,None,0,,1.0,triangleblue.gif,go,,,,,,,,0.417548894882,,,,,,,,,,,,,,,,,,,,,,,,0,0.514378070831,0.000869035720825,0.417548894882,1,s,1234.08370709,,,,,,,,,,,,,,,,,,,,,,,,,,,,,,,,,2015_Jun_23_1302,59.9858126816,LearningTask,1,61,
200,s,-200,,,,,,,,,,,,,,,,,2,0,2,0,19,1,77,2,,,,,,,,,,,,,,,,,,,,,,,,,,,,,s,1,None,0,,4.0,diamondgray.gif,go,,,,,,,,0.400750875473,,,,,,,,,,,,,,,,,,,,,,,,3.88,0.514372110367,0.000874042510986,0.400750875473,1,s,1237.08721089,,,,,,,,,,,,,,,,,,,,,,,,,,,,,,,,,2015_Jun_23_1302,59.9858126816,LearningTask,1,61,
200,w,200,,,,,,,,,,,,,,,,,2,0,2,0,19,2,78,0,,,,,,,,,,,,,,,,,,,,,,,,,,,,,w,1,None,0,,2.0,invertedtriangleyellow.gif,go,,,,,,,,0.334533929825,,,,,,,,,,,,,,,,,,,,,,,,2.01,0.513828992844,0.000911951065063,0.334533929825,1,w,1240.09052205,,,,,,,,,,,,,,,,,,,,,,,,,,,,,,,,,2015_Jun_23_1302,59.9858126816,LearningTask,1,61,
-200,a,-200,,,,,,,,,,,,,,,,,2,0,2,0,19,3,79,3,,,,,,,,,,,,,,,,,,,,,,,,,,,,,a,1,None,0,,0.5,squarewhite.gif,stop,,,,,,,,0.350996017456,,,,,,,,,,,,,,,,,,,,,,,,0.29,0.514203071594,0.000869035720825,0.350996017456,1,a,1243.094033,,,,,,,,,,,,,,,,,,,,,,,,,,,,,,,,,2015_Jun_23_1302,59.9858126816,LearningTask,1,61,
-200,q,200,,,,,,,,,,,,,,,,,2,0,2,0,20,0,80,1,,,,,,,,,,,,,,,,,,,,,,,,,,,,,q,1,None,0,,4.0,diamondgray.gif,go,,,,,,,,0.434548854828,,,,,,,,,,,,,,,,,,,,,,,,4.09,0.51437497139,0.000870943069458,0.434548854828,1,q,1246.0977149,,,,,,,,,,,,,,,,,,,,,,,,,,,,,,,,,2015_Jun_23_1302,59.9858126816,LearningTask,1,61,
200,w,200,,,,,,,,,,,,,,,,,2,0,2,0,20,1,81,0,,,,,,,,,,,,,,,,,,,,,,,,,,,,,w,1,None,0,,2.0,crossgreen.gif,stop,,,,,,,,0.38452911377,,,,,,,,,,,,,,,,,,,,,,,,2.05,0.513284921646,0.000901937484741,0.38452911377,1,w,1249.10070896,,,,,,,,,,,,,,,,,,,,,,,,,,,,,,,,,2015_Jun_23_1302,59.9858126816,LearningTask,1,61,
-200,a,-200,,,,,,,,,,,,,,,,,2,0,2,0,20,2,82,3,,,,,,,,,,,,,,,,,,,,,,,,,,,,,a,1,None,0,,2.0,crossgreen.gif,stop,,,,,,,,0.384124994278,,,,,,,,,,,,,,,,,,,,,,,,0,0.514240026474,0.00087308883667,0.384124994278,1,a,1252.10399389,,,,,,,,,,,,,,,,,,,,,,,,,,,,,,,,,2015_Jun_23_1302,59.9858126816,LearningTask,1,61,
-200,a,-200,,,,,,,,,,,,,,,,,2,0,2,0,20,3,83,3,,,,,,,,,,,,,,,,,,,,,,,,,,,,,a,1,None,0,,0.5,circlemagenta.gif,go,,,,,,,,0.351231098175,,,,,,,,,,,,,,,,,,,,,,,,0.6,0.514101028442,0.000883102416992,0.351231098175,1,a,1255.10790992,,,,,,,,,,,,,,,,,,,,,,,,,,,,,,,,,2015_Jun_23_1302,59.9858126816,LearningTask,1,61,
-200,q,200,,,,,,,,,,,,,,,,,2,0,2,0,21,0,84,1,,,,,,,,,,,,,,,,,,,,,,,,,,,,,q,1,None,0,,2.0,invertedtriangleyellow.gif,go,,,,,,,,0.451200008392,,,,,,,,,,,,,,,,,,,,,,,,2.25,0.513822793961,0.000874996185303,0.451200008392,1,q,1258.11078596,,,,,,,,,,,,,,,,,,,,,,,,,,,,,,,,,2015_Jun_23_1302,59.9858126816,LearningTask,1,61,
200,w,200,,,,,,,,,,,,,,,,,2,0,2,0,21,1,85,0,,,,,,,,,,,,,,,,,,,,,,,,,,,,,w,1,None,0,,0.5,circlemagenta.gif,go,,,,,,,,0.517390966415,,,,,,,,,,,,,,,,,,,,,,,,0.38,0.514503002167,0.000946044921875,0.517390966415,1,w,1261.11418891,,,,,,,,,,,,,,,,,,,,,,,,,,,,,,,,,2015_Jun_23_1302,59.9858126816,LearningTask,1,61,
200,w,200,,,,,,,,,,,,,,,,,2,0,2,0,21,2,86,0,,,,,,,,,,,,,,,,,,,,,,,,,,,,,w,1,None,0,,1.0,lineorange.gif,stop,,,,,,,,0.433671951294,,,,,,,,,,,,,,,,,,,,,,,,1.16,0.514482021332,0.000868082046509,0.433671951294,1,w,1264.11777592,,,,,,,,,,,,,,,,,,,,,,,,,,,,,,,,,2015_Jun_23_1302,59.9858126816,LearningTask,1,61,
200,w,200,,,,,,,,,,,,,,,,,2,0,2,0,21,3,87,0,,,,,,,,,,,,,,,,,,,,,,,,,,,,,w,1,None,0,,0.5,circlemagenta.gif,go,,,,,,,,0.467518091202,,,,,,,,,,,,,,,,,,,,,,,,0.32,0.514149904251,0.000895977020264,0.467518091202,1,w,1267.12078309,,,,,,,,,,,,,,,,,,,,,,,,,,,,,,,,,2015_Jun_23_1302,59.9858126816,LearningTask,1,61,
200,s,-200,,,,,,,,,,,,,,,,,2,0,2,0,22,0,88,2,,,,,,,,,,,,,,,,,,,,,,,,,,,,,s,1,None,0,,1.0,triangleblue.gif,go,,,,,,,,0.417838096619,,,,,,,,,,,,,,,,,,,,,,,,1.1,0.514362096786,0.00101113319397,0.417838096619,1,s,1270.12463903,,,,,,,,,,,,,,,,,,,,,,,,,,,,,,,,,2015_Jun_23_1302,59.9858126816,LearningTask,1,61,
-200,a,-200,,,,,,,,,,,,,,,,,2,0,2,0,22,1,89,3,,,,,,,,,,,,,,,,,,,,,,,,,,,,,a,1,None,0,,0.5,circlemagenta.gif,go,,,,,,,,0.317358970642,,,,,,,,,,,,,,,,,,,,,,,,0.48,0.513948917389,0.000872850418091,0.317358970642,1,a,1273.12770104,,,,,,,,,,,,,,,,,,,,,,,,,,,,,,,,,2015_Jun_23_1302,59.9858126816,LearningTask,1,61,
-200,a,-200,,,,,,,,,,,,,,,,,2,0,2,0,22,2,90,3,,,,,,,,,,,,,,,,,,,,,,,,,,,,,a,1,None,0,,2.0,crossgreen.gif,stop,,,,,,,,0.434355974197,,,,,,,,,,,,,,,,,,,,,,,,0,0.514408111572,0.000874042510986,0.434355974197,1,a,1276.1310699,,,,,,,,,,,,,,,,,,,,,,,,,,,,,,,,,2015_Jun_23_1302,59.9858126816,LearningTask,1,61,
200,s,-200,,,,,,,,,,,,,,,,,2,0,2,0,22,3,91,2,,,,,,,,,,,,,,,,,,,,,,,,,,,,,s,1,None,0,,4.0,hexagoncyan.gif,stop,,,,,,,,0.467694044113,,,,,,,,,,,,,,,,,,,,,,,,0,0.514012813568,0.000938892364502,0.467694044113,1,s,1279.13442612,,,,,,,,,,,,,,,,,,,,,,,,,,,,,,,,,2015_Jun_23_1302,59.9858126816,LearningTask,1,61,
-200,q,200,,,,,,,,,,,,,,,,,2,0,2,0,23,0,92,1,,,,,,,,,,,,,,,,,,,,,,,,,,,,,q,1,None,0,,0.5,squarewhite.gif,stop,,,,,,,,0.650973081589,,,,,,,,,,,,,,,,,,,,,,,,0.31,0.514433860779,0.000869989395142,0.650973081589,1,q,1282.137784,,,,,,,,,,,,,,,,,,,,,,,,,,,,,,,,,2015_Jun_23_1302,59.9858126816,LearningTask,1,61,
-200,q,200,,,,,,,,,,,,,,,,,2,0,2,0,23,1,93,1,,,,,,,,,,,,,,,,,,,,,,,,,,,,,q,1,None,0,,0.5,squarewhite.gif,stop,,,,,,,,0.451071023941,,,,,,,,,,,,,,,,,,,,,,,,0,0.514174938202,0.000871896743774,0.451071023941,1,q,1285.14130592,,,,,,,,,,,,,,,,,,,,,,,,,,,,,,,,,2015_Jun_23_1302,59.9858126816,LearningTask,1,61,
