xPos,corrAns,yPos,corrGoResp,yPosGoStim,xPosGoStim,pracTrials.thisRepN,pracTrials.thisTrialN,pracTrials.thisN,pracTrials.thisIndex,ReDoLoopPrac.thisRepN,ReDoLoopPrac.thisTrialN,ReDoLoopPrac.thisN,ReDoLoopPrac.thisIndex,ReDoLoopPrac.thisTrial,pracStopTrials.thisRepN,pracStopTrials.thisTrialN,pracStopTrials.thisN,pracStopTrials.thisIndex,Blocks.thisRepN,Blocks.thisTrialN,Blocks.thisN,Blocks.thisIndex,trials.thisRepN,trials.thisTrialN,trials.thisN,trials.thisIndex,ReDoLoopMain.thisRepN,ReDoLoopMain.thisTrialN,ReDoLoopMain.thisN,ReDoLoopMain.thisIndex,ReDoLoopMain.thisTrial,StopBlocks.thisRepN,StopBlocks.thisTrialN,StopBlocks.thisN,StopBlocks.thisIndex,StopTrials.thisRepN,StopTrials.thisTrialN,StopTrials.thisN,StopTrials.thisIndex,auctionBlocks.thisRepN,auctionBlocks.thisTrialN,auctionBlocks.thisN,auctionBlocks.thisIndex,auctionTrials.thisRepN,auctionTrials.thisTrialN,auctionTrials.thisN,auctionTrials.thisIndex,learningTrialList,learningPracTrialList,stopTrialList,stopPracTrialList,auctionTrialList,ok1.keys,ok1.rt,resp.keys,resp.corr,feedbackResp.keys,feedbackResp.corr,feedbackResp.rt,currentReward,currentStimulus,currentStimType,firstPracComputedRewardOutput,firstPracLearningStimOnset,firstPracLearningFixOnset,firstPracPresentationRT,firstPracPresentationAcc,firstPracPresentationResp,firstPracEndTrialTimeStamp,resp.rt,secondPracComputedRewardOutput,secondPracLearningStimOnset,secondPracLearningFixOnset,secondPracPresentationRT,secondPracPresentationAcc,secondPracPresentationResp,secondPracEndTrialTimeStamp,StartTrialTimeStamp,trialType,goStim,stimType,stopStimValue,goResp.keys,goResp.corr,goResp.rt,key_resp_9.keys,key_resp_9.corr,fixStopOnset,goStimOnset,stopSignalOnset,EndTrialTimeStamp,key_resp_3.keys,key_resp_3.rt,firstComputedRewardOutput,firstLearningStimOnset,firstLearningFixOnset,firstPresentationRT,firstPresentationAcc,firstPresentationResp,firstEndTrialTimeStamp,secondComputedRewardOutput,secondLearningStimOnset,secondLearningFixOnset,secondPresentationRT,secondPresentationAcc,secondPresentationResp,secondEndTrialTimeStamp,key_resp_7.keys,key_resp_7.rt,beginningSSD,EndingSSD,key_resp_9.rt,key_resp_4.keys,key_resp_4.rt,auctionResponse.keys,auctionResponse.rt,auctionStimDuration,auctionStim,auctionAmounts,auctionStimValue,auctionCondition,chosenAuctionAmount,key_resp_5.keys,key_resp_5.rt,shuffledRewardList,chosenReward1,chosenReward2,chosenReward3,chosenReward4,chosenReward5,key_resp_6.keys,key_resp_6.rt,date,frameRate,expName,session,participant,
,,,,,,,,,,,,,,,,,,,,,,,,,,,,,,,,,,,,,,,,,,,,,,,,[],[],[],[],[],9,69.9812579155,,,,,,,,,,,,,,,,,,,,,,,,,,,,,,,,,,,,,,,,,,,,,,,,,,,,,,,,,,,,,,,,,,,,,,,,,,,,,,,2015_Jun_23_1355,60.0557272173,LearningTask,1,62,
-200,q,200,,,,0,0,0,9,,,,,,,,,,,,,,,,,,,,,,,,,,,,,,,,,,,,,,,,,,,,,,q,1,None,0,0.0573179721832,0.5,invertedtriangleorange.gif,stop,0,0.507023096085,0.00294899940491,[],0,None,83.6209959984,0.434503078461,0,0.515316009521,0.00124001502991,0.434503078461,1,q,86.6240968704,,,,,,,,,,,,,,,,,,,,,,,,,,,,,,,,,,,,,,,,,,,,,,,,,,,,,,,,2015_Jun_23_1355,60.0557272173,LearningTask,1,62,
200,w,200,,,,0,1,1,8,,,,,,,,,,,,,,,,,,,,,,,,,,,,,,,,,,,,,,,,,,,,,,w,1,None,0,,1.0,diamondcyan.gif,stop,1.09,0.514873981476,0.00149512290955,0.400847196579,1,w,89.6271297932,0.400847196579,,,,,,,,,,,,,,,,,,,,,,,,,,,,,,,,,,,,,,,,,,,,,,,,,,,,,,,,,,,,,,,2015_Jun_23_1355,60.0557272173,LearningTask,1,62,
200,s,-200,,,,0,2,2,6,,,,,,,,,,,,,,,,,,,,,,,,,,,,,,,,,,,,,,,,,,,,,,s,1,None,0,,1.0,diamondcyan.gif,stop,1.23,0.51523399353,0.000886917114258,0.434075117111,1,s,92.6303389072,0.434075117111,,,,,,,,,,,,,,,,,,,,,,,,,,,,,,,,,,,,,,,,,,,,,,,,,,,,,,,,,,,,,,,2015_Jun_23_1355,60.0557272173,LearningTask,1,62,
200,w,200,,,,0,3,3,0,,,,,,,,,,,,,,,,,,,,,,,,,,,,,,,,,,,,,,,,,,,,,,w,1,None,0,,4.0,trianglegray.gif,stop,0,0.515028953552,0.00135707855225,0.501169919968,1,w,95.6340949535,0.501169919968,,,,,,,,,,,,,,,,,,,,,,,,,,,,,,,,,,,,,,,,,,,,,,,,,,,,,,,,,,,,,,,2015_Jun_23_1355,60.0557272173,LearningTask,1,62,
-200,q,200,,,,0,4,4,5,,,,,,,,,,,,,,,,,,,,,,,,,,,,,,,,,,,,,,,,,,,,,,q,1,None,0,,1.0,diamondcyan.gif,stop,1.11,0.515152931213,0.00110101699829,0.45100402832,1,q,98.6373128891,0.45100402832,,,,,,,,,,,,,,,,,,,,,,,,,,,,,,,,,,,,,,,,,,,,,,,,,,,,,,,,,,,,,,,2015_Jun_23_1355,60.0557272173,LearningTask,1,62,
-200,a,-200,,,,0,5,5,3,,,,,,,,,,,,,,,,,,,,,,,,,,,,,,,,,,,,,,,,,,,,,,a,1,None,0,,2.0,lineblue.gif,stop,2.13,0.515258073807,0.00134491920471,0.400406837463,1,a,101.64090395,0.400406837463,,,,,,,,,,,,,,,,,,,,,,,,,,,,,,,,,,,,,,,,,,,,,,,,,,,,,,,,,,,,,,,2015_Jun_23_1355,60.0557272173,LearningTask,1,62,
-200,a,-200,,,,0,6,6,7,,,,,,,,,,,,,,,,,,,,,,,,,,,,,,,,,,,,,,,,,,,,,,a,1,None,0,,1.0,diamondcyan.gif,stop,0.78,0.514746189117,0.000895977020264,0.351405858994,1,a,104.643946886,0.351405858994,,,,,,,,,,,,,,,,,,,,,,,,,,,,,,,,,,,,,,,,,,,,,,,,,,,,,,,,,,,,,,,2015_Jun_23_1355,60.0557272173,LearningTask,1,62,
-200,q,200,,,,0,7,7,1,,,,,,,,,,,,,,,,,,,,,,,,,,,,,,,,,,,,,,,,,,,,,,q,1,None,0,,1.0,diamondcyan.gif,stop,0.78,0.514870166779,0.000952005386353,0.350708961487,1,q,107.647243977,0.350708961487,,,,,,,,,,,,,,,,,,,,,,,,,,,,,,,,,,,,,,,,,,,,,,,,,,,,,,,,,,,,,,,2015_Jun_23_1355,60.0557272173,LearningTask,1,62,
200,s,-200,,,,0,8,8,2,,,,,,,,,,,,,,,,,,,,,,,,,,,,,,,,,,,,,,,,,,,,,,s,1,None,0,,2.0,lineblue.gif,stop,1.92,0.515282869339,0.000962018966675,0.384811878204,1,s,110.650702,0.384811878204,,,,,,,,,,,,,,,,,,,,,,,,,,,,,,,,,,,,,,,,,,,,,,,,,,,,,,,,,,,,,,,2015_Jun_23_1355,60.0557272173,LearningTask,1,62,
200,w,200,,,,0,9,9,4,,,,,,,,,,,,,,,,,,,,,,,,,,,,,,,,,,,,,,,,,,,,,,w,1,None,0,,0.5,squaregreen.gif,go,0,0.515615940094,0.00129008293152,0.350402832031,1,w,113.654066801,0.350402832031,,,,,,,,,,,,,,,,,,,,,,,,,,,,,,,,,,,,,,,,,,,,,,,,,,,,,,,,,,,,,,,2015_Jun_23_1355,60.0557272173,LearningTask,1,62,
,,,z,0,-200,,,,,,,,,,0,0,0,0,,,,,,,,,,,,,,,,,,,,,,,,,,,,,,,,,,,,,,,,,,,,,,,,,,,,,,,,,,,,182.536314964,stop,lineblue.gif,stop,2.0,z,1,0.383843183517,None,0,0.00128889083862,0.510603904724,0.760942935944,185.534756899,,,,,,,,,,,,,,,,,,,,,,,,,,,,,,,,,,,,,,,,,,2015_Jun_23_1355,60.0557272173,LearningTask,1,62,
,,,z,0,-200,,,,,,,,,,0,1,1,0,,,,,,,,,,,,,,,,,,,,,,,,,,,,,,,,,,,,,,,,,,,,,,,,,,,,,,,,,,,,185.535153866,go,crossyellow.gif,go,2.0,z,1,0.517780065536,None,0,0.00182199478149,0.515207052231,,188.537497997,,,,,,,,,,,,,,,,,,,,,,,,,,,,,,,,,,,,,,,,,,2015_Jun_23_1355,60.0557272173,LearningTask,1,62,
,,,m,0,200,,,,,,,,,,1,0,2,1,,,,,,,,,,,,,,,,,,,,,,,,,,,,,,,,,,,,,,,,,,,,,,,,,,,,,,,,,,,,188.538088799,go,hexagonmagenta.gif,go,1.0,m,1,0.384119033813,None,0,0.00181102752686,0.515667200089,,191.540632963,,,,,,,,,,,,,,,,,,,,,,,,,,,,,,,,,,,,,,,,,,2015_Jun_23_1355,60.0557272173,LearningTask,1,62,
,,,z,0,-200,,,,,,,,,,1,1,3,0,,,,,,,,,,,,,,,,,,,,,,,,,,,,,,,,,,,,,,,,,,,,,,,,,,,,,,,,,,,,191.541001797,go,circlewhite.gif,go,4.0,z,1,0.467970132828,None,0,0.00137209892273,0.516075134277,,194.544338942,,,,,,,,,,,,,,,,,,,,,,,,,,,,,,,,,,,,,,,,,,2015_Jun_23_1355,60.0557272173,LearningTask,1,62,
,,,m,0,200,,,,,,,,,,2,0,4,1,,,,,,,,,,,,,,,,,,,,,,,,,,,,,,,,,,,,,,,,,,,,,,,,,,,,,,,,,,,,194.544766903,go,squaregreen.gif,go,0.5,m,1,0.500338792801,None,0,0.000943899154663,0.515866041183,,197.547648907,,,,,,,,,,,,,,,,,,,,,,,,,,,,,,,,,,,,,,,,,,2015_Jun_23_1355,60.0557272173,LearningTask,1,62,
,,,z,0,-200,,,,,,,,,,2,1,5,0,,,,,,,,,,,,,,,,,,,,,,,,,,,,,,,,,,,,,,,,,,,,,,,,,,,,,,,,,,,,197.548017979,go,squaregreen.gif,go,0.5,z,1,0.634108066559,None,0,0.00101089477539,0.516086816788,,200.551196814,,,,,,,,,,,,,,,,,,,,,,,,,,,,,,,,,,,,,,,,,,2015_Jun_23_1355,60.0557272173,LearningTask,1,62,
,,,m,0,200,,,,,,,,,,3,0,6,1,,,,,,,,,,,,,,,,,,,,,,,,,,,,,,,,,,,,,,,,,,,,,,,,,,,,,,,,,,,,200.551567793,go,crossyellow.gif,go,2.0,m,1,0.400458097458,None,0,0.000975131988525,0.515931129456,,203.554411888,,,,,,,,,,,,,,,,,,,,,,,,,,,,,,,,,,,,,,,,,,2015_Jun_23_1355,60.0557272173,LearningTask,1,62,
,,,m,0,200,,,,,,,,,,3,1,7,1,,,,,,,,,,,,,,,,,,,,,,,,,,,,,,,,,,,,,,,,,,,,,,,,,,,,,,,,,,,,203.554775953,go,squaregreen.gif,go,0.5,m,1,0.48477101326,None,0,0.000947952270508,0.515653133392,,206.557973862,,,,,,,,,,,,,,,,,,,,,,,,,,,,,,,,,,,,,,,,,,2015_Jun_23_1355,60.0557272173,LearningTask,1,62,
,,,m,0,200,,,,,,,,,,4,0,8,1,,,,,,,,,,,,,,,,,,,,,,,,,,,,,,,,,,,,,,,,,,,,,,,,,,,,,,,,,,,,206.558338881,stop,diamondcyan.gif,stop,1.0,m,1,0.400797843933,None,0,0.00109195709229,0.515492916107,0.765722990036,209.560813904,,,,,,,,,,,,,,,,,,,,,,,,,,,,,,,,,,,,,,,,,,2015_Jun_23_1355,60.0557272173,LearningTask,1,62,
,,,z,0,-200,,,,,,,,,,4,1,9,0,,,,,,,,,,,,,,,,,,,,,,,,,,,,,,,,,,,,,,,,,,,,,,,,,,,,,,,,,,,,209.561266899,go,crossyellow.gif,go,2.0,z,1,0.46764588356,None,0,0.000941038131714,0.515991926193,,212.56434989,,,,,,,,,,,,,,,,,,,,,,,,,,,,,,,,,,,,,,,,,,2015_Jun_23_1355,60.0557272173,LearningTask,1,62,
,,,,,,,,,,,,,,,,,,,,,,,,,,,,,,,,,,,,,,,,,,,,,,,,,,,,,,,,,,,,,,,,,,,,,,,,,,,,,,,,,,,,,,,,,,,,9,8.71985507011,,,,,,,,,,,,,,,,,,,,,,,,,,,,,,,,,,,,,,,,2015_Jun_23_1355,60.0557272173,LearningTask,1,62,
,,,,,,,,,,,,,,,,,,,,,,,,,,,,,,,,,,,,,,,,,,,,,,,,,,,,,9,79.6225609779,,,,,,,,,,,,,,,,,,,,,,,,,,,,,,,,,,,,,,,,,,,,,,,,,,,,,,,,,,,,,,,,,,,,,,,,,,,,,,,2015_Jun_23_1355,60.0557272173,LearningTask,1,62,
-200,q,200,,,,,,,,,,,,,,,,,0,0,0,0,0,0,0,1,,,,,,,,,,,,,,,,,,,,,,,,,,,,,q,1,None,0,,4.0,trianglegray.gif,stop,,,,,,,,0.467768907547,,,,,,,,,,,,,,,,,,,,,,,,3.86,0.50821018219,0.000885963439941,0.467768907547,1,q,304.051252842,,,,,,,,,,,,,,,,,,,,,,,,,,,,,,,,,2015_Jun_23_1355,60.0557272173,LearningTask,1,62,
-200,q,200,,,,,,,,,,,,,,,,,0,0,0,0,0,1,1,1,,,,,,,,,,,,,,,,,,,,,,,,,,,,,q,1,None,0,,4.0,circlewhite.gif,go,,,,,,,,0.41775393486,,,,,,,,,,,,,,,,,,,,,,,,3.81,0.513850927353,0.000883817672729,0.41775393486,1,q,307.054116011,,,,,,,,,,,,,,,,,,,,,,,,,,,,,,,,,2015_Jun_23_1355,60.0557272173,LearningTask,1,62,
200,w,200,,,,,,,,,,,,,,,,,0,0,0,0,0,2,2,0,,,,,,,,,,,,,,,,,,,,,,,,,,,,,w,1,None,0,,1.0,hexagonmagenta.gif,go,,,,,,,,0.384152889252,,,,,,,,,,,,,,,,,,,,,,,,1.12,0.514224767685,0.000951766967773,0.384152889252,1,w,310.057446957,,,,,,,,,,,,,,,,,,,,,,,,,,,,,,,,,2015_Jun_23_1355,60.0557272173,LearningTask,1,62,
200,w,200,,,,,,,,,,,,,,,,,0,0,0,0,0,3,3,0,,,,,,,,,,,,,,,,,,,,,,,,,,,,,w,1,None,0,,4.0,circlewhite.gif,go,,,,,,,,0.400460004807,,,,,,,,,,,,,,,,,,,,,,,,4.18,0.514350175858,0.000909090042114,0.400460004807,1,w,313.060830832,,,,,,,,,,,,,,,,,,,,,,,,,,,,,,,,,2015_Jun_23_1355,60.0557272173,LearningTask,1,62,
-200,q,200,,,,,,,,,,,,,,,,,0,0,0,0,1,0,4,1,,,,,,,,,,,,,,,,,,,,,,,,,,,,,q,1,None,0,,4.0,trianglegray.gif,stop,,,,,,,,0.351181983948,,,,,,,,,,,,,,,,,,,,,,,,0,0.514506101608,0.000905990600586,0.351181983948,1,q,316.064247847,,,,,,,,,,,,,,,,,,,,,,,,,,,,,,,,,2015_Jun_23_1355,60.0557272173,LearningTask,1,62,
-200,q,200,,,,,,,,,,,,,,,,,0,0,0,0,1,1,5,1,,,,,,,,,,,,,,,,,,,,,,,,,,,,,q,1,None,0,,1.0,hexagonmagenta.gif,go,,,,,,,,0.350739002228,,,,,,,,,,,,,,,,,,,,,,,,0.91,0.514045000076,0.00094199180603,0.350739002228,1,q,319.067830801,,,,,,,,,,,,,,,,,,,,,,,,,,,,,,,,,2015_Jun_23_1355,60.0557272173,LearningTask,1,62,
200,s,-200,,,,,,,,,,,,,,,,,0,0,0,0,1,2,6,2,,,,,,,,,,,,,,,,,,,,,,,,,,,,,s,1,None,0,,0.5,squaregreen.gif,go,,,,,,,,0.31809091568,,,,,,,,,,,,,,,,,,,,,,,,0.55,0.513756990433,0.000915050506592,0.31809091568,1,s,322.070813894,,,,,,,,,,,,,,,,,,,,,,,,,,,,,,,,,2015_Jun_23_1355,60.0557272173,LearningTask,1,62,
200,w,200,,,,,,,,,,,,,,,,,0,0,0,0,1,3,7,0,,,,,,,,,,,,,,,,,,,,,,,,,,,,,w,1,None,0,,2.0,lineblue.gif,stop,,,,,,,,0.43364906311,,,,,,,,,,,,,,,,,,,,,,,,1.84,0.515059947968,0.00106596946716,0.43364906311,1,w,325.074752808,,,,,,,,,,,,,,,,,,,,,,,,,,,,,,,,,2015_Jun_23_1355,60.0557272173,LearningTask,1,62,
-200,q,200,,,,,,,,,,,,,,,,,0,0,0,0,2,0,8,1,,,,,,,,,,,,,,,,,,,,,,,,,,,,,q,1,None,0,,4.0,trianglegray.gif,stop,,,,,,,,0.417895078659,,,,,,,,,,,,,,,,,,,,,,,,0,0.513772010803,0.00091290473938,0.417895078659,1,q,328.077770948,,,,,,,,,,,,,,,,,,,,,,,,,,,,,,,,,2015_Jun_23_1355,60.0557272173,LearningTask,1,62,
200,w,200,,,,,,,,,,,,,,,,,0,0,0,0,2,1,9,0,,,,,,,,,,,,,,,,,,,,,,,,,,,,,w,1,None,0,,0.5,squaregreen.gif,go,,,,,,,,0.367795944214,,,,,,,,,,,,,,,,,,,,,,,,0.68,0.514101982117,0.000900030136108,0.367795944214,1,w,331.080925941,,,,,,,,,,,,,,,,,,,,,,,,,,,,,,,,,2015_Jun_23_1355,60.0557272173,LearningTask,1,62,
-200,a,-200,,,,,,,,,,,,,,,,,0,0,0,0,2,2,10,3,,,,,,,,,,,,,,,,,,,,,,,,,,,,,a,1,None,0,,2.0,lineblue.gif,stop,,,,,,,,0.350805997849,,,,,,,,,,,,,,,,,,,,,,,,0,0.514543056488,0.00105500221252,0.350805997849,1,a,334.084707975,,,,,,,,,,,,,,,,,,,,,,,,,,,,,,,,,2015_Jun_23_1355,60.0557272173,LearningTask,1,62,
200,w,200,,,,,,,,,,,,,,,,,0,0,0,0,2,3,11,0,,,,,,,,,,,,,,,,,,,,,,,,,,,,,w,1,None,0,,0.5,squaregreen.gif,go,,,,,,,,0.385056972504,,,,,,,,,,,,,,,,,,,,,,,,0.41,0.51363492012,0.00117588043213,0.385056972504,1,w,337.087450981,,,,,,,,,,,,,,,,,,,,,,,,,,,,,,,,,2015_Jun_23_1355,60.0557272173,LearningTask,1,62,
-200,q,200,,,,,,,,,,,,,,,,,0,0,0,0,3,0,12,1,,,,,,,,,,,,,,,,,,,,,,,,,,,,,q,1,None,0,,2.0,crossyellow.gif,go,,,,,,,,0.300799846649,,,,,,,,,,,,,,,,,,,,,,,,0,0.514506816864,0.000919818878174,0.300799846649,1,q,340.090982914,,,,,,,,,,,,,,,,,,,,,,,,,,,,,,,,,2015_Jun_23_1355,60.0557272173,LearningTask,1,62,
-200,q,200,,,,,,,,,,,,,,,,,0,0,0,0,3,1,13,1,,,,,,,,,,,,,,,,,,,,,,,,,,,,,q,1,None,0,,0.5,squaregreen.gif,go,,,,,,,,0.333853006363,,,,,,,,,,,,,,,,,,,,,,,,0,0.514327049255,0.000927925109863,0.333853006363,1,q,343.094432831,,,,,,,,,,,,,,,,,,,,,,,,,,,,,,,,,2015_Jun_23_1355,60.0557272173,LearningTask,1,62,
-200,a,-200,,,,,,,,,,,,,,,,,0,0,0,0,3,2,14,3,,,,,,,,,,,,,,,,,,,,,,,,,,,,,a,1,None,0,,1.0,hexagonmagenta.gif,go,,,,,,,,0.384244918823,,,,,,,,,,,,,,,,,,,,,,,,1.0,0.51423406601,0.000895977020264,0.384244918823,1,a,346.097656965,,,,,,,,,,,,,,,,,,,,,,,,,,,,,,,,,2015_Jun_23_1355,60.0557272173,LearningTask,1,62,
200,w,200,,,,,,,,,,,,,,,,,0,0,0,0,3,3,15,0,,,,,,,,,,,,,,,,,,,,,,,,,,,,,w,1,None,0,,2.0,crossyellow.gif,go,,,,,,,,0.301060914993,,,,,,,,,,,,,,,,,,,,,,,,1.92,0.514410972595,0.00104904174805,0.301060914993,1,w,349.101134777,,,,,,,,,,,,,,,,,,,,,,,,,,,,,,,,,2015_Jun_23_1355,60.0557272173,LearningTask,1,62,
-200,a,-200,,,,,,,,,,,,,,,,,0,0,0,0,4,0,16,3,,,,,,,,,,,,,,,,,,,,,,,,,,,,,a,1,None,0,,1.0,hexagonmagenta.gif,go,,,,,,,,0.350811004639,,,,,,,,,,,,,,,,,,,,,,,,1.21,0.514031171799,0.000910043716431,0.350811004639,1,a,352.104508877,,,,,,,,,,,,,,,,,,,,,,,,,,,,,,,,,2015_Jun_23_1355,60.0557272173,LearningTask,1,62,
200,s,-200,,,,,,,,,,,,,,,,,0,0,0,0,4,1,17,2,,,,,,,,,,,,,,,,,,,,,,,,,,,,,s,1,None,0,,1.0,hexagonmagenta.gif,go,,,,,,,,0.40109205246,,,,,,,,,,,,,,,,,,,,,,,,0,0.514307022095,0.000907897949219,0.40109205246,1,s,355.107759953,,,,,,,,,,,,,,,,,,,,,,,,,,,,,,,,,2015_Jun_23_1355,60.0557272173,LearningTask,1,62,
200,w,200,,,,,,,,,,,,,,,,,0,0,0,0,4,2,18,0,,,,,,,,,,,,,,,,,,,,,,,,,,,,,w,1,None,0,,1.0,diamondcyan.gif,stop,,,,,,,,0.400806903839,,,,,,,,,,,,,,,,,,,,,,,,1.04,0.514277935028,0.00095009803772,0.400806903839,1,w,358.111383915,,,,,,,,,,,,,,,,,,,,,,,,,,,,,,,,,2015_Jun_23_1355,60.0557272173,LearningTask,1,62,
-200,q,200,,,,,,,,,,,,,,,,,0,0,0,0,4,3,19,1,,,,,,,,,,,,,,,,,,,,,,,,,,,,,q,1,None,0,,1.0,diamondcyan.gif,stop,,,,,,,,0.317353963852,,,,,,,,,,,,,,,,,,,,,,,,1.15,0.513839006424,0.00100588798523,0.317353963852,1,q,361.114565849,,,,,,,,,,,,,,,,,,,,,,,,,,,,,,,,,2015_Jun_23_1355,60.0557272173,LearningTask,1,62,
200,s,-200,,,,,,,,,,,,,,,,,0,0,0,0,5,0,20,2,,,,,,,,,,,,,,,,,,,,,,,,,,,,,s,1,None,0,,0.5,invertedtriangleorange.gif,stop,,,,,,,,0.334238052368,,,,,,,,,,,,,,,,,,,,,,,,0.26,0.514060974121,0.000901937484741,0.334238052368,1,s,364.117833853,,,,,,,,,,,,,,,,,,,,,,,,,,,,,,,,,2015_Jun_23_1355,60.0557272173,LearningTask,1,62,
200,s,-200,,,,,,,,,,,,,,,,,0,0,0,0,5,1,21,2,,,,,,,,,,,,,,,,,,,,,,,,,,,,,s,1,None,0,,0.5,squaregreen.gif,go,,,,,,,,0.333842992783,,,,,,,,,,,,,,,,,,,,,,,,0.48,0.514273881912,0.000902891159058,0.333842992783,1,s,367.121379852,,,,,,,,,,,,,,,,,,,,,,,,,,,,,,,,,2015_Jun_23_1355,60.0557272173,LearningTask,1,62,
-200,a,-200,,,,,,,,,,,,,,,,,0,0,0,0,5,2,22,3,,,,,,,,,,,,,,,,,,,,,,,,,,,,,a,1,None,0,,1.0,hexagonmagenta.gif,go,,,,,,,,0.35108590126,,,,,,,,,,,,,,,,,,,,,,,,0.95,0.514167070389,0.000894069671631,0.35108590126,1,a,370.124550819,,,,,,,,,,,,,,,,,,,,,,,,,,,,,,,,,2015_Jun_23_1355,60.0557272173,LearningTask,1,62,
-200,a,-200,,,,,,,,,,,,,,,,,0,0,0,0,5,3,23,3,,,,,,,,,,,,,,,,,,,,,,,,,,,,,a,1,None,0,,2.0,crossyellow.gif,go,,,,,,,,0.317951917648,,,,,,,,,,,,,,,,,,,,,,,,2.07,0.514333963394,0.000900983810425,0.317951917648,1,a,373.128358841,,,,,,,,,,,,,,,,,,,,,,,,,,,,,,,,,2015_Jun_23_1355,60.0557272173,LearningTask,1,62,
200,s,-200,,,,,,,,,,,,,,,,,0,0,0,0,6,0,24,2,,,,,,,,,,,,,,,,,,,,,,,,,,,,,s,1,None,0,,2.0,lineblue.gif,stop,,,,,,,,0.317371845245,,,,,,,,,,,,,,,,,,,,,,,,2.06,0.513864040375,0.000937938690186,0.317371845245,1,s,376.131455898,,,,,,,,,,,,,,,,,,,,,,,,,,,,,,,,,2015_Jun_23_1355,60.0557272173,LearningTask,1,62,
200,w,200,,,,,,,,,,,,,,,,,0,0,0,0,6,1,25,0,,,,,,,,,,,,,,,,,,,,,,,,,,,,,w,1,None,0,,0.5,invertedtriangleorange.gif,stop,,,,,,,,0.317704916,,,,,,,,,,,,,,,,,,,,,,,,0.65,0.514163970947,0.000893831253052,0.317704916,1,w,379.1346488,,,,,,,,,,,,,,,,,,,,,,,,,,,,,,,,,2015_Jun_23_1355,60.0557272173,LearningTask,1,62,
-200,q,200,,,,,,,,,,,,,,,,,0,0,0,0,6,2,26,1,,,,,,,,,,,,,,,,,,,,,,,,,,,,,q,1,None,0,,4.0,circlewhite.gif,go,,,,,,,,0.351076126099,,,,,,,,,,,,,,,,,,,,,,,,4.0,0.514189004898,0.000960826873779,0.351076126099,1,q,382.138392925,,,,,,,,,,,,,,,,,,,,,,,,,,,,,,,,,2015_Jun_23_1355,60.0557272173,LearningTask,1,62,
200,w,200,,,,,,,,,,,,,,,,,0,0,0,0,6,3,27,0,,,,,,,,,,,,,,,,,,,,,,,,,,,,,w,1,None,0,,0.5,invertedtriangleorange.gif,stop,,,,,,,,0.450945854187,,,,,,,,,,,,,,,,,,,,,,,,0.7,0.51379108429,0.000976085662842,0.450945854187,1,w,385.141300917,,,,,,,,,,,,,,,,,,,,,,,,,,,,,,,,,2015_Jun_23_1355,60.0557272173,LearningTask,1,62,
-200,q,200,,,,,,,,,,,,,,,,,0,0,0,0,7,0,28,1,,,,,,,,,,,,,,,,,,,,,,,,,,,,,q,1,None,0,,1.0,hexagonmagenta.gif,go,,,,,,,,0.400848150253,,,,,,,,,,,,,,,,,,,,,,,,1.13,0.51441693306,0.000913858413696,0.400848150253,1,q,388.144549847,,,,,,,,,,,,,,,,,,,,,,,,,,,,,,,,,2015_Jun_23_1355,60.0557272173,LearningTask,1,62,
-200,q,200,,,,,,,,,,,,,,,,,0,0,0,0,7,1,29,1,,,,,,,,,,,,,,,,,,,,,,,,,,,,,q,1,None,0,,0.5,squaregreen.gif,go,,,,,,,,0.350979089737,,,,,,,,,,,,,,,,,,,,,,,,0.41,0.514511108398,0.000947952270508,0.350979089737,1,q,391.148187876,,,,,,,,,,,,,,,,,,,,,,,,,,,,,,,,,2015_Jun_23_1355,60.0557272173,LearningTask,1,62,
-200,a,-200,,,,,,,,,,,,,,,,,0,0,0,0,7,2,30,3,,,,,,,,,,,,,,,,,,,,,,,,,,,,,a,1,None,0,,0.5,invertedtriangleorange.gif,stop,,,,,,,,0.333889007568,,,,,,,,,,,,,,,,,,,,,,,,0.55,0.514409065247,0.000900030136108,0.333889007568,1,a,394.15137887,,,,,,,,,,,,,,,,,,,,,,,,,,,,,,,,,2015_Jun_23_1355,60.0557272173,LearningTask,1,62,
-200,a,-200,,,,,,,,,,,,,,,,,0,0,0,0,7,3,31,3,,,,,,,,,,,,,,,,,,,,,,,,,,,,,a,1,None,0,,0.5,squaregreen.gif,go,,,,,,,,0.400166988373,,,,,,,,,,,,,,,,,,,,,,,,0.34,0.514597892761,0.00110292434692,0.400166988373,1,a,397.15481782,,,,,,,,,,,,,,,,,,,,,,,,,,,,,,,,,2015_Jun_23_1355,60.0557272173,LearningTask,1,62,
200,w,200,,,,,,,,,,,,,,,,,0,0,0,0,8,0,32,0,,,,,,,,,,,,,,,,,,,,,,,,,,,,,w,1,None,0,,1.0,diamondcyan.gif,stop,,,,,,,,0.467973947525,,,,,,,,,,,,,,,,,,,,,,,,0.8,0.513920068741,0.001384973526,0.467973947525,1,w,400.157956839,,,,,,,,,,,,,,,,,,,,,,,,,,,,,,,,,2015_Jun_23_1355,60.0557272173,LearningTask,1,62,
200,s,-200,,,,,,,,,,,,,,,,,0,0,0,0,8,1,33,2,,,,,,,,,,,,,,,,,,,,,,,,,,,,,s,1,None,0,,4.0,circlewhite.gif,go,,,,,,,,0.384316921234,,,,,,,,,,,,,,,,,,,,,,,,0,0.514365911484,0.00090479850769,0.384316921234,1,s,403.161747932,,,,,,,,,,,,,,,,,,,,,,,,,,,,,,,,,2015_Jun_23_1355,60.0557272173,LearningTask,1,62,
-200,q,200,,,,,,,,,,,,,,,,,0,0,0,0,8,2,34,1,,,,,,,,,,,,,,,,,,,,,,,,,,,,,q,1,None,0,,4.0,trianglegray.gif,stop,,,,,,,,0.334086894989,,,,,,,,,,,,,,,,,,,,,,,,4.14,0.513844966888,0.000968933105469,0.334086894989,1,q,406.164925814,,,,,,,,,,,,,,,,,,,,,,,,,,,,,,,,,2015_Jun_23_1355,60.0557272173,LearningTask,1,62,
200,s,-200,,,,,,,,,,,,,,,,,0,0,0,0,8,3,35,2,,,,,,,,,,,,,,,,,,,,,,,,,,,,,s,1,None,0,,2.0,crossyellow.gif,go,,,,,,,,0.334563970566,,,,,,,,,,,,,,,,,,,,,,,,2.16,0.513836860657,0.000893831253052,0.334563970566,1,s,409.168262005,,,,,,,,,,,,,,,,,,,,,,,,,,,,,,,,,2015_Jun_23_1355,60.0557272173,LearningTask,1,62,
200,w,200,,,,,,,,,,,,,,,,,0,0,0,0,9,0,36,0,,,,,,,,,,,,,,,,,,,,,,,,,,,,,w,1,None,0,,0.5,invertedtriangleorange.gif,stop,,,,,,,,0.451240062714,,,,,,,,,,,,,,,,,,,,,,,,0.33,0.514250993729,0.000897884368896,0.451240062714,1,w,412.171614885,,,,,,,,,,,,,,,,,,,,,,,,,,,,,,,,,2015_Jun_23_1355,60.0557272173,LearningTask,1,62,
-200,a,-200,,,,,,,,,,,,,,,,,0,0,0,0,9,1,37,3,,,,,,,,,,,,,,,,,,,,,,,,,,,,,a,1,None,0,,0.5,squaregreen.gif,go,,,,,,,,0.350732803345,,,,,,,,,,,,,,,,,,,,,,,,0.62,0.51395201683,0.00091290473938,0.350732803345,1,a,415.17493701,,,,,,,,,,,,,,,,,,,,,,,,,,,,,,,,,2015_Jun_23_1355,60.0557272173,LearningTask,1,62,
200,s,-200,,,,,,,,,,,,,,,,,0,0,0,0,9,2,38,2,,,,,,,,,,,,,,,,,,,,,,,,,,,,,s,1,None,0,,1.0,diamondcyan.gif,stop,,,,,,,,0.401352882385,,,,,,,,,,,,,,,,,,,,,,,,0,0.514073133469,0.000908136367798,0.468013048172,0,w,418.178128958,0,0.515693902969,0.000971078872681,0.401352882385,1,s,421.182190895,,,,,,,,,,,,,,,,,,,,,,,,,,2015_Jun_23_1355,60.0557272173,LearningTask,1,62,
200,s,-200,,,,,,,,,,,,,,,,,0,0,0,0,9,3,39,2,,,,,,,,,,,,,,,,,,,,,,,,,,,,,s,1,None,0,,0.5,squaregreen.gif,go,,,,,,,,0.350667953491,,,,,,,,,,,,,,,,,,,,,,,,0.48,0.513414859772,0.000916957855225,0.350667953491,1,s,424.185137987,,,,,,,,,,,,,,,,,,,,,,,,,,,,,,,,,2015_Jun_23_1355,60.0557272173,LearningTask,1,62,
-200,q,200,,,,,,,,,,,,,,,,,0,0,0,0,10,0,40,1,,,,,,,,,,,,,,,,,,,,,,,,,,,,,q,1,None,0,,0.5,invertedtriangleorange.gif,stop,,,,,,,,0.417175769806,,,,,,,,,,,,,,,,,,,,,,,,0.33,0.51403093338,0.000890016555786,0.417175769806,1,q,427.188325882,,,,,,,,,,,,,,,,,,,,,,,,,,,,,,,,,2015_Jun_23_1355,60.0557272173,LearningTask,1,62,
-200,a,-200,,,,,,,,,,,,,,,,,0,0,0,0,10,1,41,3,,,,,,,,,,,,,,,,,,,,,,,,,,,,,a,1,None,0,,1.0,hexagonmagenta.gif,go,,,,,,,,0.351007938385,,,,,,,,,,,,,,,,,,,,,,,,1.18,0.514319896698,0.000920057296753,0.351007938385,1,a,430.192273855,,,,,,,,,,,,,,,,,,,,,,,,,,,,,,,,,2015_Jun_23_1355,60.0557272173,LearningTask,1,62,
200,w,200,,,,,,,,,,,,,,,,,0,0,0,0,10,2,42,0,,,,,,,,,,,,,,,,,,,,,,,,,,,,,w,1,None,0,,0.5,squaregreen.gif,go,,,,,,,,0.384227991104,,,,,,,,,,,,,,,,,,,,,,,,0.59,0.51363992691,0.000901937484741,0.384227991104,1,w,433.194947004,,,,,,,,,,,,,,,,,,,,,,,,,,,,,,,,,2015_Jun_23_1355,60.0557272173,LearningTask,1,62,
-200,q,200,,,,,,,,,,,,,,,,,0,0,0,0,10,3,43,1,,,,,,,,,,,,,,,,,,,,,,,,,,,,,q,1,None,0,,1.0,hexagonmagenta.gif,go,,,,,,,,0.350877046585,,,,,,,,,,,,,,,,,,,,,,,,1.1,0.514401912689,0.000898838043213,0.350877046585,1,q,436.198418856,,,,,,,,,,,,,,,,,,,,,,,,,,,,,,,,,2015_Jun_23_1355,60.0557272173,LearningTask,1,62,
200,w,200,,,,,,,,,,,,,,,,,0,0,0,0,11,0,44,0,,,,,,,,,,,,,,,,,,,,,,,,,,,,,w,1,None,0,,1.0,diamondcyan.gif,stop,,,,,,,,0.434034824371,,,,,,,,,,,,,,,,,,,,,,,,0,0.51432800293,0.000946044921875,0.434034824371,1,w,439.20181489,,,,,,,,,,,,,,,,,,,,,,,,,,,,,,,,,2015_Jun_23_1355,60.0557272173,LearningTask,1,62,
200,s,-200,,,,,,,,,,,,,,,,,0,0,0,0,11,1,45,2,,,,,,,,,,,,,,,,,,,,,,,,,,,,,s,1,None,0,,1.0,hexagonmagenta.gif,go,,,,,,,,0.367972135544,,,,,,,,,,,,,,,,,,,,,,,,0.87,0.514288902283,0.00116300582886,0.367972135544,1,s,442.205077887,,,,,,,,,,,,,,,,,,,,,,,,,,,,,,,,,2015_Jun_23_1355,60.0557272173,LearningTask,1,62,
200,w,200,,,,,,,,,,,,,,,,,0,0,0,0,11,2,46,0,,,,,,,,,,,,,,,,,,,,,,,,,,,,,w,1,None,0,,0.5,invertedtriangleorange.gif,stop,,,,,,,,0.467161893845,,,,,,,,,,,,,,,,,,,,,,,,0,0.514593839645,0.0010769367218,0.467161893845,1,w,445.208279848,,,,,,,,,,,,,,,,,,,,,,,,,,,,,,,,,2015_Jun_23_1355,60.0557272173,LearningTask,1,62,
-200,q,200,,,,,,,,,,,,,,,,,0,0,0,0,11,3,47,1,,,,,,,,,,,,,,,,,,,,,,,,,,,,,q,1,None,0,,4.0,circlewhite.gif,go,,,,,,,,0.351049900055,,,,,,,,,,,,,,,,,,,,,,,,0,0.514225959778,0.000988006591797,0.351049900055,1,q,448.211753845,,,,,,,,,,,,,,,,,,,,,,,,,,,,,,,,,2015_Jun_23_1355,60.0557272173,LearningTask,1,62,
-200,a,-200,,,,,,,,,,,,,,,,,0,0,0,0,12,0,48,3,,,,,,,,,,,,,,,,,,,,,,,,,,,,,a,1,None,0,,2.0,crossyellow.gif,go,,,,,,,,0.283872842789,,,,,,,,,,,,,,,,,,,,,,,,1.97,0.514484882355,0.000940084457397,0.283872842789,1,a,451.215004921,,,,,,,,,,,,,,,,,,,,,,,,,,,,,,,,,2015_Jun_23_1355,60.0557272173,LearningTask,1,62,
-200,q,200,,,,,,,,,,,,,,,,,0,0,0,0,12,1,49,1,,,,,,,,,,,,,,,,,,,,,,,,,,,,,q,1,None,0,,4.0,circlewhite.gif,go,,,,,,,,0.401011943817,,,,,,,,,,,,,,,,,,,,,,,,0,0.51415514946,0.00105810165405,0.401011943817,1,q,454.218603849,,,,,,,,,,,,,,,,,,,,,,,,,,,,,,,,,2015_Jun_23_1355,60.0557272173,LearningTask,1,62,
-200,a,-200,,,,,,,,,,,,,,,,,0,0,0,0,12,2,50,3,,,,,,,,,,,,,,,,,,,,,,,,,,,,,a,1,None,0,,0.5,squaregreen.gif,go,,,,,,,,0.417449951172,,,,,,,,,,,,,,,,,,,,,,,,0.54,0.514245033264,0.000910043716431,0.417449951172,1,a,457.222030878,,,,,,,,,,,,,,,,,,,,,,,,,,,,,,,,,2015_Jun_23_1355,60.0557272173,LearningTask,1,62,
200,w,200,,,,,,,,,,,,,,,,,0,0,0,0,12,3,51,0,,,,,,,,,,,,,,,,,,,,,,,,,,,,,w,1,None,0,,2.0,lineblue.gif,stop,,,,,,,,0.400500059128,,,,,,,,,,,,,,,,,,,,,,,,1.87,0.514287948608,0.000911951065063,0.400500059128,1,w,460.225381851,,,,,,,,,,,,,,,,,,,,,,,,,,,,,,,,,2015_Jun_23_1355,60.0557272173,LearningTask,1,62,
-200,q,200,,,,,,,,,,,,,,,,,0,0,0,0,13,0,52,1,,,,,,,,,,,,,,,,,,,,,,,,,,,,,q,1,None,0,,4.0,trianglegray.gif,stop,,,,,,,,0.434138774872,,,,,,,,,,,,,,,,,,,,,,,,4.2,0.51406788826,0.000944852828979,0.434138774872,1,q,463.228757858,,,,,,,,,,,,,,,,,,,,,,,,,,,,,,,,,2015_Jun_23_1355,60.0557272173,LearningTask,1,62,
200,s,-200,,,,,,,,,,,,,,,,,0,0,0,0,13,1,53,2,,,,,,,,,,,,,,,,,,,,,,,,,,,,,s,1,None,0,,4.0,circlewhite.gif,go,,,,,,,,0.367464065552,,,,,,,,,,,,,,,,,,,,,,,,4.09,0.514244794846,0.000901937484741,0.367464065552,1,s,466.231786966,,,,,,,,,,,,,,,,,,,,,,,,,,,,,,,,,2015_Jun_23_1355,60.0557272173,LearningTask,1,62,
200,s,-200,,,,,,,,,,,,,,,,,0,0,0,0,13,2,54,2,,,,,,,,,,,,,,,,,,,,,,,,,,,,,s,1,None,0,,2.0,lineblue.gif,stop,,,,,,,,0.534691095352,,,,,,,,,,,,,,,,,,,,,,,,1.8,0.51459813118,0.000891208648682,0.534691095352,1,s,469.236013889,,,,,,,,,,,,,,,,,,,,,,,,,,,,,,,,,2015_Jun_23_1355,60.0557272173,LearningTask,1,62,
200,w,200,,,,,,,,,,,,,,,,,0,0,0,0,13,3,55,0,,,,,,,,,,,,,,,,,,,,,,,,,,,,,w,1,None,0,,0.5,squaregreen.gif,go,,,,,,,,0.501228094101,,,,,,,,,,,,,,,,,,,,,,,,0.57,0.513550043106,0.000895023345947,0.501228094101,1,w,472.239008904,,,,,,,,,,,,,,,,,,,,,,,,,,,,,,,,,2015_Jun_23_1355,60.0557272173,LearningTask,1,62,
200,s,-200,,,,,,,,,,,,,,,,,0,0,0,0,14,0,56,2,,,,,,,,,,,,,,,,,,,,,,,,,,,,,s,1,None,0,,0.5,invertedtriangleorange.gif,stop,,,,,,,,0.38423705101,,,,,,,,,,,,,,,,,,,,,,,,0.31,0.513974189758,0.000907182693481,0.38423705101,1,s,475.241966963,,,,,,,,,,,,,,,,,,,,,,,,,,,,,,,,,2015_Jun_23_1355,60.0557272173,LearningTask,1,62,
200,w,200,,,,,,,,,,,,,,,,,0,0,0,0,14,1,57,0,,,,,,,,,,,,,,,,,,,,,,,,,,,,,w,1,None,0,,2.0,crossyellow.gif,go,,,,,,,,0.40044593811,,,,,,,,,,,,,,,,,,,,,,,,1.91,0.514689922333,0.00100302696228,0.40044593811,1,w,478.245724916,,,,,,,,,,,,,,,,,,,,,,,,,,,,,,,,,2015_Jun_23_1355,60.0557272173,LearningTask,1,62,
-200,a,-200,,,,,,,,,,,,,,,,,0,0,0,0,14,2,58,3,,,,,,,,,,,,,,,,,,,,,,,,,,,,,a,1,None,0,,2.0,lineblue.gif,stop,,,,,,,,0.367403030396,,,,,,,,,,,,,,,,,,,,,,,,0,0.513654947281,0.000923871994019,0.367403030396,1,a,481.248758793,,,,,,,,,,,,,,,,,,,,,,,,,,,,,,,,,2015_Jun_23_1355,60.0557272173,LearningTask,1,62,
-200,a,-200,,,,,,,,,,,,,,,,,0,0,0,0,14,3,59,3,,,,,,,,,,,,,,,,,,,,,,,,,,,,,a,1,None,0,,1.0,hexagonmagenta.gif,go,,,,,,,,0.367906093597,,,,,,,,,,,,,,,,,,,,,,,,0,0.514297962189,0.000907897949219,0.367906093597,1,a,484.2519629,,,,,,,,,,,,,,,,,,,,,,,,,,,,,,,,,2015_Jun_23_1355,60.0557272173,LearningTask,1,62,
-200,q,200,,,,,,,,,,,,,,,,,0,0,0,0,15,0,60,1,,,,,,,,,,,,,,,,,,,,,,,,,,,,,q,1,None,0,,1.0,hexagonmagenta.gif,go,,,,,,,,0.367082118988,,,,,,,,,,,,,,,,,,,,,,,,1.22,0.514514923096,0.00102782249451,0.367082118988,1,q,487.255579948,,,,,,,,,,,,,,,,,,,,,,,,,,,,,,,,,2015_Jun_23_1355,60.0557272173,LearningTask,1,62,
-200,a,-200,,,,,,,,,,,,,,,,,0,0,0,0,15,1,61,3,,,,,,,,,,,,,,,,,,,,,,,,,,,,,a,1,None,0,,2.0,crossyellow.gif,go,,,,,,,,0.434164047241,,,,,,,,,,,,,,,,,,,,,,,,1.81,0.514201164246,0.000910043716431,0.434164047241,1,a,490.258788824,,,,,,,,,,,,,,,,,,,,,,,,,,,,,,,,,2015_Jun_23_1355,60.0557272173,LearningTask,1,62,
-200,q,200,,,,,,,,,,,,,,,,,0,0,0,0,15,2,62,1,,,,,,,,,,,,,,,,,,,,,,,,,,,,,q,1,None,0,,0.5,squaregreen.gif,go,,,,,,,,0.38408613205,,,,,,,,,,,,,,,,,,,,,,,,0,0.51439499855,0.00125789642334,0.38408613205,1,q,493.26223588,,,,,,,,,,,,,,,,,,,,,,,,,,,,,,,,,2015_Jun_23_1355,60.0557272173,LearningTask,1,62,
200,s,-200,,,,,,,,,,,,,,,,,0,0,0,0,15,3,63,2,,,,,,,,,,,,,,,,,,,,,,,,,,,,,s,1,None,0,,2.0,crossyellow.gif,go,,,,,,,,0.318174123764,,,,,,,,,,,,,,,,,,,,,,,,0,0.513978004456,0.000902891159058,0.318174123764,1,s,496.265332937,,,,,,,,,,,,,,,,,,,,,,,,,,,,,,,,,2015_Jun_23_1355,60.0557272173,LearningTask,1,62,
-200,a,-200,,,,,,,,,,,,,,,,,0,0,0,0,16,0,64,3,,,,,,,,,,,,,,,,,,,,,,,,,,,,,a,1,None,0,,4.0,trianglegray.gif,stop,,,,,,,,0.333925008774,,,,,,,,,,,,,,,,,,,,,,,,4.07,0.514986038208,0.000946998596191,0.333925008774,1,a,499.268826962,,,,,,,,,,,,,,,,,,,,,,,,,,,,,,,,,2015_Jun_23_1355,60.0557272173,LearningTask,1,62,
200,s,-200,,,,,,,,,,,,,,,,,0,0,0,0,16,1,65,2,,,,,,,,,,,,,,,,,,,,,,,,,,,,,s,1,None,0,,1.0,diamondcyan.gif,stop,,,,,,,,0.367687940598,,,,,,,,,,,,,,,,,,,,,,,,0.92,0.514156103134,0.000947952270508,0.367687940598,1,s,502.272472858,,,,,,,,,,,,,,,,,,,,,,,,,,,,,,,,,2015_Jun_23_1355,60.0557272173,LearningTask,1,62,
200,w,200,,,,,,,,,,,,,,,,,0,0,0,0,16,2,66,0,,,,,,,,,,,,,,,,,,,,,,,,,,,,,w,1,None,0,,0.5,squaregreen.gif,go,,,,,,,,0.334270000458,,,,,,,,,,,,,,,,,,,,,,,,0.58,0.514039993286,0.000890016555786,0.334270000458,1,w,505.275710821,,,,,,,,,,,,,,,,,,,,,,,,,,,,,,,,,2015_Jun_23_1355,60.0557272173,LearningTask,1,62,
200,w,200,,,,,,,,,,,,,,,,,0,0,0,0,16,3,67,0,,,,,,,,,,,,,,,,,,,,,,,,,,,,,w,1,None,0,,2.0,crossyellow.gif,go,,,,,,,,0.400532960892,,,,,,,,,,,,,,,,,,,,,,,,0,0.514361858368,0.000890970230103,0.350826978683,0,s,508.279422998,2.02,0.515122890472,0.000999927520752,0.400532960892,1,w,511.282367945,,,,,,,,,,,,,,,,,,,,,,,,,,2015_Jun_23_1355,60.0557272173,LearningTask,1,62,
-200,a,-200,,,,,,,,,,,,,,,,,0,0,0,0,17,0,68,3,,,,,,,,,,,,,,,,,,,,,,,,,,,,,a,1,None,0,,1.0,hexagonmagenta.gif,go,,,,,,,,0.45107793808,,,,,,,,,,,,,,,,,,,,,,,,0,0.514479160309,0.000904083251953,0.45107793808,1,a,514.28589201,,,,,,,,,,,,,,,,,,,,,,,,,,,,,,,,,2015_Jun_23_1355,60.0557272173,LearningTask,1,62,
-200,a,-200,,,,,,,,,,,,,,,,,0,0,0,0,17,1,69,3,,,,,,,,,,,,,,,,,,,,,,,,,,,,,a,1,None,0,,1.0,hexagonmagenta.gif,go,,,,,,,,0.467418909073,,,,,,,,,,,,,,,,,,,,,,,,0.76,0.514084100723,0.000890970230103,0.467418909073,1,a,517.289280891,,,,,,,,,,,,,,,,,,,,,,,,,,,,,,,,,2015_Jun_23_1355,60.0557272173,LearningTask,1,62,
-200,q,200,,,,,,,,,,,,,,,,,0,0,0,0,17,2,70,1,,,,,,,,,,,,,,,,,,,,,,,,,,,,,q,1,None,0,,0.5,squaregreen.gif,go,,,,,,,,0.401204824448,,,,,,,,,,,,,,,,,,,,,,,,0.3,0.513686180115,0.000905990600586,0.401204824448,1,q,520.292638779,,,,,,,,,,,,,,,,,,,,,,,,,,,,,,,,,2015_Jun_23_1355,60.0557272173,LearningTask,1,62,
200,s,-200,,,,,,,,,,,,,,,,,0,0,0,0,17,3,71,2,,,,,,,,,,,,,,,,,,,,,,,,,,,,,s,1,None,0,,0.5,squaregreen.gif,go,,,,,,,,0.367434978485,,,,,,,,,,,,,,,,,,,,,,,,0,0.513911008835,0.000929117202759,0.367434978485,1,s,523.295806885,,,,,,,,,,,,,,,,,,,,,,,,,,,,,,,,,2015_Jun_23_1355,60.0557272173,LearningTask,1,62,
200,w,200,,,,,,,,,,,,,,,,,0,0,0,0,18,0,72,0,,,,,,,,,,,,,,,,,,,,,,,,,,,,,w,1,None,0,,4.0,trianglegray.gif,stop,,,,,,,,0.384194135666,,,,,,,,,,,,,,,,,,,,,,,,0,0.51429605484,0.000957012176514,0.384194135666,1,w,526.299198866,,,,,,,,,,,,,,,,,,,,,,,,,,,,,,,,,2015_Jun_23_1355,60.0557272173,LearningTask,1,62,
200,s,-200,,,,,,,,,,,,,,,,,0,0,0,0,18,1,73,2,,,,,,,,,,,,,,,,,,,,,,,,,,,,,s,1,None,0,,0.5,invertedtriangleorange.gif,stop,,,,,,,,0.417462110519,,,,,,,,,,,,,,,,,,,,,,,,0.41,0.514167070389,0.000895977020264,0.417462110519,1,s,529.302491903,,,,,,,,,,,,,,,,,,,,,,,,,,,,,,,,,2015_Jun_23_1355,60.0557272173,LearningTask,1,62,
-200,q,200,,,,,,,,,,,,,,,,,0,0,0,0,18,2,74,1,,,,,,,,,,,,,,,,,,,,,,,,,,,,,q,1,None,0,,4.0,trianglegray.gif,stop,,,,,,,,0.368217945099,,,,,,,,,,,,,,,,,,,,,,,,3.84,0.514293909073,0.000901937484741,0.368217945099,1,q,532.305777788,,,,,,,,,,,,,,,,,,,,,,,,,,,,,,,,,2015_Jun_23_1355,60.0557272173,LearningTask,1,62,
200,w,200,,,,,,,,,,,,,,,,,0,0,0,0,18,3,75,0,,,,,,,,,,,,,,,,,,,,,,,,,,,,,w,1,None,0,,0.5,invertedtriangleorange.gif,stop,,,,,,,,0.517546892166,,,,,,,,,,,,,,,,,,,,,,,,0.6,0.514284849167,0.000969886779785,0.517546892166,1,w,535.309248924,,,,,,,,,,,,,,,,,,,,,,,,,,,,,,,,,2015_Jun_23_1355,60.0557272173,LearningTask,1,62,
-200,a,-200,,,,,,,,,,,,,,,,,0,0,0,0,19,0,76,3,,,,,,,,,,,,,,,,,,,,,,,,,,,,,a,1,None,0,,1.0,hexagonmagenta.gif,go,,,,,,,,0.350743055344,,,,,,,,,,,,,,,,,,,,,,,,0,0.514245033264,0.000904083251953,0.350743055344,1,a,538.31256485,,,,,,,,,,,,,,,,,,,,,,,,,,,,,,,,,2015_Jun_23_1355,60.0557272173,LearningTask,1,62,
200,s,-200,,,,,,,,,,,,,,,,,0,0,0,0,19,1,77,2,,,,,,,,,,,,,,,,,,,,,,,,,,,,,s,1,None,0,,2.0,lineblue.gif,stop,,,,,,,,0.3343770504,,,,,,,,,,,,,,,,,,,,,,,,1.9,0.514008045197,0.00117683410645,0.3343770504,1,s,541.31594491,,,,,,,,,,,,,,,,,,,,,,,,,,,,,,,,,2015_Jun_23_1355,60.0557272173,LearningTask,1,62,
-200,a,-200,,,,,,,,,,,,,,,,,0,0,0,0,19,2,78,3,,,,,,,,,,,,,,,,,,,,,,,,,,,,,a,1,None,0,,1.0,diamondcyan.gif,stop,,,,,,,,0.367881059647,,,,,,,,,,,,,,,,,,,,,,,,0.78,0.513999938965,0.000910997390747,0.367881059647,1,a,544.31911993,,,,,,,,,,,,,,,,,,,,,,,,,,,,,,,,,2015_Jun_23_1355,60.0557272173,LearningTask,1,62,
-200,a,-200,,,,,,,,,,,,,,,,,0,0,0,0,19,3,79,3,,,,,,,,,,,,,,,,,,,,,,,,,,,,,a,1,None,0,,2.0,lineblue.gif,stop,,,,,,,,0.367771148682,,,,,,,,,,,,,,,,,,,,,,,,1.96,0.514492034912,0.000913143157959,0.367771148682,1,a,547.322525978,,,,,,,,,,,,,,,,,,,,,,,,,,,,,,,,,2015_Jun_23_1355,60.0557272173,LearningTask,1,62,
-200,q,200,,,,,,,,,,,,,,,,,0,0,0,0,20,0,80,1,,,,,,,,,,,,,,,,,,,,,,,,,,,,,q,1,None,0,,0.5,invertedtriangleorange.gif,stop,,,,,,,,0.434960126877,,,,,,,,,,,,,,,,,,,,,,,,0.61,0.514266967773,0.000962972640991,0.434960126877,1,q,550.32612586,,,,,,,,,,,,,,,,,,,,,,,,,,,,,,,,,2015_Jun_23_1355,60.0557272173,LearningTask,1,62,
-200,a,-200,,,,,,,,,,,,,,,,,0,0,0,0,20,1,81,3,,,,,,,,,,,,,,,,,,,,,,,,,,,,,a,1,None,0,,4.0,circlewhite.gif,go,,,,,,,,0.350275993347,,,,,,,,,,,,,,,,,,,,,,,,4.15,0.51421713829,0.00090503692627,0.350275993347,1,a,553.329188824,,,,,,,,,,,,,,,,,,,,,,,,,,,,,,,,,2015_Jun_23_1355,60.0557272173,LearningTask,1,62,
-200,q,200,,,,,,,,,,,,,,,,,0,0,0,0,20,2,82,1,,,,,,,,,,,,,,,,,,,,,,,,,,,,,q,1,None,0,,4.0,circlewhite.gif,go,,,,,,,,0.434716939926,,,,,,,,,,,,,,,,,,,,,,,,3.91,0.514693021774,0.000892162322998,0.434716939926,1,q,556.332740784,,,,,,,,,,,,,,,,,,,,,,,,,,,,,,,,,2015_Jun_23_1355,60.0557272173,LearningTask,1,62,
200,s,-200,,,,,,,,,,,,,,,,,0,0,0,0,20,3,83,2,,,,,,,,,,,,,,,,,,,,,,,,,,,,,s,1,None,0,,2.0,crossyellow.gif,go,,,,,,,,0.350786924362,,,,,,,,,,,,,,,,,,,,,,,,1.76,0.514204025269,0.000909090042114,0.350786924362,1,s,559.336105824,,,,,,,,,,,,,,,,,,,,,,,,,,,,,,,,,2015_Jun_23_1355,60.0557272173,LearningTask,1,62,
200,w,200,,,,,,,,,,,,,,,,,0,0,0,0,21,0,84,0,,,,,,,,,,,,,,,,,,,,,,,,,,,,,w,1,None,0,,4.0,trianglegray.gif,stop,,,,,,,,0.383891105652,,,,,,,,,,,,,,,,,,,,,,,,3.95,0.514149904251,0.00090479850769,0.383891105652,1,w,562.339473009,,,,,,,,,,,,,,,,,,,,,,,,,,,,,,,,,2015_Jun_23_1355,60.0557272173,LearningTask,1,62,
200,w,200,,,,,,,,,,,,,,,,,0,0,0,0,21,1,85,0,,,,,,,,,,,,,,,,,,,,,,,,,,,,,w,1,None,0,,2.0,crossyellow.gif,go,,,,,,,,0.384584903717,,,,,,,,,,,,,,,,,,,,,,,,2.06,0.514177083969,0.000895977020264,0.384584903717,1,w,565.343132973,,,,,,,,,,,,,,,,,,,,,,,,,,,,,,,,,2015_Jun_23_1355,60.0557272173,LearningTask,1,62,
-200,q,200,,,,,,,,,,,,,,,,,0,0,0,0,21,2,86,1,,,,,,,,,,,,,,,,,,,,,,,,,,,,,q,1,None,0,,1.0,hexagonmagenta.gif,go,,,,,,,,0.366782188416,,,,,,,,,,,,,,,,,,,,,,,,0.95,0.514309883118,0.000906944274902,0.366782188416,1,q,568.346235991,,,,,,,,,,,,,,,,,,,,,,,,,,,,,,,,,2015_Jun_23_1355,60.0557272173,LearningTask,1,62,
200,s,-200,,,,,,,,,,,,,,,,,0,0,0,0,21,3,87,2,,,,,,,,,,,,,,,,,,,,,,,,,,,,,s,1,None,0,,0.5,squaregreen.gif,go,,,,,,,,0.350829124451,,,,,,,,,,,,,,,,,,,,,,,,0,0.514214992523,0.000904083251953,0.350829124451,1,s,571.349427938,,,,,,,,,,,,,,,,,,,,,,,,,,,,,,,,,2015_Jun_23_1355,60.0557272173,LearningTask,1,62,
-200,a,-200,,,,,,,,,,,,,,,,,0,0,0,0,22,0,88,3,,,,,,,,,,,,,,,,,,,,,,,,,,,,,a,1,None,0,,2.0,crossyellow.gif,go,,,,,,,,0.366911172867,,,,,,,,,,,,,,,,,,,,,,,,0,0.514602184296,0.00103521347046,0.366911172867,1,a,574.352964878,,,,,,,,,,,,,,,,,,,,,,,,,,,,,,,,,2015_Jun_23_1355,60.0557272173,LearningTask,1,62,
200,s,-200,,,,,,,,,,,,,,,,,0,0,0,0,22,1,89,2,,,,,,,,,,,,,,,,,,,,,,,,,,,,,s,1,None,0,,4.0,trianglegray.gif,stop,,,,,,,,0.317301034927,,,,,,,,,,,,,,,,,,,,,,,,3.8,0.514044046402,0.000909090042114,0.317301034927,1,s,577.356082916,,,,,,,,,,,,,,,,,,,,,,,,,,,,,,,,,2015_Jun_23_1355,60.0557272173,LearningTask,1,62,
200,s,-200,,,,,,,,,,,,,,,,,0,0,0,0,22,2,90,2,,,,,,,,,,,,,,,,,,,,,,,,,,,,,s,1,None,0,,0.5,invertedtriangleorange.gif,stop,,,,,,,,0.434417009354,,,,,,,,,,,,,,,,,,,,,,,,0.32,0.514230012894,0.000903129577637,0.434417009354,1,s,580.359605789,,,,,,,,,,,,,,,,,,,,,,,,,,,,,,,,,2015_Jun_23_1355,60.0557272173,LearningTask,1,62,
-200,a,-200,,,,,,,,,,,,,,,,,0,0,0,0,22,3,91,3,,,,,,,,,,,,,,,,,,,,,,,,,,,,,a,1,None,0,,0.5,squaregreen.gif,go,,,,,,,,0.433959960938,,,,,,,,,,,,,,,,,,,,,,,,0.44,0.514241933823,0.000936985015869,0.433959960938,1,a,583.362880945,,,,,,,,,,,,,,,,,,,,,,,,,,,,,,,,,2015_Jun_23_1355,60.0557272173,LearningTask,1,62,
200,s,-200,,,,,,,,,,,,,,,,,0,0,0,0,23,0,92,2,,,,,,,,,,,,,,,,,,,,,,,,,,,,,s,1,None,0,,4.0,trianglegray.gif,stop,,,,,,,,0.366937875748,,,,,,,,,,,,,,,,,,,,,,,,4.24,0.514337062836,0.00089693069458,0.366937875748,1,s,586.366342783,,,,,,,,,,,,,,,,,,,,,,,,,,,,,,,,,2015_Jun_23_1355,60.0557272173,LearningTask,1,62,
-200,q,200,,,,,,,,,,,,,,,,,0,0,0,0,23,1,93,1,,,,,,,,,,,,,,,,,,,,,,,,,,,,,q,1,None,0,,4.0,trianglegray.gif,stop,,,,,,,,0.384163856506,,,,,,,,,,,,,,,,,,,,,,,,4.13,0.51450586319,0.00115895271301,0.384163856506,1,q,589.369625807,,,,,,,,,,,,,,,,,,,,,,,,,,,,,,,,,2015_Jun_23_1355,60.0557272173,LearningTask,1,62,
200,s,-200,,,,,,,,,,,,,,,,,0,0,0,0,23,2,94,2,,,,,,,,,,,,,,,,,,,,,,,,,,,,,s,1,None,0,,4.0,circlewhite.gif,go,,,,,,,,0.368105888367,,,,,,,,,,,,,,,,,,,,,,,,0,0.513944864273,0.000922918319702,0.368105888367,1,s,592.372874975,,,,,,,,,,,,,,,,,,,,,,,,,,,,,,,,,2015_Jun_23_1355,60.0557272173,LearningTask,1,62,
-200,a,-200,,,,,,,,,,,,,,,,,0,0,0,0,23,3,95,3,,,,,,,,,,,,,,,,,,,,,,,,,,,,,a,1,None,0,,2.0,lineblue.gif,stop,,,,,,,,0.367913007736,,,,,,,,,,,,,,,,,,,,,,,,2.19,0.514453172684,0.000893115997314,0.367913007736,1,a,595.37626791,,,,,,,,,,,,,,,,,,,,,,,,,,,,,,,,,2015_Jun_23_1355,60.0557272173,LearningTask,1,62,
200,w,200,,,,,,,,,,,,,,,,,0,0,0,0,24,0,96,0,,,,,,,,,,,,,,,,,,,,,,,,,,,,,w,1,None,0,,4.0,trianglegray.gif,stop,,,,,,,,0.401430845261,,,,,,,,,,,,,,,,,,,,,,,,3.83,0.514183998108,0.000942945480347,0.401430845261,1,w,598.379891872,,,,,,,,,,,,,,,,,,,,,,,,,,,,,,,,,2015_Jun_23_1355,60.0557272173,LearningTask,1,62,
-200,a,-200,,,,,,,,,,,,,,,,,0,0,0,0,24,1,97,3,,,,,,,,,,,,,,,,,,,,,,,,,,,,,a,1,None,0,,1.0,hexagonmagenta.gif,go,,,,,,,,0.31725692749,,,,,,,,,,,,,,,,,,,,,,,,1.25,0.514075040817,0.000904083251953,0.31725692749,1,a,601.38295579,,,,,,,,,,,,,,,,,,,,,,,,,,,,,,,,,2015_Jun_23_1355,60.0557272173,LearningTask,1,62,
200,w,200,,,,,,,,,,,,,,,,,0,0,0,0,24,2,98,0,,,,,,,,,,,,,,,,,,,,,,,,,,,,,w,1,None,0,,2.0,crossyellow.gif,go,,,,,,,,0.41730093956,,,,,,,,,,,,,,,,,,,,,,,,2.15,0.51464009285,0.000901937484741,0.41730093956,1,w,604.386330843,,,,,,,,,,,,,,,,,,,,,,,,,,,,,,,,,2015_Jun_23_1355,60.0557272173,LearningTask,1,62,
200,s,-200,,,,,,,,,,,,,,,,,0,0,0,0,24,3,99,2,,,,,,,,,,,,,,,,,,,,,,,,,,,,,s,1,None,0,,4.0,trianglegray.gif,stop,,,,,,,,0.401034116745,,,,,,,,,,,,,,,,,,,,,,,,3.84,0.514219045639,0.000949144363403,0.401034116745,1,s,607.389751911,,,,,,,,,,,,,,,,,,,,,,,,,,,,,,,,,2015_Jun_23_1355,60.0557272173,LearningTask,1,62,
,,,,,,,,,,,,,,,,,,,0,0,0,0,,,,,,,,,,,,,,,,,,,,,,,,,,,,,,,,,,,,,,,,,,,,,,,,,,,,,,,,,,,,,,,,,,,,,,,,,,,,,,,,,,,,,,9,21.7751660347,,,,,,,,,,,,,,,,,,,,,,,,2015_Jun_23_1355,60.0557272173,LearningTask,1,62,
200,w,200,,,,,,,,,,,,,,,,,1,0,1,0,0,0,0,0,,,,,,,,,,,,,,,,,,,,,,,,,,,,,w,1,None,0,,4.0,circlewhite.gif,go,,,,,,,,0.417450904846,,,,,,,,,,,,,,,,,,,,,,,,4.23,0.509650945663,0.00089693069458,0.417450904846,1,w,632.618486881,,,,,,,,,,,,,,,,,,,,,,,,,,,,,,,,,2015_Jun_23_1355,60.0557272173,LearningTask,1,62,
-200,q,200,,,,,,,,,,,,,,,,,1,0,1,0,0,1,1,1,,,,,,,,,,,,,,,,,,,,,,,,,,,,,q,1,None,0,,2.0,crossyellow.gif,go,,,,,,,,0.367631912231,,,,,,,,,,,,,,,,,,,,,,,,0,0.513746976852,0.000906944274902,0.367631912231,1,q,635.621332884,,,,,,,,,,,,,,,,,,,,,,,,,,,,,,,,,2015_Jun_23_1355,60.0557272173,LearningTask,1,62,
-200,q,200,,,,,,,,,,,,,,,,,1,0,1,0,0,2,2,1,,,,,,,,,,,,,,,,,,,,,,,,,,,,,q,1,None,0,,4.0,trianglegray.gif,stop,,,,,,,,0.534688949585,,,,,,,,,,,,,,,,,,,,,,,,3.87,0.514388799667,0.000900030136108,0.534688949585,1,q,638.624534845,,,,,,,,,,,,,,,,,,,,,,,,,,,,,,,,,2015_Jun_23_1355,60.0557272173,LearningTask,1,62,
200,w,200,,,,,,,,,,,,,,,,,1,0,1,0,0,3,3,0,,,,,,,,,,,,,,,,,,,,,,,,,,,,,w,1,None,0,,0.5,invertedtriangleorange.gif,stop,,,,,,,,0.434674978256,,,,,,,,,,,,,,,,,,,,,,,,0.74,0.513989925385,0.000931024551392,0.434674978256,1,w,641.628030777,,,,,,,,,,,,,,,,,,,,,,,,,,,,,,,,,2015_Jun_23_1355,60.0557272173,LearningTask,1,62,
-200,a,-200,,,,,,,,,,,,,,,,,1,0,1,0,1,0,4,3,,,,,,,,,,,,,,,,,,,,,,,,,,,,,a,1,None,0,,1.0,diamondcyan.gif,stop,,,,,,,,0.367602825165,,,,,,,,,,,,,,,,,,,,,,,,1.06,0.514407873154,0.000900983810425,0.367602825165,1,a,644.631251812,,,,,,,,,,,,,,,,,,,,,,,,,,,,,,,,,2015_Jun_23_1355,60.0557272173,LearningTask,1,62,
200,s,-200,,,,,,,,,,,,,,,,,1,0,1,0,1,1,5,2,,,,,,,,,,,,,,,,,,,,,,,,,,,,,s,1,None,0,,2.0,crossyellow.gif,go,,,,,,,,0.301154851913,,,,,,,,,,,,,,,,,,,,,,,,0,0.514288187027,0.000900030136108,0.301154851913,1,s,647.634986877,,,,,,,,,,,,,,,,,,,,,,,,,,,,,,,,,2015_Jun_23_1355,60.0557272173,LearningTask,1,62,
200,w,200,,,,,,,,,,,,,,,,,1,0,1,0,1,2,6,0,,,,,,,,,,,,,,,,,,,,,,,,,,,,,w,1,None,0,,2.0,crossyellow.gif,go,,,,,,,,0.401308059692,,,,,,,,,,,,,,,,,,,,,,,,1.86,0.513852834702,0.000917911529541,0.401308059692,1,w,650.638192892,,,,,,,,,,,,,,,,,,,,,,,,,,,,,,,,,2015_Jun_23_1355,60.0557272173,LearningTask,1,62,
-200,a,-200,,,,,,,,,,,,,,,,,1,0,1,0,1,3,7,3,,,,,,,,,,,,,,,,,,,,,,,,,,,,,a,1,None,0,,1.0,diamondcyan.gif,stop,,,,,,,,0.367922067642,,,,,,,,,,,,,,,,,,,,,,,,0.93,0.51421713829,0.000905990600586,0.367922067642,1,a,653.641774893,,,,,,,,,,,,,,,,,,,,,,,,,,,,,,,,,2015_Jun_23_1355,60.0557272173,LearningTask,1,62,
-200,q,200,,,,,,,,,,,,,,,,,1,0,1,0,2,0,8,1,,,,,,,,,,,,,,,,,,,,,,,,,,,,,q,1,None,0,,4.0,trianglegray.gif,stop,,,,,,,,0.434640169144,,,,,,,,,,,,,,,,,,,,,,,,3.82,0.513833999634,0.000949144363403,0.434640169144,1,q,656.645282984,,,,,,,,,,,,,,,,,,,,,,,,,,,,,,,,,2015_Jun_23_1355,60.0557272173,LearningTask,1,62,
-200,a,-200,,,,,,,,,,,,,,,,,1,0,1,0,2,1,9,3,,,,,,,,,,,,,,,,,,,,,,,,,,,,,a,1,None,0,,0.5,invertedtriangleorange.gif,stop,,,,,,,,0.400889873505,,,,,,,,,,,,,,,,,,,,,,,,0.46,0.513768196106,0.000904083251953,0.400889873505,1,a,659.648075819,,,,,,,,,,,,,,,,,,,,,,,,,,,,,,,,,2015_Jun_23_1355,60.0557272173,LearningTask,1,62,
-200,a,-200,,,,,,,,,,,,,,,,,1,0,1,0,2,2,10,3,,,,,,,,,,,,,,,,,,,,,,,,,,,,,a,1,None,0,,1.0,diamondcyan.gif,stop,,,,,,,,0.384194135666,,,,,,,,,,,,,,,,,,,,,,,,0.82,0.514443874359,0.000893831253052,0.384194135666,1,a,662.651655912,,,,,,,,,,,,,,,,,,,,,,,,,,,,,,,,,2015_Jun_23_1355,60.0557272173,LearningTask,1,62,
200,w,200,,,,,,,,,,,,,,,,,1,0,1,0,2,3,11,0,,,,,,,,,,,,,,,,,,,,,,,,,,,,,w,1,None,0,,1.0,hexagonmagenta.gif,go,,,,,,,,0.400866031647,,,,,,,,,,,,,,,,,,,,,,,,0.91,0.513818025589,0.0010199546814,0.400866031647,1,w,665.655115843,,,,,,,,,,,,,,,,,,,,,,,,,,,,,,,,,2015_Jun_23_1355,60.0557272173,LearningTask,1,62,
200,w,200,,,,,,,,,,,,,,,,,1,0,1,0,3,0,12,0,,,,,,,,,,,,,,,,,,,,,,,,,,,,,w,1,None,0,,2.0,lineblue.gif,stop,,,,,,,,0.41743183136,,,,,,,,,,,,,,,,,,,,,,,,2.09,0.514147996902,0.00088906288147,0.41743183136,1,w,668.658135891,,,,,,,,,,,,,,,,,,,,,,,,,,,,,,,,,2015_Jun_23_1355,60.0557272173,LearningTask,1,62,
200,w,200,,,,,,,,,,,,,,,,,1,0,1,0,3,1,13,0,,,,,,,,,,,,,,,,,,,,,,,,,,,,,w,1,None,0,,2.0,crossyellow.gif,go,,,,,,,,0.384543895721,,,,,,,,,,,,,,,,,,,,,,,,2.13,0.51435303688,0.001384973526,0.384543895721,1,w,671.662195921,,,,,,,,,,,,,,,,,,,,,,,,,,,,,,,,,2015_Jun_23_1355,60.0557272173,LearningTask,1,62,
200,s,-200,,,,,,,,,,,,,,,,,1,0,1,0,3,2,14,2,,,,,,,,,,,,,,,,,,,,,,,,,,,,,s,1,None,0,,4.0,circlewhite.gif,go,,,,,,,,0.367062091827,,,,,,,,,,,,,,,,,,,,,,,,0,0.51396894455,0.000900030136108,0.367062091827,1,s,674.664964914,,,,,,,,,,,,,,,,,,,,,,,,,,,,,,,,,2015_Jun_23_1355,60.0557272173,LearningTask,1,62,
200,w,200,,,,,,,,,,,,,,,,,1,0,1,0,3,3,15,0,,,,,,,,,,,,,,,,,,,,,,,,,,,,,w,1,None,0,,2.0,lineblue.gif,stop,,,,,,,,0.417358160019,,,,,,,,,,,,,,,,,,,,,,,,1.88,0.514441013336,0.000894069671631,0.417358160019,1,w,677.668257952,,,,,,,,,,,,,,,,,,,,,,,,,,,,,,,,,2015_Jun_23_1355,60.0557272173,LearningTask,1,62,
-200,a,-200,,,,,,,,,,,,,,,,,1,0,1,0,4,0,16,3,,,,,,,,,,,,,,,,,,,,,,,,,,,,,a,1,None,0,,1.0,hexagonmagenta.gif,go,,,,,,,,0.384049892426,,,,,,,,,,,,,,,,,,,,,,,,1.01,0.513982057571,0.000958919525146,0.384049892426,1,a,680.671656847,,,,,,,,,,,,,,,,,,,,,,,,,,,,,,,,,2015_Jun_23_1355,60.0557272173,LearningTask,1,62,
-200,q,200,,,,,,,,,,,,,,,,,1,0,1,0,4,1,17,1,,,,,,,,,,,,,,,,,,,,,,,,,,,,,q,1,None,0,,0.5,invertedtriangleorange.gif,stop,,,,,,,,0.417921066284,,,,,,,,,,,,,,,,,,,,,,,,0,0.514368057251,0.000885009765625,0.417921066284,1,q,683.674889803,,,,,,,,,,,,,,,,,,,,,,,,,,,,,,,,,2015_Jun_23_1355,60.0557272173,LearningTask,1,62,
200,w,200,,,,,,,,,,,,,,,,,1,0,1,0,4,2,18,0,,,,,,,,,,,,,,,,,,,,,,,,,,,,,w,1,None,0,,4.0,trianglegray.gif,stop,,,,,,,,0.350909948349,,,,,,,,,,,,,,,,,,,,,,,,3.81,0.514457941055,0.000874042510986,0.350909948349,1,w,686.678122997,,,,,,,,,,,,,,,,,,,,,,,,,,,,,,,,,2015_Jun_23_1355,60.0557272173,LearningTask,1,62,
200,w,200,,,,,,,,,,,,,,,,,1,0,1,0,4,3,19,0,,,,,,,,,,,,,,,,,,,,,,,,,,,,,w,1,None,0,,2.0,crossyellow.gif,go,,,,,,,,0.38435292244,,,,,,,,,,,,,,,,,,,,,,,,1.82,0.514205932617,0.000909090042114,0.38435292244,1,w,689.681757927,,,,,,,,,,,,,,,,,,,,,,,,,,,,,,,,,2015_Jun_23_1355,60.0557272173,LearningTask,1,62,
200,w,200,,,,,,,,,,,,,,,,,1,0,1,0,5,0,20,0,,,,,,,,,,,,,,,,,,,,,,,,,,,,,w,1,None,0,,2.0,lineblue.gif,stop,,,,,,,,0.400849103928,,,,,,,,,,,,,,,,,,,,,,,,0,0.514242887497,0.000878810882568,0.400849103928,1,w,692.684989929,,,,,,,,,,,,,,,,,,,,,,,,,,,,,,,,,2015_Jun_23_1355,60.0557272173,LearningTask,1,62,
-200,q,200,,,,,,,,,,,,,,,,,1,0,1,0,5,1,21,1,,,,,,,,,,,,,,,,,,,,,,,,,,,,,q,1,None,0,,1.0,diamondcyan.gif,stop,,,,,,,,0.31786608696,,,,,,,,,,,,,,,,,,,,,,,,1.17,0.514361143112,0.000877141952515,0.31786608696,1,q,695.688563824,,,,,,,,,,,,,,,,,,,,,,,,,,,,,,,,,2015_Jun_23_1355,60.0557272173,LearningTask,1,62,
-200,a,-200,,,,,,,,,,,,,,,,,1,0,1,0,5,2,22,3,,,,,,,,,,,,,,,,,,,,,,,,,,,,,a,1,None,0,,4.0,circlewhite.gif,go,,,,,,,,0.534327030182,,,,,,,,,,,,,,,,,,,,,,,,4.1,0.513675928116,0.000891923904419,0.534327030182,1,a,698.691864967,,,,,,,,,,,,,,,,,,,,,,,,,,,,,,,,,2015_Jun_23_1355,60.0557272173,LearningTask,1,62,
200,w,200,,,,,,,,,,,,,,,,,1,0,1,0,5,3,23,0,,,,,,,,,,,,,,,,,,,,,,,,,,,,,w,1,None,0,,4.0,trianglegray.gif,stop,,,,,,,,0.333674907684,,,,,,,,,,,,,,,,,,,,,,,,3.8,0.514517068863,0.00112390518188,0.333674907684,1,w,701.695256948,,,,,,,,,,,,,,,,,,,,,,,,,,,,,,,,,2015_Jun_23_1355,60.0557272173,LearningTask,1,62,
200,s,-200,,,,,,,,,,,,,,,,,1,0,1,0,6,0,24,2,,,,,,,,,,,,,,,,,,,,,,,,,,,,,s,1,None,0,,1.0,diamondcyan.gif,stop,,,,,,,,0.400860071182,,,,,,,,,,,,,,,,,,,,,,,,0,0.514076948166,0.000938892364502,0.400860071182,1,s,704.699024916,,,,,,,,,,,,,,,,,,,,,,,,,,,,,,,,,2015_Jun_23_1355,60.0557272173,LearningTask,1,62,
200,s,-200,,,,,,,,,,,,,,,,,1,0,1,0,6,1,25,2,,,,,,,,,,,,,,,,,,,,,,,,,,,,,s,1,None,0,,0.5,invertedtriangleorange.gif,stop,,,,,,,,0.333990097046,,,,,,,,,,,,,,,,,,,,,,,,0.61,0.513610839844,0.000897884368896,0.333990097046,1,s,707.701883793,,,,,,,,,,,,,,,,,,,,,,,,,,,,,,,,,2015_Jun_23_1355,60.0557272173,LearningTask,1,62,
-200,q,200,,,,,,,,,,,,,,,,,1,0,1,0,6,2,26,1,,,,,,,,,,,,,,,,,,,,,,,,,,,,,q,1,None,0,,0.5,squaregreen.gif,go,,,,,,,,0.434242010117,,,,,,,,,,,,,,,,,,,,,,,,0.68,0.514187097549,0.00088095664978,0.434242010117,1,q,710.705147982,,,,,,,,,,,,,,,,,,,,,,,,,,,,,,,,,2015_Jun_23_1355,60.0557272173,LearningTask,1,62,
-200,q,200,,,,,,,,,,,,,,,,,1,0,1,0,6,3,27,1,,,,,,,,,,,,,,,,,,,,,,,,,,,,,q,1,None,0,,4.0,circlewhite.gif,go,,,,,,,,0.367449045181,,,,,,,,,,,,,,,,,,,,,,,,3.88,0.514127016068,0.000927925109863,0.367449045181,1,q,713.70853591,,,,,,,,,,,,,,,,,,,,,,,,,,,,,,,,,2015_Jun_23_1355,60.0557272173,LearningTask,1,62,
200,s,-200,,,,,,,,,,,,,,,,,1,0,1,0,7,0,28,2,,,,,,,,,,,,,,,,,,,,,,,,,,,,,s,1,None,0,,2.0,crossyellow.gif,go,,,,,,,,0.334305047989,,,,,,,,,,,,,,,,,,,,,,,,1.97,0.514360904694,0.00088095664978,0.334305047989,1,s,716.712158918,,,,,,,,,,,,,,,,,,,,,,,,,,,,,,,,,2015_Jun_23_1355,60.0557272173,LearningTask,1,62,
-200,a,-200,,,,,,,,,,,,,,,,,1,0,1,0,7,1,29,3,,,,,,,,,,,,,,,,,,,,,,,,,,,,,a,1,None,0,,0.5,invertedtriangleorange.gif,stop,,,,,,,,0.317112922668,,,,,,,,,,,,,,,,,,,,,,,,0.31,0.514276027679,0.0010359287262,0.317112922668,1,a,719.71556592,,,,,,,,,,,,,,,,,,,,,,,,,,,,,,,,,2015_Jun_23_1355,60.0557272173,LearningTask,1,62,
-200,q,200,,,,,,,,,,,,,,,,,1,0,1,0,7,2,30,1,,,,,,,,,,,,,,,,,,,,,,,,,,,,,q,1,None,0,,4.0,trianglegray.gif,stop,,,,,,,,0.417409896851,,,,,,,,,,,,,,,,,,,,,,,,4.13,0.514178991318,0.00090503692627,0.417409896851,1,q,722.71863389,,,,,,,,,,,,,,,,,,,,,,,,,,,,,,,,,2015_Jun_23_1355,60.0557272173,LearningTask,1,62,
200,s,-200,,,,,,,,,,,,,,,,,1,0,1,0,7,3,31,2,,,,,,,,,,,,,,,,,,,,,,,,,,,,,s,1,None,0,,0.5,squaregreen.gif,go,,,,,,,,0.400662899017,,,,,,,,,,,,,,,,,,,,,,,,0.32,0.51433300972,0.000877141952515,0.400662899017,1,s,725.721938848,,,,,,,,,,,,,,,,,,,,,,,,,,,,,,,,,2015_Jun_23_1355,60.0557272173,LearningTask,1,62,
200,s,-200,,,,,,,,,,,,,,,,,1,0,1,0,8,0,32,2,,,,,,,,,,,,,,,,,,,,,,,,,,,,,s,1,None,0,,2.0,crossyellow.gif,go,,,,,,,,0.417685031891,,,,,,,,,,,,,,,,,,,,,,,,0,0.51403594017,0.000949859619141,0.417685031891,1,s,728.725444794,,,,,,,,,,,,,,,,,,,,,,,,,,,,,,,,,2015_Jun_23_1355,60.0557272173,LearningTask,1,62,
-200,a,-200,,,,,,,,,,,,,,,,,1,0,1,0,8,1,33,3,,,,,,,,,,,,,,,,,,,,,,,,,,,,,a,1,None,0,,4.0,circlewhite.gif,go,,,,,,,,0.367837905884,,,,,,,,,,,,,,,,,,,,,,,,3.86,0.514033079147,0.000875949859619,0.367837905884,1,a,731.728662968,,,,,,,,,,,,,,,,,,,,,,,,,,,,,,,,,2015_Jun_23_1355,60.0557272173,LearningTask,1,62,
-200,q,200,,,,,,,,,,,,,,,,,1,0,1,0,8,2,34,1,,,,,,,,,,,,,,,,,,,,,,,,,,,,,q,1,None,0,,0.5,squaregreen.gif,go,,,,,,,,0.383875846863,,,,,,,,,,,,,,,,,,,,,,,,0,0.51443195343,0.00087308883667,0.383875846863,1,q,734.732460976,,,,,,,,,,,,,,,,,,,,,,,,,,,,,,,,,2015_Jun_23_1355,60.0557272173,LearningTask,1,62,
-200,q,200,,,,,,,,,,,,,,,,,1,0,1,0,8,3,35,1,,,,,,,,,,,,,,,,,,,,,,,,,,,,,q,1,None,0,,1.0,diamondcyan.gif,stop,,,,,,,,0.367360115051,,,,,,,,,,,,,,,,,,,,,,,,0,0.513206005096,0.00089693069458,0.384711027145,0,a,737.735391855,1.21,0.515496969223,0.000960111618042,0.367360115051,1,q,740.738738775,,,,,,,,,,,,,,,,,,,,,,,,,,2015_Jun_23_1355,60.0557272173,LearningTask,1,62,
200,s,-200,,,,,,,,,,,,,,,,,1,0,1,0,9,0,36,2,,,,,,,,,,,,,,,,,,,,,,,,,,,,,s,1,None,0,,2.0,lineblue.gif,stop,,,,,,,,0.384140014648,,,,,,,,,,,,,,,,,,,,,,,,0,0.514256954193,0.00090217590332,0.384140014648,1,s,743.742433786,,,,,,,,,,,,,,,,,,,,,,,,,,,,,,,,,2015_Jun_23_1355,60.0557272173,LearningTask,1,62,
-200,q,200,,,,,,,,,,,,,,,,,1,0,1,0,9,1,37,1,,,,,,,,,,,,,,,,,,,,,,,,,,,,,q,1,None,0,,2.0,crossyellow.gif,go,,,,,,,,0.384288072586,,,,,,,,,,,,,,,,,,,,,,,,1.96,0.513798952103,0.000893831253052,0.384288072586,1,q,746.745726824,,,,,,,,,,,,,,,,,,,,,,,,,,,,,,,,,2015_Jun_23_1355,60.0557272173,LearningTask,1,62,
200,s,-200,,,,,,,,,,,,,,,,,1,0,1,0,9,2,38,2,,,,,,,,,,,,,,,,,,,,,,,,,,,,,s,1,None,0,,0.5,invertedtriangleorange.gif,stop,,,,,,,,0.383966207504,,,,,,,,,,,,,,,,,,,,,,,,0,0.514186859131,0.000902891159058,0.383966207504,1,s,749.74878788,,,,,,,,,,,,,,,,,,,,,,,,,,,,,,,,,2015_Jun_23_1355,60.0557272173,LearningTask,1,62,
-200,a,-200,,,,,,,,,,,,,,,,,1,0,1,0,9,3,39,3,,,,,,,,,,,,,,,,,,,,,,,,,,,,,a,1,None,0,,4.0,circlewhite.gif,go,,,,,,,,0.400967121124,,,,,,,,,,,,,,,,,,,,,,,,4.23,0.514198064804,0.00092601776123,0.400967121124,1,a,752.752741814,,,,,,,,,,,,,,,,,,,,,,,,,,,,,,,,,2015_Jun_23_1355,60.0557272173,LearningTask,1,62,
200,s,-200,,,,,,,,,,,,,,,,,1,0,1,0,10,0,40,2,,,,,,,,,,,,,,,,,,,,,,,,,,,,,s,1,None,0,,4.0,trianglegray.gif,stop,,,,,,,,0.467489004135,,,,,,,,,,,,,,,,,,,,,,,,4.21,0.513661146164,0.000900030136108,0.467489004135,1,s,755.755574942,,,,,,,,,,,,,,,,,,,,,,,,,,,,,,,,,2015_Jun_23_1355,60.0557272173,LearningTask,1,62,
200,s,-200,,,,,,,,,,,,,,,,,1,0,1,0,10,1,41,2,,,,,,,,,,,,,,,,,,,,,,,,,,,,,s,1,None,0,,2.0,crossyellow.gif,go,,,,,,,,0.46811914444,,,,,,,,,,,,,,,,,,,,,,,,1.8,0.514070987701,0.000884056091309,0.46811914444,1,s,758.758812904,,,,,,,,,,,,,,,,,,,,,,,,,,,,,,,,,2015_Jun_23_1355,60.0557272173,LearningTask,1,62,
200,s,-200,,,,,,,,,,,,,,,,,1,0,1,0,10,2,42,2,,,,,,,,,,,,,,,,,,,,,,,,,,,,,s,1,None,0,,0.5,invertedtriangleorange.gif,stop,,,,,,,,0.434602022171,,,,,,,,,,,,,,,,,,,,,,,,0.38,0.51412987709,0.000942945480347,0.434602022171,1,s,761.762423992,,,,,,,,,,,,,,,,,,,,,,,,,,,,,,,,,2015_Jun_23_1355,60.0557272173,LearningTask,1,62,
-200,q,200,,,,,,,,,,,,,,,,,1,0,1,0,10,3,43,1,,,,,,,,,,,,,,,,,,,,,,,,,,,,,q,1,None,0,,0.5,invertedtriangleorange.gif,stop,,,,,,,,0.400631904602,,,,,,,,,,,,,,,,,,,,,,,,0.32,0.513867139816,0.00107502937317,0.400631904602,1,q,764.765762806,,,,,,,,,,,,,,,,,,,,,,,,,,,,,,,,,2015_Jun_23_1355,60.0557272173,LearningTask,1,62,
200,s,-200,,,,,,,,,,,,,,,,,1,0,1,0,11,0,44,2,,,,,,,,,,,,,,,,,,,,,,,,,,,,,s,1,None,0,,4.0,trianglegray.gif,stop,,,,,,,,0.417031049728,,,,,,,,,,,,,,,,,,,,,,,,3.85,0.514584064484,0.00103116035461,0.417031049728,1,s,767.76867795,,,,,,,,,,,,,,,,,,,,,,,,,,,,,,,,,2015_Jun_23_1355,60.0557272173,LearningTask,1,62,
-200,q,200,,,,,,,,,,,,,,,,,1,0,1,0,11,1,45,1,,,,,,,,,,,,,,,,,,,,,,,,,,,,,q,1,None,0,,1.0,hexagonmagenta.gif,go,,,,,,,,0.417504072189,,,,,,,,,,,,,,,,,,,,,,,,1.2,0.514602899551,0.000892877578735,0.417504072189,1,q,770.772346973,,,,,,,,,,,,,,,,,,,,,,,,,,,,,,,,,2015_Jun_23_1355,60.0557272173,LearningTask,1,62,
200,w,200,,,,,,,,,,,,,,,,,1,0,1,0,11,2,46,0,,,,,,,,,,,,,,,,,,,,,,,,,,,,,w,1,None,0,,2.0,lineblue.gif,stop,,,,,,,,0.501241922379,,,,,,,,,,,,,,,,,,,,,,,,0,0.514379024506,0.000882863998413,0.501241922379,1,w,773.775764942,,,,,,,,,,,,,,,,,,,,,,,,,,,,,,,,,2015_Jun_23_1355,60.0557272173,LearningTask,1,62,
200,w,200,,,,,,,,,,,,,,,,,1,0,1,0,11,3,47,0,,,,,,,,,,,,,,,,,,,,,,,,,,,,,w,1,None,0,,2.0,lineblue.gif,stop,,,,,,,,0.467636108398,,,,,,,,,,,,,,,,,,,,,,,,1.82,0.514055013657,0.000938892364502,0.467636108398,1,w,776.779081821,,,,,,,,,,,,,,,,,,,,,,,,,,,,,,,,,2015_Jun_23_1355,60.0557272173,LearningTask,1,62,
-200,a,-200,,,,,,,,,,,,,,,,,1,0,1,0,12,0,48,3,,,,,,,,,,,,,,,,,,,,,,,,,,,,,a,1,None,0,,1.0,hexagonmagenta.gif,go,,,,,,,,0.400903940201,,,,,,,,,,,,,,,,,,,,,,,,0.8,0.514514923096,0.000891923904419,0.400903940201,1,a,779.782512903,,,,,,,,,,,,,,,,,,,,,,,,,,,,,,,,,2015_Jun_23_1355,60.0557272173,LearningTask,1,62,
-200,q,200,,,,,,,,,,,,,,,,,1,0,1,0,12,1,49,1,,,,,,,,,,,,,,,,,,,,,,,,,,,,,q,1,None,0,,4.0,circlewhite.gif,go,,,,,,,,0.384085178375,,,,,,,,,,,,,,,,,,,,,,,,4.25,0.514183998108,0.000888109207153,0.384085178375,1,q,782.786098003,,,,,,,,,,,,,,,,,,,,,,,,,,,,,,,,,2015_Jun_23_1355,60.0557272173,LearningTask,1,62,
-200,a,-200,,,,,,,,,,,,,,,,,1,0,1,0,12,2,50,3,,,,,,,,,,,,,,,,,,,,,,,,,,,,,a,1,None,0,,4.0,circlewhite.gif,go,,,,,,,,0.55118393898,,,,,,,,,,,,,,,,,,,,,,,,3.97,0.513374090195,0.000916957855225,0.55118393898,1,a,785.789153814,,,,,,,,,,,,,,,,,,,,,,,,,,,,,,,,,2015_Jun_23_1355,60.0557272173,LearningTask,1,62,
200,s,-200,,,,,,,,,,,,,,,,,1,0,1,0,12,3,51,2,,,,,,,,,,,,,,,,,,,,,,,,,,,,,s,1,None,0,,4.0,circlewhite.gif,go,,,,,,,,0.400759935379,,,,,,,,,,,,,,,,,,,,,,,,4.03,0.514178991318,0.000881910324097,0.400759935379,1,s,788.792359829,,,,,,,,,,,,,,,,,,,,,,,,,,,,,,,,,2015_Jun_23_1355,60.0557272173,LearningTask,1,62,
200,w,200,,,,,,,,,,,,,,,,,1,0,1,0,13,0,52,0,,,,,,,,,,,,,,,,,,,,,,,,,,,,,w,1,None,0,,2.0,crossyellow.gif,go,,,,,,,,0.484524011612,,,,,,,,,,,,,,,,,,,,,,,,1.97,0.514408111572,0.000920057296753,0.484524011612,1,w,791.795707941,,,,,,,,,,,,,,,,,,,,,,,,,,,,,,,,,2015_Jun_23_1355,60.0557272173,LearningTask,1,62,
-200,a,-200,,,,,,,,,,,,,,,,,1,0,1,0,13,1,53,3,,,,,,,,,,,,,,,,,,,,,,,,,,,,,a,1,None,0,,0.5,squaregreen.gif,go,,,,,,,,0.467394113541,,,,,,,,,,,,,,,,,,,,,,,,0,0.513803958893,0.000883102416992,0.467394113541,1,a,794.799277782,,,,,,,,,,,,,,,,,,,,,,,,,,,,,,,,,2015_Jun_23_1355,60.0557272173,LearningTask,1,62,
-200,q,200,,,,,,,,,,,,,,,,,1,0,1,0,13,2,54,1,,,,,,,,,,,,,,,,,,,,,,,,,,,,,q,1,None,0,,1.0,diamondcyan.gif,stop,,,,,,,,0.417450904846,,,,,,,,,,,,,,,,,,,,,,,,0.75,0.514240026474,0.000878095626831,0.417450904846,1,q,797.802719831,,,,,,,,,,,,,,,,,,,,,,,,,,,,,,,,,2015_Jun_23_1355,60.0557272173,LearningTask,1,62,
-200,q,200,,,,,,,,,,,,,,,,,1,0,1,0,13,3,55,1,,,,,,,,,,,,,,,,,,,,,,,,,,,,,q,1,None,0,,2.0,lineblue.gif,stop,,,,,,,,0.484947919846,,,,,,,,,,,,,,,,,,,,,,,,0,0.513906002045,0.000916004180908,0.484947919846,1,q,800.806392908,,,,,,,,,,,,,,,,,,,,,,,,,,,,,,,,,2015_Jun_23_1355,60.0557272173,LearningTask,1,62,
200,s,-200,,,,,,,,,,,,,,,,,1,0,1,0,14,0,56,2,,,,,,,,,,,,,,,,,,,,,,,,,,,,,s,1,None,0,,4.0,circlewhite.gif,go,,,,,,,,0.417789936066,,,,,,,,,,,,,,,,,,,,,,,,4.05,0.513761043549,0.000910043716431,0.417789936066,1,s,803.809325933,,,,,,,,,,,,,,,,,,,,,,,,,,,,,,,,,2015_Jun_23_1355,60.0557272173,LearningTask,1,62,
200,s,-200,,,,,,,,,,,,,,,,,1,0,1,0,14,1,57,2,,,,,,,,,,,,,,,,,,,,,,,,,,,,,s,1,None,0,,2.0,lineblue.gif,stop,,,,,,,,0.518126010895,,,,,,,,,,,,,,,,,,,,,,,,2.22,0.514063119888,0.000880002975464,0.518126010895,1,s,806.81244278,,,,,,,,,,,,,,,,,,,,,,,,,,,,,,,,,2015_Jun_23_1355,60.0557272173,LearningTask,1,62,
-200,q,200,,,,,,,,,,,,,,,,,1,0,1,0,14,2,58,1,,,,,,,,,,,,,,,,,,,,,,,,,,,,,q,1,None,0,,0.5,invertedtriangleorange.gif,stop,,,,,,,,0.434779167175,,,,,,,,,,,,,,,,,,,,,,,,0,0.514230012894,0.000952005386353,0.434779167175,1,q,809.815945864,,,,,,,,,,,,,,,,,,,,,,,,,,,,,,,,,2015_Jun_23_1355,60.0557272173,LearningTask,1,62,
200,w,200,,,,,,,,,,,,,,,,,1,0,1,0,14,3,59,0,,,,,,,,,,,,,,,,,,,,,,,,,,,,,w,1,None,0,,1.0,diamondcyan.gif,stop,,,,,,,,0.466871023178,,,,,,,,,,,,,,,,,,,,,,,,1.12,0.514465093613,0.000882148742676,0.466871023178,1,w,812.81942296,,,,,,,,,,,,,,,,,,,,,,,,,,,,,,,,,2015_Jun_23_1355,60.0557272173,LearningTask,1,62,
200,s,-200,,,,,,,,,,,,,,,,,1,0,1,0,15,0,60,2,,,,,,,,,,,,,,,,,,,,,,,,,,,,,s,1,None,0,,1.0,hexagonmagenta.gif,go,,,,,,,,0.500775098801,,,,,,,,,,,,,,,,,,,,,,,,0,0.514272928238,0.000936031341553,0.500775098801,1,s,815.822583914,,,,,,,,,,,,,,,,,,,,,,,,,,,,,,,,,2015_Jun_23_1355,60.0557272173,LearningTask,1,62,
-200,a,-200,,,,,,,,,,,,,,,,,1,0,1,0,15,1,61,3,,,,,,,,,,,,,,,,,,,,,,,,,,,,,a,1,None,0,,4.0,trianglegray.gif,stop,,,,,,,,0.400349140167,,,,,,,,,,,,,,,,,,,,,,,,4.2,0.514417886734,0.000881910324097,0.400349140167,1,a,818.82611084,,,,,,,,,,,,,,,,,,,,,,,,,,,,,,,,,2015_Jun_23_1355,60.0557272173,LearningTask,1,62,
200,s,-200,,,,,,,,,,,,,,,,,1,0,1,0,15,2,62,2,,,,,,,,,,,,,,,,,,,,,,,,,,,,,s,1,None,0,,1.0,hexagonmagenta.gif,go,,,,,,,,0.467684030533,,,,,,,,,,,,,,,,,,,,,,,,1.23,0.514115095139,0.000890016555786,0.467684030533,1,s,821.829288006,,,,,,,,,,,,,,,,,,,,,,,,,,,,,,,,,2015_Jun_23_1355,60.0557272173,LearningTask,1,62,
-200,a,-200,,,,,,,,,,,,,,,,,1,0,1,0,15,3,63,3,,,,,,,,,,,,,,,,,,,,,,,,,,,,,a,1,None,0,,1.0,hexagonmagenta.gif,go,,,,,,,,0.417620897293,,,,,,,,,,,,,,,,,,,,,,,,0,0.514032125473,0.00124001502991,0.417620897293,1,a,824.833126783,,,,,,,,,,,,,,,,,,,,,,,,,,,,,,,,,2015_Jun_23_1355,60.0557272173,LearningTask,1,62,
200,w,200,,,,,,,,,,,,,,,,,1,0,1,0,16,0,64,0,,,,,,,,,,,,,,,,,,,,,,,,,,,,,w,1,None,0,,1.0,diamondcyan.gif,stop,,,,,,,,0.451231002808,,,,,,,,,,,,,,,,,,,,,,,,0,0.513928890228,0.000898838043213,0.451231002808,1,w,827.836121798,,,,,,,,,,,,,,,,,,,,,,,,,,,,,,,,,2015_Jun_23_1355,60.0557272173,LearningTask,1,62,
-200,a,-200,,,,,,,,,,,,,,,,,1,0,1,0,16,1,65,3,,,,,,,,,,,,,,,,,,,,,,,,,,,,,a,1,None,0,,2.0,lineblue.gif,stop,,,,,,,,0.401380062103,,,,,,,,,,,,,,,,,,,,,,,,0,0.514184951782,0.000875949859619,0.401380062103,1,a,830.839520931,,,,,,,,,,,,,,,,,,,,,,,,,,,,,,,,,2015_Jun_23_1355,60.0557272173,LearningTask,1,62,
-200,a,-200,,,,,,,,,,,,,,,,,1,0,1,0,16,2,66,3,,,,,,,,,,,,,,,,,,,,,,,,,,,,,a,1,None,0,,0.5,squaregreen.gif,go,,,,,,,,0.384320020676,,,,,,,,,,,,,,,,,,,,,,,,0.52,0.513693094254,0.000904083251953,0.384320020676,1,a,833.842940807,,,,,,,,,,,,,,,,,,,,,,,,,,,,,,,,,2015_Jun_23_1355,60.0557272173,LearningTask,1,62,
200,w,200,,,,,,,,,,,,,,,,,1,0,1,0,16,3,67,0,,,,,,,,,,,,,,,,,,,,,,,,,,,,,w,1,None,0,,4.0,circlewhite.gif,go,,,,,,,,0.434244155884,,,,,,,,,,,,,,,,,,,,,,,,0,0.514488935471,0.000881910324097,0.434244155884,1,w,836.846014977,,,,,,,,,,,,,,,,,,,,,,,,,,,,,,,,,2015_Jun_23_1355,60.0557272173,LearningTask,1,62,
-200,a,-200,,,,,,,,,,,,,,,,,1,0,1,0,17,0,68,3,,,,,,,,,,,,,,,,,,,,,,,,,,,,,a,1,None,0,,1.0,hexagonmagenta.gif,go,,,,,,,,0.434638023376,,,,,,,,,,,,,,,,,,,,,,,,0.83,0.514266014099,0.000893115997314,0.434638023376,1,a,839.849449873,,,,,,,,,,,,,,,,,,,,,,,,,,,,,,,,,2015_Jun_23_1355,60.0557272173,LearningTask,1,62,
200,s,-200,,,,,,,,,,,,,,,,,1,0,1,0,17,1,69,2,,,,,,,,,,,,,,,,,,,,,,,,,,,,,s,1,None,0,,2.0,crossyellow.gif,go,,,,,,,,0.401473045349,,,,,,,,,,,,,,,,,,,,,,,,1.91,0.513794183731,0.000952005386353,0.401473045349,1,s,842.853002787,,,,,,,,,,,,,,,,,,,,,,,,,,,,,,,,,2015_Jun_23_1355,60.0557272173,LearningTask,1,62,
-200,a,-200,,,,,,,,,,,,,,,,,1,0,1,0,17,2,70,3,,,,,,,,,,,,,,,,,,,,,,,,,,,,,a,1,None,0,,1.0,diamondcyan.gif,stop,,,,,,,,0.451131105423,,,,,,,,,,,,,,,,,,,,,,,,0.92,0.5140209198,0.000874042510986,0.451131105423,1,a,845.856020927,,,,,,,,,,,,,,,,,,,,,,,,,,,,,,,,,2015_Jun_23_1355,60.0557272173,LearningTask,1,62,
200,s,-200,,,,,,,,,,,,,,,,,1,0,1,0,17,3,71,2,,,,,,,,,,,,,,,,,,,,,,,,,,,,,s,1,None,0,,2.0,lineblue.gif,stop,,,,,,,,0.4509370327,,,,,,,,,,,,,,,,,,,,,,,,0,0.514457941055,0.000933885574341,0.484528064728,0,w,848.860244989,2.18,0.514936923981,0.000979900360107,0.4509370327,1,s,851.862844944,,,,,,,,,,,,,,,,,,,,,,,,,,2015_Jun_23_1355,60.0557272173,LearningTask,1,62,
-200,q,200,,,,,,,,,,,,,,,,,1,0,1,0,18,0,72,1,,,,,,,,,,,,,,,,,,,,,,,,,,,,,q,1,None,0,,2.0,lineblue.gif,stop,,,,,,,,0.417742013931,,,,,,,,,,,,,,,,,,,,,,,,2.14,0.514487981796,0.000871181488037,0.417742013931,1,q,854.866220951,,,,,,,,,,,,,,,,,,,,,,,,,,,,,,,,,2015_Jun_23_1355,60.0557272173,LearningTask,1,62,
-200,a,-200,,,,,,,,,,,,,,,,,1,0,1,0,18,1,73,3,,,,,,,,,,,,,,,,,,,,,,,,,,,,,a,1,None,0,,4.0,trianglegray.gif,stop,,,,,,,,0.484414815903,,,,,,,,,,,,,,,,,,,,,,,,3.82,0.514364004135,0.00108599662781,0.484414815903,1,a,857.869575977,,,,,,,,,,,,,,,,,,,,,,,,,,,,,,,,,2015_Jun_23_1355,60.0557272173,LearningTask,1,62,
200,s,-200,,,,,,,,,,,,,,,,,1,0,1,0,18,2,74,2,,,,,,,,,,,,,,,,,,,,,,,,,,,,,s,1,None,0,,1.0,hexagonmagenta.gif,go,,,,,,,,0.484159946442,,,,,,,,,,,,,,,,,,,,,,,,1.03,0.514276027679,0.000890970230103,0.484159946442,1,s,860.873210907,,,,,,,,,,,,,,,,,,,,,,,,,,,,,,,,,2015_Jun_23_1355,60.0557272173,LearningTask,1,62,
-200,q,200,,,,,,,,,,,,,,,,,1,0,1,0,18,3,75,1,,,,,,,,,,,,,,,,,,,,,,,,,,,,,q,1,None,0,,4.0,circlewhite.gif,go,,,,,,,,0.517838001251,,,,,,,,,,,,,,,,,,,,,,,,4.14,0.513962030411,0.00100588798523,0.517838001251,1,q,863.876607895,,,,,,,,,,,,,,,,,,,,,,,,,,,,,,,,,2015_Jun_23_1355,60.0557272173,LearningTask,1,62,
-200,q,200,,,,,,,,,,,,,,,,,1,0,1,0,19,0,76,1,,,,,,,,,,,,,,,,,,,,,,,,,,,,,q,1,None,0,,2.0,crossyellow.gif,go,,,,,,,,0.534003019333,,,,,,,,,,,,,,,,,,,,,,,,1.84,0.514245033264,0.000886201858521,0.534003019333,1,q,866.879722834,,,,,,,,,,,,,,,,,,,,,,,,,,,,,,,,,2015_Jun_23_1355,60.0557272173,LearningTask,1,62,
200,s,-200,,,,,,,,,,,,,,,,,1,0,1,0,19,1,77,2,,,,,,,,,,,,,,,,,,,,,,,,,,,,,s,1,None,0,,1.0,diamondcyan.gif,stop,,,,,,,,0.384015083313,,,,,,,,,,,,,,,,,,,,,,,,1.11,0.514347076416,0.000905990600586,0.384015083313,1,s,869.882961988,,,,,,,,,,,,,,,,,,,,,,,,,,,,,,,,,2015_Jun_23_1355,60.0557272173,LearningTask,1,62,
-200,q,200,,,,,,,,,,,,,,,,,1,0,1,0,19,2,78,1,,,,,,,,,,,,,,,,,,,,,,,,,,,,,q,1,None,0,,2.0,lineblue.gif,stop,,,,,,,,0.617712974548,,,,,,,,,,,,,,,,,,,,,,,,2.22,0.514225959778,0.00109505653381,0.617712974548,1,q,872.88675189,,,,,,,,,,,,,,,,,,,,,,,,,,,,,,,,,2015_Jun_23_1355,60.0557272173,LearningTask,1,62,
200,w,200,,,,,,,,,,,,,,,,,1,0,1,0,19,3,79,0,,,,,,,,,,,,,,,,,,,,,,,,,,,,,w,1,None,0,,2.0,lineblue.gif,stop,,,,,,,,0.534181833267,,,,,,,,,,,,,,,,,,,,,,,,0,0.514194965363,0.00088906288147,0.534181833267,1,w,875.889855862,,,,,,,,,,,,,,,,,,,,,,,,,,,,,,,,,2015_Jun_23_1355,60.0557272173,LearningTask,1,62,
-200,a,-200,,,,,,,,,,,,,,,,,1,0,1,0,20,0,80,3,,,,,,,,,,,,,,,,,,,,,,,,,,,,,a,1,None,0,,2.0,lineblue.gif,stop,,,,,,,,0.401192188263,,,,,,,,,,,,,,,,,,,,,,,,1.91,0.514253854752,0.000877857208252,0.401192188263,1,a,878.893288851,,,,,,,,,,,,,,,,,,,,,,,,,,,,,,,,,2015_Jun_23_1355,60.0557272173,LearningTask,1,62,
200,s,-200,,,,,,,,,,,,,,,,,1,0,1,0,20,1,81,2,,,,,,,,,,,,,,,,,,,,,,,,,,,,,s,1,None,0,,2.0,crossyellow.gif,go,,,,,,,,0.367385149002,,,,,,,,,,,,,,,,,,,,,,,,2.24,0.513953924179,0.000959873199463,0.367385149002,1,s,881.89672184,,,,,,,,,,,,,,,,,,,,,,,,,,,,,,,,,2015_Jun_23_1355,60.0557272173,LearningTask,1,62,
200,w,200,,,,,,,,,,,,,,,,,1,0,1,0,20,2,82,0,,,,,,,,,,,,,,,,,,,,,,,,,,,,,w,1,None,0,,2.0,crossyellow.gif,go,,,,,,,,0.501095056534,,,,,,,,,,,,,,,,,,,,,,,,1.96,0.514248847961,0.000873804092407,0.501095056534,1,w,884.899902821,,,,,,,,,,,,,,,,,,,,,,,,,,,,,,,,,2015_Jun_23_1355,60.0557272173,LearningTask,1,62,
-200,a,-200,,,,,,,,,,,,,,,,,1,0,1,0,20,3,83,3,,,,,,,,,,,,,,,,,,,,,,,,,,,,,a,1,None,0,,1.0,hexagonmagenta.gif,go,,,,,,,,0.717773199081,,,,,,,,,,,,,,,,,,,,,,,,1.05,0.514354944229,0.00088906288147,0.717773199081,1,a,887.903102875,,,,,,,,,,,,,,,,,,,,,,,,,,,,,,,,,2015_Jun_23_1355,60.0557272173,LearningTask,1,62,
-200,a,-200,,,,,,,,,,,,,,,,,1,0,1,0,21,0,84,3,,,,,,,,,,,,,,,,,,,,,,,,,,,,,a,1,None,0,,4.0,circlewhite.gif,go,,,,,,,,0.468048095703,,,,,,,,,,,,,,,,,,,,,,,,4.17,0.514009952545,0.000890016555786,0.468048095703,1,a,890.906898975,,,,,,,,,,,,,,,,,,,,,,,,,,,,,,,,,2015_Jun_23_1355,60.0557272173,LearningTask,1,62,
200,s,-200,,,,,,,,,,,,,,,,,1,0,1,0,21,1,85,2,,,,,,,,,,,,,,,,,,,,,,,,,,,,,s,1,None,0,,4.0,trianglegray.gif,stop,,,,,,,,0.433857917786,,,,,,,,,,,,,,,,,,,,,,,,4.11,0.51416182518,0.000874042510986,0.433857917786,1,s,893.910181999,,,,,,,,,,,,,,,,,,,,,,,,,,,,,,,,,2015_Jun_23_1355,60.0557272173,LearningTask,1,62,
200,w,200,,,,,,,,,,,,,,,,,1,0,1,0,21,2,86,0,,,,,,,,,,,,,,,,,,,,,,,,,,,,,w,1,None,0,,1.0,hexagonmagenta.gif,go,,,,,,,,0.501471042633,,,,,,,,,,,,,,,,,,,,,,,,1.18,0.513962984085,0.00093412399292,0.501471042633,1,w,896.913796902,,,,,,,,,,,,,,,,,,,,,,,,,,,,,,,,,2015_Jun_23_1355,60.0557272173,LearningTask,1,62,
200,w,200,,,,,,,,,,,,,,,,,1,0,1,0,21,3,87,0,,,,,,,,,,,,,,,,,,,,,,,,,,,,,w,1,None,0,,4.0,trianglegray.gif,stop,,,,,,,,0.584052085876,,,,,,,,,,,,,,,,,,,,,,,,0,0.513704061508,0.000910043716431,0.584052085876,1,w,899.916452885,,,,,,,,,,,,,,,,,,,,,,,,,,,,,,,,,2015_Jun_23_1355,60.0557272173,LearningTask,1,62,
-200,q,200,,,,,,,,,,,,,,,,,1,0,1,0,22,0,88,1,,,,,,,,,,,,,,,,,,,,,,,,,,,,,q,1,None,0,,4.0,trianglegray.gif,stop,,,,,,,,0.467963933945,,,,,,,,,,,,,,,,,,,,,,,,4.21,0.514392137527,0.000898122787476,0.467963933945,1,q,902.919963837,,,,,,,,,,,,,,,,,,,,,,,,,,,,,,,,,2015_Jun_23_1355,60.0557272173,LearningTask,1,62,
200,w,200,,,,,,,,,,,,,,,,,1,0,1,0,22,1,89,0,,,,,,,,,,,,,,,,,,,,,,,,,,,,,w,1,None,0,,0.5,squaregreen.gif,go,,,,,,,,0.584599971771,,,,,,,,,,,,,,,,,,,,,,,,0.64,0.514083147049,0.000952959060669,0.584599971771,1,w,905.923399925,,,,,,,,,,,,,,,,,,,,,,,,,,,,,,,,,2015_Jun_23_1355,60.0557272173,LearningTask,1,62,
-200,a,-200,,,,,,,,,,,,,,,,,1,0,1,0,22,2,90,3,,,,,,,,,,,,,,,,,,,,,,,,,,,,,a,1,None,0,,1.0,diamondcyan.gif,stop,,,,,,,,0.434772968292,,,,,,,,,,,,,,,,,,,,,,,,1.05,0.514214992523,0.00088095664978,0.434772968292,1,a,908.926831961,,,,,,,,,,,,,,,,,,,,,,,,,,,,,,,,,2015_Jun_23_1355,60.0557272173,LearningTask,1,62,
-200,q,200,,,,,,,,,,,,,,,,,1,0,1,0,22,3,91,1,,,,,,,,,,,,,,,,,,,,,,,,,,,,,q,1,None,0,,0.5,squaregreen.gif,go,,,,,,,,0.485038995743,,,,,,,,,,,,,,,,,,,,,,,,0.51,0.51419711113,0.00100803375244,0.485038995743,1,q,911.930613995,,,,,,,,,,,,,,,,,,,,,,,,,,,,,,,,,2015_Jun_23_1355,60.0557272173,LearningTask,1,62,
-200,a,-200,,,,,,,,,,,,,,,,,1,0,1,0,23,0,92,3,,,,,,,,,,,,,,,,,,,,,,,,,,,,,a,1,None,0,,0.5,invertedtriangleorange.gif,stop,,,,,,,,0.417384147644,,,,,,,,,,,,,,,,,,,,,,,,0.69,0.51393198967,0.000874042510986,0.417384147644,1,a,914.933516979,,,,,,,,,,,,,,,,,,,,,,,,,,,,,,,,,2015_Jun_23_1355,60.0557272173,LearningTask,1,62,
200,s,-200,,,,,,,,,,,,,,,,,1,0,1,0,23,1,93,2,,,,,,,,,,,,,,,,,,,,,,,,,,,,,s,1,None,0,,4.0,circlewhite.gif,go,,,,,,,,0.384443998337,,,,,,,,,,,,,,,,,,,,,,,,4.04,0.514271020889,0.000885009765625,0.384443998337,1,s,917.936749935,,,,,,,,,,,,,,,,,,,,,,,,,,,,,,,,,2015_Jun_23_1355,60.0557272173,LearningTask,1,62,
200,w,200,,,,,,,,,,,,,,,,,1,0,1,0,23,2,94,0,,,,,,,,,,,,,,,,,,,,,,,,,,,,,w,1,None,0,,4.0,trianglegray.gif,stop,,,,,,,,0.41756606102,,,,,,,,,,,,,,,,,,,,,,,,4.12,0.513792991638,0.000996112823486,0.41756606102,1,w,920.940292835,,,,,,,,,,,,,,,,,,,,,,,,,,,,,,,,,2015_Jun_23_1355,60.0557272173,LearningTask,1,62,
200,w,200,,,,,,,,,,,,,,,,,1,0,1,0,23,3,95,0,,,,,,,,,,,,,,,,,,,,,,,,,,,,,w,1,None,0,,2.0,lineblue.gif,stop,,,,,,,,0.551650047302,,,,,,,,,,,,,,,,,,,,,,,,2.13,0.513772964478,0.000957012176514,0.551650047302,1,w,923.943571806,,,,,,,,,,,,,,,,,,,,,,,,,,,,,,,,,2015_Jun_23_1355,60.0557272173,LearningTask,1,62,
200,w,200,,,,,,,,,,,,,,,,,1,0,1,0,24,0,96,0,,,,,,,,,,,,,,,,,,,,,,,,,,,,,w,1,None,0,,4.0,circlewhite.gif,go,,,,,,,,0.483952999115,,,,,,,,,,,,,,,,,,,,,,,,3.94,0.514477968216,0.00088095664978,0.483952999115,1,w,926.946720839,,,,,,,,,,,,,,,,,,,,,,,,,,,,,,,,,2015_Jun_23_1355,60.0557272173,LearningTask,1,62,
-200,a,-200,,,,,,,,,,,,,,,,,1,0,1,0,24,1,97,3,,,,,,,,,,,,,,,,,,,,,,,,,,,,,a,1,None,0,,0.5,squaregreen.gif,go,,,,,,,,0.468148946762,,,,,,,,,,,,,,,,,,,,,,,,0.37,0.514008998871,0.000953912734985,0.468148946762,1,a,929.950475931,,,,,,,,,,,,,,,,,,,,,,,,,,,,,,,,,2015_Jun_23_1355,60.0557272173,LearningTask,1,62,
-200,q,200,,,,,,,,,,,,,,,,,1,0,1,0,24,2,98,1,,,,,,,,,,,,,,,,,,,,,,,,,,,,,q,1,None,0,,0.5,invertedtriangleorange.gif,stop,,,,,,,,0.417653083801,,,,,,,,,,,,,,,,,,,,,,,,0.52,0.513944149017,0.000884056091309,0.417653083801,1,q,932.953495979,,,,,,,,,,,,,,,,,,,,,,,,,,,,,,,,,2015_Jun_23_1355,60.0557272173,LearningTask,1,62,
-200,q,200,,,,,,,,,,,,,,,,,1,0,1,0,24,3,99,1,,,,,,,,,,,,,,,,,,,,,,,,,,,,,q,1,None,0,,0.5,invertedtriangleorange.gif,stop,,,,,,,,0.434452056885,,,,,,,,,,,,,,,,,,,,,,,,0.38,0.514342069626,0.000871896743774,0.434452056885,1,q,935.956957817,,,,,,,,,,,,,,,,,,,,,,,,,,,,,,,,,2015_Jun_23_1355,60.0557272173,LearningTask,1,62,
,,,,,,,,,,,,,,,,,,,1,0,1,0,,,,,,,,,,,,,,,,,,,,,,,,,,,,,,,,,,,,,,,,,,,,,,,,,,,,,,,,,,,,,,,,,,,,,,,,,,,,,,,,,,,,,,9,13.5684521198,,,,,,,,,,,,,,,,,,,,,,,,2015_Jun_23_1355,60.0557272173,LearningTask,1,62,
-200,q,200,,,,,,,,,,,,,,,,,2,0,2,0,0,0,0,1,,,,,,,,,,,,,,,,,,,,,,,,,,,,,q,1,None,0,,0.5,invertedtriangleorange.gif,stop,,,,,,,,0.501209020615,,,,,,,,,,,,,,,,,,,,,,,,0.52,0.508276939392,0.00115609169006,0.501209020615,1,q,953.243339777,,,,,,,,,,,,,,,,,,,,,,,,,,,,,,,,,2015_Jun_23_1355,60.0557272173,LearningTask,1,62,
200,s,-200,,,,,,,,,,,,,,,,,2,0,2,0,0,1,1,2,,,,,,,,,,,,,,,,,,,,,,,,,,,,,s,1,None,0,,1.0,hexagonmagenta.gif,go,,,,,,,,0.384418964386,,,,,,,,,,,,,,,,,,,,,,,,0.85,0.513509988785,0.00122499465942,0.384418964386,1,s,956.246142864,,,,,,,,,,,,,,,,,,,,,,,,,,,,,,,,,2015_Jun_23_1355,60.0557272173,LearningTask,1,62,
-200,a,-200,,,,,,,,,,,,,,,,,2,0,2,0,0,2,2,3,,,,,,,,,,,,,,,,,,,,,,,,,,,,,a,1,None,0,,2.0,lineblue.gif,stop,,,,,,,,0.38405585289,,,,,,,,,,,,,,,,,,,,,,,,2.09,0.514696121216,0.00112795829773,0.38405585289,1,a,959.249712944,,,,,,,,,,,,,,,,,,,,,,,,,,,,,,,,,2015_Jun_23_1355,60.0557272173,LearningTask,1,62,
-200,q,200,,,,,,,,,,,,,,,,,2,0,2,0,0,3,3,1,,,,,,,,,,,,,,,,,,,,,,,,,,,,,q,1,None,0,,1.0,hexagonmagenta.gif,go,,,,,,,,0.450956106186,,,,,,,,,,,,,,,,,,,,,,,,1.15,0.514297008514,0.000879049301147,0.450956106186,1,q,962.253011942,,,,,,,,,,,,,,,,,,,,,,,,,,,,,,,,,2015_Jun_23_1355,60.0557272173,LearningTask,1,62,
200,s,-200,,,,,,,,,,,,,,,,,2,0,2,0,1,0,4,2,,,,,,,,,,,,,,,,,,,,,,,,,,,,,s,1,None,0,,2.0,crossyellow.gif,go,,,,,,,,0.451222896576,,,,,,,,,,,,,,,,,,,,,,,,1.82,0.51425409317,0.00132608413696,0.451222896576,1,s,965.256270885,,,,,,,,,,,,,,,,,,,,,,,,,,,,,,,,,2015_Jun_23_1355,60.0557272173,LearningTask,1,62,
-200,q,200,,,,,,,,,,,,,,,,,2,0,2,0,1,1,5,1,,,,,,,,,,,,,,,,,,,,,,,,,,,,,q,1,None,0,,1.0,diamondcyan.gif,stop,,,,,,,,0.467526197433,,,,,,,,,,,,,,,,,,,,,,,,1.14,0.514541864395,0.00129699707031,0.467526197433,1,q,968.259643793,,,,,,,,,,,,,,,,,,,,,,,,,,,,,,,,,2015_Jun_23_1355,60.0557272173,LearningTask,1,62,
-200,a,-200,,,,,,,,,,,,,,,,,2,0,2,0,1,2,6,3,,,,,,,,,,,,,,,,,,,,,,,,,,,,,a,1,None,0,,2.0,crossyellow.gif,go,,,,,,,,0.451251029968,,,,,,,,,,,,,,,,,,,,,,,,0,0.514272928238,0.000891923904419,0.451251029968,1,a,971.262868881,,,,,,,,,,,,,,,,,,,,,,,,,,,,,,,,,2015_Jun_23_1355,60.0557272173,LearningTask,1,62,
-200,a,-200,,,,,,,,,,,,,,,,,2,0,2,0,1,3,7,3,,,,,,,,,,,,,,,,,,,,,,,,,,,,,a,1,None,0,,1.0,hexagonmagenta.gif,go,,,,,,,,0.417160987854,,,,,,,,,,,,,,,,,,,,,,,,0.92,0.514716863632,0.00106596946716,0.417160987854,1,a,974.266427994,,,,,,,,,,,,,,,,,,,,,,,,,,,,,,,,,2015_Jun_23_1355,60.0557272173,LearningTask,1,62,
-200,a,-200,,,,,,,,,,,,,,,,,2,0,2,0,2,0,8,3,,,,,,,,,,,,,,,,,,,,,,,,,,,,,a,1,None,0,,1.0,diamondcyan.gif,stop,,,,,,,,0.434807062149,,,,,,,,,,,,,,,,,,,,,,,,1.18,0.514034986496,0.000875949859619,0.434807062149,1,a,977.269677877,,,,,,,,,,,,,,,,,,,,,,,,,,,,,,,,,2015_Jun_23_1355,60.0557272173,LearningTask,1,62,
-200,q,200,,,,,,,,,,,,,,,,,2,0,2,0,2,1,9,1,,,,,,,,,,,,,,,,,,,,,,,,,,,,,q,1,None,0,,4.0,trianglegray.gif,stop,,,,,,,,0.484378814697,,,,,,,,,,,,,,,,,,,,,,,,4.18,0.51437997818,0.00160217285156,0.484378814697,1,q,980.272951841,,,,,,,,,,,,,,,,,,,,,,,,,,,,,,,,,2015_Jun_23_1355,60.0557272173,LearningTask,1,62,
200,w,200,,,,,,,,,,,,,,,,,2,0,2,0,2,2,10,0,,,,,,,,,,,,,,,,,,,,,,,,,,,,,w,1,None,0,,4.0,circlewhite.gif,go,,,,,,,,0.433963060379,,,,,,,,,,,,,,,,,,,,,,,,4.07,0.514222145081,0.00131916999817,0.433963060379,1,w,983.276419878,,,,,,,,,,,,,,,,,,,,,,,,,,,,,,,,,2015_Jun_23_1355,60.0557272173,LearningTask,1,62,
200,s,-200,,,,,,,,,,,,,,,,,2,0,2,0,2,3,11,2,,,,,,,,,,,,,,,,,,,,,,,,,,,,,s,1,None,0,,0.5,invertedtriangleorange.gif,stop,,,,,,,,0.40061712265,,,,,,,,,,,,,,,,,,,,,,,,0.5,0.514143943787,0.00087308883667,0.40061712265,1,s,986.279726982,,,,,,,,,,,,,,,,,,,,,,,,,,,,,,,,,2015_Jun_23_1355,60.0557272173,LearningTask,1,62,
-200,a,-200,,,,,,,,,,,,,,,,,2,0,2,0,3,0,12,3,,,,,,,,,,,,,,,,,,,,,,,,,,,,,a,1,None,0,,0.5,squaregreen.gif,go,,,,,,,,0.451669931412,,,,,,,,,,,,,,,,,,,,,,,,0,0.514194011688,0.00128197669983,0.451669931412,1,a,989.283187866,,,,,,,,,,,,,,,,,,,,,,,,,,,,,,,,,2015_Jun_23_1355,60.0557272173,LearningTask,1,62,
200,s,-200,,,,,,,,,,,,,,,,,2,0,2,0,3,1,13,2,,,,,,,,,,,,,,,,,,,,,,,,,,,,,s,1,None,0,,0.5,squaregreen.gif,go,,,,,,,,0.400959968567,,,,,,,,,,,,,,,,,,,,,,,,0.7,0.513759851456,0.000880002975464,0.400959968567,1,s,992.286808968,,,,,,,,,,,,,,,,,,,,,,,,,,,,,,,,,2015_Jun_23_1355,60.0557272173,LearningTask,1,62,
200,s,-200,,,,,,,,,,,,,,,,,2,0,2,0,3,2,14,2,,,,,,,,,,,,,,,,,,,,,,,,,,,,,s,1,None,0,,4.0,circlewhite.gif,go,,,,,,,,0.401007890701,,,,,,,,,,,,,,,,,,,,,,,,0,0.514189958572,0.000871896743774,0.401007890701,1,s,995.289790869,,,,,,,,,,,,,,,,,,,,,,,,,,,,,,,,,2015_Jun_23_1355,60.0557272173,LearningTask,1,62,
200,s,-200,,,,,,,,,,,,,,,,,2,0,2,0,3,3,15,2,,,,,,,,,,,,,,,,,,,,,,,,,,,,,s,1,None,0,,1.0,hexagonmagenta.gif,go,,,,,,,,0.367452859879,,,,,,,,,,,,,,,,,,,,,,,,1.11,0.514430999756,0.000874996185303,0.367452859879,1,s,998.293591976,,,,,,,,,,,,,,,,,,,,,,,,,,,,,,,,,2015_Jun_23_1355,60.0557272173,LearningTask,1,62,
200,w,200,,,,,,,,,,,,,,,,,2,0,2,0,4,0,16,0,,,,,,,,,,,,,,,,,,,,,,,,,,,,,w,1,None,0,,2.0,crossyellow.gif,go,,,,,,,,0.467653989792,,,,,,,,,,,,,,,,,,,,,,,,1.86,0.513741016388,0.000883817672729,0.467653989792,1,w,1001.29660583,,,,,,,,,,,,,,,,,,,,,,,,,,,,,,,,,2015_Jun_23_1355,60.0557272173,LearningTask,1,62,
200,s,-200,,,,,,,,,,,,,,,,,2,0,2,0,4,1,17,2,,,,,,,,,,,,,,,,,,,,,,,,,,,,,s,1,None,0,,2.0,lineblue.gif,stop,,,,,,,,0.38431596756,,,,,,,,,,,,,,,,,,,,,,,,2.25,0.514185905457,0.000921010971069,0.38431596756,1,s,1004.3001368,,,,,,,,,,,,,,,,,,,,,,,,,,,,,,,,,2015_Jun_23_1355,60.0557272173,LearningTask,1,62,
200,s,-200,,,,,,,,,,,,,,,,,2,0,2,0,4,2,18,2,,,,,,,,,,,,,,,,,,,,,,,,,,,,,s,1,None,0,,2.0,crossyellow.gif,go,,,,,,,,0.350838184357,,,,,,,,,,,,,,,,,,,,,,,,1.82,0.514392852783,0.000872850418091,0.350838184357,1,s,1007.30341578,,,,,,,,,,,,,,,,,,,,,,,,,,,,,,,,,2015_Jun_23_1355,60.0557272173,LearningTask,1,62,
200,w,200,,,,,,,,,,,,,,,,,2,0,2,0,4,3,19,0,,,,,,,,,,,,,,,,,,,,,,,,,,,,,w,1,None,0,,0.5,squaregreen.gif,go,,,,,,,,0.501321077347,,,,,,,,,,,,,,,,,,,,,,,,0.56,0.514364957809,0.00086784362793,0.501321077347,1,w,1010.30674481,,,,,,,,,,,,,,,,,,,,,,,,,,,,,,,,,2015_Jun_23_1355,60.0557272173,LearningTask,1,62,
200,w,200,,,,,,,,,,,,,,,,,2,0,2,0,5,0,20,0,,,,,,,,,,,,,,,,,,,,,,,,,,,,,w,1,None,0,,0.5,squaregreen.gif,go,,,,,,,,0.500782012939,,,,,,,,,,,,,,,,,,,,,,,,0.53,0.514378070831,0.000936985015869,0.500782012939,1,w,1013.31050086,,,,,,,,,,,,,,,,,,,,,,,,,,,,,,,,,2015_Jun_23_1355,60.0557272173,LearningTask,1,62,
-200,a,-200,,,,,,,,,,,,,,,,,2,0,2,0,5,1,21,3,,,,,,,,,,,,,,,,,,,,,,,,,,,,,a,1,None,0,,2.0,lineblue.gif,stop,,,,,,,,0.401164054871,,,,,,,,,,,,,,,,,,,,,,,,1.82,0.513877153397,0.00087308883667,0.401164054871,1,a,1016.31347084,,,,,,,,,,,,,,,,,,,,,,,,,,,,,,,,,2015_Jun_23_1355,60.0557272173,LearningTask,1,62,
-200,q,200,,,,,,,,,,,,,,,,,2,0,2,0,5,2,22,1,,,,,,,,,,,,,,,,,,,,,,,,,,,,,q,1,None,0,,4.0,trianglegray.gif,stop,,,,,,,,0.450886011124,,,,,,,,,,,,,,,,,,,,,,,,3.87,0.514201164246,0.00090217590332,0.450886011124,1,q,1019.31647992,,,,,,,,,,,,,,,,,,,,,,,,,,,,,,,,,2015_Jun_23_1355,60.0557272173,LearningTask,1,62,
-200,a,-200,,,,,,,,,,,,,,,,,2,0,2,0,5,3,23,3,,,,,,,,,,,,,,,,,,,,,,,,,,,,,a,1,None,0,,1.0,diamondcyan.gif,stop,,,,,,,,0.417799949646,,,,,,,,,,,,,,,,,,,,,,,,0,0.514575004578,0.00112700462341,0.417799949646,1,a,1022.32019091,,,,,,,,,,,,,,,,,,,,,,,,,,,,,,,,,2015_Jun_23_1355,60.0557272173,LearningTask,1,62,
200,w,200,,,,,,,,,,,,,,,,,2,0,2,0,6,0,24,0,,,,,,,,,,,,,,,,,,,,,,,,,,,,,w,1,None,0,,0.5,invertedtriangleorange.gif,stop,,,,,,,,0.45095705986,,,,,,,,,,,,,,,,,,,,,,,,0,0.514424085617,0.000878095626831,0.45095705986,1,w,1025.32343984,,,,,,,,,,,,,,,,,,,,,,,,,,,,,,,,,2015_Jun_23_1355,60.0557272173,LearningTask,1,62,
-200,q,200,,,,,,,,,,,,,,,,,2,0,2,0,6,1,25,1,,,,,,,,,,,,,,,,,,,,,,,,,,,,,q,1,None,0,,0.5,invertedtriangleorange.gif,stop,,,,,,,,0.450803041458,,,,,,,,,,,,,,,,,,,,,,,,0.6,0.514405965805,0.000909090042114,0.450803041458,1,q,1028.32668686,,,,,,,,,,,,,,,,,,,,,,,,,,,,,,,,,2015_Jun_23_1355,60.0557272173,LearningTask,1,62,
-200,a,-200,,,,,,,,,,,,,,,,,2,0,2,0,6,2,26,3,,,,,,,,,,,,,,,,,,,,,,,,,,,,,a,1,None,0,,0.5,squaregreen.gif,go,,,,,,,,0.434468984604,,,,,,,,,,,,,,,,,,,,,,,,0.29,0.514046192169,0.00142812728882,0.434468984604,1,a,1031.33017087,,,,,,,,,,,,,,,,,,,,,,,,,,,,,,,,,2015_Jun_23_1355,60.0557272173,LearningTask,1,62,
200,s,-200,,,,,,,,,,,,,,,,,2,0,2,0,6,3,27,2,,,,,,,,,,,,,,,,,,,,,,,,,,,,,s,1,None,0,,4.0,trianglegray.gif,stop,,,,,,,,0.384397983551,,,,,,,,,,,,,,,,,,,,,,,,4.25,0.51454615593,0.000883102416992,0.384397983551,1,s,1034.33386183,,,,,,,,,,,,,,,,,,,,,,,,,,,,,,,,,2015_Jun_23_1355,60.0557272173,LearningTask,1,62,
200,w,200,,,,,,,,,,,,,,,,,2,0,2,0,7,0,28,0,,,,,,,,,,,,,,,,,,,,,,,,,,,,,w,1,None,0,,1.0,diamondcyan.gif,stop,,,,,,,,0.418119192123,,,,,,,,,,,,,,,,,,,,,,,,0,0.513769865036,0.000871896743774,0.418119192123,1,w,1037.3370688,,,,,,,,,,,,,,,,,,,,,,,,,,,,,,,,,2015_Jun_23_1355,60.0557272173,LearningTask,1,62,
200,w,200,,,,,,,,,,,,,,,,,2,0,2,0,7,1,29,0,,,,,,,,,,,,,,,,,,,,,,,,,,,,,w,1,None,0,,0.5,squaregreen.gif,go,,,,,,,,0.484277963638,,,,,,,,,,,,,,,,,,,,,,,,0.59,0.513944864273,0.000921964645386,0.484277963638,1,w,1040.34019399,,,,,,,,,,,,,,,,,,,,,,,,,,,,,,,,,2015_Jun_23_1355,60.0557272173,LearningTask,1,62,
-200,q,200,,,,,,,,,,,,,,,,,2,0,2,0,7,2,30,1,,,,,,,,,,,,,,,,,,,,,,,,,,,,,q,1,None,0,,2.0,lineblue.gif,stop,,,,,,,,0.400408983231,,,,,,,,,,,,,,,,,,,,,,,,1.94,0.514667987823,0.000872850418091,0.400408983231,1,q,1043.34374785,,,,,,,,,,,,,,,,,,,,,,,,,,,,,,,,,2015_Jun_23_1355,60.0557272173,LearningTask,1,62,
200,w,200,,,,,,,,,,,,,,,,,2,0,2,0,7,3,31,0,,,,,,,,,,,,,,,,,,,,,,,,,,,,,w,1,None,0,,0.5,squaregreen.gif,go,,,,,,,,0.417883872986,,,,,,,,,,,,,,,,,,,,,,,,0.25,0.514094829559,0.00086498260498,0.417883872986,1,w,1046.34779286,,,,,,,,,,,,,,,,,,,,,,,,,,,,,,,,,2015_Jun_23_1355,60.0557272173,LearningTask,1,62,
-200,a,-200,,,,,,,,,,,,,,,,,2,0,2,0,8,0,32,3,,,,,,,,,,,,,,,,,,,,,,,,,,,,,a,1,None,0,,0.5,invertedtriangleorange.gif,stop,,,,,,,,0.367422103882,,,,,,,,,,,,,,,,,,,,,,,,0.6,0.513458013535,0.000880002975464,0.367422103882,1,a,1049.35008788,,,,,,,,,,,,,,,,,,,,,,,,,,,,,,,,,2015_Jun_23_1355,60.0557272173,LearningTask,1,62,
-200,a,-200,,,,,,,,,,,,,,,,,2,0,2,0,8,1,33,3,,,,,,,,,,,,,,,,,,,,,,,,,,,,,a,1,None,0,,1.0,diamondcyan.gif,stop,,,,,,,,0.384217977524,,,,,,,,,,,,,,,,,,,,,,,,0,0.51442193985,0.000894069671631,0.384217977524,1,a,1052.35384679,,,,,,,,,,,,,,,,,,,,,,,,,,,,,,,,,2015_Jun_23_1355,60.0557272173,LearningTask,1,62,
200,s,-200,,,,,,,,,,,,,,,,,2,0,2,0,8,2,34,2,,,,,,,,,,,,,,,,,,,,,,,,,,,,,s,1,None,0,,2.0,lineblue.gif,stop,,,,,,,,0.384823083878,,,,,,,,,,,,,,,,,,,,,,,,1.92,0.514211893082,0.000870943069458,0.384823083878,1,s,1055.35714483,,,,,,,,,,,,,,,,,,,,,,,,,,,,,,,,,2015_Jun_23_1355,60.0557272173,LearningTask,1,62,
200,s,-200,,,,,,,,,,,,,,,,,2,0,2,0,8,3,35,2,,,,,,,,,,,,,,,,,,,,,,,,,,,,,s,1,None,0,,1.0,hexagonmagenta.gif,go,,,,,,,,0.467955112457,,,,,,,,,,,,,,,,,,,,,,,,1.23,0.514286994934,0.000982999801636,0.467955112457,1,s,1058.36037993,,,,,,,,,,,,,,,,,,,,,,,,,,,,,,,,,2015_Jun_23_1355,60.0557272173,LearningTask,1,62,
-200,q,200,,,,,,,,,,,,,,,,,2,0,2,0,9,0,36,1,,,,,,,,,,,,,,,,,,,,,,,,,,,,,q,1,None,0,,1.0,hexagonmagenta.gif,go,,,,,,,,0.334359884262,,,,,,,,,,,,,,,,,,,,,,,,0,0.514295816422,0.000911951065063,0.367329835892,0,a,1061.36364794,0,0.515487909317,0.000984907150269,0.334359884262,1,q,1064.36742783,,,,,,,,,,,,,,,,,,,,,,,,,,2015_Jun_23_1355,60.0557272173,LearningTask,1,62,
-200,a,-200,,,,,,,,,,,,,,,,,2,0,2,0,9,1,37,3,,,,,,,,,,,,,,,,,,,,,,,,,,,,,a,1,None,0,,4.0,circlewhite.gif,go,,,,,,,,0.384468078613,,,,,,,,,,,,,,,,,,,,,,,,3.9,0.513914823532,0.0010449886322,0.384468078613,1,a,1067.37039185,,,,,,,,,,,,,,,,,,,,,,,,,,,,,,,,,2015_Jun_23_1355,60.0557272173,LearningTask,1,62,
-200,a,-200,,,,,,,,,,,,,,,,,2,0,2,0,9,2,38,3,,,,,,,,,,,,,,,,,,,,,,,,,,,,,a,1,None,0,,1.0,diamondcyan.gif,stop,,,,,,,,0.383843898773,,,,,,,,,,,,,,,,,,,,,,,,1.2,0.514540195465,0.000937223434448,0.383843898773,1,a,1070.37391782,,,,,,,,,,,,,,,,,,,,,,,,,,,,,,,,,2015_Jun_23_1355,60.0557272173,LearningTask,1,62,
-200,q,200,,,,,,,,,,,,,,,,,2,0,2,0,9,3,39,1,,,,,,,,,,,,,,,,,,,,,,,,,,,,,q,1,None,0,,2.0,crossyellow.gif,go,,,,,,,,0.43449306488,,,,,,,,,,,,,,,,,,,,,,,,0,0.513971090317,0.000883102416992,0.43449306488,1,q,1073.37732387,,,,,,,,,,,,,,,,,,,,,,,,,,,,,,,,,2015_Jun_23_1355,60.0557272173,LearningTask,1,62,
-200,q,200,,,,,,,,,,,,,,,,,2,0,2,0,10,0,40,1,,,,,,,,,,,,,,,,,,,,,,,,,,,,,q,1,None,0,,4.0,trianglegray.gif,stop,,,,,,,,0.417008876801,,,,,,,,,,,,,,,,,,,,,,,,3.99,0.514197826385,0.000926971435547,0.417008876801,1,q,1076.38046694,,,,,,,,,,,,,,,,,,,,,,,,,,,,,,,,,2015_Jun_23_1355,60.0557272173,LearningTask,1,62,
-200,q,200,,,,,,,,,,,,,,,,,2,0,2,0,10,1,41,1,,,,,,,,,,,,,,,,,,,,,,,,,,,,,q,1,None,0,,2.0,lineblue.gif,stop,,,,,,,,0.417939901352,,,,,,,,,,,,,,,,,,,,,,,,2.17,0.514077186584,0.000921964645386,0.417939901352,1,q,1079.38382101,,,,,,,,,,,,,,,,,,,,,,,,,,,,,,,,,2015_Jun_23_1355,60.0557272173,LearningTask,1,62,
-200,q,200,,,,,,,,,,,,,,,,,2,0,2,0,10,2,42,1,,,,,,,,,,,,,,,,,,,,,,,,,,,,,q,1,None,0,,2.0,crossyellow.gif,go,,,,,,,,0.400768995285,,,,,,,,,,,,,,,,,,,,,,,,1.76,0.514515161514,0.000875949859619,0.400768995285,1,q,1082.38722992,,,,,,,,,,,,,,,,,,,,,,,,,,,,,,,,,2015_Jun_23_1355,60.0557272173,LearningTask,1,62,
-200,q,200,,,,,,,,,,,,,,,,,2,0,2,0,10,3,43,1,,,,,,,,,,,,,,,,,,,,,,,,,,,,,q,1,None,0,,2.0,lineblue.gif,stop,,,,,,,,0.40157699585,,,,,,,,,,,,,,,,,,,,,,,,0,0.514009952545,0.000890016555786,0.40157699585,1,q,1085.39070892,,,,,,,,,,,,,,,,,,,,,,,,,,,,,,,,,2015_Jun_23_1355,60.0557272173,LearningTask,1,62,
-200,a,-200,,,,,,,,,,,,,,,,,2,0,2,0,11,0,44,3,,,,,,,,,,,,,,,,,,,,,,,,,,,,,a,1,None,0,,2.0,crossyellow.gif,go,,,,,,,,0.41729593277,,,,,,,,,,,,,,,,,,,,,,,,2.19,0.514034986496,0.000905990600586,0.41729593277,1,a,1088.39405894,,,,,,,,,,,,,,,,,,,,,,,,,,,,,,,,,2015_Jun_23_1355,60.0557272173,LearningTask,1,62,
-200,q,200,,,,,,,,,,,,,,,,,2,0,2,0,11,1,45,1,,,,,,,,,,,,,,,,,,,,,,,,,,,,,q,1,None,0,,1.0,hexagonmagenta.gif,go,,,,,,,,0.48435997963,,,,,,,,,,,,,,,,,,,,,,,,0.91,0.514337062836,0.000885963439941,0.48435997963,1,q,1091.3973999,,,,,,,,,,,,,,,,,,,,,,,,,,,,,,,,,2015_Jun_23_1355,60.0557272173,LearningTask,1,62,
200,s,-200,,,,,,,,,,,,,,,,,2,0,2,0,11,2,46,2,,,,,,,,,,,,,,,,,,,,,,,,,,,,,s,1,None,0,,0.5,invertedtriangleorange.gif,stop,,,,,,,,0.434475898743,,,,,,,,,,,,,,,,,,,,,,,,0.46,0.514120101929,0.000884056091309,0.434475898743,1,s,1094.4009378,,,,,,,,,,,,,,,,,,,,,,,,,,,,,,,,,2015_Jun_23_1355,60.0557272173,LearningTask,1,62,
200,s,-200,,,,,,,,,,,,,,,,,2,0,2,0,11,3,47,2,,,,,,,,,,,,,,,,,,,,,,,,,,,,,s,1,None,0,,1.0,hexagonmagenta.gif,go,,,,,,,,0.567431926727,,,,,,,,,,,,,,,,,,,,,,,,0,0.514153957367,0.000884056091309,0.567431926727,1,s,1097.40405679,,,,,,,,,,,,,,,,,,,,,,,,,,,,,,,,,2015_Jun_23_1355,60.0557272173,LearningTask,1,62,
200,w,200,,,,,,,,,,,,,,,,,2,0,2,0,12,0,48,0,,,,,,,,,,,,,,,,,,,,,,,,,,,,,w,1,None,0,,2.0,lineblue.gif,stop,,,,,,,,0.417459964752,,,,,,,,,,,,,,,,,,,,,,,,1.75,0.514413118362,0.000878095626831,0.417459964752,1,w,1100.40756679,,,,,,,,,,,,,,,,,,,,,,,,,,,,,,,,,2015_Jun_23_1355,60.0557272173,LearningTask,1,62,
200,s,-200,,,,,,,,,,,,,,,,,2,0,2,0,12,1,49,2,,,,,,,,,,,,,,,,,,,,,,,,,,,,,s,1,None,0,,4.0,circlewhite.gif,go,,,,,,,,0.467356920242,,,,,,,,,,,,,,,,,,,,,,,,3.92,0.514335155487,0.00113105773926,0.467356920242,1,s,1103.41092682,,,,,,,,,,,,,,,,,,,,,,,,,,,,,,,,,2015_Jun_23_1355,60.0557272173,LearningTask,1,62,
200,s,-200,,,,,,,,,,,,,,,,,2,0,2,0,12,2,50,2,,,,,,,,,,,,,,,,,,,,,,,,,,,,,s,1,None,0,,4.0,circlewhite.gif,go,,,,,,,,0.383996963501,,,,,,,,,,,,,,,,,,,,,,,,3.99,0.51424407959,0.00088906288147,0.383996963501,1,s,1106.41407681,,,,,,,,,,,,,,,,,,,,,,,,,,,,,,,,,2015_Jun_23_1355,60.0557272173,LearningTask,1,62,
-200,q,200,,,,,,,,,,,,,,,,,2,0,2,0,12,3,51,1,,,,,,,,,,,,,,,,,,,,,,,,,,,,,q,1,None,0,,4.0,circlewhite.gif,go,,,,,,,,0.417339086533,,,,,,,,,,,,,,,,,,,,,,,,3.99,0.514289855957,0.00100088119507,0.417339086533,1,q,1109.41752887,,,,,,,,,,,,,,,,,,,,,,,,,,,,,,,,,2015_Jun_23_1355,60.0557272173,LearningTask,1,62,
-200,a,-200,,,,,,,,,,,,,,,,,2,0,2,0,13,0,52,3,,,,,,,,,,,,,,,,,,,,,,,,,,,,,a,1,None,0,,1.0,diamondcyan.gif,stop,,,,,,,,0.467737913132,,,,,,,,,,,,,,,,,,,,,,,,1.25,0.514355182648,0.000879049301147,0.467737913132,1,a,1112.42094779,,,,,,,,,,,,,,,,,,,,,,,,,,,,,,,,,2015_Jun_23_1355,60.0557272173,LearningTask,1,62,
-200,a,-200,,,,,,,,,,,,,,,,,2,0,2,0,13,1,53,3,,,,,,,,,,,,,,,,,,,,,,,,,,,,,a,1,None,0,,1.0,hexagonmagenta.gif,go,,,,,,,,0.450675964355,,,,,,,,,,,,,,,,,,,,,,,,1.1,0.514241933823,0.000940084457397,0.450675964355,1,a,1115.42418385,,,,,,,,,,,,,,,,,,,,,,,,,,,,,,,,,2015_Jun_23_1355,60.0557272173,LearningTask,1,62,
200,w,200,,,,,,,,,,,,,,,,,2,0,2,0,13,2,54,0,,,,,,,,,,,,,,,,,,,,,,,,,,,,,w,1,None,0,,4.0,circlewhite.gif,go,,,,,,,,0.467665910721,,,,,,,,,,,,,,,,,,,,,,,,3.89,0.514215946198,0.00095796585083,0.467665910721,1,w,1118.42762494,,,,,,,,,,,,,,,,,,,,,,,,,,,,,,,,,2015_Jun_23_1355,60.0557272173,LearningTask,1,62,
200,w,200,,,,,,,,,,,,,,,,,2,0,2,0,13,3,55,0,,,,,,,,,,,,,,,,,,,,,,,,,,,,,w,1,None,0,,4.0,trianglegray.gif,stop,,,,,,,,0.484255075455,,,,,,,,,,,,,,,,,,,,,,,,3.77,0.514326095581,0.000880002975464,0.484255075455,1,w,1121.43088388,,,,,,,,,,,,,,,,,,,,,,,,,,,,,,,,,2015_Jun_23_1355,60.0557272173,LearningTask,1,62,
-200,q,200,,,,,,,,,,,,,,,,,2,0,2,0,14,0,56,1,,,,,,,,,,,,,,,,,,,,,,,,,,,,,q,1,None,0,,4.0,circlewhite.gif,go,,,,,,,,0.400536060333,,,,,,,,,,,,,,,,,,,,,,,,3.76,0.514335870743,0.000993967056274,0.400536060333,1,q,1124.43417001,,,,,,,,,,,,,,,,,,,,,,,,,,,,,,,,,2015_Jun_23_1355,60.0557272173,LearningTask,1,62,
200,s,-200,,,,,,,,,,,,,,,,,2,0,2,0,14,1,57,2,,,,,,,,,,,,,,,,,,,,,,,,,,,,,s,1,None,0,,0.5,squaregreen.gif,go,,,,,,,,0.350952148438,,,,,,,,,,,,,,,,,,,,,,,,0.64,0.513977050781,0.00090217590332,0.350952148438,1,s,1127.43768501,,,,,,,,,,,,,,,,,,,,,,,,,,,,,,,,,2015_Jun_23_1355,60.0557272173,LearningTask,1,62,
200,w,200,,,,,,,,,,,,,,,,,2,0,2,0,14,2,58,0,,,,,,,,,,,,,,,,,,,,,,,,,,,,,w,1,None,0,,1.0,diamondcyan.gif,stop,,,,,,,,0.484147071838,,,,,,,,,,,,,,,,,,,,,,,,0.8,0.514260053635,0.00087308883667,0.484147071838,1,w,1130.44093084,,,,,,,,,,,,,,,,,,,,,,,,,,,,,,,,,2015_Jun_23_1355,60.0557272173,LearningTask,1,62,
200,s,-200,,,,,,,,,,,,,,,,,2,0,2,0,14,3,59,2,,,,,,,,,,,,,,,,,,,,,,,,,,,,,s,1,None,0,,0.5,invertedtriangleorange.gif,stop,,,,,,,,0.367665052414,,,,,,,,,,,,,,,,,,,,,,,,0.63,0.514019966125,0.000886917114258,0.367665052414,1,s,1133.44429278,,,,,,,,,,,,,,,,,,,,,,,,,,,,,,,,,2015_Jun_23_1355,60.0557272173,LearningTask,1,62,
-200,a,-200,,,,,,,,,,,,,,,,,2,0,2,0,15,0,60,3,,,,,,,,,,,,,,,,,,,,,,,,,,,,,a,1,None,0,,2.0,lineblue.gif,stop,,,,,,,,0.384176015854,,,,,,,,,,,,,,,,,,,,,,,,1.77,0.514132976532,0.000908136367798,0.384176015854,1,a,1136.44770288,,,,,,,,,,,,,,,,,,,,,,,,,,,,,,,,,2015_Jun_23_1355,60.0557272173,LearningTask,1,62,
-200,a,-200,,,,,,,,,,,,,,,,,2,0,2,0,15,1,61,3,,,,,,,,,,,,,,,,,,,,,,,,,,,,,a,1,None,0,,0.5,invertedtriangleorange.gif,stop,,,,,,,,0.333869934082,,,,,,,,,,,,,,,,,,,,,,,,0.7,0.514506101608,0.000878095626831,0.333869934082,1,a,1139.45106888,,,,,,,,,,,,,,,,,,,,,,,,,,,,,,,,,2015_Jun_23_1355,60.0557272173,LearningTask,1,62,
-200,a,-200,,,,,,,,,,,,,,,,,2,0,2,0,15,2,62,3,,,,,,,,,,,,,,,,,,,,,,,,,,,,,a,1,None,0,,0.5,squaregreen.gif,go,,,,,,,,0.417356014252,,,,,,,,,,,,,,,,,,,,,,,,0.26,0.514233112335,0.00086498260498,0.417356014252,1,a,1142.45465684,,,,,,,,,,,,,,,,,,,,,,,,,,,,,,,,,2015_Jun_23_1355,60.0557272173,LearningTask,1,62,
-200,q,200,,,,,,,,,,,,,,,,,2,0,2,0,15,3,63,1,,,,,,,,,,,,,,,,,,,,,,,,,,,,,q,1,None,0,,0.5,squaregreen.gif,go,,,,,,,,0.434617996216,,,,,,,,,,,,,,,,,,,,,,,,0,0.514055967331,0.000874996185303,0.434617996216,1,q,1145.45777488,,,,,,,,,,,,,,,,,,,,,,,,,,,,,,,,,2015_Jun_23_1355,60.0557272173,LearningTask,1,62,
200,w,200,,,,,,,,,,,,,,,,,2,0,2,0,16,0,64,0,,,,,,,,,,,,,,,,,,,,,,,,,,,,,w,1,None,0,,2.0,crossyellow.gif,go,,,,,,,,0.668217897415,,,,,,,,,,,,,,,,,,,,,,,,2.02,0.514193058014,0.000888109207153,0.668217897415,1,w,1148.46130896,,,,,,,,,,,,,,,,,,,,,,,,,,,,,,,,,2015_Jun_23_1355,60.0557272173,LearningTask,1,62,
-200,a,-200,,,,,,,,,,,,,,,,,2,0,2,0,16,1,65,3,,,,,,,,,,,,,,,,,,,,,,,,,,,,,a,1,None,0,,0.5,squaregreen.gif,go,,,,,,,,0.667597055435,,,,,,,,,,,,,,,,,,,,,,,,0.35,0.514347076416,0.000890970230103,0.667597055435,1,a,1151.4646399,,,,,,,,,,,,,,,,,,,,,,,,,,,,,,,,,2015_Jun_23_1355,60.0557272173,LearningTask,1,62,
-200,q,200,,,,,,,,,,,,,,,,,2,0,2,0,16,2,66,1,,,,,,,,,,,,,,,,,,,,,,,,,,,,,q,1,None,0,,4.0,circlewhite.gif,go,,,,,,,,0.4173848629,,,,,,,,,,,,,,,,,,,,,,,,3.91,0.514282941818,0.000880002975464,0.4173848629,1,q,1154.46785378,,,,,,,,,,,,,,,,,,,,,,,,,,,,,,,,,2015_Jun_23_1355,60.0557272173,LearningTask,1,62,
200,w,200,,,,,,,,,,,,,,,,,2,0,2,0,16,3,67,0,,,,,,,,,,,,,,,,,,,,,,,,,,,,,w,1,None,0,,0.5,invertedtriangleorange.gif,stop,,,,,,,,0.383960008621,,,,,,,,,,,,,,,,,,,,,,,,0.46,0.514235019684,0.000888824462891,0.383960008621,1,w,1157.4718349,,,,,,,,,,,,,,,,,,,,,,,,,,,,,,,,,2015_Jun_23_1355,60.0557272173,LearningTask,1,62,
-200,q,200,,,,,,,,,,,,,,,,,2,0,2,0,17,0,68,1,,,,,,,,,,,,,,,,,,,,,,,,,,,,,q,1,None,0,,2.0,lineblue.gif,stop,,,,,,,,0.517697811127,,,,,,,,,,,,,,,,,,,,,,,,2.1,0.513645172119,0.000874042510986,0.517697811127,1,q,1160.47460794,,,,,,,,,,,,,,,,,,,,,,,,,,,,,,,,,2015_Jun_23_1355,60.0557272173,LearningTask,1,62,
200,w,200,,,,,,,,,,,,,,,,,2,0,2,0,17,1,69,0,,,,,,,,,,,,,,,,,,,,,,,,,,,,,w,1,None,0,,2.0,lineblue.gif,stop,,,,,,,,0.484277963638,,,,,,,,,,,,,,,,,,,,,,,,1.76,0.514158010483,0.000945091247559,0.484277963638,1,w,1163.47839499,,,,,,,,,,,,,,,,,,,,,,,,,,,,,,,,,2015_Jun_23_1355,60.0557272173,LearningTask,1,62,
-200,a,-200,,,,,,,,,,,,,,,,,2,0,2,0,17,2,70,3,,,,,,,,,,,,,,,,,,,,,,,,,,,,,a,1,None,0,,2.0,lineblue.gif,stop,,,,,,,,0.384845018387,,,,,,,,,,,,,,,,,,,,,,,,2.14,0.513448953629,0.00092601776123,0.384845018387,1,a,1166.48144388,,,,,,,,,,,,,,,,,,,,,,,,,,,,,,,,,2015_Jun_23_1355,60.0557272173,LearningTask,1,62,
200,w,200,,,,,,,,,,,,,,,,,2,0,2,0,17,3,71,0,,,,,,,,,,,,,,,,,,,,,,,,,,,,,w,1,None,0,,0.5,squaregreen.gif,go,,,,,,,,0.417567014694,,,,,,,,,,,,,,,,,,,,,,,,0.39,0.514173030853,0.000905990600586,0.417567014694,1,w,1169.48468184,,,,,,,,,,,,,,,,,,,,,,,,,,,,,,,,,2015_Jun_23_1355,60.0557272173,LearningTask,1,62,
200,s,-200,,,,,,,,,,,,,,,,,2,0,2,0,18,0,72,2,,,,,,,,,,,,,,,,,,,,,,,,,,,,,s,1,None,0,,1.0,diamondcyan.gif,stop,,,,,,,,0.350766897202,,,,,,,,,,,,,,,,,,,,,,,,0,0.514076948166,0.000995874404907,0.350766897202,1,s,1172.48776293,,,,,,,,,,,,,,,,,,,,,,,,,,,,,,,,,2015_Jun_23_1355,60.0557272173,LearningTask,1,62,
200,s,-200,,,,,,,,,,,,,,,,,2,0,2,0,18,1,73,2,,,,,,,,,,,,,,,,,,,,,,,,,,,,,s,1,None,0,,4.0,trianglegray.gif,stop,,,,,,,,0.701424121857,,,,,,,,,,,,,,,,,,,,,,,,3.95,0.514110088348,0.000931024551392,0.701424121857,1,s,1175.49126601,,,,,,,,,,,,,,,,,,,,,,,,,,,,,,,,,2015_Jun_23_1355,60.0557272173,LearningTask,1,62,
-200,q,200,,,,,,,,,,,,,,,,,2,0,2,0,18,2,74,1,,,,,,,,,,,,,,,,,,,,,,,,,,,,,q,1,None,0,,0.5,invertedtriangleorange.gif,stop,,,,,,,,0.651069879532,,,,,,,,,,,,,,,,,,,,,,,,0.38,0.514420986176,0.000874996185303,0.651069879532,1,q,1178.49483299,,,,,,,,,,,,,,,,,,,,,,,,,,,,,,,,,2015_Jun_23_1355,60.0557272173,LearningTask,1,62,
200,w,200,,,,,,,,,,,,,,,,,2,0,2,0,18,3,75,0,,,,,,,,,,,,,,,,,,,,,,,,,,,,,w,1,None,0,,4.0,circlewhite.gif,go,,,,,,,,0.351389884949,,,,,,,,,,,,,,,,,,,,,,,,4.01,0.513724803925,0.000936985015869,0.351389884949,1,w,1181.4980309,,,,,,,,,,,,,,,,,,,,,,,,,,,,,,,,,2015_Jun_23_1355,60.0557272173,LearningTask,1,62,
-200,q,200,,,,,,,,,,,,,,,,,2,0,2,0,19,0,76,1,,,,,,,,,,,,,,,,,,,,,,,,,,,,,q,1,None,0,,1.0,hexagonmagenta.gif,go,,,,,,,,0.367522954941,,,,,,,,,,,,,,,,,,,,,,,,0.9,0.513993024826,0.000915050506592,0.367522954941,1,q,1184.50145483,,,,,,,,,,,,,,,,,,,,,,,,,,,,,,,,,2015_Jun_23_1355,60.0557272173,LearningTask,1,62,
200,w,200,,,,,,,,,,,,,,,,,2,0,2,0,19,1,77,0,,,,,,,,,,,,,,,,,,,,,,,,,,,,,w,1,None,0,,1.0,diamondcyan.gif,stop,,,,,,,,0.450948953629,,,,,,,,,,,,,,,,,,,,,,,,1.21,0.514002084732,0.000876903533936,0.450948953629,1,w,1187.50461078,,,,,,,,,,,,,,,,,,,,,,,,,,,,,,,,,2015_Jun_23_1355,60.0557272173,LearningTask,1,62,
200,w,200,,,,,,,,,,,,,,,,,2,0,2,0,19,2,78,0,,,,,,,,,,,,,,,,,,,,,,,,,,,,,w,1,None,0,,2.0,lineblue.gif,stop,,,,,,,,0.400442838669,,,,,,,,,,,,,,,,,,,,,,,,1.96,0.514474868774,0.000898838043213,0.400442838669,1,w,1190.50861096,,,,,,,,,,,,,,,,,,,,,,,,,,,,,,,,,2015_Jun_23_1355,60.0557272173,LearningTask,1,62,
200,s,-200,,,,,,,,,,,,,,,,,2,0,2,0,19,3,79,2,,,,,,,,,,,,,,,,,,,,,,,,,,,,,s,1,None,0,,4.0,trianglegray.gif,stop,,,,,,,,0.400772094727,,,,,,,,,,,,,,,,,,,,,,,,3.97,0.513823986053,0.00088095664978,0.400772094727,1,s,1193.511379,,,,,,,,,,,,,,,,,,,,,,,,,,,,,,,,,2015_Jun_23_1355,60.0557272173,LearningTask,1,62,
200,s,-200,,,,,,,,,,,,,,,,,2,0,2,0,20,0,80,2,,,,,,,,,,,,,,,,,,,,,,,,,,,,,s,1,None,0,,0.5,invertedtriangleorange.gif,stop,,,,,,,,0.317363023758,,,,,,,,,,,,,,,,,,,,,,,,0.34,0.514293909073,0.000937938690186,0.317363023758,1,s,1196.51493883,,,,,,,,,,,,,,,,,,,,,,,,,,,,,,,,,2015_Jun_23_1355,60.0557272173,LearningTask,1,62,
-200,a,-200,,,,,,,,,,,,,,,,,2,0,2,0,20,1,81,3,,,,,,,,,,,,,,,,,,,,,,,,,,,,,a,1,None,0,,2.0,lineblue.gif,stop,,,,,,,,0.383867025375,,,,,,,,,,,,,,,,,,,,,,,,0,0.51425409317,0.00087308883667,0.383867025375,1,a,1199.51832294,,,,,,,,,,,,,,,,,,,,,,,,,,,,,,,,,2015_Jun_23_1355,60.0557272173,LearningTask,1,62,
-200,a,-200,,,,,,,,,,,,,,,,,2,0,2,0,20,2,82,3,,,,,,,,,,,,,,,,,,,,,,,,,,,,,a,1,None,0,,1.0,hexagonmagenta.gif,go,,,,,,,,0.417499065399,,,,,,,,,,,,,,,,,,,,,,,,1.22,0.51397395134,0.000910043716431,0.417499065399,1,a,1202.52155685,,,,,,,,,,,,,,,,,,,,,,,,,,,,,,,,,2015_Jun_23_1355,60.0557272173,LearningTask,1,62,
-200,q,200,,,,,,,,,,,,,,,,,2,0,2,0,20,3,83,1,,,,,,,,,,,,,,,,,,,,,,,,,,,,,q,1,None,0,,2.0,crossyellow.gif,go,,,,,,,,0.451002836227,,,,,,,,,,,,,,,,,,,,,,,,1.82,0.514235973358,0.000964164733887,0.451002836227,1,q,1205.52488399,,,,,,,,,,,,,,,,,,,,,,,,,,,,,,,,,2015_Jun_23_1355,60.0557272173,LearningTask,1,62,
-200,q,200,,,,,,,,,,,,,,,,,2,0,2,0,21,0,84,1,,,,,,,,,,,,,,,,,,,,,,,,,,,,,q,1,None,0,,1.0,diamondcyan.gif,stop,,,,,,,,0.467657089233,,,,,,,,,,,,,,,,,,,,,,,,0.98,0.514228105545,0.000877141952515,0.467657089233,1,q,1208.528301,,,,,,,,,,,,,,,,,,,,,,,,,,,,,,,,,2015_Jun_23_1355,60.0557272173,LearningTask,1,62,
-200,q,200,,,,,,,,,,,,,,,,,2,0,2,0,21,1,85,1,,,,,,,,,,,,,,,,,,,,,,,,,,,,,q,1,None,0,,1.0,diamondcyan.gif,stop,,,,,,,,0.500828027725,,,,,,,,,,,,,,,,,,,,,,,,1.06,0.514183044434,0.00091290473938,0.500828027725,1,q,1211.53130484,,,,,,,,,,,,,,,,,,,,,,,,,,,,,,,,,2015_Jun_23_1355,60.0557272173,LearningTask,1,62,
200,s,-200,,,,,,,,,,,,,,,,,2,0,2,0,21,2,86,2,,,,,,,,,,,,,,,,,,,,,,,,,,,,,s,1,None,0,,2.0,lineblue.gif,stop,,,,,,,,0.384295940399,,,,,,,,,,,,,,,,,,,,,,,,0,0.514472961426,0.00105309486389,0.384295940399,1,s,1214.53494096,,,,,,,,,,,,,,,,,,,,,,,,,,,,,,,,,2015_Jun_23_1355,60.0557272173,LearningTask,1,62,
-200,a,-200,,,,,,,,,,,,,,,,,2,0,2,0,21,3,87,3,,,,,,,,,,,,,,,,,,,,,,,,,,,,,a,1,None,0,,0.5,invertedtriangleorange.gif,stop,,,,,,,,0.384155988693,,,,,,,,,,,,,,,,,,,,,,,,0.47,0.514237880707,0.00117683410645,0.384155988693,1,a,1217.53820395,,,,,,,,,,,,,,,,,,,,,,,,,,,,,,,,,2015_Jun_23_1355,60.0557272173,LearningTask,1,62,
200,w,200,,,,,,,,,,,,,,,,,2,0,2,0,22,0,88,0,,,,,,,,,,,,,,,,,,,,,,,,,,,,,w,1,None,0,,1.0,diamondcyan.gif,stop,,,,,,,,0.40099811554,,,,,,,,,,,,,,,,,,,,,,,,1.13,0.514582872391,0.00094199180603,0.40099811554,1,w,1220.54161096,,,,,,,,,,,,,,,,,,,,,,,,,,,,,,,,,2015_Jun_23_1355,60.0557272173,LearningTask,1,62,
200,w,200,,,,,,,,,,,,,,,,,2,0,2,0,22,1,89,0,,,,,,,,,,,,,,,,,,,,,,,,,,,,,w,1,None,0,,0.5,invertedtriangleorange.gif,stop,,,,,,,,0.434417963028,,,,,,,,,,,,,,,,,,,,,,,,0,0.51392698288,0.000930070877075,0.434417963028,1,w,1223.54523087,,,,,,,,,,,,,,,,,,,,,,,,,,,,,,,,,2015_Jun_23_1355,60.0557272173,LearningTask,1,62,
200,w,200,,,,,,,,,,,,,,,,,2,0,2,0,22,2,90,0,,,,,,,,,,,,,,,,,,,,,,,,,,,,,w,1,None,0,,2.0,lineblue.gif,stop,,,,,,,,0.484004020691,,,,,,,,,,,,,,,,,,,,,,,,1.97,0.514209032059,0.000890016555786,0.484004020691,1,w,1226.54824996,,,,,,,,,,,,,,,,,,,,,,,,,,,,,,,,,2015_Jun_23_1355,60.0557272173,LearningTask,1,62,
200,s,-200,,,,,,,,,,,,,,,,,2,0,2,0,22,3,91,2,,,,,,,,,,,,,,,,,,,,,,,,,,,,,s,1,None,0,,1.0,diamondcyan.gif,stop,,,,,,,,0.384520053864,,,,,,,,,,,,,,,,,,,,,,,,0,0.514152050018,0.000909090042114,0.384520053864,1,s,1229.55186701,,,,,,,,,,,,,,,,,,,,,,,,,,,,,,,,,2015_Jun_23_1355,60.0557272173,LearningTask,1,62,
200,s,-200,,,,,,,,,,,,,,,,,2,0,2,0,23,0,92,2,,,,,,,,,,,,,,,,,,,,,,,,,,,,,s,1,None,0,,1.0,diamondcyan.gif,stop,,,,,,,,0.351156949997,,,,,,,,,,,,,,,,,,,,,,,,0.85,0.513697147369,0.000900983810425,0.351156949997,1,s,1232.55504084,,,,,,,,,,,,,,,,,,,,,,,,,,,,,,,,,2015_Jun_23_1355,60.0557272173,LearningTask,1,62,
-200,a,-200,,,,,,,,,,,,,,,,,2,0,2,0,23,1,93,3,,,,,,,,,,,,,,,,,,,,,,,,,,,,,a,1,None,0,,4.0,trianglegray.gif,stop,,,,,,,,0.417415142059,,,,,,,,,,,,,,,,,,,,,,,,0,0.51443696022,0.000874996185303,0.417415142059,1,a,1235.55834389,,,,,,,,,,,,,,,,,,,,,,,,,,,,,,,,,2015_Jun_23_1355,60.0557272173,LearningTask,1,62,
