xPos,corrAns,yPos,corrGoResp,yPosGoStim,xPosGoStim,pracTrials.thisRepN,pracTrials.thisTrialN,pracTrials.thisN,pracTrials.thisIndex,ReDoLoopPrac.thisRepN,ReDoLoopPrac.thisTrialN,ReDoLoopPrac.thisN,ReDoLoopPrac.thisIndex,ReDoLoopPrac.thisTrial,pracStopTrials.thisRepN,pracStopTrials.thisTrialN,pracStopTrials.thisN,pracStopTrials.thisIndex,Blocks.thisRepN,Blocks.thisTrialN,Blocks.thisN,Blocks.thisIndex,trials.thisRepN,trials.thisTrialN,trials.thisN,trials.thisIndex,ReDoLoopMain.thisRepN,ReDoLoopMain.thisTrialN,ReDoLoopMain.thisN,ReDoLoopMain.thisIndex,ReDoLoopMain.thisTrial,StopBlocks.thisRepN,StopBlocks.thisTrialN,StopBlocks.thisN,StopBlocks.thisIndex,StopTrials.thisRepN,StopTrials.thisTrialN,StopTrials.thisN,StopTrials.thisIndex,auctionBlocks.thisRepN,auctionBlocks.thisTrialN,auctionBlocks.thisN,auctionBlocks.thisIndex,auctionTrials.thisRepN,auctionTrials.thisTrialN,auctionTrials.thisN,auctionTrials.thisIndex,learningTrialList,learningPracTrialList,stopTrialList,stopPracTrialList,auctionTrialList,ok1.keys,ok1.rt,resp.keys,resp.corr,resp.rt,feedbackResp.keys,feedbackResp.corr,currentReward,currentStimulus,currentStimType,firstPracComputedRewardOutput,firstPracLearningStimOnset,firstPracLearningFixOnset,firstPracPresentationRT,firstPracPresentationAcc,firstPracPresentationResp,firstPracEndTrialTimeStamp,StartTrialTimeStamp,trialType,goStim,stimType,stopStimValue,goResp.keys,goResp.corr,goResp.rt,key_resp_9.keys,key_resp_9.corr,fixStopOnset,goStimOnset,stopSignalOnset,EndTrialTimeStamp,key_resp_3.keys,key_resp_3.rt,firstComputedRewardOutput,firstLearningStimOnset,firstLearningFixOnset,firstPresentationRT,firstPresentationAcc,firstPresentationResp,firstEndTrialTimeStamp,secondComputedRewardOutput,secondLearningStimOnset,secondLearningFixOnset,secondPresentationRT,secondPresentationAcc,secondPresentationResp,secondEndTrialTimeStamp,key_resp_7.keys,key_resp_7.rt,feedbackResp.rt,beginningSSD,EndingSSD,key_resp_4.keys,key_resp_4.rt,auctionResponse.keys,auctionResponse.rt,auctionStimDuration,auctionStim,auctionAmounts,auctionStimValue,auctionCondition,chosenAuctionAmount,key_resp_5.keys,key_resp_5.rt,shuffledRewardList,chosenReward1,chosenReward2,chosenReward3,chosenReward4,chosenReward5,key_resp_6.keys,key_resp_6.rt,date,frameRate,expName,session,participant,
,,,,,,,,,,,,,,,,,,,,,,,,,,,,,,,,,,,,,,,,,,,,,,,,[],[],[],[],[],9,56.8163540363,,,,,,,,,,,,,,,,,,,,,,,,,,,,,,,,,,,,,,,,,,,,,,,,,,,,,,,,,,,,,,,,,,,,,,,2015_Jun_24_1324,59.9645442796,LearningTask,1,64,
-200,a,-200,,,,0,0,0,7,,,,,,,,,,,,,,,,,,,,,,,,,,,,,,,,,,,,,,,,,,,,,,a,1,0.550843000412,None,0,4.0,squareyellow.gif,go,3.86,0.507936954498,0.0430798530579,0.550843000412,1,a,76.6458880901,,,,,,,,,,,,,,,,,,,,,,,,,,,,,,,,,,,,,,,,,,,,,,,,,,,,,,,,2015_Jun_24_1324,59.9645442796,LearningTask,1,64,
200,s,-200,,,,0,1,1,6,,,,,,,,,,,,,,,,,,,,,,,,,,,,,,,,,,,,,,,,,,,,,,s,1,0.417273044586,None,0,1.0,invertedtrianglegreen.gif,go,0.9,0.514786958694,0.00170207023621,0.417273044586,1,s,79.6486420631,,,,,,,,,,,,,,,,,,,,,,,,,,,,,,,,,,,,,,,,,,,,,,,,,,,,,,,,2015_Jun_24_1324,59.9645442796,LearningTask,1,64,
-200,q,200,,,,0,2,2,1,,,,,,,,,,,,,,,,,,,,,,,,,,,,,,,,,,,,,,,,,,,,,,q,1,0.250417947769,None,0,0.5,trianglemagenta.gif,stop,0.32,0.515404939651,0.00180006027222,0.250417947769,1,q,82.652146101,,,,,,,,,,,,,,,,,,,,,,,,,,,,,,,,,,,,,,,,,,,,,,,,,,,,,,,,2015_Jun_24_1324,59.9645442796,LearningTask,1,64,
-200,q,200,,,,0,3,3,5,,,,,,,,,,,,,,,,,,,,,,,,,,,,,,,,,,,,,,,,,,,,,,q,1,0.317353963852,None,0,0.5,diamondgray.gif,go,0.26,0.515433073044,0.0017101764679,0.317353963852,1,q,85.6559331417,,,,,,,,,,,,,,,,,,,,,,,,,,,,,,,,,,,,,,,,,,,,,,,,,,,,,,,,2015_Jun_24_1324,59.9645442796,LearningTask,1,64,
-200,a,-200,,,,0,4,4,3,,,,,,,,,,,,,,,,,,,,,,,,,,,,,,,,,,,,,,,,,,,,,,a,1,0.417272090912,None,0,2.0,linecyan.gif,stop,1.86,0.514677047729,0.00167393684387,0.417272090912,1,a,88.6587181091,,,,,,,,,,,,,,,,,,,,,,,,,,,,,,,,,,,,,,,,,,,,,,,,,,,,,,,,2015_Jun_24_1324,59.9645442796,LearningTask,1,64,
200,s,-200,,,,0,5,5,2,,,,,,,,,,,,,,,,,,,,,,,,,,,,,,,,,,,,,,,,,,,,,,s,1,0.384694099426,None,0,0.5,trianglemagenta.gif,stop,0,0.515054941177,0.000940084457397,0.384694099426,1,s,91.6621370316,,,,,,,,,,,,,,,,,,,,,,,,,,,,,,,,,,,,,,,,,,,,,,,,,,,,,,,,2015_Jun_24_1324,59.9645442796,LearningTask,1,64,
200,w,200,,,,0,6,6,4,,,,,,,,,,,,,,,,,,,,,,,,,,,,,,,,,,,,,,,,,,,,,,w,1,0.351186990738,None,0,2.0,hexagonorange.gif,go,1.83,0.515238046646,0.00169110298157,0.351186990738,1,w,94.6656761169,,,,,,,,,,,,,,,,,,,,,,,,,,,,,,,,,,,,,,,,,,,,,,,,,,,,,,,,2015_Jun_24_1324,59.9645442796,LearningTask,1,64,
200,w,200,,,,0,7,7,8,,,,,,,,,,,,,,,,,,,,,,,,,,,,,,,,,,,,,,,,,,,,,,w,1,0.417510986328,None,0,1.0,invertedtrianglegreen.gif,go,1.07,0.514927148819,0.000900030136108,0.417510986328,1,w,97.6689321995,,,,,,,,,,,,,,,,,,,,,,,,,,,,,,,,,,,,,,,,,,,,,,,,,,,,,,,,2015_Jun_24_1324,59.9645442796,LearningTask,1,64,
200,w,200,,,,0,8,8,0,,,,,,,,,,,,,,,,,,,,,,,,,,,,,,,,,,,,,,,,,,,,,,w,1,0.567771911621,None,0,1.0,circlewhite.gif,stop,1.19,0.514953136444,0.0207841396332,0.567771911621,1,w,100.672311068,,,,,,,,,,,,,,,,,,,,,,,,,,,,,,,,,,,,,,,,,,,,,,,,,,,,,,,,2015_Jun_24_1324,59.9645442796,LearningTask,1,64,
-200,q,200,,,,0,9,9,9,,,,,,,,,,,,,,,,,,,,,,,,,,,,,,,,,,,,,,,,,,,,,,q,1,0.334029197693,None,0,2.0,hexagonorange.gif,go,1.95,0.51522898674,0.000905990600586,0.334029197693,1,q,103.675715208,,,,,,,,,,,,,,,,,,,,,,,,,,,,,,,,,,,,,,,,,,,,,,,,,,,,,,,,2015_Jun_24_1324,59.9645442796,LearningTask,1,64,
,,,m,0,200,,,,,,,,,,0,0,0,1,,,,,,,,,,,,,,,,,,,,,,,,,,,,,,,,,,,,,,,,,,,,,,,,,,,,173.392596006,stop,crossblue.gif,stop,4.0,m,1,0.400753974915,None,0,0.0133509635925,0.509443044662,0.759742021561,176.390109062,,,,,,,,,,,,,,,,,,,,,,,,,,,,,,,,,,,,,,,,,,2015_Jun_24_1324,59.9645442796,LearningTask,1,64,
,,,m,0,200,,,,,,,,,,0,1,1,1,,,,,,,,,,,,,,,,,,,,,,,,,,,,,,,,,,,,,,,,,,,,,,,,,,,,176.390503168,go,diamondgray.gif,go,0.5,m,1,0.700932979584,None,0,0.000967025756836,0.515612125397,,179.39342618,,,,,,,,,,,,,,,,,,,,,,,,,,,,,,,,,,,,,,,,,,2015_Jun_24_1324,59.9645442796,LearningTask,1,64,
,,,m,0,200,,,,,,,,,,1,0,2,1,,,,,,,,,,,,,,,,,,,,,,,,,,,,,,,,,,,,,,,,,,,,,,,,,,,,179.393854141,go,squareyellow.gif,go,4.0,m,1,0.417531967163,None,0,0.000979900360107,0.51581788063,,182.396650076,,,,,,,,,,,,,,,,,,,,,,,,,,,,,,,,,,,,,,,,,,2015_Jun_24_1324,59.9645442796,LearningTask,1,64,
,,,z,0,-200,,,,,,,,,,1,1,3,0,,,,,,,,,,,,,,,,,,,,,,,,,,,,,,,,,,,,,,,,,,,,,,,,,,,,182.397018194,go,diamondgray.gif,go,0.5,z,1,0.283568143845,None,0,0.000949859619141,0.51602602005,,185.399960995,,,,,,,,,,,,,,,,,,,,,,,,,,,,,,,,,,,,,,,,,,2015_Jun_24_1324,59.9645442796,LearningTask,1,64,
,,,m,0,200,,,,,,,,,,2,0,4,1,,,,,,,,,,,,,,,,,,,,,,,,,,,,,,,,,,,,,,,,,,,,,,,,,,,,185.400329113,stop,linecyan.gif,stop,2.0,m,1,0.266788959503,None,0,0.00107789039612,0.515900850296,0.766076087952,188.403427124,,,,,,,,,,,,,,,,,,,,,,,,,,,,,,,,,,,,,,,,,,2015_Jun_24_1324,59.9645442796,LearningTask,1,64,
,,,z,0,-200,,,,,,,,,,2,1,5,0,,,,,,,,,,,,,,,,,,,,,,,,,,,,,,,,,,,,,,,,,,,,,,,,,,,,188.403792143,go,invertedtrianglegreen.gif,go,1.0,z,1,0.316838979721,None,0,0.00108504295349,0.516117095947,,191.406637192,,,,,,,,,,,,,,,,,,,,,,,,,,,,,,,,,,,,,,,,,,2015_Jun_24_1324,59.9645442796,LearningTask,1,64,
,,,z,0,-200,,,,,,,,,,3,0,6,0,,,,,,,,,,,,,,,,,,,,,,,,,,,,,,,,,,,,,,,,,,,,,,,,,,,,191.407005072,go,hexagonorange.gif,go,2.0,z,1,0.317532062531,None,0,0.000957012176514,0.515789031982,,194.410124063,,,,,,,,,,,,,,,,,,,,,,,,,,,,,,,,,,,,,,,,,,2015_Jun_24_1324,59.9645442796,LearningTask,1,64,
,,,z,0,-200,,,,,,,,,,3,1,7,0,,,,,,,,,,,,,,,,,,,,,,,,,,,,,,,,,,,,,,,,,,,,,,,,,,,,194.410497189,go,invertedtrianglegreen.gif,go,1.0,z,1,0.400759935379,None,0,0.00103402137756,0.515850067139,,197.413442135,,,,,,,,,,,,,,,,,,,,,,,,,,,,,,,,,,,,,,,,,,2015_Jun_24_1324,59.9645442796,LearningTask,1,64,
,,,z,0,-200,,,,,,,,,,4,0,8,0,,,,,,,,,,,,,,,,,,,,,,,,,,,,,,,,,,,,,,,,,,,,,,,,,,,,197.413888216,stop,crossblue.gif,stop,4.0,z,1,0.467166185379,None,0,0.000982999801636,0.515489816666,0.765635967255,200.416994095,,,,,,,,,,,,,,,,,,,,,,,,,,,,,,,,,,,,,,,,,,2015_Jun_24_1324,59.9645442796,LearningTask,1,64,
,,,m,0,200,,,,,,,,,,4,1,9,1,,,,,,,,,,,,,,,,,,,,,,,,,,,,,,,,,,,,,,,,,,,,,,,,,,,,200.417365074,stop,linecyan.gif,stop,2.0,None,0,,None,0,0.000972986221313,0.515914916992,0.765810012817,203.420198202,,,,,,,,,,,,,,,,,,,,,,,,,,,,,,,,,,,,,,,,,,2015_Jun_24_1324,59.9645442796,LearningTask,1,64,
,,,,,,,,,,,,,,,,,,,,,,,,,,,,,,,,,,,,,,,,,,,,,,,,,,,,,,,,,,,,,,,,,,,,,,,,,,,,,,,,,,,,9,53.3223440647,,,,,,,,,,,,,,,,,,,,,,,,,,,,,,,,,,,,,,,,2015_Jun_24_1324,59.9645442796,LearningTask,1,64,
,,,,,,,,,,,,,,,,,,,,,,,,,,,,,,,,,,,,,,,,,,,,,,,,,,,,,9,5.70631599426,,,,,,,,,,,,,,,,,,,,,,,,,,,,,,,,,,,,,,,,,,,,,,,,,,,,,,,,,,,,,,,,,,,,,,,2015_Jun_24_1324,59.9645442796,LearningTask,1,64,
-200,a,-200,,,,,,,,,,,,,,,,,0,0,0,0,0,0,0,3,,,,,,,,,,,,,,,,,,,,,,,,,,,,,a,1,0.417716026306,None,0,4.0,squareyellow.gif,go,,,,,,,,,,,,,,,,,,,,,,,,3.89,0.508680820465,0.00104403495789,0.417716026306,1,a,265.591025114,,,,,,,,,,,,,,,,,,,,,,,,,,,,,,,,,2015_Jun_24_1324,59.9645442796,LearningTask,1,64,
-200,q,200,,,,,,,,,,,,,,,,,0,0,0,0,0,1,1,1,,,,,,,,,,,,,,,,,,,,,,,,,,,,,q,1,0.267637968063,None,0,0.5,diamondgray.gif,go,,,,,,,,,,,,,,,,,,,,,,,,0.55,0.513515949249,0.000910997390747,0.267637968063,1,q,268.593353033,,,,,,,,,,,,,,,,,,,,,,,,,,,,,,,,,2015_Jun_24_1324,59.9645442796,LearningTask,1,64,
-200,q,200,,,,,,,,,,,,,,,,,0,0,0,0,0,2,2,1,,,,,,,,,,,,,,,,,,,,,,,,,,,,,q,1,0.283578157425,None,0,0.5,diamondgray.gif,go,,,,,,,,,,,,,,,,,,,,,,,,0.74,0.514519929886,0.000913858413696,0.283578157425,1,q,271.597014189,,,,,,,,,,,,,,,,,,,,,,,,,,,,,,,,,2015_Jun_24_1324,59.9645442796,LearningTask,1,64,
-200,a,-200,,,,,,,,,,,,,,,,,0,0,0,0,0,3,3,3,,,,,,,,,,,,,,,,,,,,,,,,,,,,,a,1,0.367164134979,None,0,4.0,crossblue.gif,stop,,,,,,,,,,,,,,,,,,,,,,,,3.95,0.514420986176,0.000945806503296,0.367164134979,1,a,274.60040617,,,,,,,,,,,,,,,,,,,,,,,,,,,,,,,,,2015_Jun_24_1324,59.9645442796,LearningTask,1,64,
200,s,-200,,,,,,,,,,,,,,,,,0,0,0,0,1,0,4,2,,,,,,,,,,,,,,,,,,,,,,,,,,,,,s,1,0.417587041855,None,0,2.0,hexagonorange.gif,go,,,,,,,,,,,,,,,,,,,,,,,,0,0.514136075974,0.000910997390747,0.250607967377,0,q,277.603551149,1.92,0.515562057495,0.000978946685791,0.417587041855,1,s,280.607326984,,,,,,,,,,,,,,,,,,,,,,,,,,2015_Jun_24_1324,59.9645442796,LearningTask,1,64,
200,s,-200,,,,,,,,,,,,,,,,,0,0,0,0,1,1,5,2,,,,,,,,,,,,,,,,,,,,,,,,,,,,,s,1,0.417504072189,None,0,0.5,diamondgray.gif,go,,,,,,,,,,,,,,,,,,,,,,,,0.71,0.513812065125,0.000978946685791,0.417504072189,1,s,283.61038518,,,,,,,,,,,,,,,,,,,,,,,,,,,,,,,,,2015_Jun_24_1324,59.9645442796,LearningTask,1,64,
200,s,-200,,,,,,,,,,,,,,,,,0,0,0,0,1,2,6,2,,,,,,,,,,,,,,,,,,,,,,,,,,,,,s,1,0.351315021515,None,0,4.0,crossblue.gif,stop,,,,,,,,,,,,,,,,,,,,,,,,4.21,0.514238834381,0.000934839248657,0.351315021515,1,s,286.613718033,,,,,,,,,,,,,,,,,,,,,,,,,,,,,,,,,2015_Jun_24_1324,59.9645442796,LearningTask,1,64,
-200,a,-200,,,,,,,,,,,,,,,,,0,0,0,0,1,3,7,3,,,,,,,,,,,,,,,,,,,,,,,,,,,,,a,1,0.333918094635,None,0,2.0,linecyan.gif,stop,,,,,,,,,,,,,,,,,,,,,,,,2.06,0.514365911484,0.000946044921875,0.333918094635,1,a,289.617087126,,,,,,,,,,,,,,,,,,,,,,,,,,,,,,,,,2015_Jun_24_1324,59.9645442796,LearningTask,1,64,
200,s,-200,,,,,,,,,,,,,,,,,0,0,0,0,2,0,8,2,,,,,,,,,,,,,,,,,,,,,,,,,,,,,s,1,0.333847999573,None,0,0.5,trianglemagenta.gif,stop,,,,,,,,,,,,,,,,,,,,,,,,0.36,0.514375209808,0.000946044921875,0.333847999573,1,s,292.620448112,,,,,,,,,,,,,,,,,,,,,,,,,,,,,,,,,2015_Jun_24_1324,59.9645442796,LearningTask,1,64,
200,w,200,,,,,,,,,,,,,,,,,0,0,0,0,2,1,9,0,,,,,,,,,,,,,,,,,,,,,,,,,,,,,w,1,0.33385515213,None,0,0.5,diamondgray.gif,go,,,,,,,,,,,,,,,,,,,,,,,,0.65,0.514319896698,0.000913858413696,0.33385515213,1,w,295.623764038,,,,,,,,,,,,,,,,,,,,,,,,,,,,,,,,,2015_Jun_24_1324,59.9645442796,LearningTask,1,64,
200,s,-200,,,,,,,,,,,,,,,,,0,0,0,0,2,2,10,2,,,,,,,,,,,,,,,,,,,,,,,,,,,,,s,1,0.284050941467,None,0,0.5,trianglemagenta.gif,stop,,,,,,,,,,,,,,,,,,,,,,,,0.32,0.514081001282,0.000946998596191,0.284050941467,1,s,298.627019167,,,,,,,,,,,,,,,,,,,,,,,,,,,,,,,,,2015_Jun_24_1324,59.9645442796,LearningTask,1,64,
200,s,-200,,,,,,,,,,,,,,,,,0,0,0,0,2,3,11,2,,,,,,,,,,,,,,,,,,,,,,,,,,,,,s,1,0.334029912949,None,0,4.0,squareyellow.gif,go,,,,,,,,,,,,,,,,,,,,,,,,4.06,0.514290094376,0.000901937484741,0.334029912949,1,s,301.630417109,,,,,,,,,,,,,,,,,,,,,,,,,,,,,,,,,2015_Jun_24_1324,59.9645442796,LearningTask,1,64,
-200,q,200,,,,,,,,,,,,,,,,,0,0,0,0,3,0,12,1,,,,,,,,,,,,,,,,,,,,,,,,,,,,,q,1,0.400490999222,None,0,2.0,linecyan.gif,stop,,,,,,,,,,,,,,,,,,,,,,,,1.85,0.514564990997,0.000922203063965,0.400490999222,1,q,304.633979082,,,,,,,,,,,,,,,,,,,,,,,,,,,,,,,,,2015_Jun_24_1324,59.9645442796,LearningTask,1,64,
200,w,200,,,,,,,,,,,,,,,,,0,0,0,0,3,1,13,0,,,,,,,,,,,,,,,,,,,,,,,,,,,,,w,1,0.367279052734,None,0,4.0,crossblue.gif,stop,,,,,,,,,,,,,,,,,,,,,,,,3.84,0.514124155045,0.000900030136108,0.367279052734,1,w,307.637368202,,,,,,,,,,,,,,,,,,,,,,,,,,,,,,,,,2015_Jun_24_1324,59.9645442796,LearningTask,1,64,
200,w,200,,,,,,,,,,,,,,,,,0,0,0,0,3,2,14,0,,,,,,,,,,,,,,,,,,,,,,,,,,,,,w,1,0.367630958557,None,0,0.5,trianglemagenta.gif,stop,,,,,,,,,,,,,,,,,,,,,,,,0.64,0.514205932617,0.000900983810425,0.367630958557,1,w,310.640488148,,,,,,,,,,,,,,,,,,,,,,,,,,,,,,,,,2015_Jun_24_1324,59.9645442796,LearningTask,1,64,
-200,q,200,,,,,,,,,,,,,,,,,0,0,0,0,3,3,15,1,,,,,,,,,,,,,,,,,,,,,,,,,,,,,q,1,0.334000110626,None,0,1.0,circlewhite.gif,stop,,,,,,,,,,,,,,,,,,,,,,,,0,0.514366149902,0.000893115997314,0.367594957352,0,a,313.644113064,0,0.515326976776,0.000976085662842,0.334000110626,1,q,316.647261143,,,,,,,,,,,,,,,,,,,,,,,,,,2015_Jun_24_1324,59.9645442796,LearningTask,1,64,
-200,q,200,,,,,,,,,,,,,,,,,0,0,0,0,4,0,16,1,,,,,,,,,,,,,,,,,,,,,,,,,,,,,q,1,0.334568977356,None,0,1.0,invertedtrianglegreen.gif,go,,,,,,,,,,,,,,,,,,,,,,,,0,0.514225959778,0.000899076461792,0.334568977356,1,q,319.650740147,,,,,,,,,,,,,,,,,,,,,,,,,,,,,,,,,2015_Jun_24_1324,59.9645442796,LearningTask,1,64,
-200,a,-200,,,,,,,,,,,,,,,,,0,0,0,0,4,1,17,3,,,,,,,,,,,,,,,,,,,,,,,,,,,,,a,1,0.367882013321,None,0,0.5,diamondgray.gif,go,,,,,,,,,,,,,,,,,,,,,,,,0.32,0.514358043671,0.00100111961365,0.367882013321,1,a,322.654333115,,,,,,,,,,,,,,,,,,,,,,,,,,,,,,,,,2015_Jun_24_1324,59.9645442796,LearningTask,1,64,
200,w,200,,,,,,,,,,,,,,,,,0,0,0,0,4,2,18,0,,,,,,,,,,,,,,,,,,,,,,,,,,,,,w,1,0.334635972977,None,0,1.0,circlewhite.gif,stop,,,,,,,,,,,,,,,,,,,,,,,,0.96,0.513962030411,0.00088906288147,0.334635972977,1,w,325.657273054,,,,,,,,,,,,,,,,,,,,,,,,,,,,,,,,,2015_Jun_24_1324,59.9645442796,LearningTask,1,64,
200,w,200,,,,,,,,,,,,,,,,,0,0,0,0,4,3,19,0,,,,,,,,,,,,,,,,,,,,,,,,,,,,,w,1,0.484351873398,None,0,4.0,crossblue.gif,stop,,,,,,,,,,,,,,,,,,,,,,,,4.15,0.514414072037,0.000901937484741,0.484351873398,1,w,328.660560131,,,,,,,,,,,,,,,,,,,,,,,,,,,,,,,,,2015_Jun_24_1324,59.9645442796,LearningTask,1,64,
-200,a,-200,,,,,,,,,,,,,,,,,0,0,0,0,5,0,20,3,,,,,,,,,,,,,,,,,,,,,,,,,,,,,a,1,0.401067018509,None,0,2.0,linecyan.gif,stop,,,,,,,,,,,,,,,,,,,,,,,,1.96,0.51439499855,0.000925064086914,0.401067018509,1,a,331.664022207,,,,,,,,,,,,,,,,,,,,,,,,,,,,,,,,,2015_Jun_24_1324,59.9645442796,LearningTask,1,64,
200,w,200,,,,,,,,,,,,,,,,,0,0,0,0,5,1,21,0,,,,,,,,,,,,,,,,,,,,,,,,,,,,,w,1,0.351044178009,None,0,4.0,squareyellow.gif,go,,,,,,,,,,,,,,,,,,,,,,,,3.91,0.514209985733,0.000893115997314,0.351044178009,1,w,334.667320013,,,,,,,,,,,,,,,,,,,,,,,,,,,,,,,,,2015_Jun_24_1324,59.9645442796,LearningTask,1,64,
-200,q,200,,,,,,,,,,,,,,,,,0,0,0,0,5,2,22,1,,,,,,,,,,,,,,,,,,,,,,,,,,,,,q,1,0.417685985565,None,0,4.0,crossblue.gif,stop,,,,,,,,,,,,,,,,,,,,,,,,3.98,0.514611005783,0.00105810165405,0.417685985565,1,q,337.670974016,,,,,,,,,,,,,,,,,,,,,,,,,,,,,,,,,2015_Jun_24_1324,59.9645442796,LearningTask,1,64,
-200,a,-200,,,,,,,,,,,,,,,,,0,0,0,0,5,3,23,3,,,,,,,,,,,,,,,,,,,,,,,,,,,,,a,1,0.38410782814,None,0,4.0,crossblue.gif,stop,,,,,,,,,,,,,,,,,,,,,,,,3.97,0.514345169067,0.000892162322998,0.38410782814,1,a,340.673998117,,,,,,,,,,,,,,,,,,,,,,,,,,,,,,,,,2015_Jun_24_1324,59.9645442796,LearningTask,1,64,
200,w,200,,,,,,,,,,,,,,,,,0,0,0,0,6,0,24,0,,,,,,,,,,,,,,,,,,,,,,,,,,,,,w,1,0.417856216431,None,0,1.0,circlewhite.gif,stop,,,,,,,,,,,,,,,,,,,,,,,,1.22,0.514356851578,0.000905990600586,0.417856216431,1,w,343.677376032,,,,,,,,,,,,,,,,,,,,,,,,,,,,,,,,,2015_Jun_24_1324,59.9645442796,LearningTask,1,64,
-200,a,-200,,,,,,,,,,,,,,,,,0,0,0,0,6,1,25,3,,,,,,,,,,,,,,,,,,,,,,,,,,,,,a,1,0.350968837738,None,0,4.0,squareyellow.gif,go,,,,,,,,,,,,,,,,,,,,,,,,3.76,0.51411986351,0.00094199180603,0.350968837738,1,a,346.680826187,,,,,,,,,,,,,,,,,,,,,,,,,,,,,,,,,2015_Jun_24_1324,59.9645442796,LearningTask,1,64,
-200,a,-200,,,,,,,,,,,,,,,,,0,0,0,0,6,2,26,3,,,,,,,,,,,,,,,,,,,,,,,,,,,,,a,1,0.384332180023,None,0,1.0,invertedtrianglegreen.gif,go,,,,,,,,,,,,,,,,,,,,,,,,0.82,0.514287948608,0.000904083251953,0.384332180023,1,a,349.68407011,,,,,,,,,,,,,,,,,,,,,,,,,,,,,,,,,2015_Jun_24_1324,59.9645442796,LearningTask,1,64,
200,s,-200,,,,,,,,,,,,,,,,,0,0,0,0,6,3,27,2,,,,,,,,,,,,,,,,,,,,,,,,,,,,,s,1,0.384691953659,None,0,4.0,squareyellow.gif,go,,,,,,,,,,,,,,,,,,,,,,,,4.08,0.51446390152,0.000882863998413,0.384691953659,1,s,352.687609196,,,,,,,,,,,,,,,,,,,,,,,,,,,,,,,,,2015_Jun_24_1324,59.9645442796,LearningTask,1,64,
200,w,200,,,,,,,,,,,,,,,,,0,0,0,0,7,0,28,0,,,,,,,,,,,,,,,,,,,,,,,,,,,,,w,1,0.434430122375,None,0,4.0,squareyellow.gif,go,,,,,,,,,,,,,,,,,,,,,,,,3.95,0.513712882996,0.000927925109863,0.434430122375,1,w,355.691049099,,,,,,,,,,,,,,,,,,,,,,,,,,,,,,,,,2015_Jun_24_1324,59.9645442796,LearningTask,1,64,
-200,q,200,,,,,,,,,,,,,,,,,0,0,0,0,7,1,29,1,,,,,,,,,,,,,,,,,,,,,,,,,,,,,q,1,0.351264953613,None,0,0.5,diamondgray.gif,go,,,,,,,,,,,,,,,,,,,,,,,,0.72,0.51403594017,0.00090503692627,0.351264953613,1,q,358.694086075,,,,,,,,,,,,,,,,,,,,,,,,,,,,,,,,,2015_Jun_24_1324,59.9645442796,LearningTask,1,64,
-200,a,-200,,,,,,,,,,,,,,,,,0,0,0,0,7,2,30,3,,,,,,,,,,,,,,,,,,,,,,,,,,,,,a,1,0.267192840576,None,0,4.0,crossblue.gif,stop,,,,,,,,,,,,,,,,,,,,,,,,3.98,0.514418840408,0.000903844833374,0.267192840576,1,a,361.697800159,,,,,,,,,,,,,,,,,,,,,,,,,,,,,,,,,2015_Jun_24_1324,59.9645442796,LearningTask,1,64,
-200,q,200,,,,,,,,,,,,,,,,,0,0,0,0,7,3,31,1,,,,,,,,,,,,,,,,,,,,,,,,,,,,,q,1,0.367509126663,None,0,2.0,hexagonorange.gif,go,,,,,,,,,,,,,,,,,,,,,,,,2.14,0.513854980469,0.000940084457397,0.367509126663,1,q,364.701008081,,,,,,,,,,,,,,,,,,,,,,,,,,,,,,,,,2015_Jun_24_1324,59.9645442796,LearningTask,1,64,
-200,q,200,,,,,,,,,,,,,,,,,0,0,0,0,8,0,32,1,,,,,,,,,,,,,,,,,,,,,,,,,,,,,q,1,0.334063053131,None,0,0.5,diamondgray.gif,go,,,,,,,,,,,,,,,,,,,,,,,,0.73,0.51425409317,0.000922918319702,0.334063053131,1,q,367.704385996,,,,,,,,,,,,,,,,,,,,,,,,,,,,,,,,,2015_Jun_24_1324,59.9645442796,LearningTask,1,64,
-200,a,-200,,,,,,,,,,,,,,,,,0,0,0,0,8,1,33,3,,,,,,,,,,,,,,,,,,,,,,,,,,,,,a,1,0.384027004242,None,0,4.0,squareyellow.gif,go,,,,,,,,,,,,,,,,,,,,,,,,0,0.514580011368,0.000951051712036,0.384027004242,1,a,370.708163023,,,,,,,,,,,,,,,,,,,,,,,,,,,,,,,,,2015_Jun_24_1324,59.9645442796,LearningTask,1,64,
200,s,-200,,,,,,,,,,,,,,,,,0,0,0,0,8,2,34,2,,,,,,,,,,,,,,,,,,,,,,,,,,,,,s,1,0.467567920685,None,0,0.5,diamondgray.gif,go,,,,,,,,,,,,,,,,,,,,,,,,0.62,0.513705015182,0.000890970230103,0.467567920685,1,s,373.710958004,,,,,,,,,,,,,,,,,,,,,,,,,,,,,,,,,2015_Jun_24_1324,59.9645442796,LearningTask,1,64,
200,w,200,,,,,,,,,,,,,,,,,0,0,0,0,8,3,35,0,,,,,,,,,,,,,,,,,,,,,,,,,,,,,w,1,0.4006960392,None,0,0.5,trianglemagenta.gif,stop,,,,,,,,,,,,,,,,,,,,,,,,0.38,0.514367103577,0.00090503692627,0.4006960392,1,w,376.714089155,,,,,,,,,,,,,,,,,,,,,,,,,,,,,,,,,2015_Jun_24_1324,59.9645442796,LearningTask,1,64,
-200,q,200,,,,,,,,,,,,,,,,,0,0,0,0,9,0,36,1,,,,,,,,,,,,,,,,,,,,,,,,,,,,,q,1,0.300721883774,None,0,1.0,invertedtrianglegreen.gif,go,,,,,,,,,,,,,,,,,,,,,,,,1.14,0.514453887939,0.000961065292358,0.300721883774,1,q,379.717725039,,,,,,,,,,,,,,,,,,,,,,,,,,,,,,,,,2015_Jun_24_1324,59.9645442796,LearningTask,1,64,
200,s,-200,,,,,,,,,,,,,,,,,0,0,0,0,9,1,37,2,,,,,,,,,,,,,,,,,,,,,,,,,,,,,s,1,0.384378910065,None,0,0.5,diamondgray.gif,go,,,,,,,,,,,,,,,,,,,,,,,,0.45,0.514564037323,0.00113701820374,0.384378910065,1,s,382.720890045,,,,,,,,,,,,,,,,,,,,,,,,,,,,,,,,,2015_Jun_24_1324,59.9645442796,LearningTask,1,64,
200,w,200,,,,,,,,,,,,,,,,,0,0,0,0,9,2,38,0,,,,,,,,,,,,,,,,,,,,,,,,,,,,,w,1,0.434386968613,None,0,1.0,invertedtrianglegreen.gif,go,,,,,,,,,,,,,,,,,,,,,,,,0,0.514745950699,0.00100898742676,0.434386968613,1,w,385.724299192,,,,,,,,,,,,,,,,,,,,,,,,,,,,,,,,,2015_Jun_24_1324,59.9645442796,LearningTask,1,64,
-200,q,200,,,,,,,,,,,,,,,,,0,0,0,0,9,3,39,1,,,,,,,,,,,,,,,,,,,,,,,,,,,,,q,1,0.367074966431,None,0,2.0,hexagonorange.gif,go,,,,,,,,,,,,,,,,,,,,,,,,1.84,0.514691829681,0.000903844833374,0.367074966431,1,q,388.727724075,,,,,,,,,,,,,,,,,,,,,,,,,,,,,,,,,2015_Jun_24_1324,59.9645442796,LearningTask,1,64,
-200,q,200,,,,,,,,,,,,,,,,,0,0,0,0,10,0,40,1,,,,,,,,,,,,,,,,,,,,,,,,,,,,,q,1,0.384475946426,None,0,1.0,circlewhite.gif,stop,,,,,,,,,,,,,,,,,,,,,,,,0.79,0.514321088791,0.000895023345947,0.384475946426,1,q,391.731036186,,,,,,,,,,,,,,,,,,,,,,,,,,,,,,,,,2015_Jun_24_1324,59.9645442796,LearningTask,1,64,
200,w,200,,,,,,,,,,,,,,,,,0,0,0,0,10,1,41,0,,,,,,,,,,,,,,,,,,,,,,,,,,,,,w,1,0.434080839157,None,0,4.0,crossblue.gif,stop,,,,,,,,,,,,,,,,,,,,,,,,4.24,0.514045000076,0.0010359287262,0.434080839157,1,w,394.734413147,,,,,,,,,,,,,,,,,,,,,,,,,,,,,,,,,2015_Jun_24_1324,59.9645442796,LearningTask,1,64,
-200,q,200,,,,,,,,,,,,,,,,,0,0,0,0,10,2,42,1,,,,,,,,,,,,,,,,,,,,,,,,,,,,,q,1,0.384677171707,None,0,2.0,hexagonorange.gif,go,,,,,,,,,,,,,,,,,,,,,,,,0,0.514253854752,0.00143980979919,0.384677171707,1,q,397.737659216,,,,,,,,,,,,,,,,,,,,,,,,,,,,,,,,,2015_Jun_24_1324,59.9645442796,LearningTask,1,64,
-200,a,-200,,,,,,,,,,,,,,,,,0,0,0,0,10,3,43,3,,,,,,,,,,,,,,,,,,,,,,,,,,,,,a,1,0.417247056961,None,0,0.5,diamondgray.gif,go,,,,,,,,,,,,,,,,,,,,,,,,0.35,0.514651060104,0.000904083251953,0.417247056961,1,a,400.741164207,,,,,,,,,,,,,,,,,,,,,,,,,,,,,,,,,2015_Jun_24_1324,59.9645442796,LearningTask,1,64,
200,s,-200,,,,,,,,,,,,,,,,,0,0,0,0,11,0,44,2,,,,,,,,,,,,,,,,,,,,,,,,,,,,,s,1,0.384505033493,None,0,4.0,squareyellow.gif,go,,,,,,,,,,,,,,,,,,,,,,,,0,0.514193058014,0.000895977020264,0.384505033493,1,s,403.744624138,,,,,,,,,,,,,,,,,,,,,,,,,,,,,,,,,2015_Jun_24_1324,59.9645442796,LearningTask,1,64,
200,w,200,,,,,,,,,,,,,,,,,0,0,0,0,11,1,45,0,,,,,,,,,,,,,,,,,,,,,,,,,,,,,w,1,0.467664957047,None,0,2.0,linecyan.gif,stop,,,,,,,,,,,,,,,,,,,,,,,,2.18,0.514245986938,0.000910043716431,0.467664957047,1,w,406.747639179,,,,,,,,,,,,,,,,,,,,,,,,,,,,,,,,,2015_Jun_24_1324,59.9645442796,LearningTask,1,64,
-200,q,200,,,,,,,,,,,,,,,,,0,0,0,0,11,2,46,1,,,,,,,,,,,,,,,,,,,,,,,,,,,,,q,1,0.367964029312,None,0,0.5,diamondgray.gif,go,,,,,,,,,,,,,,,,,,,,,,,,0,0.514336824417,0.000967979431152,0.367964029312,1,q,409.751458168,,,,,,,,,,,,,,,,,,,,,,,,,,,,,,,,,2015_Jun_24_1324,59.9645442796,LearningTask,1,64,
200,w,200,,,,,,,,,,,,,,,,,0,0,0,0,11,3,47,0,,,,,,,,,,,,,,,,,,,,,,,,,,,,,w,1,0.384337902069,None,0,1.0,circlewhite.gif,stop,,,,,,,,,,,,,,,,,,,,,,,,0.75,0.513776063919,0.000931978225708,0.384337902069,1,w,412.754686117,,,,,,,,,,,,,,,,,,,,,,,,,,,,,,,,,2015_Jun_24_1324,59.9645442796,LearningTask,1,64,
200,w,200,,,,,,,,,,,,,,,,,0,0,0,0,12,0,48,0,,,,,,,,,,,,,,,,,,,,,,,,,,,,,w,1,0.400651216507,None,0,2.0,linecyan.gif,stop,,,,,,,,,,,,,,,,,,,,,,,,1.94,0.514330863953,0.000906944274902,0.400651216507,1,w,415.757974148,,,,,,,,,,,,,,,,,,,,,,,,,,,,,,,,,2015_Jun_24_1324,59.9645442796,LearningTask,1,64,
-200,q,200,,,,,,,,,,,,,,,,,0,0,0,0,12,1,49,1,,,,,,,,,,,,,,,,,,,,,,,,,,,,,q,1,0.317695140839,None,0,0.5,trianglemagenta.gif,stop,,,,,,,,,,,,,,,,,,,,,,,,0.64,0.514508008957,0.00095009803772,0.317695140839,1,q,418.761965036,,,,,,,,,,,,,,,,,,,,,,,,,,,,,,,,,2015_Jun_24_1324,59.9645442796,LearningTask,1,64,
200,s,-200,,,,,,,,,,,,,,,,,0,0,0,0,12,2,50,2,,,,,,,,,,,,,,,,,,,,,,,,,,,,,s,1,0.434220075607,None,0,0.5,trianglemagenta.gif,stop,,,,,,,,,,,,,,,,,,,,,,,,0,0.51361489296,0.000910997390747,0.434220075607,1,s,421.764602184,,,,,,,,,,,,,,,,,,,,,,,,,,,,,,,,,2015_Jun_24_1324,59.9645442796,LearningTask,1,64,
-200,a,-200,,,,,,,,,,,,,,,,,0,0,0,0,12,3,51,3,,,,,,,,,,,,,,,,,,,,,,,,,,,,,a,1,0.333889007568,None,0,2.0,hexagonorange.gif,go,,,,,,,,,,,,,,,,,,,,,,,,0,0.514345169067,0.000907182693481,0.333889007568,1,a,424.767767191,,,,,,,,,,,,,,,,,,,,,,,,,,,,,,,,,2015_Jun_24_1324,59.9645442796,LearningTask,1,64,
-200,q,200,,,,,,,,,,,,,,,,,0,0,0,0,13,0,52,1,,,,,,,,,,,,,,,,,,,,,,,,,,,,,q,1,0.351039886475,None,0,1.0,invertedtrianglegreen.gif,go,,,,,,,,,,,,,,,,,,,,,,,,1.11,0.514565944672,0.000960111618042,0.351039886475,1,q,427.771242142,,,,,,,,,,,,,,,,,,,,,,,,,,,,,,,,,2015_Jun_24_1324,59.9645442796,LearningTask,1,64,
200,s,-200,,,,,,,,,,,,,,,,,0,0,0,0,13,1,53,2,,,,,,,,,,,,,,,,,,,,,,,,,,,,,s,1,0.534221887589,None,0,0.5,trianglemagenta.gif,stop,,,,,,,,,,,,,,,,,,,,,,,,0.61,0.514418125153,0.000920057296753,0.534221887589,1,s,430.774688005,,,,,,,,,,,,,,,,,,,,,,,,,,,,,,,,,2015_Jun_24_1324,59.9645442796,LearningTask,1,64,
200,w,200,,,,,,,,,,,,,,,,,0,0,0,0,13,2,54,0,,,,,,,,,,,,,,,,,,,,,,,,,,,,,w,1,0.400961875916,None,0,0.5,trianglemagenta.gif,stop,,,,,,,,,,,,,,,,,,,,,,,,0.58,0.514071941376,0.0010359287262,0.400961875916,1,w,433.778326035,,,,,,,,,,,,,,,,,,,,,,,,,,,,,,,,,2015_Jun_24_1324,59.9645442796,LearningTask,1,64,
200,w,200,,,,,,,,,,,,,,,,,0,0,0,0,13,3,55,0,,,,,,,,,,,,,,,,,,,,,,,,,,,,,w,1,0.4671189785,None,0,2.0,hexagonorange.gif,go,,,,,,,,,,,,,,,,,,,,,,,,0,0.514497041702,0.000901937484741,0.4671189785,1,w,436.781288147,,,,,,,,,,,,,,,,,,,,,,,,,,,,,,,,,2015_Jun_24_1324,59.9645442796,LearningTask,1,64,
200,s,-200,,,,,,,,,,,,,,,,,0,0,0,0,14,0,56,2,,,,,,,,,,,,,,,,,,,,,,,,,,,,,s,1,0.384088039398,None,0,0.5,diamondgray.gif,go,,,,,,,,,,,,,,,,,,,,,,,,0,0.514334201813,0.000895977020264,0.384088039398,1,s,439.784868002,,,,,,,,,,,,,,,,,,,,,,,,,,,,,,,,,2015_Jun_24_1324,59.9645442796,LearningTask,1,64,
-200,a,-200,,,,,,,,,,,,,,,,,0,0,0,0,14,1,57,3,,,,,,,,,,,,,,,,,,,,,,,,,,,,,a,1,0.401143074036,None,0,0.5,diamondgray.gif,go,,,,,,,,,,,,,,,,,,,,,,,,0.36,0.513991832733,0.000929832458496,0.401143074036,1,a,442.78828311,,,,,,,,,,,,,,,,,,,,,,,,,,,,,,,,,2015_Jun_24_1324,59.9645442796,LearningTask,1,64,
-200,a,-200,,,,,,,,,,,,,,,,,0,0,0,0,14,2,58,3,,,,,,,,,,,,,,,,,,,,,,,,,,,,,a,1,0.568065881729,None,0,0.5,diamondgray.gif,go,,,,,,,,,,,,,,,,,,,,,,,,0,0.514030218124,0.000895023345947,0.568065881729,1,a,445.791614056,,,,,,,,,,,,,,,,,,,,,,,,,,,,,,,,,2015_Jun_24_1324,59.9645442796,LearningTask,1,64,
-200,q,200,,,,,,,,,,,,,,,,,0,0,0,0,14,3,59,1,,,,,,,,,,,,,,,,,,,,,,,,,,,,,q,1,0.417299985886,None,0,4.0,squareyellow.gif,go,,,,,,,,,,,,,,,,,,,,,,,,4.23,0.514211177826,0.000891208648682,0.417299985886,1,q,448.794807196,,,,,,,,,,,,,,,,,,,,,,,,,,,,,,,,,2015_Jun_24_1324,59.9645442796,LearningTask,1,64,
200,s,-200,,,,,,,,,,,,,,,,,0,0,0,0,15,0,60,2,,,,,,,,,,,,,,,,,,,,,,,,,,,,,s,1,0.351142168045,None,0,4.0,crossblue.gif,stop,,,,,,,,,,,,,,,,,,,,,,,,0,0.513682842255,0.000976800918579,0.351142168045,1,s,451.798325062,,,,,,,,,,,,,,,,,,,,,,,,,,,,,,,,,2015_Jun_24_1324,59.9645442796,LearningTask,1,64,
200,w,200,,,,,,,,,,,,,,,,,0,0,0,0,15,1,61,0,,,,,,,,,,,,,,,,,,,,,,,,,,,,,w,1,0.384171009064,None,0,4.0,squareyellow.gif,go,,,,,,,,,,,,,,,,,,,,,,,,3.94,0.514088153839,0.000898122787476,0.384171009064,1,w,454.801344156,,,,,,,,,,,,,,,,,,,,,,,,,,,,,,,,,2015_Jun_24_1324,59.9645442796,LearningTask,1,64,
200,w,200,,,,,,,,,,,,,,,,,0,0,0,0,15,2,62,0,,,,,,,,,,,,,,,,,,,,,,,,,,,,,w,1,0.550982952118,None,0,4.0,squareyellow.gif,go,,,,,,,,,,,,,,,,,,,,,,,,4.22,0.514486074448,0.000900983810425,0.550982952118,1,w,457.805092096,,,,,,,,,,,,,,,,,,,,,,,,,,,,,,,,,2015_Jun_24_1324,59.9645442796,LearningTask,1,64,
-200,a,-200,,,,,,,,,,,,,,,,,0,0,0,0,15,3,63,3,,,,,,,,,,,,,,,,,,,,,,,,,,,,,a,1,0.38384103775,None,0,4.0,squareyellow.gif,go,,,,,,,,,,,,,,,,,,,,,,,,3.75,0.514023065567,0.000899076461792,0.38384103775,1,a,460.808334112,,,,,,,,,,,,,,,,,,,,,,,,,,,,,,,,,2015_Jun_24_1324,59.9645442796,LearningTask,1,64,
-200,q,200,,,,,,,,,,,,,,,,,0,0,0,0,16,0,64,1,,,,,,,,,,,,,,,,,,,,,,,,,,,,,q,1,0.3842689991,None,0,2.0,linecyan.gif,stop,,,,,,,,,,,,,,,,,,,,,,,,2.2,0.514303922653,0.000890970230103,0.3842689991,1,q,463.811812162,,,,,,,,,,,,,,,,,,,,,,,,,,,,,,,,,2015_Jun_24_1324,59.9645442796,LearningTask,1,64,
-200,a,-200,,,,,,,,,,,,,,,,,0,0,0,0,16,1,65,3,,,,,,,,,,,,,,,,,,,,,,,,,,,,,a,1,0.367156028748,None,0,2.0,linecyan.gif,stop,,,,,,,,,,,,,,,,,,,,,,,,1.76,0.514391183853,0.000949144363403,0.367156028748,1,a,466.815428019,,,,,,,,,,,,,,,,,,,,,,,,,,,,,,,,,2015_Jun_24_1324,59.9645442796,LearningTask,1,64,
200,s,-200,,,,,,,,,,,,,,,,,0,0,0,0,16,2,66,2,,,,,,,,,,,,,,,,,,,,,,,,,,,,,s,1,0.350977897644,None,0,2.0,linecyan.gif,stop,,,,,,,,,,,,,,,,,,,,,,,,1.91,0.513851881027,0.000897884368896,0.350977897644,1,s,469.818309069,,,,,,,,,,,,,,,,,,,,,,,,,,,,,,,,,2015_Jun_24_1324,59.9645442796,LearningTask,1,64,
-200,a,-200,,,,,,,,,,,,,,,,,0,0,0,0,16,3,67,3,,,,,,,,,,,,,,,,,,,,,,,,,,,,,a,1,0.367552995682,None,0,2.0,linecyan.gif,stop,,,,,,,,,,,,,,,,,,,,,,,,0,0.514101982117,0.000890970230103,0.367552995682,1,a,472.821721077,,,,,,,,,,,,,,,,,,,,,,,,,,,,,,,,,2015_Jun_24_1324,59.9645442796,LearningTask,1,64,
200,s,-200,,,,,,,,,,,,,,,,,0,0,0,0,17,0,68,2,,,,,,,,,,,,,,,,,,,,,,,,,,,,,s,1,0.400639057159,None,0,2.0,linecyan.gif,stop,,,,,,,,,,,,,,,,,,,,,,,,0,0.51417517662,0.000960111618042,0.400639057159,1,s,475.825519085,,,,,,,,,,,,,,,,,,,,,,,,,,,,,,,,,2015_Jun_24_1324,59.9645442796,LearningTask,1,64,
200,s,-200,,,,,,,,,,,,,,,,,0,0,0,0,17,1,69,2,,,,,,,,,,,,,,,,,,,,,,,,,,,,,s,1,0.400285959244,None,0,1.0,invertedtrianglegreen.gif,go,,,,,,,,,,,,,,,,,,,,,,,,1.14,0.51393699646,0.000931978225708,0.400285959244,1,s,478.828433037,,,,,,,,,,,,,,,,,,,,,,,,,,,,,,,,,2015_Jun_24_1324,59.9645442796,LearningTask,1,64,
200,s,-200,,,,,,,,,,,,,,,,,0,0,0,0,17,2,70,2,,,,,,,,,,,,,,,,,,,,,,,,,,,,,s,1,0.350958108902,None,0,0.5,diamondgray.gif,go,,,,,,,,,,,,,,,,,,,,,,,,0.57,0.514209985733,0.00103902816772,0.350958108902,1,s,481.831903219,,,,,,,,,,,,,,,,,,,,,,,,,,,,,,,,,2015_Jun_24_1324,59.9645442796,LearningTask,1,64,
-200,q,200,,,,,,,,,,,,,,,,,0,0,0,0,17,3,71,1,,,,,,,,,,,,,,,,,,,,,,,,,,,,,q,1,0.367494106293,None,0,2.0,linecyan.gif,stop,,,,,,,,,,,,,,,,,,,,,,,,0,0.513751029968,0.000894069671631,0.384390115738,0,a,484.834966183,2.25,0.515506982803,0.000959873199463,0.367494106293,1,q,487.838276148,,,,,,,,,,,,,,,,,,,,,,,,,,2015_Jun_24_1324,59.9645442796,LearningTask,1,64,
200,s,-200,,,,,,,,,,,,,,,,,0,0,0,0,18,0,72,2,,,,,,,,,,,,,,,,,,,,,,,,,,,,,s,1,0.400787115097,None,0,4.0,squareyellow.gif,go,,,,,,,,,,,,,,,,,,,,,,,,4.15,0.514272928238,0.000952005386353,0.400787115097,1,s,490.841717005,,,,,,,,,,,,,,,,,,,,,,,,,,,,,,,,,2015_Jun_24_1324,59.9645442796,LearningTask,1,64,
-200,a,-200,,,,,,,,,,,,,,,,,0,0,0,0,18,1,73,3,,,,,,,,,,,,,,,,,,,,,,,,,,,,,a,1,0.317680120468,None,0,4.0,crossblue.gif,stop,,,,,,,,,,,,,,,,,,,,,,,,4.16,0.513943910599,0.000906944274902,0.317680120468,1,a,493.844997168,,,,,,,,,,,,,,,,,,,,,,,,,,,,,,,,,2015_Jun_24_1324,59.9645442796,LearningTask,1,64,
200,s,-200,,,,,,,,,,,,,,,,,0,0,0,0,18,2,74,2,,,,,,,,,,,,,,,,,,,,,,,,,,,,,s,1,0.36732006073,None,0,2.0,hexagonorange.gif,go,,,,,,,,,,,,,,,,,,,,,,,,1.78,0.514766931534,0.000910043716431,0.36732006073,1,s,496.848828077,,,,,,,,,,,,,,,,,,,,,,,,,,,,,,,,,2015_Jun_24_1324,59.9645442796,LearningTask,1,64,
200,w,200,,,,,,,,,,,,,,,,,0,0,0,0,18,3,75,0,,,,,,,,,,,,,,,,,,,,,,,,,,,,,w,1,0.384277105331,None,0,2.0,linecyan.gif,stop,,,,,,,,,,,,,,,,,,,,,,,,0,0.513875007629,0.000897884368896,0.367345809937,0,s,499.851966143,2.25,0.515319108963,0.000989198684692,0.384277105331,1,w,502.855120182,,,,,,,,,,,,,,,,,,,,,,,,,,2015_Jun_24_1324,59.9645442796,LearningTask,1,64,
-200,a,-200,,,,,,,,,,,,,,,,,0,0,0,0,19,0,76,3,,,,,,,,,,,,,,,,,,,,,,,,,,,,,a,1,0.484019994736,None,0,1.0,invertedtrianglegreen.gif,go,,,,,,,,,,,,,,,,,,,,,,,,0,0.514372110367,0.000946044921875,0.484019994736,1,a,505.85871315,,,,,,,,,,,,,,,,,,,,,,,,,,,,,,,,,2015_Jun_24_1324,59.9645442796,LearningTask,1,64,
-200,q,200,,,,,,,,,,,,,,,,,0,0,0,0,19,1,77,1,,,,,,,,,,,,,,,,,,,,,,,,,,,,,q,1,0.283981084824,None,0,1.0,circlewhite.gif,stop,,,,,,,,,,,,,,,,,,,,,,,,0.97,0.513934850693,0.000905990600586,0.283981084824,1,q,508.862150192,,,,,,,,,,,,,,,,,,,,,,,,,,,,,,,,,2015_Jun_24_1324,59.9645442796,LearningTask,1,64,
-200,q,200,,,,,,,,,,,,,,,,,0,0,0,0,19,2,78,1,,,,,,,,,,,,,,,,,,,,,,,,,,,,,q,1,0.384361982346,None,0,1.0,invertedtrianglegreen.gif,go,,,,,,,,,,,,,,,,,,,,,,,,0.98,0.514018774033,0.000899791717529,0.384361982346,1,q,511.865446091,,,,,,,,,,,,,,,,,,,,,,,,,,,,,,,,,2015_Jun_24_1324,59.9645442796,LearningTask,1,64,
-200,a,-200,,,,,,,,,,,,,,,,,0,0,0,0,19,3,79,3,,,,,,,,,,,,,,,,,,,,,,,,,,,,,a,1,0.383970022202,None,0,0.5,trianglemagenta.gif,stop,,,,,,,,,,,,,,,,,,,,,,,,0.57,0.514401912689,0.000996828079224,0.383970022202,1,a,514.869055986,,,,,,,,,,,,,,,,,,,,,,,,,,,,,,,,,2015_Jun_24_1324,59.9645442796,LearningTask,1,64,
200,w,200,,,,,,,,,,,,,,,,,0,0,0,0,20,0,80,0,,,,,,,,,,,,,,,,,,,,,,,,,,,,,w,1,0.400859832764,None,0,2.0,linecyan.gif,stop,,,,,,,,,,,,,,,,,,,,,,,,0,0.513953208923,0.000896215438843,0.400859832764,1,w,517.871885061,,,,,,,,,,,,,,,,,,,,,,,,,,,,,,,,,2015_Jun_24_1324,59.9645442796,LearningTask,1,64,
200,s,-200,,,,,,,,,,,,,,,,,0,0,0,0,20,1,81,2,,,,,,,,,,,,,,,,,,,,,,,,,,,,,s,1,0.400985002518,None,0,1.0,invertedtrianglegreen.gif,go,,,,,,,,,,,,,,,,,,,,,,,,0.86,0.514443874359,0.00089693069458,0.400985002518,1,s,520.87510705,,,,,,,,,,,,,,,,,,,,,,,,,,,,,,,,,2015_Jun_24_1324,59.9645442796,LearningTask,1,64,
-200,a,-200,,,,,,,,,,,,,,,,,0,0,0,0,20,2,82,3,,,,,,,,,,,,,,,,,,,,,,,,,,,,,a,1,0.401260137558,None,0,1.0,invertedtrianglegreen.gif,go,,,,,,,,,,,,,,,,,,,,,,,,0.85,0.514533042908,0.000962972640991,0.401260137558,1,a,523.878746033,,,,,,,,,,,,,,,,,,,,,,,,,,,,,,,,,2015_Jun_24_1324,59.9645442796,LearningTask,1,64,
-200,a,-200,,,,,,,,,,,,,,,,,0,0,0,0,20,3,83,3,,,,,,,,,,,,,,,,,,,,,,,,,,,,,a,1,0.417937040329,None,0,1.0,invertedtrianglegreen.gif,go,,,,,,,,,,,,,,,,,,,,,,,,0.76,0.514199018478,0.000916004180908,0.417937040329,1,a,526.881957054,,,,,,,,,,,,,,,,,,,,,,,,,,,,,,,,,2015_Jun_24_1324,59.9645442796,LearningTask,1,64,
-200,a,-200,,,,,,,,,,,,,,,,,0,0,0,0,21,0,84,3,,,,,,,,,,,,,,,,,,,,,,,,,,,,,a,1,0.517302036285,None,0,4.0,squareyellow.gif,go,,,,,,,,,,,,,,,,,,,,,,,,0,0.514545917511,0.00105285644531,0.517302036285,1,a,529.885556221,,,,,,,,,,,,,,,,,,,,,,,,,,,,,,,,,2015_Jun_24_1324,59.9645442796,LearningTask,1,64,
-200,a,-200,,,,,,,,,,,,,,,,,0,0,0,0,21,1,85,3,,,,,,,,,,,,,,,,,,,,,,,,,,,,,a,1,0.401046991348,None,0,2.0,hexagonorange.gif,go,,,,,,,,,,,,,,,,,,,,,,,,2.14,0.513833999634,0.000905990600586,0.401046991348,1,a,532.888614178,,,,,,,,,,,,,,,,,,,,,,,,,,,,,,,,,2015_Jun_24_1324,59.9645442796,LearningTask,1,64,
-200,q,200,,,,,,,,,,,,,,,,,0,0,0,0,21,2,86,1,,,,,,,,,,,,,,,,,,,,,,,,,,,,,q,1,0.350811958313,None,0,0.5,trianglemagenta.gif,stop,,,,,,,,,,,,,,,,,,,,,,,,0,0.514509916306,0.00094199180603,0.350811958313,1,q,535.892359018,,,,,,,,,,,,,,,,,,,,,,,,,,,,,,,,,2015_Jun_24_1324,59.9645442796,LearningTask,1,64,
200,w,200,,,,,,,,,,,,,,,,,0,0,0,0,21,3,87,0,,,,,,,,,,,,,,,,,,,,,,,,,,,,,w,1,0.400822162628,None,0,4.0,squareyellow.gif,go,,,,,,,,,,,,,,,,,,,,,,,,4.1,0.513855934143,0.000940084457397,0.400822162628,1,w,538.89542222,,,,,,,,,,,,,,,,,,,,,,,,,,,,,,,,,2015_Jun_24_1324,59.9645442796,LearningTask,1,64,
-200,q,200,,,,,,,,,,,,,,,,,0,0,0,0,22,0,88,1,,,,,,,,,,,,,,,,,,,,,,,,,,,,,q,1,0.333806037903,None,0,4.0,crossblue.gif,stop,,,,,,,,,,,,,,,,,,,,,,,,3.93,0.514434099197,0.000890970230103,0.333806037903,1,q,541.898766994,,,,,,,,,,,,,,,,,,,,,,,,,,,,,,,,,2015_Jun_24_1324,59.9645442796,LearningTask,1,64,
200,w,200,,,,,,,,,,,,,,,,,0,0,0,0,22,1,89,0,,,,,,,,,,,,,,,,,,,,,,,,,,,,,w,1,0.433814048767,None,0,2.0,hexagonorange.gif,go,,,,,,,,,,,,,,,,,,,,,,,,1.83,0.514761209488,0.000941038131714,0.433814048767,1,w,544.902204037,,,,,,,,,,,,,,,,,,,,,,,,,,,,,,,,,2015_Jun_24_1324,59.9645442796,LearningTask,1,64,
200,s,-200,,,,,,,,,,,,,,,,,0,0,0,0,22,2,90,2,,,,,,,,,,,,,,,,,,,,,,,,,,,,,s,1,0.333555936813,None,0,1.0,invertedtrianglegreen.gif,go,,,,,,,,,,,,,,,,,,,,,,,,1.08,0.514147043228,0.000960111618042,0.333555936813,1,s,547.905692101,,,,,,,,,,,,,,,,,,,,,,,,,,,,,,,,,2015_Jun_24_1324,59.9645442796,LearningTask,1,64,
200,s,-200,,,,,,,,,,,,,,,,,0,0,0,0,22,3,91,2,,,,,,,,,,,,,,,,,,,,,,,,,,,,,s,1,0.300549030304,None,0,4.0,squareyellow.gif,go,,,,,,,,,,,,,,,,,,,,,,,,4.08,0.513999938965,0.000946998596191,0.300549030304,1,s,550.908786058,,,,,,,,,,,,,,,,,,,,,,,,,,,,,,,,,2015_Jun_24_1324,59.9645442796,LearningTask,1,64,
-200,q,200,,,,,,,,,,,,,,,,,0,0,0,0,23,0,92,1,,,,,,,,,,,,,,,,,,,,,,,,,,,,,q,1,0.368209123611,None,0,2.0,hexagonorange.gif,go,,,,,,,,,,,,,,,,,,,,,,,,1.89,0.514369010925,0.00125098228455,0.368209123611,1,q,553.912591219,,,,,,,,,,,,,,,,,,,,,,,,,,,,,,,,,2015_Jun_24_1324,59.9645442796,LearningTask,1,64,
200,s,-200,,,,,,,,,,,,,,,,,0,0,0,0,23,1,93,2,,,,,,,,,,,,,,,,,,,,,,,,,,,,,s,1,0.367670059204,None,0,0.5,diamondgray.gif,go,,,,,,,,,,,,,,,,,,,,,,,,0.55,0.513739109039,0.000914096832275,0.367670059204,1,s,556.915693998,,,,,,,,,,,,,,,,,,,,,,,,,,,,,,,,,2015_Jun_24_1324,59.9645442796,LearningTask,1,64,
200,w,200,,,,,,,,,,,,,,,,,0,0,0,0,23,2,94,0,,,,,,,,,,,,,,,,,,,,,,,,,,,,,w,1,0.401057004929,None,0,2.0,hexagonorange.gif,go,,,,,,,,,,,,,,,,,,,,,,,,0,0.514129161835,0.000892162322998,0.401057004929,1,w,559.918919086,,,,,,,,,,,,,,,,,,,,,,,,,,,,,,,,,2015_Jun_24_1324,59.9645442796,LearningTask,1,64,
200,w,200,,,,,,,,,,,,,,,,,0,0,0,0,23,3,95,0,,,,,,,,,,,,,,,,,,,,,,,,,,,,,w,1,0.400494813919,None,0,2.0,hexagonorange.gif,go,,,,,,,,,,,,,,,,,,,,,,,,1.86,0.514549970627,0.000970125198364,0.400494813919,1,w,562.922415018,,,,,,,,,,,,,,,,,,,,,,,,,,,,,,,,,2015_Jun_24_1324,59.9645442796,LearningTask,1,64,
-200,a,-200,,,,,,,,,,,,,,,,,0,0,0,0,24,0,96,3,,,,,,,,,,,,,,,,,,,,,,,,,,,,,a,1,0.400974988937,None,0,4.0,squareyellow.gif,go,,,,,,,,,,,,,,,,,,,,,,,,3.97,0.51416516304,0.000894069671631,0.400974988937,1,a,565.92545414,,,,,,,,,,,,,,,,,,,,,,,,,,,,,,,,,2015_Jun_24_1324,59.9645442796,LearningTask,1,64,
-200,q,200,,,,,,,,,,,,,,,,,0,0,0,0,24,1,97,1,,,,,,,,,,,,,,,,,,,,,,,,,,,,,q,1,0.351123094559,None,0,2.0,hexagonorange.gif,go,,,,,,,,,,,,,,,,,,,,,,,,2.13,0.514435052872,0.000929117202759,0.351123094559,1,q,568.928876162,,,,,,,,,,,,,,,,,,,,,,,,,,,,,,,,,2015_Jun_24_1324,59.9645442796,LearningTask,1,64,
200,w,200,,,,,,,,,,,,,,,,,0,0,0,0,24,2,98,0,,,,,,,,,,,,,,,,,,,,,,,,,,,,,w,1,0.451237916946,None,0,0.5,trianglemagenta.gif,stop,,,,,,,,,,,,,,,,,,,,,,,,0.26,0.514424085617,0.000932931900024,0.451237916946,1,w,571.932429075,,,,,,,,,,,,,,,,,,,,,,,,,,,,,,,,,2015_Jun_24_1324,59.9645442796,LearningTask,1,64,
200,s,-200,,,,,,,,,,,,,,,,,0,0,0,0,24,3,99,2,,,,,,,,,,,,,,,,,,,,,,,,,,,,,s,1,0.350480079651,None,0,2.0,linecyan.gif,stop,,,,,,,,,,,,,,,,,,,,,,,,2.25,0.514149904251,0.000900030136108,0.350480079651,1,s,574.935918093,,,,,,,,,,,,,,,,,,,,,,,,,,,,,,,,,2015_Jun_24_1324,59.9645442796,LearningTask,1,64,
,,,,,,,,,,,,,,,,,,,0,0,0,0,,,,,,,,,,,,,,,,,,,,,,,,,,,,,,,,,,,,,,,,,,,,,,,,,,,,,,,,,,,,,,,,,,,,,,,,,,,,,,9,704.949434996,,,,,,,,,,,,,,,,,,,,,,,,2015_Jun_24_1324,59.9645442796,LearningTask,1,64,
-200,a,-200,,,,,,,,,,,,,,,,,1,0,1,0,0,0,0,3,,,,,,,,,,,,,,,,,,,,,,,,,,,,,a,1,0.417768001556,None,0,4.0,crossblue.gif,stop,,,,,,,,,,,,,,,,,,,,,,,,4.04,0.508270025253,0.00132513046265,0.417768001556,1,a,1283.32784605,,,,,,,,,,,,,,,,,,,,,,,,,,,,,,,,,2015_Jun_24_1324,59.9645442796,LearningTask,1,64,
-200,a,-200,,,,,,,,,,,,,,,,,1,0,1,0,0,1,1,3,,,,,,,,,,,,,,,,,,,,,,,,,,,,,a,1,0.351119995117,None,0,1.0,invertedtrianglegreen.gif,go,,,,,,,,,,,,,,,,,,,,,,,,0.82,0.513340950012,0.0012948513031,0.351119995117,1,a,1286.33023214,,,,,,,,,,,,,,,,,,,,,,,,,,,,,,,,,2015_Jun_24_1324,59.9645442796,LearningTask,1,64,
200,w,200,,,,,,,,,,,,,,,,,1,0,1,0,0,2,2,0,,,,,,,,,,,,,,,,,,,,,,,,,,,,,w,1,0.333997011185,None,0,4.0,squareyellow.gif,go,,,,,,,,,,,,,,,,,,,,,,,,4.04,0.51457118988,0.0012800693512,0.333997011185,1,w,1289.33394408,,,,,,,,,,,,,,,,,,,,,,,,,,,,,,,,,2015_Jun_24_1324,59.9645442796,LearningTask,1,64,
200,s,-200,,,,,,,,,,,,,,,,,1,0,1,0,0,3,3,2,,,,,,,,,,,,,,,,,,,,,,,,,,,,,s,1,0.367570877075,None,0,0.5,trianglemagenta.gif,stop,,,,,,,,,,,,,,,,,,,,,,,,0,0.513993024826,0.00129795074463,0.367570877075,1,s,1292.33726406,,,,,,,,,,,,,,,,,,,,,,,,,,,,,,,,,2015_Jun_24_1324,59.9645442796,LearningTask,1,64,
-200,q,200,,,,,,,,,,,,,,,,,1,0,1,0,1,0,4,1,,,,,,,,,,,,,,,,,,,,,,,,,,,,,q,1,0.334362030029,None,0,4.0,squareyellow.gif,go,,,,,,,,,,,,,,,,,,,,,,,,3.94,0.513865947723,0.000887870788574,0.334362030029,1,q,1295.34046507,,,,,,,,,,,,,,,,,,,,,,,,,,,,,,,,,2015_Jun_24_1324,59.9645442796,LearningTask,1,64,
200,w,200,,,,,,,,,,,,,,,,,1,0,1,0,1,1,5,0,,,,,,,,,,,,,,,,,,,,,,,,,,,,,w,1,0.350697994232,None,0,0.5,diamondgray.gif,go,,,,,,,,,,,,,,,,,,,,,,,,0,0.514187812805,0.00186085700989,0.350697994232,1,w,1298.343786,,,,,,,,,,,,,,,,,,,,,,,,,,,,,,,,,2015_Jun_24_1324,59.9645442796,LearningTask,1,64,
-200,q,200,,,,,,,,,,,,,,,,,1,0,1,0,1,2,6,1,,,,,,,,,,,,,,,,,,,,,,,,,,,,,q,1,0.384439945221,None,0,0.5,trianglemagenta.gif,stop,,,,,,,,,,,,,,,,,,,,,,,,0.54,0.514075994492,0.000903844833374,0.384439945221,1,q,1301.34726119,,,,,,,,,,,,,,,,,,,,,,,,,,,,,,,,,2015_Jun_24_1324,59.9645442796,LearningTask,1,64,
-200,a,-200,,,,,,,,,,,,,,,,,1,0,1,0,1,3,7,3,,,,,,,,,,,,,,,,,,,,,,,,,,,,,a,1,0.350574970245,None,0,1.0,circlewhite.gif,stop,,,,,,,,,,,,,,,,,,,,,,,,1.24,0.514191150665,0.00130009651184,0.350574970245,1,a,1304.3503952,,,,,,,,,,,,,,,,,,,,,,,,,,,,,,,,,2015_Jun_24_1324,59.9645442796,LearningTask,1,64,
200,w,200,,,,,,,,,,,,,,,,,1,0,1,0,2,0,8,0,,,,,,,,,,,,,,,,,,,,,,,,,,,,,w,1,0.401116847992,None,0,0.5,diamondgray.gif,go,,,,,,,,,,,,,,,,,,,,,,,,0.58,0.514281988144,0.00092887878418,0.401116847992,1,w,1307.35358405,,,,,,,,,,,,,,,,,,,,,,,,,,,,,,,,,2015_Jun_24_1324,59.9645442796,LearningTask,1,64,
-200,a,-200,,,,,,,,,,,,,,,,,1,0,1,0,2,1,9,3,,,,,,,,,,,,,,,,,,,,,,,,,,,,,a,1,0.350503921509,None,0,4.0,crossblue.gif,stop,,,,,,,,,,,,,,,,,,,,,,,,3.84,0.514750957489,0.000898838043213,0.350503921509,1,a,1310.35722208,,,,,,,,,,,,,,,,,,,,,,,,,,,,,,,,,2015_Jun_24_1324,59.9645442796,LearningTask,1,64,
200,w,200,,,,,,,,,,,,,,,,,1,0,1,0,2,2,10,0,,,,,,,,,,,,,,,,,,,,,,,,,,,,,w,1,0.36748790741,None,0,1.0,circlewhite.gif,stop,,,,,,,,,,,,,,,,,,,,,,,,0.79,0.514266014099,0.000894069671631,0.36748790741,1,w,1313.3605001,,,,,,,,,,,,,,,,,,,,,,,,,,,,,,,,,2015_Jun_24_1324,59.9645442796,LearningTask,1,64,
-200,q,200,,,,,,,,,,,,,,,,,1,0,1,0,2,3,11,1,,,,,,,,,,,,,,,,,,,,,,,,,,,,,q,1,0.367691040039,None,0,0.5,diamondgray.gif,go,,,,,,,,,,,,,,,,,,,,,,,,0,0.514554977417,0.000967025756836,0.334107160568,0,a,1316.36392021,0.7,0.515256881714,0.000974893569946,0.367691040039,1,q,1319.36750913,,,,,,,,,,,,,,,,,,,,,,,,,,2015_Jun_24_1324,59.9645442796,LearningTask,1,64,
-200,q,200,,,,,,,,,,,,,,,,,1,0,1,0,3,0,12,1,,,,,,,,,,,,,,,,,,,,,,,,,,,,,q,1,0.417582988739,None,0,1.0,invertedtrianglegreen.gif,go,,,,,,,,,,,,,,,,,,,,,,,,0.92,0.51404094696,0.000895977020264,0.417582988739,1,q,1322.37049603,,,,,,,,,,,,,,,,,,,,,,,,,,,,,,,,,2015_Jun_24_1324,59.9645442796,LearningTask,1,64,
200,w,200,,,,,,,,,,,,,,,,,1,0,1,0,3,1,13,0,,,,,,,,,,,,,,,,,,,,,,,,,,,,,w,1,0.43445110321,None,0,0.5,trianglemagenta.gif,stop,,,,,,,,,,,,,,,,,,,,,,,,0.67,0.514134883881,0.000982046127319,0.43445110321,1,w,1325.37393403,,,,,,,,,,,,,,,,,,,,,,,,,,,,,,,,,2015_Jun_24_1324,59.9645442796,LearningTask,1,64,
-200,a,-200,,,,,,,,,,,,,,,,,1,0,1,0,3,2,14,3,,,,,,,,,,,,,,,,,,,,,,,,,,,,,a,1,0.367525815964,None,0,1.0,circlewhite.gif,stop,,,,,,,,,,,,,,,,,,,,,,,,1.15,0.514231920242,0.000906944274902,0.367525815964,1,a,1328.37731814,,,,,,,,,,,,,,,,,,,,,,,,,,,,,,,,,2015_Jun_24_1324,59.9645442796,LearningTask,1,64,
-200,q,200,,,,,,,,,,,,,,,,,1,0,1,0,3,3,15,1,,,,,,,,,,,,,,,,,,,,,,,,,,,,,q,1,0.350672960281,None,0,0.5,diamondgray.gif,go,,,,,,,,,,,,,,,,,,,,,,,,0.67,0.514508962631,0.000881910324097,0.350672960281,1,q,1331.38067698,,,,,,,,,,,,,,,,,,,,,,,,,,,,,,,,,2015_Jun_24_1324,59.9645442796,LearningTask,1,64,
200,s,-200,,,,,,,,,,,,,,,,,1,0,1,0,4,0,16,2,,,,,,,,,,,,,,,,,,,,,,,,,,,,,s,1,0.367239952087,None,0,0.5,trianglemagenta.gif,stop,,,,,,,,,,,,,,,,,,,,,,,,0.56,0.514269828796,0.000921964645386,0.367239952087,1,s,1334.38395715,,,,,,,,,,,,,,,,,,,,,,,,,,,,,,,,,2015_Jun_24_1324,59.9645442796,LearningTask,1,64,
-200,q,200,,,,,,,,,,,,,,,,,1,0,1,0,4,1,17,1,,,,,,,,,,,,,,,,,,,,,,,,,,,,,q,1,0.334265947342,None,0,0.5,diamondgray.gif,go,,,,,,,,,,,,,,,,,,,,,,,,0.59,0.514482975006,0.000900030136108,0.334265947342,1,q,1337.38732004,,,,,,,,,,,,,,,,,,,,,,,,,,,,,,,,,2015_Jun_24_1324,59.9645442796,LearningTask,1,64,
-200,q,200,,,,,,,,,,,,,,,,,1,0,1,0,4,2,18,1,,,,,,,,,,,,,,,,,,,,,,,,,,,,,q,1,0.45053601265,None,0,2.0,hexagonorange.gif,go,,,,,,,,,,,,,,,,,,,,,,,,0,0.514667987823,0.00129699707031,0.45053601265,1,q,1340.39092803,,,,,,,,,,,,,,,,,,,,,,,,,,,,,,,,,2015_Jun_24_1324,59.9645442796,LearningTask,1,64,
-200,a,-200,,,,,,,,,,,,,,,,,1,0,1,0,4,3,19,3,,,,,,,,,,,,,,,,,,,,,,,,,,,,,a,1,0.367393016815,None,0,2.0,hexagonorange.gif,go,,,,,,,,,,,,,,,,,,,,,,,,2.13,0.513869047165,0.000900983810425,0.367393016815,1,a,1343.39408207,,,,,,,,,,,,,,,,,,,,,,,,,,,,,,,,,2015_Jun_24_1324,59.9645442796,LearningTask,1,64,
-200,q,200,,,,,,,,,,,,,,,,,1,0,1,0,5,0,20,1,,,,,,,,,,,,,,,,,,,,,,,,,,,,,q,1,0.31736779213,None,0,4.0,crossblue.gif,stop,,,,,,,,,,,,,,,,,,,,,,,,3.83,0.514373064041,0.000883102416992,0.31736779213,1,q,1346.39749408,,,,,,,,,,,,,,,,,,,,,,,,,,,,,,,,,2015_Jun_24_1324,59.9645442796,LearningTask,1,64,
-200,q,200,,,,,,,,,,,,,,,,,1,0,1,0,5,1,21,1,,,,,,,,,,,,,,,,,,,,,,,,,,,,,q,1,0.384171962738,None,0,1.0,invertedtrianglegreen.gif,go,,,,,,,,,,,,,,,,,,,,,,,,0.95,0.514339923859,0.000874996185303,0.384171962738,1,q,1349.40111113,,,,,,,,,,,,,,,,,,,,,,,,,,,,,,,,,2015_Jun_24_1324,59.9645442796,LearningTask,1,64,
-200,a,-200,,,,,,,,,,,,,,,,,1,0,1,0,5,2,22,3,,,,,,,,,,,,,,,,,,,,,,,,,,,,,a,1,0.384079933167,None,0,1.0,invertedtrianglegreen.gif,go,,,,,,,,,,,,,,,,,,,,,,,,0.93,0.513914108276,0.000882148742676,0.384079933167,1,a,1352.40422201,,,,,,,,,,,,,,,,,,,,,,,,,,,,,,,,,2015_Jun_24_1324,59.9645442796,LearningTask,1,64,
200,s,-200,,,,,,,,,,,,,,,,,1,0,1,0,5,3,23,2,,,,,,,,,,,,,,,,,,,,,,,,,,,,,s,1,0.401176929474,None,0,0.5,trianglemagenta.gif,stop,,,,,,,,,,,,,,,,,,,,,,,,0.45,0.513974189758,0.00102519989014,0.401176929474,1,s,1355.40737915,,,,,,,,,,,,,,,,,,,,,,,,,,,,,,,,,2015_Jun_24_1324,59.9645442796,LearningTask,1,64,
200,w,200,,,,,,,,,,,,,,,,,1,0,1,0,6,0,24,0,,,,,,,,,,,,,,,,,,,,,,,,,,,,,w,1,0.367416143417,None,0,2.0,hexagonorange.gif,go,,,,,,,,,,,,,,,,,,,,,,,,2.12,0.514465093613,0.000880002975464,0.367416143417,1,w,1358.41103721,,,,,,,,,,,,,,,,,,,,,,,,,,,,,,,,,2015_Jun_24_1324,59.9645442796,LearningTask,1,64,
-200,q,200,,,,,,,,,,,,,,,,,1,0,1,0,6,1,25,1,,,,,,,,,,,,,,,,,,,,,,,,,,,,,q,1,0.334033966064,None,0,2.0,hexagonorange.gif,go,,,,,,,,,,,,,,,,,,,,,,,,0,0.514250040054,0.000890970230103,0.334033966064,1,q,1361.41414118,,,,,,,,,,,,,,,,,,,,,,,,,,,,,,,,,2015_Jun_24_1324,59.9645442796,LearningTask,1,64,
-200,q,200,,,,,,,,,,,,,,,,,1,0,1,0,6,2,26,1,,,,,,,,,,,,,,,,,,,,,,,,,,,,,q,1,0.501039981842,None,0,0.5,trianglemagenta.gif,stop,,,,,,,,,,,,,,,,,,,,,,,,0.55,0.514456987381,0.0010302066803,0.501039981842,1,q,1364.4175992,,,,,,,,,,,,,,,,,,,,,,,,,,,,,,,,,2015_Jun_24_1324,59.9645442796,LearningTask,1,64,
-200,a,-200,,,,,,,,,,,,,,,,,1,0,1,0,6,3,27,3,,,,,,,,,,,,,,,,,,,,,,,,,,,,,a,1,0.333926916122,None,0,1.0,invertedtrianglegreen.gif,go,,,,,,,,,,,,,,,,,,,,,,,,1.25,0.514433860779,0.000876903533936,0.333926916122,1,a,1367.42083216,,,,,,,,,,,,,,,,,,,,,,,,,,,,,,,,,2015_Jun_24_1324,59.9645442796,LearningTask,1,64,
200,w,200,,,,,,,,,,,,,,,,,1,0,1,0,7,0,28,0,,,,,,,,,,,,,,,,,,,,,,,,,,,,,w,1,0.351339101791,None,0,0.5,diamondgray.gif,go,,,,,,,,,,,,,,,,,,,,,,,,0.53,0.51429605484,0.000882148742676,0.351339101791,1,w,1370.42425108,,,,,,,,,,,,,,,,,,,,,,,,,,,,,,,,,2015_Jun_24_1324,59.9645442796,LearningTask,1,64,
-200,q,200,,,,,,,,,,,,,,,,,1,0,1,0,7,1,29,1,,,,,,,,,,,,,,,,,,,,,,,,,,,,,q,1,0.368147850037,None,0,0.5,trianglemagenta.gif,stop,,,,,,,,,,,,,,,,,,,,,,,,0.59,0.514043092728,0.000959157943726,0.368147850037,1,q,1373.4277072,,,,,,,,,,,,,,,,,,,,,,,,,,,,,,,,,2015_Jun_24_1324,59.9645442796,LearningTask,1,64,
-200,q,200,,,,,,,,,,,,,,,,,1,0,1,0,7,2,30,1,,,,,,,,,,,,,,,,,,,,,,,,,,,,,q,1,0.367614030838,None,0,4.0,crossblue.gif,stop,,,,,,,,,,,,,,,,,,,,,,,,4.16,0.514097929001,0.000940799713135,0.367614030838,1,q,1376.43096399,,,,,,,,,,,,,,,,,,,,,,,,,,,,,,,,,2015_Jun_24_1324,59.9645442796,LearningTask,1,64,
-200,q,200,,,,,,,,,,,,,,,,,1,0,1,0,7,3,31,1,,,,,,,,,,,,,,,,,,,,,,,,,,,,,q,1,0.367547035217,None,0,2.0,hexagonorange.gif,go,,,,,,,,,,,,,,,,,,,,,,,,1.76,0.514355182648,0.00088095664978,0.367547035217,1,q,1379.43453002,,,,,,,,,,,,,,,,,,,,,,,,,,,,,,,,,2015_Jun_24_1324,59.9645442796,LearningTask,1,64,
200,s,-200,,,,,,,,,,,,,,,,,1,0,1,0,8,0,32,2,,,,,,,,,,,,,,,,,,,,,,,,,,,,,s,1,0.401031970978,None,0,2.0,linecyan.gif,stop,,,,,,,,,,,,,,,,,,,,,,,,2.08,0.513994932175,0.00129389762878,0.401031970978,1,s,1382.43776321,,,,,,,,,,,,,,,,,,,,,,,,,,,,,,,,,2015_Jun_24_1324,59.9645442796,LearningTask,1,64,
200,s,-200,,,,,,,,,,,,,,,,,1,0,1,0,8,1,33,2,,,,,,,,,,,,,,,,,,,,,,,,,,,,,s,1,0.384063005447,None,0,1.0,circlewhite.gif,stop,,,,,,,,,,,,,,,,,,,,,,,,0.79,0.514266014099,0.000885009765625,0.384063005447,1,s,1385.44098115,,,,,,,,,,,,,,,,,,,,,,,,,,,,,,,,,2015_Jun_24_1324,59.9645442796,LearningTask,1,64,
-200,a,-200,,,,,,,,,,,,,,,,,1,0,1,0,8,2,34,3,,,,,,,,,,,,,,,,,,,,,,,,,,,,,a,1,0.384018182755,None,0,2.0,hexagonorange.gif,go,,,,,,,,,,,,,,,,,,,,,,,,1.8,0.514376878738,0.00088906288147,0.384018182755,1,a,1388.44468021,,,,,,,,,,,,,,,,,,,,,,,,,,,,,,,,,2015_Jun_24_1324,59.9645442796,LearningTask,1,64,
-200,a,-200,,,,,,,,,,,,,,,,,1,0,1,0,8,3,35,3,,,,,,,,,,,,,,,,,,,,,,,,,,,,,a,1,0.367476940155,None,0,1.0,invertedtrianglegreen.gif,go,,,,,,,,,,,,,,,,,,,,,,,,0,0.514000177383,0.000914096832275,0.367476940155,1,a,1391.44775605,,,,,,,,,,,,,,,,,,,,,,,,,,,,,,,,,2015_Jun_24_1324,59.9645442796,LearningTask,1,64,
200,s,-200,,,,,,,,,,,,,,,,,1,0,1,0,9,0,36,2,,,,,,,,,,,,,,,,,,,,,,,,,,,,,s,1,0.38397192955,None,0,0.5,diamondgray.gif,go,,,,,,,,,,,,,,,,,,,,,,,,0.27,0.514530897141,0.00284290313721,0.38397192955,1,s,1394.45095611,,,,,,,,,,,,,,,,,,,,,,,,,,,,,,,,,2015_Jun_24_1324,59.9645442796,LearningTask,1,64,
200,w,200,,,,,,,,,,,,,,,,,1,0,1,0,9,1,37,0,,,,,,,,,,,,,,,,,,,,,,,,,,,,,w,1,0.416980981827,None,0,0.5,diamondgray.gif,go,,,,,,,,,,,,,,,,,,,,,,,,0.42,0.514482021332,0.000910043716431,0.416980981827,1,w,1397.45475006,,,,,,,,,,,,,,,,,,,,,,,,,,,,,,,,,2015_Jun_24_1324,59.9645442796,LearningTask,1,64,
-200,q,200,,,,,,,,,,,,,,,,,1,0,1,0,9,2,38,1,,,,,,,,,,,,,,,,,,,,,,,,,,,,,q,1,0.267731904984,None,0,0.5,trianglemagenta.gif,stop,,,,,,,,,,,,,,,,,,,,,,,,0.61,0.514073133469,0.000894069671631,0.267731904984,1,q,1400.45778918,,,,,,,,,,,,,,,,,,,,,,,,,,,,,,,,,2015_Jun_24_1324,59.9645442796,LearningTask,1,64,
200,s,-200,,,,,,,,,,,,,,,,,1,0,1,0,9,3,39,2,,,,,,,,,,,,,,,,,,,,,,,,,,,,,s,1,0.351279020309,None,0,4.0,squareyellow.gif,go,,,,,,,,,,,,,,,,,,,,,,,,4.2,0.514324903488,0.000881910324097,0.351279020309,1,s,1403.46102715,,,,,,,,,,,,,,,,,,,,,,,,,,,,,,,,,2015_Jun_24_1324,59.9645442796,LearningTask,1,64,
200,s,-200,,,,,,,,,,,,,,,,,1,0,1,0,10,0,40,2,,,,,,,,,,,,,,,,,,,,,,,,,,,,,s,1,0.417402982712,None,0,2.0,linecyan.gif,stop,,,,,,,,,,,,,,,,,,,,,,,,2.24,0.51456284523,0.000877857208252,0.417402982712,1,s,1406.46491122,,,,,,,,,,,,,,,,,,,,,,,,,,,,,,,,,2015_Jun_24_1324,59.9645442796,LearningTask,1,64,
200,w,200,,,,,,,,,,,,,,,,,1,0,1,0,10,1,41,0,,,,,,,,,,,,,,,,,,,,,,,,,,,,,w,1,0.384067058563,None,0,4.0,crossblue.gif,stop,,,,,,,,,,,,,,,,,,,,,,,,4.0,0.514014005661,0.000876903533936,0.384067058563,1,w,1409.46795511,,,,,,,,,,,,,,,,,,,,,,,,,,,,,,,,,2015_Jun_24_1324,59.9645442796,LearningTask,1,64,
-200,a,-200,,,,,,,,,,,,,,,,,1,0,1,0,10,2,42,3,,,,,,,,,,,,,,,,,,,,,,,,,,,,,a,1,0.317826032639,None,0,1.0,circlewhite.gif,stop,,,,,,,,,,,,,,,,,,,,,,,,0.99,0.514209032059,0.000947952270508,0.317826032639,1,a,1412.47122121,,,,,,,,,,,,,,,,,,,,,,,,,,,,,,,,,2015_Jun_24_1324,59.9645442796,LearningTask,1,64,
200,s,-200,,,,,,,,,,,,,,,,,1,0,1,0,10,3,43,2,,,,,,,,,,,,,,,,,,,,,,,,,,,,,s,1,0.350796937943,None,0,4.0,crossblue.gif,stop,,,,,,,,,,,,,,,,,,,,,,,,4.22,0.514759778976,0.00088095664978,0.350796937943,1,s,1415.47459316,,,,,,,,,,,,,,,,,,,,,,,,,,,,,,,,,2015_Jun_24_1324,59.9645442796,LearningTask,1,64,
-200,a,-200,,,,,,,,,,,,,,,,,1,0,1,0,11,0,44,3,,,,,,,,,,,,,,,,,,,,,,,,,,,,,a,1,0.350935220718,None,0,0.5,diamondgray.gif,go,,,,,,,,,,,,,,,,,,,,,,,,0.68,0.514153003693,0.0010769367218,0.350935220718,1,a,1418.47799611,,,,,,,,,,,,,,,,,,,,,,,,,,,,,,,,,2015_Jun_24_1324,59.9645442796,LearningTask,1,64,
200,s,-200,,,,,,,,,,,,,,,,,1,0,1,0,11,1,45,2,,,,,,,,,,,,,,,,,,,,,,,,,,,,,s,1,0.334609031677,None,0,2.0,hexagonorange.gif,go,,,,,,,,,,,,,,,,,,,,,,,,2.08,0.514126062393,0.000923871994019,0.334609031677,1,s,1421.48131418,,,,,,,,,,,,,,,,,,,,,,,,,,,,,,,,,2015_Jun_24_1324,59.9645442796,LearningTask,1,64,
-200,q,200,,,,,,,,,,,,,,,,,1,0,1,0,11,2,46,1,,,,,,,,,,,,,,,,,,,,,,,,,,,,,q,1,0.351044893265,None,0,0.5,trianglemagenta.gif,stop,,,,,,,,,,,,,,,,,,,,,,,,0.43,0.514374017715,0.000888824462891,0.351044893265,1,q,1424.48496199,,,,,,,,,,,,,,,,,,,,,,,,,,,,,,,,,2015_Jun_24_1324,59.9645442796,LearningTask,1,64,
200,s,-200,,,,,,,,,,,,,,,,,1,0,1,0,11,3,47,2,,,,,,,,,,,,,,,,,,,,,,,,,,,,,s,1,0.367345094681,None,0,2.0,linecyan.gif,stop,,,,,,,,,,,,,,,,,,,,,,,,1.93,0.514117002487,0.000885963439941,0.367345094681,1,s,1427.48819804,,,,,,,,,,,,,,,,,,,,,,,,,,,,,,,,,2015_Jun_24_1324,59.9645442796,LearningTask,1,64,
200,w,200,,,,,,,,,,,,,,,,,1,0,1,0,12,0,48,0,,,,,,,,,,,,,,,,,,,,,,,,,,,,,w,1,0.41739988327,None,0,4.0,crossblue.gif,stop,,,,,,,,,,,,,,,,,,,,,,,,0,0.514156103134,0.00106596946716,0.41739988327,1,w,1430.49140501,,,,,,,,,,,,,,,,,,,,,,,,,,,,,,,,,2015_Jun_24_1324,59.9645442796,LearningTask,1,64,
200,w,200,,,,,,,,,,,,,,,,,1,0,1,0,12,1,49,0,,,,,,,,,,,,,,,,,,,,,,,,,,,,,w,1,0.4006960392,None,0,1.0,invertedtrianglegreen.gif,go,,,,,,,,,,,,,,,,,,,,,,,,0,0.514349937439,0.000885009765625,0.4006960392,1,w,1433.49479103,,,,,,,,,,,,,,,,,,,,,,,,,,,,,,,,,2015_Jun_24_1324,59.9645442796,LearningTask,1,64,
200,s,-200,,,,,,,,,,,,,,,,,1,0,1,0,12,2,50,2,,,,,,,,,,,,,,,,,,,,,,,,,,,,,s,1,0.401062965393,None,0,0.5,diamondgray.gif,go,,,,,,,,,,,,,,,,,,,,,,,,0.57,0.514064073563,0.00090503692627,0.401062965393,1,s,1436.49840522,,,,,,,,,,,,,,,,,,,,,,,,,,,,,,,,,2015_Jun_24_1324,59.9645442796,LearningTask,1,64,
-200,a,-200,,,,,,,,,,,,,,,,,1,0,1,0,12,3,51,3,,,,,,,,,,,,,,,,,,,,,,,,,,,,,a,1,0.334572076797,None,0,4.0,crossblue.gif,stop,,,,,,,,,,,,,,,,,,,,,,,,4.04,0.513571023941,0.000910043716431,0.334572076797,1,a,1439.50147319,,,,,,,,,,,,,,,,,,,,,,,,,,,,,,,,,2015_Jun_24_1324,59.9645442796,LearningTask,1,64,
200,s,-200,,,,,,,,,,,,,,,,,1,0,1,0,13,0,52,2,,,,,,,,,,,,,,,,,,,,,,,,,,,,,s,1,0.350800037384,None,0,1.0,circlewhite.gif,stop,,,,,,,,,,,,,,,,,,,,,,,,1.2,0.514360189438,0.000878095626831,0.350800037384,1,s,1442.50482607,,,,,,,,,,,,,,,,,,,,,,,,,,,,,,,,,2015_Jun_24_1324,59.9645442796,LearningTask,1,64,
200,s,-200,,,,,,,,,,,,,,,,,1,0,1,0,13,1,53,2,,,,,,,,,,,,,,,,,,,,,,,,,,,,,s,1,0.367300033569,None,0,1.0,circlewhite.gif,stop,,,,,,,,,,,,,,,,,,,,,,,,1.15,0.514420986176,0.000884056091309,0.367300033569,1,s,1445.50862718,,,,,,,,,,,,,,,,,,,,,,,,,,,,,,,,,2015_Jun_24_1324,59.9645442796,LearningTask,1,64,
200,w,200,,,,,,,,,,,,,,,,,1,0,1,0,13,2,54,0,,,,,,,,,,,,,,,,,,,,,,,,,,,,,w,1,0.367648839951,None,0,0.5,diamondgray.gif,go,,,,,,,,,,,,,,,,,,,,,,,,0.46,0.513756036758,0.000882863998413,0.367648839951,1,w,1448.51166701,,,,,,,,,,,,,,,,,,,,,,,,,,,,,,,,,2015_Jun_24_1324,59.9645442796,LearningTask,1,64,
-200,a,-200,,,,,,,,,,,,,,,,,1,0,1,0,13,3,55,3,,,,,,,,,,,,,,,,,,,,,,,,,,,,,a,1,0.33456993103,None,0,2.0,linecyan.gif,stop,,,,,,,,,,,,,,,,,,,,,,,,0,0.513942956924,0.000952959060669,0.33456993103,1,a,1451.51478815,,,,,,,,,,,,,,,,,,,,,,,,,,,,,,,,,2015_Jun_24_1324,59.9645442796,LearningTask,1,64,
200,s,-200,,,,,,,,,,,,,,,,,1,0,1,0,14,0,56,2,,,,,,,,,,,,,,,,,,,,,,,,,,,,,s,1,0.350878000259,None,0,4.0,crossblue.gif,stop,,,,,,,,,,,,,,,,,,,,,,,,4.16,0.514367818832,0.00089693069458,0.350878000259,1,s,1454.51851821,,,,,,,,,,,,,,,,,,,,,,,,,,,,,,,,,2015_Jun_24_1324,59.9645442796,LearningTask,1,64,
200,w,200,,,,,,,,,,,,,,,,,1,0,1,0,14,1,57,0,,,,,,,,,,,,,,,,,,,,,,,,,,,,,w,1,0.368054866791,None,0,2.0,linecyan.gif,stop,,,,,,,,,,,,,,,,,,,,,,,,1.76,0.514039993286,0.000875949859619,0.368054866791,1,w,1457.521559,,,,,,,,,,,,,,,,,,,,,,,,,,,,,,,,,2015_Jun_24_1324,59.9645442796,LearningTask,1,64,
-200,q,200,,,,,,,,,,,,,,,,,1,0,1,0,14,2,58,1,,,,,,,,,,,,,,,,,,,,,,,,,,,,,q,1,0.317775011063,None,0,1.0,circlewhite.gif,stop,,,,,,,,,,,,,,,,,,,,,,,,0.84,0.514238119125,0.000974178314209,0.317775011063,1,q,1460.52499413,,,,,,,,,,,,,,,,,,,,,,,,,,,,,,,,,2015_Jun_24_1324,59.9645442796,LearningTask,1,64,
-200,a,-200,,,,,,,,,,,,,,,,,1,0,1,0,14,3,59,3,,,,,,,,,,,,,,,,,,,,,,,,,,,,,a,1,0.301253080368,None,0,4.0,squareyellow.gif,go,,,,,,,,,,,,,,,,,,,,,,,,4.03,0.514403104782,0.000880002975464,0.301253080368,1,a,1463.52836919,,,,,,,,,,,,,,,,,,,,,,,,,,,,,,,,,2015_Jun_24_1324,59.9645442796,LearningTask,1,64,
-200,q,200,,,,,,,,,,,,,,,,,1,0,1,0,15,0,60,1,,,,,,,,,,,,,,,,,,,,,,,,,,,,,q,1,0.251256942749,None,0,4.0,squareyellow.gif,go,,,,,,,,,,,,,,,,,,,,,,,,0,0.514231920242,0.000942945480347,0.301250934601,0,a,1466.53168702,3.98,0.515387058258,0.00111603736877,0.251256942749,1,q,1469.53491211,,,,,,,,,,,,,,,,,,,,,,,,,,2015_Jun_24_1324,59.9645442796,LearningTask,1,64,
200,s,-200,,,,,,,,,,,,,,,,,1,0,1,0,15,1,61,2,,,,,,,,,,,,,,,,,,,,,,,,,,,,,s,1,0.401108026505,None,0,0.5,trianglemagenta.gif,stop,,,,,,,,,,,,,,,,,,,,,,,,0.3,0.514592885971,0.000885009765625,0.401108026505,1,s,1472.53859019,,,,,,,,,,,,,,,,,,,,,,,,,,,,,,,,,2015_Jun_24_1324,59.9645442796,LearningTask,1,64,
-200,a,-200,,,,,,,,,,,,,,,,,1,0,1,0,15,2,62,3,,,,,,,,,,,,,,,,,,,,,,,,,,,,,a,1,0.317510128021,None,0,1.0,circlewhite.gif,stop,,,,,,,,,,,,,,,,,,,,,,,,1.25,0.514347076416,0.000887155532837,0.317510128021,1,a,1475.54172611,,,,,,,,,,,,,,,,,,,,,,,,,,,,,,,,,2015_Jun_24_1324,59.9645442796,LearningTask,1,64,
200,s,-200,,,,,,,,,,,,,,,,,1,0,1,0,15,3,63,2,,,,,,,,,,,,,,,,,,,,,,,,,,,,,s,1,0.383823871613,None,0,1.0,invertedtrianglegreen.gif,go,,,,,,,,,,,,,,,,,,,,,,,,1.03,0.514284849167,0.000938892364502,0.383823871613,1,s,1478.5450592,,,,,,,,,,,,,,,,,,,,,,,,,,,,,,,,,2015_Jun_24_1324,59.9645442796,LearningTask,1,64,
200,w,200,,,,,,,,,,,,,,,,,1,0,1,0,16,0,64,0,,,,,,,,,,,,,,,,,,,,,,,,,,,,,w,1,0.333992004395,None,0,1.0,circlewhite.gif,stop,,,,,,,,,,,,,,,,,,,,,,,,0,0.514484882355,0.000886917114258,0.333992004395,1,w,1481.54852819,,,,,,,,,,,,,,,,,,,,,,,,,,,,,,,,,2015_Jun_24_1324,59.9645442796,LearningTask,1,64,
200,w,200,,,,,,,,,,,,,,,,,1,0,1,0,16,1,65,0,,,,,,,,,,,,,,,,,,,,,,,,,,,,,w,1,0.41787481308,None,0,2.0,hexagonorange.gif,go,,,,,,,,,,,,,,,,,,,,,,,,0,0.514127969742,0.000881910324097,0.217636108398,0,q,1484.55208421,1.96,0.515043973923,0.00112199783325,0.41787481308,1,w,1487.55506802,,,,,,,,,,,,,,,,,,,,,,,,,,2015_Jun_24_1324,59.9645442796,LearningTask,1,64,
200,s,-200,,,,,,,,,,,,,,,,,1,0,1,0,16,2,66,2,,,,,,,,,,,,,,,,,,,,,,,,,,,,,s,1,0.367478847504,None,0,1.0,invertedtrianglegreen.gif,go,,,,,,,,,,,,,,,,,,,,,,,,0,0.514357089996,0.00088906288147,0.367478847504,1,s,1490.5582881,,,,,,,,,,,,,,,,,,,,,,,,,,,,,,,,,2015_Jun_24_1324,59.9645442796,LearningTask,1,64,
-200,q,200,,,,,,,,,,,,,,,,,1,0,1,0,16,3,67,1,,,,,,,,,,,,,,,,,,,,,,,,,,,,,q,1,0.366625070572,None,0,2.0,linecyan.gif,stop,,,,,,,,,,,,,,,,,,,,,,,,1.83,0.514870882034,0.000880002975464,0.366625070572,1,q,1493.56227016,,,,,,,,,,,,,,,,,,,,,,,,,,,,,,,,,2015_Jun_24_1324,59.9645442796,LearningTask,1,64,
200,s,-200,,,,,,,,,,,,,,,,,1,0,1,0,17,0,68,2,,,,,,,,,,,,,,,,,,,,,,,,,,,,,s,1,0.367892980576,None,0,4.0,crossblue.gif,stop,,,,,,,,,,,,,,,,,,,,,,,,3.99,0.513864994049,0.000890016555786,0.367892980576,1,s,1496.56527305,,,,,,,,,,,,,,,,,,,,,,,,,,,,,,,,,2015_Jun_24_1324,59.9645442796,LearningTask,1,64,
-200,a,-200,,,,,,,,,,,,,,,,,1,0,1,0,17,1,69,3,,,,,,,,,,,,,,,,,,,,,,,,,,,,,a,1,0.333838939667,None,0,1.0,invertedtrianglegreen.gif,go,,,,,,,,,,,,,,,,,,,,,,,,1.02,0.514541864395,0.000887870788574,0.333838939667,1,a,1499.56867218,,,,,,,,,,,,,,,,,,,,,,,,,,,,,,,,,2015_Jun_24_1324,59.9645442796,LearningTask,1,64,
-200,a,-200,,,,,,,,,,,,,,,,,1,0,1,0,17,2,70,3,,,,,,,,,,,,,,,,,,,,,,,,,,,,,a,1,0.467162847519,None,0,0.5,trianglemagenta.gif,stop,,,,,,,,,,,,,,,,,,,,,,,,0.4,0.514402151108,0.000879049301147,0.467162847519,1,a,1502.57198715,,,,,,,,,,,,,,,,,,,,,,,,,,,,,,,,,2015_Jun_24_1324,59.9645442796,LearningTask,1,64,
-200,a,-200,,,,,,,,,,,,,,,,,1,0,1,0,17,3,71,3,,,,,,,,,,,,,,,,,,,,,,,,,,,,,a,1,0.367710113525,None,0,0.5,diamondgray.gif,go,,,,,,,,,,,,,,,,,,,,,,,,0.39,0.514492034912,0.000880002975464,0.367710113525,1,a,1505.57538414,,,,,,,,,,,,,,,,,,,,,,,,,,,,,,,,,2015_Jun_24_1324,59.9645442796,LearningTask,1,64,
-200,a,-200,,,,,,,,,,,,,,,,,1,0,1,0,18,0,72,3,,,,,,,,,,,,,,,,,,,,,,,,,,,,,a,1,0.367520809174,None,0,0.5,trianglemagenta.gif,stop,,,,,,,,,,,,,,,,,,,,,,,,0.52,0.514170885086,0.00107598304749,0.367520809174,1,a,1508.5786972,,,,,,,,,,,,,,,,,,,,,,,,,,,,,,,,,2015_Jun_24_1324,59.9645442796,LearningTask,1,64,
-200,a,-200,,,,,,,,,,,,,,,,,1,0,1,0,18,1,73,3,,,,,,,,,,,,,,,,,,,,,,,,,,,,,a,1,0.333960056305,None,0,1.0,circlewhite.gif,stop,,,,,,,,,,,,,,,,,,,,,,,,1.0,0.514526844025,0.000877857208252,0.333960056305,1,a,1511.58199501,,,,,,,,,,,,,,,,,,,,,,,,,,,,,,,,,2015_Jun_24_1324,59.9645442796,LearningTask,1,64,
-200,q,200,,,,,,,,,,,,,,,,,1,0,1,0,18,2,74,1,,,,,,,,,,,,,,,,,,,,,,,,,,,,,q,1,0.317763090134,None,0,2.0,hexagonorange.gif,go,,,,,,,,,,,,,,,,,,,,,,,,1.9,0.514350891113,0.000904083251953,0.317763090134,1,q,1514.58531809,,,,,,,,,,,,,,,,,,,,,,,,,,,,,,,,,2015_Jun_24_1324,59.9645442796,LearningTask,1,64,
-200,q,200,,,,,,,,,,,,,,,,,1,0,1,0,18,3,75,1,,,,,,,,,,,,,,,,,,,,,,,,,,,,,q,1,0.367993831635,None,0,2.0,linecyan.gif,stop,,,,,,,,,,,,,,,,,,,,,,,,1.96,0.51397895813,0.000936985015869,0.367993831635,1,q,1517.58864713,,,,,,,,,,,,,,,,,,,,,,,,,,,,,,,,,2015_Jun_24_1324,59.9645442796,LearningTask,1,64,
200,s,-200,,,,,,,,,,,,,,,,,1,0,1,0,19,0,76,2,,,,,,,,,,,,,,,,,,,,,,,,,,,,,s,1,0.334697008133,None,0,1.0,invertedtrianglegreen.gif,go,,,,,,,,,,,,,,,,,,,,,,,,0.95,0.514491081238,0.000874996185303,0.334697008133,1,s,1520.5925231,,,,,,,,,,,,,,,,,,,,,,,,,,,,,,,,,2015_Jun_24_1324,59.9645442796,LearningTask,1,64,
-200,a,-200,,,,,,,,,,,,,,,,,1,0,1,0,19,1,77,3,,,,,,,,,,,,,,,,,,,,,,,,,,,,,a,1,0.36807012558,None,0,1.0,invertedtrianglegreen.gif,go,,,,,,,,,,,,,,,,,,,,,,,,0.91,0.513817071915,0.000877141952515,0.36807012558,1,a,1523.59555912,,,,,,,,,,,,,,,,,,,,,,,,,,,,,,,,,2015_Jun_24_1324,59.9645442796,LearningTask,1,64,
-200,q,200,,,,,,,,,,,,,,,,,1,0,1,0,19,2,78,1,,,,,,,,,,,,,,,,,,,,,,,,,,,,,q,1,0.400684833527,None,0,0.5,trianglemagenta.gif,stop,,,,,,,,,,,,,,,,,,,,,,,,0,0.514211893082,0.000886917114258,0.400684833527,1,q,1526.59871602,,,,,,,,,,,,,,,,,,,,,,,,,,,,,,,,,2015_Jun_24_1324,59.9645442796,LearningTask,1,64,
200,w,200,,,,,,,,,,,,,,,,,1,0,1,0,19,3,79,0,,,,,,,,,,,,,,,,,,,,,,,,,,,,,w,1,0.417351007462,None,0,1.0,invertedtrianglegreen.gif,go,,,,,,,,,,,,,,,,,,,,,,,,1.25,0.514442920685,0.000880002975464,0.417351007462,1,w,1529.60213113,,,,,,,,,,,,,,,,,,,,,,,,,,,,,,,,,2015_Jun_24_1324,59.9645442796,LearningTask,1,64,
200,w,200,,,,,,,,,,,,,,,,,1,0,1,0,20,0,80,0,,,,,,,,,,,,,,,,,,,,,,,,,,,,,w,1,0.384222984314,None,0,1.0,invertedtrianglegreen.gif,go,,,,,,,,,,,,,,,,,,,,,,,,1.25,0.51428604126,0.000875949859619,0.384222984314,1,w,1532.605479,,,,,,,,,,,,,,,,,,,,,,,,,,,,,,,,,2015_Jun_24_1324,59.9645442796,LearningTask,1,64,
200,w,200,,,,,,,,,,,,,,,,,1,0,1,0,20,1,81,0,,,,,,,,,,,,,,,,,,,,,,,,,,,,,w,1,0.434104919434,None,0,1.0,circlewhite.gif,stop,,,,,,,,,,,,,,,,,,,,,,,,1.03,0.514175891876,0.000933885574341,0.434104919434,1,w,1535.60891008,,,,,,,,,,,,,,,,,,,,,,,,,,,,,,,,,2015_Jun_24_1324,59.9645442796,LearningTask,1,64,
-200,a,-200,,,,,,,,,,,,,,,,,1,0,1,0,20,2,82,3,,,,,,,,,,,,,,,,,,,,,,,,,,,,,a,1,0.400707960129,None,0,4.0,squareyellow.gif,go,,,,,,,,,,,,,,,,,,,,,,,,3.98,0.514375209808,0.000874042510986,0.400707960129,1,a,1538.61231613,,,,,,,,,,,,,,,,,,,,,,,,,,,,,,,,,2015_Jun_24_1324,59.9645442796,LearningTask,1,64,
200,w,200,,,,,,,,,,,,,,,,,1,0,1,0,20,3,83,0,,,,,,,,,,,,,,,,,,,,,,,,,,,,,w,1,0.417361021042,None,0,2.0,linecyan.gif,stop,,,,,,,,,,,,,,,,,,,,,,,,2.2,0.51442193985,0.000872850418091,0.417361021042,1,w,1541.61571121,,,,,,,,,,,,,,,,,,,,,,,,,,,,,,,,,2015_Jun_24_1324,59.9645442796,LearningTask,1,64,
-200,q,200,,,,,,,,,,,,,,,,,1,0,1,0,21,0,84,1,,,,,,,,,,,,,,,,,,,,,,,,,,,,,q,1,0.367395162582,None,0,4.0,squareyellow.gif,go,,,,,,,,,,,,,,,,,,,,,,,,3.76,0.514290094376,0.000868082046509,0.367395162582,1,q,1544.61897302,,,,,,,,,,,,,,,,,,,,,,,,,,,,,,,,,2015_Jun_24_1324,59.9645442796,LearningTask,1,64,
200,w,200,,,,,,,,,,,,,,,,,1,0,1,0,21,1,85,0,,,,,,,,,,,,,,,,,,,,,,,,,,,,,w,1,0.334156990051,None,0,2.0,linecyan.gif,stop,,,,,,,,,,,,,,,,,,,,,,,,1.88,0.514279127121,0.000886201858521,0.334156990051,1,w,1547.62209916,,,,,,,,,,,,,,,,,,,,,,,,,,,,,,,,,2015_Jun_24_1324,59.9645442796,LearningTask,1,64,
200,s,-200,,,,,,,,,,,,,,,,,1,0,1,0,21,2,86,2,,,,,,,,,,,,,,,,,,,,,,,,,,,,,s,1,0.384238004684,None,0,2.0,linecyan.gif,stop,,,,,,,,,,,,,,,,,,,,,,,,2.16,0.514443874359,0.000873804092407,0.384238004684,1,s,1550.62552714,,,,,,,,,,,,,,,,,,,,,,,,,,,,,,,,,2015_Jun_24_1324,59.9645442796,LearningTask,1,64,
200,s,-200,,,,,,,,,,,,,,,,,1,0,1,0,21,3,87,2,,,,,,,,,,,,,,,,,,,,,,,,,,,,,s,1,0.350703001022,None,0,2.0,linecyan.gif,stop,,,,,,,,,,,,,,,,,,,,,,,,2.06,0.514534950256,0.000885009765625,0.350703001022,1,s,1553.62894106,,,,,,,,,,,,,,,,,,,,,,,,,,,,,,,,,2015_Jun_24_1324,59.9645442796,LearningTask,1,64,
200,s,-200,,,,,,,,,,,,,,,,,1,0,1,0,22,0,88,2,,,,,,,,,,,,,,,,,,,,,,,,,,,,,s,1,0.366949081421,None,0,2.0,linecyan.gif,stop,,,,,,,,,,,,,,,,,,,,,,,,1.85,0.514493942261,0.000977039337158,0.366949081421,1,s,1556.63230801,,,,,,,,,,,,,,,,,,,,,,,,,,,,,,,,,2015_Jun_24_1324,59.9645442796,LearningTask,1,64,
200,w,200,,,,,,,,,,,,,,,,,1,0,1,0,22,1,89,0,,,,,,,,,,,,,,,,,,,,,,,,,,,,,w,1,0.384609937668,None,0,4.0,squareyellow.gif,go,,,,,,,,,,,,,,,,,,,,,,,,0,0.514318943024,0.000871896743774,0.384609937668,1,w,1559.63573813,,,,,,,,,,,,,,,,,,,,,,,,,,,,,,,,,2015_Jun_24_1324,59.9645442796,LearningTask,1,64,
200,w,200,,,,,,,,,,,,,,,,,1,0,1,0,22,2,90,0,,,,,,,,,,,,,,,,,,,,,,,,,,,,,w,1,0.351252794266,None,0,0.5,trianglemagenta.gif,stop,,,,,,,,,,,,,,,,,,,,,,,,0.6,0.514331817627,0.000876903533936,0.351252794266,1,w,1562.63902402,,,,,,,,,,,,,,,,,,,,,,,,,,,,,,,,,2015_Jun_24_1324,59.9645442796,LearningTask,1,64,
200,s,-200,,,,,,,,,,,,,,,,,1,0,1,0,22,3,91,2,,,,,,,,,,,,,,,,,,,,,,,,,,,,,s,1,0.401387929916,None,0,4.0,crossblue.gif,stop,,,,,,,,,,,,,,,,,,,,,,,,0,0.514033079147,0.000936031341553,0.401387929916,1,s,1565.64233303,,,,,,,,,,,,,,,,,,,,,,,,,,,,,,,,,2015_Jun_24_1324,59.9645442796,LearningTask,1,64,
-200,q,200,,,,,,,,,,,,,,,,,1,0,1,0,23,0,92,1,,,,,,,,,,,,,,,,,,,,,,,,,,,,,q,1,0.334268093109,None,0,4.0,squareyellow.gif,go,,,,,,,,,,,,,,,,,,,,,,,,3.97,0.514345884323,0.000874996185303,0.334268093109,1,q,1568.64570618,,,,,,,,,,,,,,,,,,,,,,,,,,,,,,,,,2015_Jun_24_1324,59.9645442796,LearningTask,1,64,
200,s,-200,,,,,,,,,,,,,,,,,1,0,1,0,23,1,93,2,,,,,,,,,,,,,,,,,,,,,,,,,,,,,s,1,0.367499113083,None,0,4.0,squareyellow.gif,go,,,,,,,,,,,,,,,,,,,,,,,,4.01,0.514321088791,0.000871181488037,0.367499113083,1,s,1571.64922404,,,,,,,,,,,,,,,,,,,,,,,,,,,,,,,,,2015_Jun_24_1324,59.9645442796,LearningTask,1,64,
200,w,200,,,,,,,,,,,,,,,,,1,0,1,0,23,2,94,0,,,,,,,,,,,,,,,,,,,,,,,,,,,,,w,1,0.334336996078,None,0,0.5,trianglemagenta.gif,stop,,,,,,,,,,,,,,,,,,,,,,,,0.63,0.51393198967,0.000900030136108,0.334336996078,1,w,1574.65279603,,,,,,,,,,,,,,,,,,,,,,,,,,,,,,,,,2015_Jun_24_1324,59.9645442796,LearningTask,1,64,
-200,q,200,,,,,,,,,,,,,,,,,1,0,1,0,23,3,95,1,,,,,,,,,,,,,,,,,,,,,,,,,,,,,q,1,0.334245920181,None,0,2.0,hexagonorange.gif,go,,,,,,,,,,,,,,,,,,,,,,,,1.79,0.513530015945,0.000975131988525,0.334245920181,1,q,1577.65588903,,,,,,,,,,,,,,,,,,,,,,,,,,,,,,,,,2015_Jun_24_1324,59.9645442796,LearningTask,1,64,
200,w,200,,,,,,,,,,,,,,,,,1,0,1,0,24,0,96,0,,,,,,,,,,,,,,,,,,,,,,,,,,,,,w,1,0.367862939835,None,0,4.0,crossblue.gif,stop,,,,,,,,,,,,,,,,,,,,,,,,3.91,0.514278173447,0.000883102416992,0.367862939835,1,w,1580.65957904,,,,,,,,,,,,,,,,,,,,,,,,,,,,,,,,,2015_Jun_24_1324,59.9645442796,LearningTask,1,64,
-200,a,-200,,,,,,,,,,,,,,,,,1,0,1,0,24,1,97,3,,,,,,,,,,,,,,,,,,,,,,,,,,,,,a,1,0.484074831009,None,0,2.0,linecyan.gif,stop,,,,,,,,,,,,,,,,,,,,,,,,2.09,0.513990879059,0.00089693069458,0.484074831009,1,a,1583.66260219,,,,,,,,,,,,,,,,,,,,,,,,,,,,,,,,,2015_Jun_24_1324,59.9645442796,LearningTask,1,64,
-200,a,-200,,,,,,,,,,,,,,,,,1,0,1,0,24,2,98,3,,,,,,,,,,,,,,,,,,,,,,,,,,,,,a,1,0.41766500473,None,0,1.0,circlewhite.gif,stop,,,,,,,,,,,,,,,,,,,,,,,,0.8,0.514206171036,0.00117611885071,0.41766500473,1,a,1586.66606116,,,,,,,,,,,,,,,,,,,,,,,,,,,,,,,,,2015_Jun_24_1324,59.9645442796,LearningTask,1,64,
200,w,200,,,,,,,,,,,,,,,,,1,0,1,0,24,3,99,0,,,,,,,,,,,,,,,,,,,,,,,,,,,,,w,1,0.417959928513,None,0,1.0,invertedtrianglegreen.gif,go,,,,,,,,,,,,,,,,,,,,,,,,1.19,0.513875007629,0.000885963439941,0.417959928513,1,w,1589.66950822,,,,,,,,,,,,,,,,,,,,,,,,,,,,,,,,,2015_Jun_24_1324,59.9645442796,LearningTask,1,64,
,,,,,,,,,,,,,,,,,,,1,0,1,0,,,,,,,,,,,,,,,,,,,,,,,,,,,,,,,,,,,,,,,,,,,,,,,,,,,,,,,,,,,,,,,,,,,,,,,,,,,,,,9,199.827482939,,,,,,,,,,,,,,,,,,,,,,,,2015_Jun_24_1324,59.9645442796,LearningTask,1,64,
200,w,200,,,,,,,,,,,,,,,,,2,0,2,0,0,0,0,0,,,,,,,,,,,,,,,,,,,,,,,,,,,,,w,1,0.351294994354,None,0,2.0,hexagonorange.gif,go,,,,,,,,,,,,,,,,,,,,,,,,0,0.508927822113,0.0010359287262,[],0,None,1793.21395922,0,0.514428853989,0.000967025756836,0.351294994354,1,w,1796.21711707,,,0.407510995865,,,,,,,,,,,,,,,,,,,,,,,2015_Jun_24_1324,59.9645442796,LearningTask,1,64,
200,s,-200,,,,,,,,,,,,,,,,,2,0,2,0,0,1,1,2,,,,,,,,,,,,,,,,,,,,,,,,,,,,,s,1,0.333899974823,None,0,2.0,hexagonorange.gif,go,,,,,,,,,,,,,,,,,,,,,,,,2.03,0.513790130615,0.000877141952515,0.333899974823,1,s,1799.22008014,,,,,,,,,,,,,,,,,,,,,,,,,,,,,,,,,2015_Jun_24_1324,59.9645442796,LearningTask,1,64,
200,w,200,,,,,,,,,,,,,,,,,2,0,2,0,0,2,2,0,,,,,,,,,,,,,,,,,,,,,,,,,,,,,w,1,0.384119033813,None,0,2.0,hexagonorange.gif,go,,,,,,,,,,,,,,,,,,,,,,,,1.86,0.514098167419,0.000882148742676,0.384119033813,1,w,1802.2234261,,,,,,,,,,,,,,,,,,,,,,,,,,,,,,,,,2015_Jun_24_1324,59.9645442796,LearningTask,1,64,
200,w,200,,,,,,,,,,,,,,,,,2,0,2,0,0,3,3,0,,,,,,,,,,,,,,,,,,,,,,,,,,,,,w,1,0.284034967422,None,0,2.0,hexagonorange.gif,go,,,,,,,,,,,,,,,,,,,,,,,,0,0.514334917068,0.000916957855225,0.234151124954,0,q,1805.22677302,2.15,0.515352010727,0.000943899154663,0.284034967422,1,w,1808.22995615,,,,,,,,,,,,,,,,,,,,,,,,,,2015_Jun_24_1324,59.9645442796,LearningTask,1,64,
-200,q,200,,,,,,,,,,,,,,,,,2,0,2,0,1,0,4,1,,,,,,,,,,,,,,,,,,,,,,,,,,,,,q,1,0.333455085754,None,0,4.0,squareyellow.gif,go,,,,,,,,,,,,,,,,,,,,,,,,0,0.5142390728,0.00139403343201,0.35081410408,0,a,1811.23366022,3.95,0.515503883362,0.000960826873779,0.333455085754,1,q,1814.23675513,,,,,,,,,,,,,,,,,,,,,,,,,,2015_Jun_24_1324,59.9645442796,LearningTask,1,64,
200,s,-200,,,,,,,,,,,,,,,,,2,0,2,0,1,1,5,2,,,,,,,,,,,,,,,,,,,,,,,,,,,,,s,1,0.400854110718,None,0,4.0,crossblue.gif,stop,,,,,,,,,,,,,,,,,,,,,,,,0,0.514575004578,0.000893115997314,0.400854110718,1,s,1817.24022007,,,,,,,,,,,,,,,,,,,,,,,,,,,,,,,,,2015_Jun_24_1324,59.9645442796,LearningTask,1,64,
-200,a,-200,,,,,,,,,,,,,,,,,2,0,2,0,1,2,6,3,,,,,,,,,,,,,,,,,,,,,,,,,,,,,a,1,0.333858966827,None,0,4.0,squareyellow.gif,go,,,,,,,,,,,,,,,,,,,,,,,,3.76,0.514524936676,0.000865936279297,0.333858966827,1,a,1820.24364519,,,,,,,,,,,,,,,,,,,,,,,,,,,,,,,,,2015_Jun_24_1324,59.9645442796,LearningTask,1,64,
200,w,200,,,,,,,,,,,,,,,,,2,0,2,0,1,3,7,0,,,,,,,,,,,,,,,,,,,,,,,,,,,,,w,1,0.284164905548,None,0,0.5,trianglemagenta.gif,stop,,,,,,,,,,,,,,,,,,,,,,,,0.57,0.514187812805,0.000887870788574,0.284164905548,1,w,1823.24690819,,,,,,,,,,,,,,,,,,,,,,,,,,,,,,,,,2015_Jun_24_1324,59.9645442796,LearningTask,1,64,
-200,a,-200,,,,,,,,,,,,,,,,,2,0,2,0,2,0,8,3,,,,,,,,,,,,,,,,,,,,,,,,,,,,,a,1,0.351031064987,None,0,1.0,invertedtrianglegreen.gif,go,,,,,,,,,,,,,,,,,,,,,,,,0,0.514283895493,0.0010359287262,0.283974885941,0,q,1826.25001621,1.04,0.515604972839,0.000940084457397,0.351031064987,1,a,1829.25349021,,,,,,,,,,,,,,,,,,,,,,,,,,2015_Jun_24_1324,59.9645442796,LearningTask,1,64,
200,s,-200,,,,,,,,,,,,,,,,,2,0,2,0,2,1,9,2,,,,,,,,,,,,,,,,,,,,,,,,,,,,,s,1,0.300935983658,None,0,2.0,hexagonorange.gif,go,,,,,,,,,,,,,,,,,,,,,,,,2.17,0.514470100403,0.000882148742676,0.300935983658,1,s,1832.25694919,,,,,,,,,,,,,,,,,,,,,,,,,,,,,,,,,2015_Jun_24_1324,59.9645442796,LearningTask,1,64,
-200,q,200,,,,,,,,,,,,,,,,,2,0,2,0,2,2,10,1,,,,,,,,,,,,,,,,,,,,,,,,,,,,,q,1,0.334224939346,None,0,2.0,hexagonorange.gif,go,,,,,,,,,,,,,,,,,,,,,,,,1.78,0.514454841614,0.000998973846436,0.334224939346,1,q,1835.26039505,,,,,,,,,,,,,,,,,,,,,,,,,,,,,,,,,2015_Jun_24_1324,59.9645442796,LearningTask,1,64,
-200,a,-200,,,,,,,,,,,,,,,,,2,0,2,0,2,3,11,3,,,,,,,,,,,,,,,,,,,,,,,,,,,,,a,1,0.367118835449,None,0,0.5,trianglemagenta.gif,stop,,,,,,,,,,,,,,,,,,,,,,,,0.55,0.514492988586,0.00087308883667,0.367118835449,1,a,1838.263726,,,,,,,,,,,,,,,,,,,,,,,,,,,,,,,,,2015_Jun_24_1324,59.9645442796,LearningTask,1,64,
-200,q,200,,,,,,,,,,,,,,,,,2,0,2,0,3,0,12,1,,,,,,,,,,,,,,,,,,,,,,,,,,,,,q,1,0.300804138184,None,0,2.0,linecyan.gif,stop,,,,,,,,,,,,,,,,,,,,,,,,2.18,0.51432299614,0.00140404701233,0.300804138184,1,q,1841.26686716,,,,,,,,,,,,,,,,,,,,,,,,,,,,,,,,,2015_Jun_24_1324,59.9645442796,LearningTask,1,64,
-200,q,200,,,,,,,,,,,,,,,,,2,0,2,0,3,1,13,1,,,,,,,,,,,,,,,,,,,,,,,,,,,,,q,1,0.317195892334,None,0,2.0,linecyan.gif,stop,,,,,,,,,,,,,,,,,,,,,,,,0,0.514616966248,0.000921964645386,0.317195892334,1,q,1844.2702961,,,,,,,,,,,,,,,,,,,,,,,,,,,,,,,,,2015_Jun_24_1324,59.9645442796,LearningTask,1,64,
200,s,-200,,,,,,,,,,,,,,,,,2,0,2,0,3,2,14,2,,,,,,,,,,,,,,,,,,,,,,,,,,,,,s,1,0.300689935684,None,0,4.0,squareyellow.gif,go,,,,,,,,,,,,,,,,,,,,,,,,4.19,0.513673067093,0.000890016555786,0.300689935684,1,s,1847.2738502,,,,,,,,,,,,,,,,,,,,,,,,,,,,,,,,,2015_Jun_24_1324,59.9645442796,LearningTask,1,64,
-200,a,-200,,,,,,,,,,,,,,,,,2,0,2,0,3,3,15,3,,,,,,,,,,,,,,,,,,,,,,,,,,,,,a,1,0.333919048309,None,0,0.5,trianglemagenta.gif,stop,,,,,,,,,,,,,,,,,,,,,,,,0.42,0.514430046082,0.000875949859619,0.333919048309,1,a,1850.27720022,,,,,,,,,,,,,,,,,,,,,,,,,,,,,,,,,2015_Jun_24_1324,59.9645442796,LearningTask,1,64,
-200,q,200,,,,,,,,,,,,,,,,,2,0,2,0,4,0,16,1,,,,,,,,,,,,,,,,,,,,,,,,,,,,,q,1,0.283715009689,None,0,1.0,invertedtrianglegreen.gif,go,,,,,,,,,,,,,,,,,,,,,,,,0,0.513892889023,0.00090503692627,0.334536075592,0,a,1853.28039122,1.02,0.515778064728,0.000951051712036,0.283715009689,1,q,1856.28381109,,,,,,,,,,,,,,,,,,,,,,,,,,2015_Jun_24_1324,59.9645442796,LearningTask,1,64,
-200,q,200,,,,,,,,,,,,,,,,,2,0,2,0,4,1,17,1,,,,,,,,,,,,,,,,,,,,,,,,,,,,,q,1,0.351177930832,None,0,1.0,circlewhite.gif,stop,,,,,,,,,,,,,,,,,,,,,,,,0.9,0.514205932617,0.000882863998413,0.351177930832,1,q,1859.28753304,,,,,,,,,,,,,,,,,,,,,,,,,,,,,,,,,2015_Jun_24_1324,59.9645442796,LearningTask,1,64,
200,w,200,,,,,,,,,,,,,,,,,2,0,2,0,4,2,18,0,,,,,,,,,,,,,,,,,,,,,,,,,,,,,w,1,0.367887020111,None,0,4.0,crossblue.gif,stop,,,,,,,,,,,,,,,,,,,,,,,,4.15,0.513870954514,0.000880002975464,0.367887020111,1,w,1862.29064512,,,,,,,,,,,,,,,,,,,,,,,,,,,,,,,,,2015_Jun_24_1324,59.9645442796,LearningTask,1,64,
200,w,200,,,,,,,,,,,,,,,,,2,0,2,0,4,3,19,0,,,,,,,,,,,,,,,,,,,,,,,,,,,,,w,1,0.350490093231,None,0,4.0,crossblue.gif,stop,,,,,,,,,,,,,,,,,,,,,,,,3.94,0.514438867569,0.000876903533936,0.350490093231,1,w,1865.29387116,,,,,,,,,,,,,,,,,,,,,,,,,,,,,,,,,2015_Jun_24_1324,59.9645442796,LearningTask,1,64,
200,w,200,,,,,,,,,,,,,,,,,2,0,2,0,5,0,20,0,,,,,,,,,,,,,,,,,,,,,,,,,,,,,w,1,0.317974090576,None,0,0.5,trianglemagenta.gif,stop,,,,,,,,,,,,,,,,,,,,,,,,0.71,0.514425039291,0.000881910324097,0.317974090576,1,w,1868.29743505,,,,,,,,,,,,,,,,,,,,,,,,,,,,,,,,,2015_Jun_24_1324,59.9645442796,LearningTask,1,64,
-200,a,-200,,,,,,,,,,,,,,,,,2,0,2,0,5,1,21,3,,,,,,,,,,,,,,,,,,,,,,,,,,,,,a,1,0.351258039474,None,0,0.5,trianglemagenta.gif,stop,,,,,,,,,,,,,,,,,,,,,,,,0.3,0.51406788826,0.000884056091309,0.351258039474,1,a,1871.30071211,,,,,,,,,,,,,,,,,,,,,,,,,,,,,,,,,2015_Jun_24_1324,59.9645442796,LearningTask,1,64,
200,s,-200,,,,,,,,,,,,,,,,,2,0,2,0,5,2,22,2,,,,,,,,,,,,,,,,,,,,,,,,,,,,,s,1,0.333878040314,None,0,2.0,linecyan.gif,stop,,,,,,,,,,,,,,,,,,,,,,,,1.95,0.514282941818,0.00100994110107,0.333878040314,1,s,1874.30373216,,,,,,,,,,,,,,,,,,,,,,,,,,,,,,,,,2015_Jun_24_1324,59.9645442796,LearningTask,1,64,
-200,q,200,,,,,,,,,,,,,,,,,2,0,2,0,5,3,23,1,,,,,,,,,,,,,,,,,,,,,,,,,,,,,q,1,0.284202098846,None,0,1.0,circlewhite.gif,stop,,,,,,,,,,,,,,,,,,,,,,,,0.91,0.514392852783,0.000876903533936,0.284202098846,1,q,1877.30742621,,,,,,,,,,,,,,,,,,,,,,,,,,,,,,,,,2015_Jun_24_1324,59.9645442796,LearningTask,1,64,
200,s,-200,,,,,,,,,,,,,,,,,2,0,2,0,6,0,24,2,,,,,,,,,,,,,,,,,,,,,,,,,,,,,s,1,0.400864124298,None,0,2.0,linecyan.gif,stop,,,,,,,,,,,,,,,,,,,,,,,,2.18,0.514389038086,0.00088095664978,0.400864124298,1,s,1880.31068802,,,,,,,,,,,,,,,,,,,,,,,,,,,,,,,,,2015_Jun_24_1324,59.9645442796,LearningTask,1,64,
200,w,200,,,,,,,,,,,,,,,,,2,0,2,0,6,1,25,0,,,,,,,,,,,,,,,,,,,,,,,,,,,,,w,1,0.400663137436,None,0,2.0,hexagonorange.gif,go,,,,,,,,,,,,,,,,,,,,,,,,2.02,0.514323949814,0.000941038131714,0.400663137436,1,w,1883.31403518,,,,,,,,,,,,,,,,,,,,,,,,,,,,,,,,,2015_Jun_24_1324,59.9645442796,LearningTask,1,64,
200,s,-200,,,,,,,,,,,,,,,,,2,0,2,0,6,2,26,2,,,,,,,,,,,,,,,,,,,,,,,,,,,,,s,1,0.333966970444,None,0,0.5,trianglemagenta.gif,stop,,,,,,,,,,,,,,,,,,,,,,,,0.4,0.514367103577,0.000874996185303,0.333966970444,1,s,1886.31759405,,,,,,,,,,,,,,,,,,,,,,,,,,,,,,,,,2015_Jun_24_1324,59.9645442796,LearningTask,1,64,
200,w,200,,,,,,,,,,,,,,,,,2,0,2,0,6,3,27,0,,,,,,,,,,,,,,,,,,,,,,,,,,,,,w,1,0.351356983185,None,0,0.5,diamondgray.gif,go,,,,,,,,,,,,,,,,,,,,,,,,0.66,0.51415514946,0.000886201858521,0.351356983185,1,w,1889.32125616,,,,,,,,,,,,,,,,,,,,,,,,,,,,,,,,,2015_Jun_24_1324,59.9645442796,LearningTask,1,64,
-200,a,-200,,,,,,,,,,,,,,,,,2,0,2,0,7,0,28,3,,,,,,,,,,,,,,,,,,,,,,,,,,,,,a,1,0.58434009552,None,0,1.0,circlewhite.gif,stop,,,,,,,,,,,,,,,,,,,,,,,,0,0.513336896896,0.00090503692627,0.58434009552,1,a,1892.32406902,,,,,,,,,,,,,,,,,,,,,,,,,,,,,,,,,2015_Jun_24_1324,59.9645442796,LearningTask,1,64,
200,s,-200,,,,,,,,,,,,,,,,,2,0,2,0,7,1,29,2,,,,,,,,,,,,,,,,,,,,,,,,,,,,,s,1,0.334201097488,None,0,4.0,squareyellow.gif,go,,,,,,,,,,,,,,,,,,,,,,,,3.94,0.514233112335,0.000874996185303,0.334201097488,1,s,1895.327528,,,,,,,,,,,,,,,,,,,,,,,,,,,,,,,,,2015_Jun_24_1324,59.9645442796,LearningTask,1,64,
200,w,200,,,,,,,,,,,,,,,,,2,0,2,0,7,2,30,0,,,,,,,,,,,,,,,,,,,,,,,,,,,,,w,1,0.350858211517,None,0,1.0,invertedtrianglegreen.gif,go,,,,,,,,,,,,,,,,,,,,,,,,1.17,0.514354944229,0.00133800506592,0.350858211517,1,w,1898.33078718,,,,,,,,,,,,,,,,,,,,,,,,,,,,,,,,,2015_Jun_24_1324,59.9645442796,LearningTask,1,64,
200,w,200,,,,,,,,,,,,,,,,,2,0,2,0,7,3,31,0,,,,,,,,,,,,,,,,,,,,,,,,,,,,,w,1,0.300940036774,None,0,0.5,diamondgray.gif,go,,,,,,,,,,,,,,,,,,,,,,,,0.66,0.51424407959,0.000910997390747,0.300940036774,1,w,1901.33421612,,,,,,,,,,,,,,,,,,,,,,,,,,,,,,,,,2015_Jun_24_1324,59.9645442796,LearningTask,1,64,
-200,a,-200,,,,,,,,,,,,,,,,,2,0,2,0,8,0,32,3,,,,,,,,,,,,,,,,,,,,,,,,,,,,,a,1,0.334597110748,None,0,4.0,squareyellow.gif,go,,,,,,,,,,,,,,,,,,,,,,,,0,0.514245986938,0.00087308883667,0.501700162888,0,w,1904.33753109,4.0,0.515423059464,0.000936031341553,0.334597110748,1,a,1907.34107518,,,,,,,,,,,,,,,,,,,,,,,,,,2015_Jun_24_1324,59.9645442796,LearningTask,1,64,
-200,a,-200,,,,,,,,,,,,,,,,,2,0,2,0,8,1,33,3,,,,,,,,,,,,,,,,,,,,,,,,,,,,,a,1,0.350548028946,None,0,4.0,crossblue.gif,stop,,,,,,,,,,,,,,,,,,,,,,,,4.24,0.514163970947,0.000890016555786,0.350548028946,1,a,1910.34425807,,,,,,,,,,,,,,,,,,,,,,,,,,,,,,,,,2015_Jun_24_1324,59.9645442796,LearningTask,1,64,
200,s,-200,,,,,,,,,,,,,,,,,2,0,2,0,8,2,34,2,,,,,,,,,,,,,,,,,,,,,,,,,,,,,s,1,0.317468881607,None,0,4.0,squareyellow.gif,go,,,,,,,,,,,,,,,,,,,,,,,,3.93,0.514330863953,0.000871896743774,0.317468881607,1,s,1913.34766912,,,,,,,,,,,,,,,,,,,,,,,,,,,,,,,,,2015_Jun_24_1324,59.9645442796,LearningTask,1,64,
-200,q,200,,,,,,,,,,,,,,,,,2,0,2,0,8,3,35,1,,,,,,,,,,,,,,,,,,,,,,,,,,,,,q,1,0.283851146698,None,0,2.0,linecyan.gif,stop,,,,,,,,,,,,,,,,,,,,,,,,2.25,0.5143699646,0.000875949859619,0.283851146698,1,q,1916.35109615,,,,,,,,,,,,,,,,,,,,,,,,,,,,,,,,,2015_Jun_24_1324,59.9645442796,LearningTask,1,64,
-200,q,200,,,,,,,,,,,,,,,,,2,0,2,0,9,0,36,1,,,,,,,,,,,,,,,,,,,,,,,,,,,,,q,1,0.31748008728,None,0,0.5,diamondgray.gif,go,,,,,,,,,,,,,,,,,,,,,,,,0.32,0.514128923416,0.000883817672729,0.31748008728,1,q,1919.35431504,,,,,,,,,,,,,,,,,,,,,,,,,,,,,,,,,2015_Jun_24_1324,59.9645442796,LearningTask,1,64,
-200,q,200,,,,,,,,,,,,,,,,,2,0,2,0,9,1,37,1,,,,,,,,,,,,,,,,,,,,,,,,,,,,,q,1,0.267611026764,None,0,0.5,trianglemagenta.gif,stop,,,,,,,,,,,,,,,,,,,,,,,,0,0.514262199402,0.000962018966675,0.267611026764,1,q,1922.35786915,,,,,,,,,,,,,,,,,,,,,,,,,,,,,,,,,2015_Jun_24_1324,59.9645442796,LearningTask,1,64,
-200,q,200,,,,,,,,,,,,,,,,,2,0,2,0,9,2,38,1,,,,,,,,,,,,,,,,,,,,,,,,,,,,,q,1,0.284039974213,None,0,1.0,circlewhite.gif,stop,,,,,,,,,,,,,,,,,,,,,,,,0.81,0.514107942581,0.000921010971069,0.284039974213,1,q,1925.36104703,,,,,,,,,,,,,,,,,,,,,,,,,,,,,,,,,2015_Jun_24_1324,59.9645442796,LearningTask,1,64,
200,s,-200,,,,,,,,,,,,,,,,,2,0,2,0,9,3,39,2,,,,,,,,,,,,,,,,,,,,,,,,,,,,,s,1,0.333776950836,None,0,1.0,invertedtrianglegreen.gif,go,,,,,,,,,,,,,,,,,,,,,,,,0.75,0.514094114304,0.000959157943726,0.333776950836,1,s,1928.36441708,,,,,,,,,,,,,,,,,,,,,,,,,,,,,,,,,2015_Jun_24_1324,59.9645442796,LearningTask,1,64,
-200,a,-200,,,,,,,,,,,,,,,,,2,0,2,0,10,0,40,3,,,,,,,,,,,,,,,,,,,,,,,,,,,,,a,1,0.317636966705,None,0,4.0,crossblue.gif,stop,,,,,,,,,,,,,,,,,,,,,,,,3.97,0.514082193375,0.00119209289551,0.317636966705,1,a,1931.36769509,,,,,,,,,,,,,,,,,,,,,,,,,,,,,,,,,2015_Jun_24_1324,59.9645442796,LearningTask,1,64,
-200,q,200,,,,,,,,,,,,,,,,,2,0,2,0,10,1,41,1,,,,,,,,,,,,,,,,,,,,,,,,,,,,,q,1,0.367192983627,None,0,4.0,squareyellow.gif,go,,,,,,,,,,,,,,,,,,,,,,,,4.05,0.514555931091,0.000913143157959,0.367192983627,1,q,1934.37158608,,,,,,,,,,,,,,,,,,,,,,,,,,,,,,,,,2015_Jun_24_1324,59.9645442796,LearningTask,1,64,
-200,a,-200,,,,,,,,,,,,,,,,,2,0,2,0,10,2,42,3,,,,,,,,,,,,,,,,,,,,,,,,,,,,,a,1,0.400578022003,None,0,0.5,diamondgray.gif,go,,,,,,,,,,,,,,,,,,,,,,,,0.46,0.51389503479,0.000875949859619,0.400578022003,1,a,1937.37435007,,,,,,,,,,,,,,,,,,,,,,,,,,,,,,,,,2015_Jun_24_1324,59.9645442796,LearningTask,1,64,
-200,q,200,,,,,,,,,,,,,,,,,2,0,2,0,10,3,43,1,,,,,,,,,,,,,,,,,,,,,,,,,,,,,q,1,0.334394931793,None,0,1.0,circlewhite.gif,stop,,,,,,,,,,,,,,,,,,,,,,,,0.8,0.514100074768,0.000915050506592,0.334394931793,1,q,1940.37775421,,,,,,,,,,,,,,,,,,,,,,,,,,,,,,,,,2015_Jun_24_1324,59.9645442796,LearningTask,1,64,
-200,q,200,,,,,,,,,,,,,,,,,2,0,2,0,11,0,44,1,,,,,,,,,,,,,,,,,,,,,,,,,,,,,q,1,0.367489099503,None,0,2.0,linecyan.gif,stop,,,,,,,,,,,,,,,,,,,,,,,,2.22,0.514357089996,0.00087308883667,0.367489099503,1,q,1943.38112617,,,,,,,,,,,,,,,,,,,,,,,,,,,,,,,,,2015_Jun_24_1324,59.9645442796,LearningTask,1,64,
200,w,200,,,,,,,,,,,,,,,,,2,0,2,0,11,1,45,0,,,,,,,,,,,,,,,,,,,,,,,,,,,,,w,1,0.367146015167,None,0,2.0,linecyan.gif,stop,,,,,,,,,,,,,,,,,,,,,,,,2.06,0.514601945877,0.000875949859619,0.367146015167,1,w,1946.38442111,,,,,,,,,,,,,,,,,,,,,,,,,,,,,,,,,2015_Jun_24_1324,59.9645442796,LearningTask,1,64,
200,w,200,,,,,,,,,,,,,,,,,2,0,2,0,11,2,46,0,,,,,,,,,,,,,,,,,,,,,,,,,,,,,w,1,0.334110021591,None,0,4.0,crossblue.gif,stop,,,,,,,,,,,,,,,,,,,,,,,,3.86,0.514258861542,0.000988006591797,0.334110021591,1,w,1949.38784814,,,,,,,,,,,,,,,,,,,,,,,,,,,,,,,,,2015_Jun_24_1324,59.9645442796,LearningTask,1,64,
200,w,200,,,,,,,,,,,,,,,,,2,0,2,0,11,3,47,0,,,,,,,,,,,,,,,,,,,,,,,,,,,,,w,1,0.317723989487,None,0,0.5,diamondgray.gif,go,,,,,,,,,,,,,,,,,,,,,,,,0.58,0.514287948608,0.00088095664978,0.317723989487,1,w,1952.39126921,,,,,,,,,,,,,,,,,,,,,,,,,,,,,,,,,2015_Jun_24_1324,59.9645442796,LearningTask,1,64,
-200,a,-200,,,,,,,,,,,,,,,,,2,0,2,0,12,0,48,3,,,,,,,,,,,,,,,,,,,,,,,,,,,,,a,1,0.401073932648,None,0,4.0,crossblue.gif,stop,,,,,,,,,,,,,,,,,,,,,,,,0,0.514183998108,0.000890016555786,0.300750017166,0,q,1955.39498901,0,0.5148229599,0.000955820083618,0.401073932648,1,a,1958.39785099,,,,,,,,,,,,,,,,,,,,,,,,,,2015_Jun_24_1324,59.9645442796,LearningTask,1,64,
-200,q,200,,,,,,,,,,,,,,,,,2,0,2,0,12,1,49,1,,,,,,,,,,,,,,,,,,,,,,,,,,,,,q,1,0.45027589798,None,0,1.0,circlewhite.gif,stop,,,,,,,,,,,,,,,,,,,,,,,,1.23,0.51486992836,0.000873804092407,0.45027589798,1,q,1961.40131021,,,,,,,,,,,,,,,,,,,,,,,,,,,,,,,,,2015_Jun_24_1324,59.9645442796,LearningTask,1,64,
200,w,200,,,,,,,,,,,,,,,,,2,0,2,0,12,2,50,0,,,,,,,,,,,,,,,,,,,,,,,,,,,,,w,1,0.317896842957,None,0,0.5,trianglemagenta.gif,stop,,,,,,,,,,,,,,,,,,,,,,,,0.49,0.514269828796,0.000877857208252,0.317896842957,1,w,1964.40478611,,,,,,,,,,,,,,,,,,,,,,,,,,,,,,,,,2015_Jun_24_1324,59.9645442796,LearningTask,1,64,
200,s,-200,,,,,,,,,,,,,,,,,2,0,2,0,12,3,51,2,,,,,,,,,,,,,,,,,,,,,,,,,,,,,s,1,0.384384870529,None,0,1.0,circlewhite.gif,stop,,,,,,,,,,,,,,,,,,,,,,,,1.18,0.514346122742,0.000879049301147,0.384384870529,1,s,1967.40787005,,,,,,,,,,,,,,,,,,,,,,,,,,,,,,,,,2015_Jun_24_1324,59.9645442796,LearningTask,1,64,
-200,a,-200,,,,,,,,,,,,,,,,,2,0,2,0,13,0,52,3,,,,,,,,,,,,,,,,,,,,,,,,,,,,,a,1,0.350811958313,None,0,1.0,circlewhite.gif,stop,,,,,,,,,,,,,,,,,,,,,,,,1.23,0.514258861542,0.00114893913269,0.350811958313,1,a,1970.41114616,,,,,,,,,,,,,,,,,,,,,,,,,,,,,,,,,2015_Jun_24_1324,59.9645442796,LearningTask,1,64,
200,w,200,,,,,,,,,,,,,,,,,2,0,2,0,13,1,53,0,,,,,,,,,,,,,,,,,,,,,,,,,,,,,w,1,0.334180831909,None,0,1.0,circlewhite.gif,stop,,,,,,,,,,,,,,,,,,,,,,,,1.03,0.514578104019,0.000874042510986,0.334180831909,1,w,1973.41476822,,,,,,,,,,,,,,,,,,,,,,,,,,,,,,,,,2015_Jun_24_1324,59.9645442796,LearningTask,1,64,
-200,a,-200,,,,,,,,,,,,,,,,,2,0,2,0,13,2,54,3,,,,,,,,,,,,,,,,,,,,,,,,,,,,,a,1,0.350995063782,None,0,1.0,circlewhite.gif,stop,,,,,,,,,,,,,,,,,,,,,,,,0.97,0.514573097229,0.000879049301147,0.350995063782,1,a,1976.41839719,,,,,,,,,,,,,,,,,,,,,,,,,,,,,,,,,2015_Jun_24_1324,59.9645442796,LearningTask,1,64,
-200,q,200,,,,,,,,,,,,,,,,,2,0,2,0,13,3,55,1,,,,,,,,,,,,,,,,,,,,,,,,,,,,,q,1,0.351148843765,None,0,1.0,invertedtrianglegreen.gif,go,,,,,,,,,,,,,,,,,,,,,,,,0,0.513924837112,0.000917911529541,0.284122943878,0,a,1979.42141914,0,0.515643835068,0.000944852828979,0.351148843765,1,q,1982.42479014,,,,,,,,,,,,,,,,,,,,,,,,,,2015_Jun_24_1324,59.9645442796,LearningTask,1,64,
-200,a,-200,,,,,,,,,,,,,,,,,2,0,2,0,14,0,56,3,,,,,,,,,,,,,,,,,,,,,,,,,,,,,a,1,0.417849779129,None,0,2.0,linecyan.gif,stop,,,,,,,,,,,,,,,,,,,,,,,,0,0.514413833618,0.000894784927368,0.417849779129,1,a,1985.42807007,,,,,,,,,,,,,,,,,,,,,,,,,,,,,,,,,2015_Jun_24_1324,59.9645442796,LearningTask,1,64,
200,w,200,,,,,,,,,,,,,,,,,2,0,2,0,14,1,57,0,,,,,,,,,,,,,,,,,,,,,,,,,,,,,w,1,0.317788124084,None,0,1.0,invertedtrianglegreen.gif,go,,,,,,,,,,,,,,,,,,,,,,,,0.83,0.513989925385,0.000914812088013,0.317788124084,1,w,1988.43160319,,,,,,,,,,,,,,,,,,,,,,,,,,,,,,,,,2015_Jun_24_1324,59.9645442796,LearningTask,1,64,
-200,q,200,,,,,,,,,,,,,,,,,2,0,2,0,14,2,58,1,,,,,,,,,,,,,,,,,,,,,,,,,,,,,q,1,0.300980806351,None,0,0.5,diamondgray.gif,go,,,,,,,,,,,,,,,,,,,,,,,,0,0.514127969742,0.000873804092407,0.300980806351,1,q,1991.43493509,,,,,,,,,,,,,,,,,,,,,,,,,,,,,,,,,2015_Jun_24_1324,59.9645442796,LearningTask,1,64,
-200,a,-200,,,,,,,,,,,,,,,,,2,0,2,0,14,3,59,3,,,,,,,,,,,,,,,,,,,,,,,,,,,,,a,1,0.350683927536,None,0,2.0,hexagonorange.gif,go,,,,,,,,,,,,,,,,,,,,,,,,1.83,0.514367103577,0.000878095626831,0.350683927536,1,a,1994.43846917,,,,,,,,,,,,,,,,,,,,,,,,,,,,,,,,,2015_Jun_24_1324,59.9645442796,LearningTask,1,64,
200,s,-200,,,,,,,,,,,,,,,,,2,0,2,0,15,0,60,2,,,,,,,,,,,,,,,,,,,,,,,,,,,,,s,1,0.400470018387,None,0,1.0,invertedtrianglegreen.gif,go,,,,,,,,,,,,,,,,,,,,,,,,0,0.51395201683,0.000893115997314,0.400470018387,1,s,1997.44159102,,,,,,,,,,,,,,,,,,,,,,,,,,,,,,,,,2015_Jun_24_1324,59.9645442796,LearningTask,1,64,
-200,a,-200,,,,,,,,,,,,,,,,,2,0,2,0,15,1,61,3,,,,,,,,,,,,,,,,,,,,,,,,,,,,,a,1,0.400734186172,None,0,0.5,trianglemagenta.gif,stop,,,,,,,,,,,,,,,,,,,,,,,,0.58,0.514221906662,0.000875949859619,0.400734186172,1,a,2000.44511414,,,,,,,,,,,,,,,,,,,,,,,,,,,,,,,,,2015_Jun_24_1324,59.9645442796,LearningTask,1,64,
-200,q,200,,,,,,,,,,,,,,,,,2,0,2,0,15,2,62,1,,,,,,,,,,,,,,,,,,,,,,,,,,,,,q,1,0.333831071854,None,0,4.0,squareyellow.gif,go,,,,,,,,,,,,,,,,,,,,,,,,3.79,0.514173984528,0.000869989395142,0.333831071854,1,q,2003.44864917,,,,,,,,,,,,,,,,,,,,,,,,,,,,,,,,,2015_Jun_24_1324,59.9645442796,LearningTask,1,64,
-200,q,200,,,,,,,,,,,,,,,,,2,0,2,0,15,3,63,1,,,,,,,,,,,,,,,,,,,,,,,,,,,,,q,1,0.383973836899,None,0,4.0,crossblue.gif,stop,,,,,,,,,,,,,,,,,,,,,,,,3.99,0.513786077499,0.000933885574341,0.383973836899,1,q,2006.45173216,,,,,,,,,,,,,,,,,,,,,,,,,,,,,,,,,2015_Jun_24_1324,59.9645442796,LearningTask,1,64,
-200,a,-200,,,,,,,,,,,,,,,,,2,0,2,0,16,0,64,3,,,,,,,,,,,,,,,,,,,,,,,,,,,,,a,1,0.33403801918,None,0,1.0,invertedtrianglegreen.gif,go,,,,,,,,,,,,,,,,,,,,,,,,1.13,0.514448881149,0.000871896743774,0.33403801918,1,a,2009.45497322,,,,,,,,,,,,,,,,,,,,,,,,,,,,,,,,,2015_Jun_24_1324,59.9645442796,LearningTask,1,64,
200,s,-200,,,,,,,,,,,,,,,,,2,0,2,0,16,1,65,2,,,,,,,,,,,,,,,,,,,,,,,,,,,,,s,1,0.333923101425,None,0,1.0,circlewhite.gif,stop,,,,,,,,,,,,,,,,,,,,,,,,1.23,0.514497995377,0.000878095626831,0.333923101425,1,s,2012.45854521,,,,,,,,,,,,,,,,,,,,,,,,,,,,,,,,,2015_Jun_24_1324,59.9645442796,LearningTask,1,64,
200,s,-200,,,,,,,,,,,,,,,,,2,0,2,0,16,2,66,2,,,,,,,,,,,,,,,,,,,,,,,,,,,,,s,1,0.400759935379,None,0,1.0,invertedtrianglegreen.gif,go,,,,,,,,,,,,,,,,,,,,,,,,1.08,0.514397144318,0.000895023345947,0.400759935379,1,s,2015.46176505,,,,,,,,,,,,,,,,,,,,,,,,,,,,,,,,,2015_Jun_24_1324,59.9645442796,LearningTask,1,64,
200,w,200,,,,,,,,,,,,,,,,,2,0,2,0,16,3,67,0,,,,,,,,,,,,,,,,,,,,,,,,,,,,,w,1,0.400839090347,None,0,0.5,trianglemagenta.gif,stop,,,,,,,,,,,,,,,,,,,,,,,,0.65,0.514273881912,0.000930070877075,0.400839090347,1,w,2018.4648912,,,,,,,,,,,,,,,,,,,,,,,,,,,,,,,,,2015_Jun_24_1324,59.9645442796,LearningTask,1,64,
200,s,-200,,,,,,,,,,,,,,,,,2,0,2,0,17,0,68,2,,,,,,,,,,,,,,,,,,,,,,,,,,,,,s,1,0.26705789566,None,0,2.0,hexagonorange.gif,go,,,,,,,,,,,,,,,,,,,,,,,,2.11,0.514858007431,0.000882148742676,0.26705789566,1,s,2021.46846318,,,,,,,,,,,,,,,,,,,,,,,,,,,,,,,,,2015_Jun_24_1324,59.9645442796,LearningTask,1,64,
200,w,200,,,,,,,,,,,,,,,,,2,0,2,0,17,1,69,0,,,,,,,,,,,,,,,,,,,,,,,,,,,,,w,1,0.351274967194,None,0,2.0,linecyan.gif,stop,,,,,,,,,,,,,,,,,,,,,,,,1.76,0.513985872269,0.000880002975464,0.351274967194,1,w,2024.4718051,,,,,,,,,,,,,,,,,,,,,,,,,,,,,,,,,2015_Jun_24_1324,59.9645442796,LearningTask,1,64,
-200,a,-200,,,,,,,,,,,,,,,,,2,0,2,0,17,2,70,3,,,,,,,,,,,,,,,,,,,,,,,,,,,,,a,1,0.317240953445,None,0,4.0,squareyellow.gif,go,,,,,,,,,,,,,,,,,,,,,,,,3.98,0.514178037643,0.000921964645386,0.317240953445,1,a,2027.47529912,,,,,,,,,,,,,,,,,,,,,,,,,,,,,,,,,2015_Jun_24_1324,59.9645442796,LearningTask,1,64,
-200,a,-200,,,,,,,,,,,,,,,,,2,0,2,0,17,3,71,3,,,,,,,,,,,,,,,,,,,,,,,,,,,,,a,1,0.317591190338,None,0,1.0,circlewhite.gif,stop,,,,,,,,,,,,,,,,,,,,,,,,0.98,0.514132022858,0.000881910324097,0.317591190338,1,a,2030.4787941,,,,,,,,,,,,,,,,,,,,,,,,,,,,,,,,,2015_Jun_24_1324,59.9645442796,LearningTask,1,64,
-200,a,-200,,,,,,,,,,,,,,,,,2,0,2,0,18,0,72,3,,,,,,,,,,,,,,,,,,,,,,,,,,,,,a,1,0.333928108215,None,0,1.0,invertedtrianglegreen.gif,go,,,,,,,,,,,,,,,,,,,,,,,,1.19,0.514091968536,0.000870943069458,0.333928108215,1,a,2033.48168802,,,,,,,,,,,,,,,,,,,,,,,,,,,,,,,,,2015_Jun_24_1324,59.9645442796,LearningTask,1,64,
200,s,-200,,,,,,,,,,,,,,,,,2,0,2,0,18,1,73,2,,,,,,,,,,,,,,,,,,,,,,,,,,,,,s,1,0.317562103271,None,0,2.0,hexagonorange.gif,go,,,,,,,,,,,,,,,,,,,,,,,,1.78,0.514098882675,0.000914096832275,0.317562103271,1,s,2036.48513103,,,,,,,,,,,,,,,,,,,,,,,,,,,,,,,,,2015_Jun_24_1324,59.9645442796,LearningTask,1,64,
-200,a,-200,,,,,,,,,,,,,,,,,2,0,2,0,18,2,74,3,,,,,,,,,,,,,,,,,,,,,,,,,,,,,a,1,0.334038972855,None,0,2.0,hexagonorange.gif,go,,,,,,,,,,,,,,,,,,,,,,,,1.83,0.514153003693,0.000880002975464,0.334038972855,1,a,2039.48860621,,,,,,,,,,,,,,,,,,,,,,,,,,,,,,,,,2015_Jun_24_1324,59.9645442796,LearningTask,1,64,
-200,q,200,,,,,,,,,,,,,,,,,2,0,2,0,18,3,75,1,,,,,,,,,,,,,,,,,,,,,,,,,,,,,q,1,0.317492008209,None,0,0.5,trianglemagenta.gif,stop,,,,,,,,,,,,,,,,,,,,,,,,0.75,0.514311075211,0.00088095664978,0.317492008209,1,q,2042.49159813,,,,,,,,,,,,,,,,,,,,,,,,,,,,,,,,,2015_Jun_24_1324,59.9645442796,LearningTask,1,64,
-200,a,-200,,,,,,,,,,,,,,,,,2,0,2,0,19,0,76,3,,,,,,,,,,,,,,,,,,,,,,,,,,,,,a,1,0.283909797668,None,0,2.0,hexagonorange.gif,go,,,,,,,,,,,,,,,,,,,,,,,,1.79,0.514325857162,0.000910997390747,0.283909797668,1,a,2045.49530506,,,,,,,,,,,,,,,,,,,,,,,,,,,,,,,,,2015_Jun_24_1324,59.9645442796,LearningTask,1,64,
-200,a,-200,,,,,,,,,,,,,,,,,2,0,2,0,19,1,77,3,,,,,,,,,,,,,,,,,,,,,,,,,,,,,a,1,0.283968925476,None,0,4.0,squareyellow.gif,go,,,,,,,,,,,,,,,,,,,,,,,,4.15,0.514441013336,0.000891208648682,0.283968925476,1,a,2048.49863601,,,,,,,,,,,,,,,,,,,,,,,,,,,,,,,,,2015_Jun_24_1324,59.9645442796,LearningTask,1,64,
-200,q,200,,,,,,,,,,,,,,,,,2,0,2,0,19,2,78,1,,,,,,,,,,,,,,,,,,,,,,,,,,,,,q,1,0.384194135666,None,0,1.0,circlewhite.gif,stop,,,,,,,,,,,,,,,,,,,,,,,,0.82,0.514251947403,0.000885963439941,0.384194135666,1,q,2051.50242615,,,,,,,,,,,,,,,,,,,,,,,,,,,,,,,,,2015_Jun_24_1324,59.9645442796,LearningTask,1,64,
-200,q,200,,,,,,,,,,,,,,,,,2,0,2,0,19,3,79,1,,,,,,,,,,,,,,,,,,,,,,,,,,,,,q,1,0.400732040405,None,0,0.5,diamondgray.gif,go,,,,,,,,,,,,,,,,,,,,,,,,0.47,0.513623952866,0.000877141952515,0.400732040405,1,q,2054.50545001,,,,,,,,,,,,,,,,,,,,,,,,,,,,,,,,,2015_Jun_24_1324,59.9645442796,LearningTask,1,64,
200,w,200,,,,,,,,,,,,,,,,,2,0,2,0,20,0,80,0,,,,,,,,,,,,,,,,,,,,,,,,,,,,,w,1,0.417768955231,None,0,0.5,diamondgray.gif,go,,,,,,,,,,,,,,,,,,,,,,,,0.73,0.514444112778,0.000874996185303,0.417768955231,1,w,2057.50869012,,,,,,,,,,,,,,,,,,,,,,,,,,,,,,,,,2015_Jun_24_1324,59.9645442796,LearningTask,1,64,
-200,a,-200,,,,,,,,,,,,,,,,,2,0,2,0,20,1,81,3,,,,,,,,,,,,,,,,,,,,,,,,,,,,,a,1,0.284205913544,None,0,2.0,hexagonorange.gif,go,,,,,,,,,,,,,,,,,,,,,,,,2.12,0.51456618309,0.000880002975464,0.284205913544,1,a,2060.51220012,,,,,,,,,,,,,,,,,,,,,,,,,,,,,,,,,2015_Jun_24_1324,59.9645442796,LearningTask,1,64,
200,s,-200,,,,,,,,,,,,,,,,,2,0,2,0,20,2,82,2,,,,,,,,,,,,,,,,,,,,,,,,,,,,,s,1,0.350504875183,None,0,1.0,circlewhite.gif,stop,,,,,,,,,,,,,,,,,,,,,,,,1.02,0.514387130737,0.000878095626831,0.350504875183,1,s,2063.51533008,,,,,,,,,,,,,,,,,,,,,,,,,,,,,,,,,2015_Jun_24_1324,59.9645442796,LearningTask,1,64,
200,w,200,,,,,,,,,,,,,,,,,2,0,2,0,20,3,83,0,,,,,,,,,,,,,,,,,,,,,,,,,,,,,w,1,0.350916862488,None,0,4.0,crossblue.gif,stop,,,,,,,,,,,,,,,,,,,,,,,,4.11,0.514471769333,0.000911951065063,0.350916862488,1,w,2066.5185082,,,,,,,,,,,,,,,,,,,,,,,,,,,,,,,,,2015_Jun_24_1324,59.9645442796,LearningTask,1,64,
200,s,-200,,,,,,,,,,,,,,,,,2,0,2,0,21,0,84,2,,,,,,,,,,,,,,,,,,,,,,,,,,,,,s,1,0.367752075195,None,0,0.5,diamondgray.gif,go,,,,,,,,,,,,,,,,,,,,,,,,0.62,0.51446890831,0.00115084648132,0.367752075195,1,s,2069.52217317,,,,,,,,,,,,,,,,,,,,,,,,,,,,,,,,,2015_Jun_24_1324,59.9645442796,LearningTask,1,64,
200,s,-200,,,,,,,,,,,,,,,,,2,0,2,0,21,1,85,2,,,,,,,,,,,,,,,,,,,,,,,,,,,,,s,1,0.434168100357,None,0,0.5,trianglemagenta.gif,stop,,,,,,,,,,,,,,,,,,,,,,,,0.71,0.514373064041,0.000881195068359,0.434168100357,1,s,2072.52562499,,,,,,,,,,,,,,,,,,,,,,,,,,,,,,,,,2015_Jun_24_1324,59.9645442796,LearningTask,1,64,
200,w,200,,,,,,,,,,,,,,,,,2,0,2,0,21,2,86,0,,,,,,,,,,,,,,,,,,,,,,,,,,,,,w,1,0.350540876389,None,0,0.5,trianglemagenta.gif,stop,,,,,,,,,,,,,,,,,,,,,,,,0.3,0.514173030853,0.00095796585083,0.350540876389,1,w,2075.52887106,,,,,,,,,,,,,,,,,,,,,,,,,,,,,,,,,2015_Jun_24_1324,59.9645442796,LearningTask,1,64,
200,s,-200,,,,,,,,,,,,,,,,,2,0,2,0,21,3,87,2,,,,,,,,,,,,,,,,,,,,,,,,,,,,,s,1,0.300455093384,None,0,4.0,crossblue.gif,stop,,,,,,,,,,,,,,,,,,,,,,,,3.75,0.5143699646,0.000885963439941,0.300455093384,1,s,2078.53258419,,,,,,,,,,,,,,,,,,,,,,,,,,,,,,,,,2015_Jun_24_1324,59.9645442796,LearningTask,1,64,
200,w,200,,,,,,,,,,,,,,,,,2,0,2,0,22,0,88,0,,,,,,,,,,,,,,,,,,,,,,,,,,,,,w,1,0.367295026779,None,0,0.5,trianglemagenta.gif,stop,,,,,,,,,,,,,,,,,,,,,,,,0.68,0.514109134674,0.000883102416992,0.367295026779,1,w,2081.53555322,,,,,,,,,,,,,,,,,,,,,,,,,,,,,,,,,2015_Jun_24_1324,59.9645442796,LearningTask,1,64,
200,s,-200,,,,,,,,,,,,,,,,,2,0,2,0,22,1,89,2,,,,,,,,,,,,,,,,,,,,,,,,,,,,,s,1,0.301181077957,None,0,4.0,squareyellow.gif,go,,,,,,,,,,,,,,,,,,,,,,,,4.02,0.513879060745,0.000905990600586,0.301181077957,1,s,2084.53877521,,,,,,,,,,,,,,,,,,,,,,,,,,,,,,,,,2015_Jun_24_1324,59.9645442796,LearningTask,1,64,
200,s,-200,,,,,,,,,,,,,,,,,2,0,2,0,22,2,90,2,,,,,,,,,,,,,,,,,,,,,,,,,,,,,s,1,0.384005069733,None,0,4.0,crossblue.gif,stop,,,,,,,,,,,,,,,,,,,,,,,,3.92,0.514641046524,0.000930070877075,0.384005069733,1,s,2087.54270101,,,,,,,,,,,,,,,,,,,,,,,,,,,,,,,,,2015_Jun_24_1324,59.9645442796,LearningTask,1,64,
-200,q,200,,,,,,,,,,,,,,,,,2,0,2,0,22,3,91,1,,,,,,,,,,,,,,,,,,,,,,,,,,,,,q,1,0.383624076843,None,0,2.0,hexagonorange.gif,go,,,,,,,,,,,,,,,,,,,,,,,,0,0.513975143433,0.000878095626831,0.383624076843,1,q,2090.54595804,,,,,,,,,,,,,,,,,,,,,,,,,,,,,,,,,2015_Jun_24_1324,59.9645442796,LearningTask,1,64,
200,w,200,,,,,,,,,,,,,,,,,2,0,2,0,23,0,92,0,,,,,,,,,,,,,,,,,,,,,,,,,,,,,w,1,0.36737704277,None,0,4.0,squareyellow.gif,go,,,,,,,,,,,,,,,,,,,,,,,,4.19,0.513833999634,0.000875949859619,0.36737704277,1,w,2093.54900122,,,,,,,,,,,,,,,,,,,,,,,,,,,,,,,,,2015_Jun_24_1324,59.9645442796,LearningTask,1,64,
200,s,-200,,,,,,,,,,,,,,,,,2,0,2,0,23,1,93,2,,,,,,,,,,,,,,,,,,,,,,,,,,,,,s,1,0.333847045898,None,0,1.0,circlewhite.gif,stop,,,,,,,,,,,,,,,,,,,,,,,,1.08,0.514487981796,0.000874996185303,0.333847045898,1,s,2096.5522871,,,,,,,,,,,,,,,,,,,,,,,,,,,,,,,,,2015_Jun_24_1324,59.9645442796,LearningTask,1,64,
200,w,200,,,,,,,,,,,,,,,,,2,0,2,0,23,2,94,0,,,,,,,,,,,,,,,,,,,,,,,,,,,,,w,1,0.367555141449,None,0,2.0,linecyan.gif,stop,,,,,,,,,,,,,,,,,,,,,,,,2.23,0.514228105545,0.00305700302124,0.367555141449,1,w,2099.55592299,,,,,,,,,,,,,,,,,,,,,,,,,,,,,,,,,2015_Jun_24_1324,59.9645442796,LearningTask,1,64,
-200,q,200,,,,,,,,,,,,,,,,,2,0,2,0,23,3,95,1,,,,,,,,,,,,,,,,,,,,,,,,,,,,,q,1,0.350536823273,None,0,2.0,hexagonorange.gif,go,,,,,,,,,,,,,,,,,,,,,,,,2.04,0.514189004898,0.000885009765625,0.350536823273,1,q,2102.55898809,,,,,,,,,,,,,,,,,,,,,,,,,,,,,,,,,2015_Jun_24_1324,59.9645442796,LearningTask,1,64,
-200,a,-200,,,,,,,,,,,,,,,,,2,0,2,0,24,0,96,3,,,,,,,,,,,,,,,,,,,,,,,,,,,,,a,1,0.384603023529,None,0,0.5,diamondgray.gif,go,,,,,,,,,,,,,,,,,,,,,,,,0.46,0.514302015305,0.000943899154663,0.384603023529,1,a,2105.562361,,,,,,,,,,,,,,,,,,,,,,,,,,,,,,,,,2015_Jun_24_1324,59.9645442796,LearningTask,1,64,
200,s,-200,,,,,,,,,,,,,,,,,2,0,2,0,24,1,97,2,,,,,,,,,,,,,,,,,,,,,,,,,,,,,s,1,0.384285926819,None,0,1.0,invertedtrianglegreen.gif,go,,,,,,,,,,,,,,,,,,,,,,,,1.25,0.514482021332,0.00101017951965,0.384285926819,1,s,2108.56584907,,,,,,,,,,,,,,,,,,,,,,,,,,,,,,,,,2015_Jun_24_1324,59.9645442796,LearningTask,1,64,
-200,q,200,,,,,,,,,,,,,,,,,2,0,2,0,24,2,98,1,,,,,,,,,,,,,,,,,,,,,,,,,,,,,q,1,0.317955970764,None,0,4.0,crossblue.gif,stop,,,,,,,,,,,,,,,,,,,,,,,,4.13,0.514196157455,0.000878095626831,0.317955970764,1,q,2111.56911516,,,,,,,,,,,,,,,,,,,,,,,,,,,,,,,,,2015_Jun_24_1324,59.9645442796,LearningTask,1,64,
200,s,-200,,,,,,,,,,,,,,,,,2,0,2,0,24,3,99,2,,,,,,,,,,,,,,,,,,,,,,,,,,,,,s,1,0.384454011917,None,0,2.0,linecyan.gif,stop,,,,,,,,,,,,,,,,,,,,,,,,1.97,0.514342069626,0.000997066497803,0.384454011917,1,s,2114.57218909,,,,,,,,,,,,,,,,,,,,,,,,,,,,,,,,,2015_Jun_24_1324,59.9645442796,LearningTask,1,64,
,,,,,,,,,,,,,,,,,,,2,0,2,0,,,,,,,,,,,,,,,,,,,,,,,,,,,,,,,,,,,,,,,,,,,,,,,,,,,,,,,,,,,,,,,,,,,,,,,,,,,,,,9,10.029075861,,,,,,,,,,,,,,,,,,,,,,,,2015_Jun_24_1324,59.9645442796,LearningTask,1,64,
