xPos,corrAns,yPos,corrGoResp,yPosGoStim,xPosGoStim,pracTrials.thisRepN,pracTrials.thisTrialN,pracTrials.thisN,pracTrials.thisIndex,ReDoLoopPrac.thisRepN,ReDoLoopPrac.thisTrialN,ReDoLoopPrac.thisN,ReDoLoopPrac.thisIndex,ReDoLoopPrac.thisTrial,pracStopTrials.thisRepN,pracStopTrials.thisTrialN,pracStopTrials.thisN,pracStopTrials.thisIndex,Blocks.thisRepN,Blocks.thisTrialN,Blocks.thisN,Blocks.thisIndex,trials.thisRepN,trials.thisTrialN,trials.thisN,trials.thisIndex,ReDoLoopMain.thisRepN,ReDoLoopMain.thisTrialN,ReDoLoopMain.thisN,ReDoLoopMain.thisIndex,ReDoLoopMain.thisTrial,StopBlocks.thisRepN,StopBlocks.thisTrialN,StopBlocks.thisN,StopBlocks.thisIndex,StopTrials.thisRepN,StopTrials.thisTrialN,StopTrials.thisN,StopTrials.thisIndex,auctionBlocks.thisRepN,auctionBlocks.thisTrialN,auctionBlocks.thisN,auctionBlocks.thisIndex,auctionTrials.thisRepN,auctionTrials.thisTrialN,auctionTrials.thisN,auctionTrials.thisIndex,learningTrialList,learningPracTrialList,stopTrialList,stopPracTrialList,auctionTrialList,ok1.keys,ok1.rt,resp.keys,resp.corr,resp.rt,feedbackResp.keys,feedbackResp.corr,currentReward,currentStimulus,currentStimType,firstPracComputedRewardOutput,firstPracLearningStimOnset,firstPracLearningFixOnset,firstPracPresentationRT,firstPracPresentationAcc,firstPracPresentationResp,firstPracEndTrialTimeStamp,StartTrialTimeStamp,trialType,goStim,stimType,stopStimValue,goResp.keys,goResp.corr,goResp.rt,key_resp_9.keys,key_resp_9.corr,fixStopOnset,goStimOnset,stopSignalOnset,EndTrialTimeStamp,key_resp_3.keys,key_resp_3.rt,firstComputedRewardOutput,firstLearningStimOnset,firstLearningFixOnset,firstPresentationRT,firstPresentationAcc,firstPresentationResp,firstEndTrialTimeStamp,secondComputedRewardOutput,secondLearningStimOnset,secondLearningFixOnset,secondPresentationRT,secondPresentationAcc,secondPresentationResp,secondEndTrialTimeStamp,key_resp_7.keys,key_resp_7.rt,feedbackResp.rt,beginningSSD,EndingSSD,key_resp_4.keys,key_resp_4.rt,auctionResponse.keys,auctionResponse.rt,auctionStimDuration,auctionStim,auctionAmounts,auctionStimValue,auctionCondition,chosenAuctionAmount,key_resp_5.keys,key_resp_5.rt,shuffledRewardList,chosenReward1,chosenReward2,chosenReward3,chosenReward4,chosenReward5,key_resp_6.keys,key_resp_6.rt,date,frameRate,expName,session,participant,
,,,,,,,,,,,,,,,,,,,,,,,,,,,,,,,,,,,,,,,,,,,,,,,,[],[],[],[],[],9,57.6376168728,,,,,,,,,,,,,,,,,,,,,,,,,,,,,,,,,,,,,,,,,,,,,,,,,,,,,,,,,,,,,,,,,,,,,,,2015_Jun_30_1020,60.1203753739,LearningTask,1,68,
-200,q,200,,,,0,0,0,5,,,,,,,,,,,,,,,,,,,,,,,,,,,,,,,,,,,,,,,,,,,,,,q,1,0.867943048477,None,0,0.5,squaregreen.gif,go,0.6,0.512494087219,0.074520111084,0.867943048477,1,q,123.828341007,,,,,,,,,,,,,,,,,,,,,,,,,,,,,,,,,,,,,,,,,,,,,,,,,,,,,,,,2015_Jun_30_1020,60.1203753739,LearningTask,1,68,
200,w,200,,,,0,1,1,4,,,,,,,,,,,,,,,,,,,,,,,,,,,,,,,,,,,,,,,,,,,,,,w,1,0.534878969193,None,0,2.0,diamondblue.gif,stop,1.84,0.514429092407,0.0162601470947,0.534878969193,1,w,126.831009865,,,,,,,,,,,,,,,,,,,,,,,,,,,,,,,,,,,,,,,,,,,,,,,,,,,,,,,,2015_Jun_30_1020,60.1203753739,LearningTask,1,68,
200,s,-200,,,,0,2,2,6,,,,,,,,,,,,,,,,,,,,,,,,,,,,,,,,,,,,,,,,,,,,,,s,1,0.384464979172,None,0,0.5,circleyellow.gif,stop,0,0.5151450634,0.0265960693359,0.384464979172,1,s,129.83433795,,,,,,,,,,,,,,,,,,,,,,,,,,,,,,,,,,,,,,,,,,,,,,,,,,,,,,,,2015_Jun_30_1020,60.1203753739,LearningTask,1,68,
-200,q,200,,,,0,3,3,1,,,,,,,,,,,,,,,,,,,,,,,,,,,,,,,,,,,,,,,,,,,,,,q,1,0.451366901398,None,0,4.0,lineorange.gif,go,4.07,0.514820098877,0.0173709392548,0.451366901398,1,q,132.837824821,,,,,,,,,,,,,,,,,,,,,,,,,,,,,,,,,,,,,,,,,,,,,,,,,,,,,,,,2015_Jun_30_1020,60.1203753739,LearningTask,1,68,
200,s,-200,,,,0,4,4,2,,,,,,,,,,,,,,,,,,,,,,,,,,,,,,,,,,,,,,,,,,,,,,s,1,0.384119987488,None,0,2.0,hexagongray.gif,go,0,0.514667987823,0.0222418308258,0.384119987488,1,s,135.84125185,,,,,,,,,,,,,,,,,,,,,,,,,,,,,,,,,,,,,,,,,,,,,,,,,,,,,,,,2015_Jun_30_1020,60.1203753739,LearningTask,1,68,
200,w,200,,,,0,5,5,0,,,,,,,,,,,,,,,,,,,,,,,,,,,,,,,,,,,,,,,,,,,,,,w,1,0.467750072479,None,0,2.0,hexagongray.gif,go,2.07,0.515054225922,0.000943183898926,0.467750072479,1,w,138.844790936,,,,,,,,,,,,,,,,,,,,,,,,,,,,,,,,,,,,,,,,,,,,,,,,,,,,,,,,2015_Jun_30_1020,60.1203753739,LearningTask,1,68,
-200,a,-200,,,,0,6,6,7,,,,,,,,,,,,,,,,,,,,,,,,,,,,,,,,,,,,,,,,,,,,,,a,1,0.434187173843,None,0,0.5,circleyellow.gif,stop,0.68,0.514366149902,0.00096607208252,0.434187173843,1,a,141.848007917,,,,,,,,,,,,,,,,,,,,,,,,,,,,,,,,,,,,,,,,,,,,,,,,,,,,,,,,2015_Jun_30_1020,60.1203753739,LearningTask,1,68,
-200,a,-200,,,,0,7,7,3,,,,,,,,,,,,,,,,,,,,,,,,,,,,,,,,,,,,,,,,,,,,,,a,1,0.434292078018,None,0,1.0,crosswhite.gif,stop,0,0.514904022217,0.0329260826111,0.434292078018,1,a,144.851160049,,,,,,,,,,,,,,,,,,,,,,,,,,,,,,,,,,,,,,,,,,,,,,,,,,,,,,,,2015_Jun_30_1020,60.1203753739,LearningTask,1,68,
-200,q,200,,,,0,8,8,9,,,,,,,,,,,,,,,,,,,,,,,,,,,,,,,,,,,,,,,,,,,,,,q,1,0.400979995728,None,0,1.0,crosswhite.gif,stop,0.82,0.515035152435,0.000971078872681,0.400979995728,1,q,147.854931831,,,,,,,,,,,,,,,,,,,,,,,,,,,,,,,,,,,,,,,,,,,,,,,,,,,,,,,,2015_Jun_30_1020,60.1203753739,LearningTask,1,68,
200,w,200,,,,0,9,9,8,,,,,,,,,,,,,,,,,,,,,,,,,,,,,,,,,,,,,,,,,,,,,,w,1,0.417816162109,None,0,4.0,trianglemagenta.gif,stop,0,0.51452589035,0.0164380073547,0.417816162109,1,w,150.858393908,,,,,,,,,,,,,,,,,,,,,,,,,,,,,,,,,,,,,,,,,,,,,,,,,,,,,,,,2015_Jun_30_1020,60.1203753739,LearningTask,1,68,
,,,m,0,200,,,,,,,,,,0,0,0,1,,,,,,,,,,,,,,,,,,,,,,,,,,,,,,,,,,,,,,,,,,,,,,,,,,,,203.610306025,stop,circleyellow.gif,stop,0.5,m,1,0.467547893524,None,0,0.00137186050415,0.505244970322,0.755767822266,206.603385925,,,,,,,,,,,,,,,,,,,,,,,,,,,,,,,,,,,,,,,,,,2015_Jun_30_1020,60.1203753739,LearningTask,1,68,
,,,m,0,200,,,,,,,,,,0,1,1,1,,,,,,,,,,,,,,,,,,,,,,,,,,,,,,,,,,,,,,,,,,,,,,,,,,,,206.603824854,stop,crosswhite.gif,stop,1.0,None,0,,None,0,0.000995874404907,0.515321969986,0.766069889069,209.606669903,,,,,,,,,,,,,,,,,,,,,,,,,,,,,,,,,,,,,,,,,,2015_Jun_30_1020,60.1203753739,LearningTask,1,68,
,,,m,0,200,,,,,,,,,,1,0,2,1,,,,,,,,,,,,,,,,,,,,,,,,,,,,,,,,,,,,,,,,,,,,,,,,,,,,209.607148886,stop,crosswhite.gif,stop,1.0,m,1,0.400761842728,None,0,0.00110101699829,0.515413999557,0.765768051147,212.609822989,,,,,,,,,,,,,,,,,,,,,,,,,,,,,,,,,,,,,,,,,,2015_Jun_30_1020,60.1203753739,LearningTask,1,68,
,,,z,0,-200,,,,,,,,,,1,1,3,0,,,,,,,,,,,,,,,,,,,,,,,,,,,,,,,,,,,,,,,,,,,,,,,,,,,,212.610254049,stop,diamondblue.gif,stop,2.0,None,0,,None,0,0.00849413871765,0.515737056732,0.766021966934,215.613363981,,,,,,,,,,,,,,,,,,,,,,,,,,,,,,,,,,,,,,,,,,2015_Jun_30_1020,60.1203753739,LearningTask,1,68,
,,,z,0,-200,,,,,,,,,,2,0,4,0,,,,,,,,,,,,,,,,,,,,,,,,,,,,,,,,,,,,,,,,,,,,,,,,,,,,215.613721848,stop,circleyellow.gif,stop,0.5,None,0,,None,0,0.00108194351196,0.515846014023,0.765944957733,218.616927862,,,,,,,,,,,,,,,,,,,,,,,,,,,,,,,,,,,,,,,,,,2015_Jun_30_1020,60.1203753739,LearningTask,1,68,
,,,z,0,-200,,,,,,,,,,2,1,5,0,,,,,,,,,,,,,,,,,,,,,,,,,,,,,,,,,,,,,,,,,,,,,,,,,,,,218.617328882,go,invertedtrianglecyan.gif,go,1.0,z,1,0.650712966919,None,0,0.0137000083923,0.51571893692,,221.619882822,,,,,,,,,,,,,,,,,,,,,,,,,,,,,,,,,,,,,,,,,,2015_Jun_30_1020,60.1203753739,LearningTask,1,68,
,,,m,0,200,,,,,,,,,,3,0,6,1,,,,,,,,,,,,,,,,,,,,,,,,,,,,,,,,,,,,,,,,,,,,,,,,,,,,221.620306015,stop,diamondblue.gif,stop,2.0,None,0,,None,0,0.000984907150269,0.515740871429,0.766054868698,224.623354912,,,,,,,,,,,,,,,,,,,,,,,,,,,,,,,,,,,,,,,,,,2015_Jun_30_1020,60.1203753739,LearningTask,1,68,
,,,m,0,200,,,,,,,,,,3,1,7,1,,,,,,,,,,,,,,,,,,,,,,,,,,,,,,,,,,,,,,,,,,,,,,,,,,,,224.623759031,go,hexagongray.gif,go,2.0,m,1,0.851380825043,None,0,0.00732278823853,0.515549898148,,227.626629829,,,,,,,,,,,,,,,,,,,,,,,,,,,,,,,,,,,,,,,,,,2015_Jun_30_1020,60.1203753739,LearningTask,1,68,
,,,z,0,-200,,,,,,,,,,4,0,8,0,,,,,,,,,,,,,,,,,,,,,,,,,,,,,,,,,,,,,,,,,,,,,,,,,,,,227.62699604,go,squaregreen.gif,go,0.5,z,1,0.584090948105,None,0,0.0162332057953,0.515277147293,,230.629993916,,,,,,,,,,,,,,,,,,,,,,,,,,,,,,,,,,,,,,,,,,2015_Jun_30_1020,60.1203753739,LearningTask,1,68,
,,,z,0,-200,,,,,,,,,,4,1,9,0,,,,,,,,,,,,,,,,,,,,,,,,,,,,,,,,,,,,,,,,,,,,,,,,,,,,230.630420923,go,lineorange.gif,go,4.0,z,1,0.81774687767,None,0,0.00536680221558,0.51572394371,,233.63337183,,,,,,,,,,,,,,,,,,,,,,,,,,,,,,,,,,,,,,,,,,2015_Jun_30_1020,60.1203753739,LearningTask,1,68,
,,,,,,,,,,,,,,,,,,,,,,,,,,,,,,,,,,,,,,,,,,,,,,,,,,,,,,,,,,,,,,,,,,,,,,,,,,,,,,,,,,,,9,86.7884578705,,,,,,,,,,,,,,,,,,,,,,,,,,,,,,,,,,,,,,,,2015_Jun_30_1020,60.1203753739,LearningTask,1,68,
,,,,,,,,,,,,,,,,,,,,,,,,,,,,,,,,,,,,,,,,,,,,,,,,,,,,,9,5.58958792686,,,,,,,,,,,,,,,,,,,,,,,,,,,,,,,,,,,,,,,,,,,,,,,,,,,,,,,,,,,,,,,,,,,,,,,2015_Jun_30_1020,60.1203753739,LearningTask,1,68,
-200,q,200,,,,,,,,,,,,,,,,,0,0,0,0,0,0,0,1,,,,,,,,,,,,,,,,,,,,,,,,,,,,,q,1,0.584422111511,None,0,2.0,hexagongray.gif,go,,,,,,,,,,,,,,,,,,,,,,,,0,0.500355005264,0.0122900009155,0.584422111511,1,q,329.275393963,,,,,,,,,,,,,,,,,,,,,,,,,,,,,,,,,2015_Jun_30_1020,60.1203753739,LearningTask,1,68,
-200,q,200,,,,,,,,,,,,,,,,,0,0,0,0,0,1,1,1,,,,,,,,,,,,,,,,,,,,,,,,,,,,,q,1,0.351155996323,None,0,2.0,diamondblue.gif,stop,,,,,,,,,,,,,,,,,,,,,,,,2.13,0.513063907623,0.0382919311523,0.351155996323,1,q,332.278166056,,,,,,,,,,,,,,,,,,,,,,,,,,,,,,,,,2015_Jun_30_1020,60.1203753739,LearningTask,1,68,
200,s,-200,,,,,,,,,,,,,,,,,0,0,0,0,0,2,2,2,,,,,,,,,,,,,,,,,,,,,,,,,,,,,s,1,0.350859880447,None,0,2.0,diamondblue.gif,stop,,,,,,,,,,,,,,,,,,,,,,,,2.09,0.513671159744,0.000957012176514,0.350859880447,1,s,335.281386852,,,,,,,,,,,,,,,,,,,,,,,,,,,,,,,,,2015_Jun_30_1020,60.1203753739,LearningTask,1,68,
200,w,200,,,,,,,,,,,,,,,,,0,0,0,0,0,3,3,0,,,,,,,,,,,,,,,,,,,,,,,,,,,,,w,1,0.317800998688,None,0,2.0,diamondblue.gif,stop,,,,,,,,,,,,,,,,,,,,,,,,2.18,0.513928890228,0.000943899154663,0.317800998688,1,w,338.284370899,,,,,,,,,,,,,,,,,,,,,,,,,,,,,,,,,2015_Jun_30_1020,60.1203753739,LearningTask,1,68,
200,s,-200,,,,,,,,,,,,,,,,,0,0,0,0,1,0,4,2,,,,,,,,,,,,,,,,,,,,,,,,,,,,,s,1,0.317779779434,None,0,2.0,hexagongray.gif,go,,,,,,,,,,,,,,,,,,,,,,,,2.14,0.514506816864,0.000932931900024,0.317779779434,1,s,341.287868977,,,,,,,,,,,,,,,,,,,,,,,,,,,,,,,,,2015_Jun_30_1020,60.1203753739,LearningTask,1,68,
-200,a,-200,,,,,,,,,,,,,,,,,0,0,0,0,1,1,5,3,,,,,,,,,,,,,,,,,,,,,,,,,,,,,a,1,0.333686113358,None,0,0.5,squaregreen.gif,go,,,,,,,,,,,,,,,,,,,,,,,,0,0.514099836349,0.0170538425446,0.333686113358,1,a,344.291786909,,,,,,,,,,,,,,,,,,,,,,,,,,,,,,,,,2015_Jun_30_1020,60.1203753739,LearningTask,1,68,
200,w,200,,,,,,,,,,,,,,,,,0,0,0,0,1,2,6,0,,,,,,,,,,,,,,,,,,,,,,,,,,,,,w,1,0.300715923309,None,0,0.5,squaregreen.gif,go,,,,,,,,,,,,,,,,,,,,,,,,0,0.513813972473,0.00122594833374,0.300715923309,1,w,347.294672966,,,,,,,,,,,,,,,,,,,,,,,,,,,,,,,,,2015_Jun_30_1020,60.1203753739,LearningTask,1,68,
-200,q,200,,,,,,,,,,,,,,,,,0,0,0,0,1,3,7,1,,,,,,,,,,,,,,,,,,,,,,,,,,,,,q,1,0.367498874664,None,0,4.0,lineorange.gif,go,,,,,,,,,,,,,,,,,,,,,,,,3.97,0.514351129532,0.0138170719147,0.367498874664,1,q,350.297978878,,,,,,,,,,,,,,,,,,,,,,,,,,,,,,,,,2015_Jun_30_1020,60.1203753739,LearningTask,1,68,
-200,a,-200,,,,,,,,,,,,,,,,,0,0,0,0,2,0,8,3,,,,,,,,,,,,,,,,,,,,,,,,,,,,,a,1,0.368042945862,None,0,0.5,squaregreen.gif,go,,,,,,,,,,,,,,,,,,,,,,,,0.66,0.513608932495,0.000927925109863,0.368042945862,1,a,353.301386833,,,,,,,,,,,,,,,,,,,,,,,,,,,,,,,,,2015_Jun_30_1020,60.1203753739,LearningTask,1,68,
-200,a,-200,,,,,,,,,,,,,,,,,0,0,0,0,2,1,9,3,,,,,,,,,,,,,,,,,,,,,,,,,,,,,a,1,0.334467887878,None,0,1.0,crosswhite.gif,stop,,,,,,,,,,,,,,,,,,,,,,,,1.18,0.513887166977,0.0136651992798,0.334467887878,1,a,356.304483891,,,,,,,,,,,,,,,,,,,,,,,,,,,,,,,,,2015_Jun_30_1020,60.1203753739,LearningTask,1,68,
200,s,-200,,,,,,,,,,,,,,,,,0,0,0,0,2,2,10,2,,,,,,,,,,,,,,,,,,,,,,,,,,,,,s,1,0.334363937378,None,0,0.5,squaregreen.gif,go,,,,,,,,,,,,,,,,,,,,,,,,0,0.514232158661,0.000933170318604,0.334363937378,1,s,359.308197021,,,,,,,,,,,,,,,,,,,,,,,,,,,,,,,,,2015_Jun_30_1020,60.1203753739,LearningTask,1,68,
200,w,200,,,,,,,,,,,,,,,,,0,0,0,0,2,3,11,0,,,,,,,,,,,,,,,,,,,,,,,,,,,,,w,1,0.300929069519,None,0,1.0,invertedtrianglecyan.gif,go,,,,,,,,,,,,,,,,,,,,,,,,0.97,0.514071941376,0.00784707069397,0.300929069519,1,w,362.311466932,,,,,,,,,,,,,,,,,,,,,,,,,,,,,,,,,2015_Jun_30_1020,60.1203753739,LearningTask,1,68,
-200,a,-200,,,,,,,,,,,,,,,,,0,0,0,0,3,0,12,3,,,,,,,,,,,,,,,,,,,,,,,,,,,,,a,1,0.334327936172,None,0,4.0,lineorange.gif,go,,,,,,,,,,,,,,,,,,,,,,,,4.18,0.513965845108,0.000976800918579,0.334327936172,1,a,365.315080881,,,,,,,,,,,,,,,,,,,,,,,,,,,,,,,,,2015_Jun_30_1020,60.1203753739,LearningTask,1,68,
-200,a,-200,,,,,,,,,,,,,,,,,0,0,0,0,3,1,13,3,,,,,,,,,,,,,,,,,,,,,,,,,,,,,a,1,0.350435018539,None,0,4.0,lineorange.gif,go,,,,,,,,,,,,,,,,,,,,,,,,4.11,0.51410317421,0.000919103622437,0.350435018539,1,a,368.318307877,,,,,,,,,,,,,,,,,,,,,,,,,,,,,,,,,2015_Jun_30_1020,60.1203753739,LearningTask,1,68,
200,s,-200,,,,,,,,,,,,,,,,,0,0,0,0,3,2,14,2,,,,,,,,,,,,,,,,,,,,,,,,,,,,,s,1,0.334339141846,None,0,1.0,invertedtrianglecyan.gif,go,,,,,,,,,,,,,,,,,,,,,,,,0.91,0.514093875885,0.000902891159058,0.334339141846,1,s,371.321322918,,,,,,,,,,,,,,,,,,,,,,,,,,,,,,,,,2015_Jun_30_1020,60.1203753739,LearningTask,1,68,
200,w,200,,,,,,,,,,,,,,,,,0,0,0,0,3,3,15,0,,,,,,,,,,,,,,,,,,,,,,,,,,,,,w,1,0.334650039673,None,0,2.0,diamondblue.gif,stop,,,,,,,,,,,,,,,,,,,,,,,,1.92,0.514242887497,0.0283570289612,0.334650039673,1,w,374.32502389,,,,,,,,,,,,,,,,,,,,,,,,,,,,,,,,,2015_Jun_30_1020,60.1203753739,LearningTask,1,68,
200,w,200,,,,,,,,,,,,,,,,,0,0,0,0,4,0,16,0,,,,,,,,,,,,,,,,,,,,,,,,,,,,,w,1,0.384413957596,None,0,0.5,circleyellow.gif,stop,,,,,,,,,,,,,,,,,,,,,,,,0.65,0.514147043228,0.157835006714,0.384413957596,1,w,377.328304052,,,,,,,,,,,,,,,,,,,,,,,,,,,,,,,,,2015_Jun_30_1020,60.1203753739,LearningTask,1,68,
-200,a,-200,,,,,,,,,,,,,,,,,0,0,0,0,4,1,17,3,,,,,,,,,,,,,,,,,,,,,,,,,,,,,a,1,0.317669868469,None,0,4.0,trianglemagenta.gif,stop,,,,,,,,,,,,,,,,,,,,,,,,3.89,0.513825178146,0.0228159427643,0.317669868469,1,a,380.331532955,,,,,,,,,,,,,,,,,,,,,,,,,,,,,,,,,2015_Jun_30_1020,60.1203753739,LearningTask,1,68,
-200,a,-200,,,,,,,,,,,,,,,,,0,0,0,0,4,2,18,3,,,,,,,,,,,,,,,,,,,,,,,,,,,,,a,1,0.317327976227,None,0,0.5,squaregreen.gif,go,,,,,,,,,,,,,,,,,,,,,,,,0.74,0.514036893845,0.00901079177856,0.317327976227,1,a,383.334734917,,,,,,,,,,,,,,,,,,,,,,,,,,,,,,,,,2015_Jun_30_1020,60.1203753739,LearningTask,1,68,
-200,a,-200,,,,,,,,,,,,,,,,,0,0,0,0,4,3,19,3,,,,,,,,,,,,,,,,,,,,,,,,,,,,,a,1,0.350740909576,None,0,2.0,hexagongray.gif,go,,,,,,,,,,,,,,,,,,,,,,,,0,0.514476060867,0.0158700942993,0.350740909576,1,a,386.338664055,,,,,,,,,,,,,,,,,,,,,,,,,,,,,,,,,2015_Jun_30_1020,60.1203753739,LearningTask,1,68,
-200,a,-200,,,,,,,,,,,,,,,,,0,0,0,0,5,0,20,3,,,,,,,,,,,,,,,,,,,,,,,,,,,,,a,1,0.317780971527,None,0,0.5,squaregreen.gif,go,,,,,,,,,,,,,,,,,,,,,,,,0.41,0.513999938965,0.000910043716431,0.317780971527,1,a,389.341512918,,,,,,,,,,,,,,,,,,,,,,,,,,,,,,,,,2015_Jun_30_1020,60.1203753739,LearningTask,1,68,
200,s,-200,,,,,,,,,,,,,,,,,0,0,0,0,5,1,21,2,,,,,,,,,,,,,,,,,,,,,,,,,,,,,s,1,0.350696086884,None,0,4.0,lineorange.gif,go,,,,,,,,,,,,,,,,,,,,,,,,3.81,0.514378070831,0.000949144363403,0.350696086884,1,s,392.345178843,,,,,,,,,,,,,,,,,,,,,,,,,,,,,,,,,2015_Jun_30_1020,60.1203753739,LearningTask,1,68,
200,s,-200,,,,,,,,,,,,,,,,,0,0,0,0,5,2,22,2,,,,,,,,,,,,,,,,,,,,,,,,,,,,,s,1,0.350826025009,None,0,2.0,diamondblue.gif,stop,,,,,,,,,,,,,,,,,,,,,,,,2.12,0.514225006104,0.000900983810425,0.350826025009,1,s,395.348208904,,,,,,,,,,,,,,,,,,,,,,,,,,,,,,,,,2015_Jun_30_1020,60.1203753739,LearningTask,1,68,
200,s,-200,,,,,,,,,,,,,,,,,0,0,0,0,5,3,23,2,,,,,,,,,,,,,,,,,,,,,,,,,,,,,s,1,0.317635059357,None,0,2.0,diamondblue.gif,stop,,,,,,,,,,,,,,,,,,,,,,,,0,0.51438999176,0.00095796585083,0.317635059357,1,s,398.35181284,,,,,,,,,,,,,,,,,,,,,,,,,,,,,,,,,2015_Jun_30_1020,60.1203753739,LearningTask,1,68,
200,s,-200,,,,,,,,,,,,,,,,,0,0,0,0,6,0,24,2,,,,,,,,,,,,,,,,,,,,,,,,,,,,,s,1,0.350914001465,None,0,0.5,squaregreen.gif,go,,,,,,,,,,,,,,,,,,,,,,,,0.37,0.513802051544,0.000968933105469,0.350914001465,1,s,401.354826927,,,,,,,,,,,,,,,,,,,,,,,,,,,,,,,,,2015_Jun_30_1020,60.1203753739,LearningTask,1,68,
-200,a,-200,,,,,,,,,,,,,,,,,0,0,0,0,6,1,25,3,,,,,,,,,,,,,,,,,,,,,,,,,,,,,a,1,0.367373943329,None,0,4.0,lineorange.gif,go,,,,,,,,,,,,,,,,,,,,,,,,3.85,0.514596939087,0.000889778137207,0.367373943329,1,a,404.358541965,,,,,,,,,,,,,,,,,,,,,,,,,,,,,,,,,2015_Jun_30_1020,60.1203753739,LearningTask,1,68,
200,w,200,,,,,,,,,,,,,,,,,0,0,0,0,6,2,26,0,,,,,,,,,,,,,,,,,,,,,,,,,,,,,w,1,0.384308099747,None,0,0.5,circleyellow.gif,stop,,,,,,,,,,,,,,,,,,,,,,,,0.32,0.513906955719,0.000910997390747,0.384308099747,1,w,407.361875057,,,,,,,,,,,,,,,,,,,,,,,,,,,,,,,,,2015_Jun_30_1020,60.1203753739,LearningTask,1,68,
200,w,200,,,,,,,,,,,,,,,,,0,0,0,0,6,3,27,0,,,,,,,,,,,,,,,,,,,,,,,,,,,,,w,1,0.400953054428,None,0,4.0,trianglemagenta.gif,stop,,,,,,,,,,,,,,,,,,,,,,,,4.02,0.514151096344,0.000936031341553,0.400953054428,1,w,410.365159988,,,,,,,,,,,,,,,,,,,,,,,,,,,,,,,,,2015_Jun_30_1020,60.1203753739,LearningTask,1,68,
-200,q,200,,,,,,,,,,,,,,,,,0,0,0,0,7,0,28,1,,,,,,,,,,,,,,,,,,,,,,,,,,,,,q,1,0.434141159058,None,0,1.0,invertedtrianglecyan.gif,go,,,,,,,,,,,,,,,,,,,,,,,,1.18,0.514219045639,0.00948309898376,0.434141159058,1,q,413.368342876,,,,,,,,,,,,,,,,,,,,,,,,,,,,,,,,,2015_Jun_30_1020,60.1203753739,LearningTask,1,68,
200,s,-200,,,,,,,,,,,,,,,,,0,0,0,0,7,1,29,2,,,,,,,,,,,,,,,,,,,,,,,,,,,,,s,1,0.367400169373,None,0,1.0,invertedtrianglecyan.gif,go,,,,,,,,,,,,,,,,,,,,,,,,0.92,0.514345884323,0.00100493431091,0.367400169373,1,s,416.371964931,,,,,,,,,,,,,,,,,,,,,,,,,,,,,,,,,2015_Jun_30_1020,60.1203753739,LearningTask,1,68,
200,w,200,,,,,,,,,,,,,,,,,0,0,0,0,7,2,30,0,,,,,,,,,,,,,,,,,,,,,,,,,,,,,w,1,0.334633827209,None,0,1.0,crosswhite.gif,stop,,,,,,,,,,,,,,,,,,,,,,,,0.8,0.514097213745,0.0138170719147,0.334633827209,1,w,419.375099897,,,,,,,,,,,,,,,,,,,,,,,,,,,,,,,,,2015_Jun_30_1020,60.1203753739,LearningTask,1,68,
200,w,200,,,,,,,,,,,,,,,,,0,0,0,0,7,3,31,0,,,,,,,,,,,,,,,,,,,,,,,,,,,,,w,1,0.417414903641,None,0,0.5,squaregreen.gif,go,,,,,,,,,,,,,,,,,,,,,,,,0.27,0.514404058456,0.0124640464783,0.417414903641,1,w,422.378468037,,,,,,,,,,,,,,,,,,,,,,,,,,,,,,,,,2015_Jun_30_1020,60.1203753739,LearningTask,1,68,
200,s,-200,,,,,,,,,,,,,,,,,0,0,0,0,8,0,32,2,,,,,,,,,,,,,,,,,,,,,,,,,,,,,s,1,0.351075172424,None,0,4.0,lineorange.gif,go,,,,,,,,,,,,,,,,,,,,,,,,4.1,0.514387130737,0.0123629570007,0.351075172424,1,s,425.382010937,,,,,,,,,,,,,,,,,,,,,,,,,,,,,,,,,2015_Jun_30_1020,60.1203753739,LearningTask,1,68,
200,s,-200,,,,,,,,,,,,,,,,,0,0,0,0,8,1,33,2,,,,,,,,,,,,,,,,,,,,,,,,,,,,,s,1,0.367596149445,None,0,1.0,crosswhite.gif,stop,,,,,,,,,,,,,,,,,,,,,,,,0.91,0.514147996902,0.00094199180603,0.367596149445,1,s,428.385189056,,,,,,,,,,,,,,,,,,,,,,,,,,,,,,,,,2015_Jun_30_1020,60.1203753739,LearningTask,1,68,
-200,q,200,,,,,,,,,,,,,,,,,0,0,0,0,8,2,34,1,,,,,,,,,,,,,,,,,,,,,,,,,,,,,q,1,0.400583982468,None,0,2.0,hexagongray.gif,go,,,,,,,,,,,,,,,,,,,,,,,,2.22,0.514497041702,0.0460529327393,0.400583982468,1,q,431.38882494,,,,,,,,,,,,,,,,,,,,,,,,,,,,,,,,,2015_Jun_30_1020,60.1203753739,LearningTask,1,68,
-200,a,-200,,,,,,,,,,,,,,,,,0,0,0,0,8,3,35,3,,,,,,,,,,,,,,,,,,,,,,,,,,,,,a,1,0.367609977722,None,0,2.0,diamondblue.gif,stop,,,,,,,,,,,,,,,,,,,,,,,,1.85,0.51388502121,0.0406730175018,0.367609977722,1,a,434.392024994,,,,,,,,,,,,,,,,,,,,,,,,,,,,,,,,,2015_Jun_30_1020,60.1203753739,LearningTask,1,68,
200,w,200,,,,,,,,,,,,,,,,,0,0,0,0,9,0,36,0,,,,,,,,,,,,,,,,,,,,,,,,,,,,,w,1,0.400791883469,None,0,2.0,hexagongray.gif,go,,,,,,,,,,,,,,,,,,,,,,,,0,0.514014959335,0.000977039337158,0.400791883469,1,w,437.395226955,,,,,,,,,,,,,,,,,,,,,,,,,,,,,,,,,2015_Jun_30_1020,60.1203753739,LearningTask,1,68,
200,s,-200,,,,,,,,,,,,,,,,,0,0,0,0,9,1,37,2,,,,,,,,,,,,,,,,,,,,,,,,,,,,,s,1,0.350960016251,None,0,1.0,crosswhite.gif,stop,,,,,,,,,,,,,,,,,,,,,,,,1.14,0.514034986496,0.000952005386353,0.350960016251,1,s,440.398599863,,,,,,,,,,,,,,,,,,,,,,,,,,,,,,,,,2015_Jun_30_1020,60.1203753739,LearningTask,1,68,
200,w,200,,,,,,,,,,,,,,,,,0,0,0,0,9,2,38,0,,,,,,,,,,,,,,,,,,,,,,,,,,,,,w,1,0.333646059036,None,0,2.0,hexagongray.gif,go,,,,,,,,,,,,,,,,,,,,,,,,0,0.514477968216,0.00104093551636,0.333646059036,1,w,443.402145863,,,,,,,,,,,,,,,,,,,,,,,,,,,,,,,,,2015_Jun_30_1020,60.1203753739,LearningTask,1,68,
200,w,200,,,,,,,,,,,,,,,,,0,0,0,0,9,3,39,0,,,,,,,,,,,,,,,,,,,,,,,,,,,,,w,1,0.350480794907,None,0,4.0,lineorange.gif,go,,,,,,,,,,,,,,,,,,,,,,,,0,0.514383077621,0.000967025756836,0.350480794907,1,w,446.405407906,,,,,,,,,,,,,,,,,,,,,,,,,,,,,,,,,2015_Jun_30_1020,60.1203753739,LearningTask,1,68,
200,w,200,,,,,,,,,,,,,,,,,0,0,0,0,10,0,40,0,,,,,,,,,,,,,,,,,,,,,,,,,,,,,w,1,0.350533008575,None,0,0.5,squaregreen.gif,go,,,,,,,,,,,,,,,,,,,,,,,,0.4,0.51404094696,0.00100803375244,0.350533008575,1,w,449.408627033,,,,,,,,,,,,,,,,,,,,,,,,,,,,,,,,,2015_Jun_30_1020,60.1203753739,LearningTask,1,68,
-200,a,-200,,,,,,,,,,,,,,,,,0,0,0,0,10,1,41,3,,,,,,,,,,,,,,,,,,,,,,,,,,,,,a,1,0.367319107056,None,0,4.0,lineorange.gif,go,,,,,,,,,,,,,,,,,,,,,,,,0,0.514625072479,0.000900983810425,0.367319107056,1,a,452.411947966,,,,,,,,,,,,,,,,,,,,,,,,,,,,,,,,,2015_Jun_30_1020,60.1203753739,LearningTask,1,68,
200,w,200,,,,,,,,,,,,,,,,,0,0,0,0,10,2,42,0,,,,,,,,,,,,,,,,,,,,,,,,,,,,,w,1,0.351402997971,None,0,4.0,lineorange.gif,go,,,,,,,,,,,,,,,,,,,,,,,,4.16,0.514137983322,0.000926971435547,0.351402997971,1,w,455.415680885,,,,,,,,,,,,,,,,,,,,,,,,,,,,,,,,,2015_Jun_30_1020,60.1203753739,LearningTask,1,68,
200,s,-200,,,,,,,,,,,,,,,,,0,0,0,0,10,3,43,2,,,,,,,,,,,,,,,,,,,,,,,,,,,,,s,1,0.367269039154,None,0,1.0,crosswhite.gif,stop,,,,,,,,,,,,,,,,,,,,,,,,0.75,0.513803005219,0.00102996826172,0.367269039154,1,s,458.418903828,,,,,,,,,,,,,,,,,,,,,,,,,,,,,,,,,2015_Jun_30_1020,60.1203753739,LearningTask,1,68,
-200,q,200,,,,,,,,,,,,,,,,,0,0,0,0,11,0,44,1,,,,,,,,,,,,,,,,,,,,,,,,,,,,,q,1,0.367554187775,None,0,2.0,diamondblue.gif,stop,,,,,,,,,,,,,,,,,,,,,,,,1.78,0.514183998108,0.0360651016235,0.367554187775,1,q,461.422425032,,,,,,,,,,,,,,,,,,,,,,,,,,,,,,,,,2015_Jun_30_1020,60.1203753739,LearningTask,1,68,
-200,q,200,,,,,,,,,,,,,,,,,0,0,0,0,11,1,45,1,,,,,,,,,,,,,,,,,,,,,,,,,,,,,q,1,0.367400884628,None,0,1.0,crosswhite.gif,stop,,,,,,,,,,,,,,,,,,,,,,,,0.78,0.513979196548,0.000929117202759,0.367400884628,1,q,464.426226854,,,,,,,,,,,,,,,,,,,,,,,,,,,,,,,,,2015_Jun_30_1020,60.1203753739,LearningTask,1,68,
-200,q,200,,,,,,,,,,,,,,,,,0,0,0,0,11,2,46,1,,,,,,,,,,,,,,,,,,,,,,,,,,,,,q,1,0.351146936417,None,0,1.0,invertedtrianglecyan.gif,go,,,,,,,,,,,,,,,,,,,,,,,,1.01,0.5135409832,0.0294787883759,0.351146936417,1,q,467.42897892,,,,,,,,,,,,,,,,,,,,,,,,,,,,,,,,,2015_Jun_30_1020,60.1203753739,LearningTask,1,68,
200,s,-200,,,,,,,,,,,,,,,,,0,0,0,0,11,3,47,2,,,,,,,,,,,,,,,,,,,,,,,,,,,,,s,1,0.367304086685,None,0,4.0,trianglemagenta.gif,stop,,,,,,,,,,,,,,,,,,,,,,,,3.8,0.514092922211,0.0052809715271,0.367304086685,1,s,470.432697058,,,,,,,,,,,,,,,,,,,,,,,,,,,,,,,,,2015_Jun_30_1020,60.1203753739,LearningTask,1,68,
-200,q,200,,,,,,,,,,,,,,,,,0,0,0,0,12,0,48,1,,,,,,,,,,,,,,,,,,,,,,,,,,,,,q,1,0.35106086731,None,0,4.0,trianglemagenta.gif,stop,,,,,,,,,,,,,,,,,,,,,,,,0,0.513386964798,0.00105881690979,0.35106086731,1,q,473.435680866,,,,,,,,,,,,,,,,,,,,,,,,,,,,,,,,,2015_Jun_30_1020,60.1203753739,LearningTask,1,68,
-200,a,-200,,,,,,,,,,,,,,,,,0,0,0,0,12,1,49,3,,,,,,,,,,,,,,,,,,,,,,,,,,,,,a,1,0.384269952774,None,0,1.0,crosswhite.gif,stop,,,,,,,,,,,,,,,,,,,,,,,,0,0.5144739151,0.000899076461792,0.350844860077,0,q,476.439015865,0.77,0.515602111816,0.00103998184204,0.384269952774,1,a,479.442767859,,,,,,,,,,,,,,,,,,,,,,,,,,2015_Jun_30_1020,60.1203753739,LearningTask,1,68,
-200,q,200,,,,,,,,,,,,,,,,,0,0,0,0,12,2,50,1,,,,,,,,,,,,,,,,,,,,,,,,,,,,,q,1,0.434541940689,None,0,0.5,squaregreen.gif,go,,,,,,,,,,,,,,,,,,,,,,,,0,0.513669967651,0.014927148819,0.434541940689,1,q,482.445724964,,,,,,,,,,,,,,,,,,,,,,,,,,,,,,,,,2015_Jun_30_1020,60.1203753739,LearningTask,1,68,
-200,a,-200,,,,,,,,,,,,,,,,,0,0,0,0,12,3,51,3,,,,,,,,,,,,,,,,,,,,,,,,,,,,,a,1,0.367777109146,None,0,1.0,invertedtrianglecyan.gif,go,,,,,,,,,,,,,,,,,,,,,,,,1.0,0.514189004898,0.0222239494324,0.367777109146,1,a,485.448936939,,,,,,,,,,,,,,,,,,,,,,,,,,,,,,,,,2015_Jun_30_1020,60.1203753739,LearningTask,1,68,
-200,a,-200,,,,,,,,,,,,,,,,,0,0,0,0,13,0,52,3,,,,,,,,,,,,,,,,,,,,,,,,,,,,,a,1,0.367309093475,None,0,2.0,hexagongray.gif,go,,,,,,,,,,,,,,,,,,,,,,,,0,0.514523029327,0.00767588615417,0.367309093475,1,a,488.452384949,,,,,,,,,,,,,,,,,,,,,,,,,,,,,,,,,2015_Jun_30_1020,60.1203753739,LearningTask,1,68,
-200,a,-200,,,,,,,,,,,,,,,,,0,0,0,0,13,1,53,3,,,,,,,,,,,,,,,,,,,,,,,,,,,,,a,1,0.367503166199,None,0,2.0,hexagongray.gif,go,,,,,,,,,,,,,,,,,,,,,,,,1.92,0.514235019684,0.000914096832275,0.367503166199,1,a,491.45577383,,,,,,,,,,,,,,,,,,,,,,,,,,,,,,,,,2015_Jun_30_1020,60.1203753739,LearningTask,1,68,
-200,a,-200,,,,,,,,,,,,,,,,,0,0,0,0,13,2,54,3,,,,,,,,,,,,,,,,,,,,,,,,,,,,,a,1,0.333985805511,None,0,0.5,squaregreen.gif,go,,,,,,,,,,,,,,,,,,,,,,,,0.68,0.514145851135,0.000972032546997,0.333985805511,1,a,494.459156036,,,,,,,,,,,,,,,,,,,,,,,,,,,,,,,,,2015_Jun_30_1020,60.1203753739,LearningTask,1,68,
200,w,200,,,,,,,,,,,,,,,,,0,0,0,0,13,3,55,0,,,,,,,,,,,,,,,,,,,,,,,,,,,,,w,1,0.400952100754,None,0,1.0,crosswhite.gif,stop,,,,,,,,,,,,,,,,,,,,,,,,0,0.513542175293,0.00861310958862,0.400952100754,1,w,497.462352991,,,,,,,,,,,,,,,,,,,,,,,,,,,,,,,,,2015_Jun_30_1020,60.1203753739,LearningTask,1,68,
-200,q,200,,,,,,,,,,,,,,,,,0,0,0,0,14,0,56,1,,,,,,,,,,,,,,,,,,,,,,,,,,,,,q,1,0.384150981903,None,0,0.5,circleyellow.gif,stop,,,,,,,,,,,,,,,,,,,,,,,,0.68,0.514410018921,0.136682033539,0.384150981903,1,q,500.466281891,,,,,,,,,,,,,,,,,,,,,,,,,,,,,,,,,2015_Jun_30_1020,60.1203753739,LearningTask,1,68,
-200,q,200,,,,,,,,,,,,,,,,,0,0,0,0,14,1,57,1,,,,,,,,,,,,,,,,,,,,,,,,,,,,,q,1,0.384426116943,None,0,0.5,circleyellow.gif,stop,,,,,,,,,,,,,,,,,,,,,,,,0.44,0.513316869736,0.000977993011475,0.384426116943,1,q,503.469527006,,,,,,,,,,,,,,,,,,,,,,,,,,,,,,,,,2015_Jun_30_1020,60.1203753739,LearningTask,1,68,
-200,a,-200,,,,,,,,,,,,,,,,,0,0,0,0,14,2,58,3,,,,,,,,,,,,,,,,,,,,,,,,,,,,,a,1,0.384255886078,None,0,0.5,circleyellow.gif,stop,,,,,,,,,,,,,,,,,,,,,,,,0.5,0.513561964035,0.000967025756836,0.384255886078,1,a,506.472372055,,,,,,,,,,,,,,,,,,,,,,,,,,,,,,,,,2015_Jun_30_1020,60.1203753739,LearningTask,1,68,
-200,a,-200,,,,,,,,,,,,,,,,,0,0,0,0,14,3,59,3,,,,,,,,,,,,,,,,,,,,,,,,,,,,,a,1,0.451199054718,None,0,2.0,diamondblue.gif,stop,,,,,,,,,,,,,,,,,,,,,,,,0,0.51445889473,0.0187358856201,0.451199054718,1,a,509.476006985,,,,,,,,,,,,,,,,,,,,,,,,,,,,,,,,,2015_Jun_30_1020,60.1203753739,LearningTask,1,68,
200,s,-200,,,,,,,,,,,,,,,,,0,0,0,0,15,0,60,2,,,,,,,,,,,,,,,,,,,,,,,,,,,,,s,1,0.417373895645,None,0,0.5,circleyellow.gif,stop,,,,,,,,,,,,,,,,,,,,,,,,0,0.514277935028,0.000906944274902,0.417373895645,1,s,512.479962826,,,,,,,,,,,,,,,,,,,,,,,,,,,,,,,,,2015_Jun_30_1020,60.1203753739,LearningTask,1,68,
-200,q,200,,,,,,,,,,,,,,,,,0,0,0,0,15,1,61,1,,,,,,,,,,,,,,,,,,,,,,,,,,,,,q,1,0.434209108353,None,0,4.0,trianglemagenta.gif,stop,,,,,,,,,,,,,,,,,,,,,,,,4.22,0.513258934021,0.012503862381,0.434209108353,1,q,515.48267293,,,,,,,,,,,,,,,,,,,,,,,,,,,,,,,,,2015_Jun_30_1020,60.1203753739,LearningTask,1,68,
-200,q,200,,,,,,,,,,,,,,,,,0,0,0,0,15,2,62,1,,,,,,,,,,,,,,,,,,,,,,,,,,,,,q,1,0.401394844055,None,0,0.5,squaregreen.gif,go,,,,,,,,,,,,,,,,,,,,,,,,0.33,0.514234781265,0.0216867923737,0.401394844055,1,q,518.486032009,,,,,,,,,,,,,,,,,,,,,,,,,,,,,,,,,2015_Jun_30_1020,60.1203753739,LearningTask,1,68,
200,w,200,,,,,,,,,,,,,,,,,0,0,0,0,15,3,63,0,,,,,,,,,,,,,,,,,,,,,,,,,,,,,w,1,0.417493104935,None,0,1.0,crosswhite.gif,stop,,,,,,,,,,,,,,,,,,,,,,,,0,0.514343976974,0.0168199539185,0.417493104935,1,w,521.489452839,,,,,,,,,,,,,,,,,,,,,,,,,,,,,,,,,2015_Jun_30_1020,60.1203753739,LearningTask,1,68,
200,s,-200,,,,,,,,,,,,,,,,,0,0,0,0,16,0,64,2,,,,,,,,,,,,,,,,,,,,,,,,,,,,,s,1,0.417567014694,None,0,1.0,invertedtrianglecyan.gif,go,,,,,,,,,,,,,,,,,,,,,,,,1.11,0.514179944992,0.0375809669495,0.417567014694,1,s,524.492667913,,,,,,,,,,,,,,,,,,,,,,,,,,,,,,,,,2015_Jun_30_1020,60.1203753739,LearningTask,1,68,
200,s,-200,,,,,,,,,,,,,,,,,0,0,0,0,16,1,65,2,,,,,,,,,,,,,,,,,,,,,,,,,,,,,s,1,0.40086388588,None,0,1.0,invertedtrianglecyan.gif,go,,,,,,,,,,,,,,,,,,,,,,,,1.04,0.514528036118,0.00115704536438,0.40086388588,1,s,527.496237993,,,,,,,,,,,,,,,,,,,,,,,,,,,,,,,,,2015_Jun_30_1020,60.1203753739,LearningTask,1,68,
200,s,-200,,,,,,,,,,,,,,,,,0,0,0,0,16,2,66,2,,,,,,,,,,,,,,,,,,,,,,,,,,,,,s,1,0.401292800903,None,0,0.5,squaregreen.gif,go,,,,,,,,,,,,,,,,,,,,,,,,0.55,0.513961076736,0.000946998596191,0.401292800903,1,s,530.499321938,,,,,,,,,,,,,,,,,,,,,,,,,,,,,,,,,2015_Jun_30_1020,60.1203753739,LearningTask,1,68,
-200,q,200,,,,,,,,,,,,,,,,,0,0,0,0,16,3,67,1,,,,,,,,,,,,,,,,,,,,,,,,,,,,,q,1,0.400783777237,None,0,4.0,lineorange.gif,go,,,,,,,,,,,,,,,,,,,,,,,,3.79,0.514326095581,0.00879096984863,0.400783777237,1,q,533.502775908,,,,,,,,,,,,,,,,,,,,,,,,,,,,,,,,,2015_Jun_30_1020,60.1203753739,LearningTask,1,68,
-200,a,-200,,,,,,,,,,,,,,,,,0,0,0,0,17,0,68,3,,,,,,,,,,,,,,,,,,,,,,,,,,,,,a,1,0.401329040527,None,0,1.0,invertedtrianglecyan.gif,go,,,,,,,,,,,,,,,,,,,,,,,,1.1,0.513709068298,0.000941038131714,0.401329040527,1,a,536.506309032,,,,,,,,,,,,,,,,,,,,,,,,,,,,,,,,,2015_Jun_30_1020,60.1203753739,LearningTask,1,68,
200,w,200,,,,,,,,,,,,,,,,,0,0,0,0,17,1,69,0,,,,,,,,,,,,,,,,,,,,,,,,,,,,,w,1,0.434602975845,None,0,1.0,invertedtrianglecyan.gif,go,,,,,,,,,,,,,,,,,,,,,,,,0.89,0.514051914215,0.000992059707642,0.434602975845,1,w,539.509513855,,,,,,,,,,,,,,,,,,,,,,,,,,,,,,,,,2015_Jun_30_1020,60.1203753739,LearningTask,1,68,
200,s,-200,,,,,,,,,,,,,,,,,0,0,0,0,17,2,70,2,,,,,,,,,,,,,,,,,,,,,,,,,,,,,s,1,0.367588043213,None,0,2.0,diamondblue.gif,stop,,,,,,,,,,,,,,,,,,,,,,,,0,0.514261960983,0.0279860496521,0.367588043213,1,s,542.512588978,,,,,,,,,,,,,,,,,,,,,,,,,,,,,,,,,2015_Jun_30_1020,60.1203753739,LearningTask,1,68,
-200,q,200,,,,,,,,,,,,,,,,,0,0,0,0,17,3,71,1,,,,,,,,,,,,,,,,,,,,,,,,,,,,,q,1,0.40071105957,None,0,2.0,hexagongray.gif,go,,,,,,,,,,,,,,,,,,,,,,,,1.87,0.514389038086,0.0250668525696,0.40071105957,1,q,545.516235828,,,,,,,,,,,,,,,,,,,,,,,,,,,,,,,,,2015_Jun_30_1020,60.1203753739,LearningTask,1,68,
-200,q,200,,,,,,,,,,,,,,,,,0,0,0,0,18,0,72,1,,,,,,,,,,,,,,,,,,,,,,,,,,,,,q,1,0.400794029236,None,0,4.0,lineorange.gif,go,,,,,,,,,,,,,,,,,,,,,,,,0,0.514098882675,0.000936031341553,0.400794029236,1,q,548.519281864,,,,,,,,,,,,,,,,,,,,,,,,,,,,,,,,,2015_Jun_30_1020,60.1203753739,LearningTask,1,68,
-200,q,200,,,,,,,,,,,,,,,,,0,0,0,0,18,1,73,1,,,,,,,,,,,,,,,,,,,,,,,,,,,,,q,1,0.400892972946,None,0,1.0,crosswhite.gif,stop,,,,,,,,,,,,,,,,,,,,,,,,0,0.514409065247,0.0185549259186,0.400892972946,1,q,551.523061991,,,,,,,,,,,,,,,,,,,,,,,,,,,,,,,,,2015_Jun_30_1020,60.1203753739,LearningTask,1,68,
200,w,200,,,,,,,,,,,,,,,,,0,0,0,0,18,2,74,0,,,,,,,,,,,,,,,,,,,,,,,,,,,,,w,1,0.417321920395,None,0,4.0,trianglemagenta.gif,stop,,,,,,,,,,,,,,,,,,,,,,,,4.22,0.514154911041,0.0164289474487,0.417321920395,1,w,554.526804924,,,,,,,,,,,,,,,,,,,,,,,,,,,,,,,,,2015_Jun_30_1020,60.1203753739,LearningTask,1,68,
200,w,200,,,,,,,,,,,,,,,,,0,0,0,0,18,3,75,0,,,,,,,,,,,,,,,,,,,,,,,,,,,,,w,1,0.417673110962,None,0,1.0,invertedtrianglecyan.gif,go,,,,,,,,,,,,,,,,,,,,,,,,1.22,0.513605833054,0.000975847244263,0.417673110962,1,w,557.529778004,,,,,,,,,,,,,,,,,,,,,,,,,,,,,,,,,2015_Jun_30_1020,60.1203753739,LearningTask,1,68,
-200,q,200,,,,,,,,,,,,,,,,,0,0,0,0,19,0,76,1,,,,,,,,,,,,,,,,,,,,,,,,,,,,,q,1,0.384528875351,None,0,0.5,circleyellow.gif,stop,,,,,,,,,,,,,,,,,,,,,,,,0.56,0.514161109924,0.00851392745972,0.384528875351,1,q,560.533311844,,,,,,,,,,,,,,,,,,,,,,,,,,,,,,,,,2015_Jun_30_1020,60.1203753739,LearningTask,1,68,
-200,q,200,,,,,,,,,,,,,,,,,0,0,0,0,19,1,77,1,,,,,,,,,,,,,,,,,,,,,,,,,,,,,q,1,0.383970022202,None,0,1.0,crosswhite.gif,stop,,,,,,,,,,,,,,,,,,,,,,,,0.76,0.513830900192,0.000914812088013,0.383970022202,1,q,563.536155939,,,,,,,,,,,,,,,,,,,,,,,,,,,,,,,,,2015_Jun_30_1020,60.1203753739,LearningTask,1,68,
200,s,-200,,,,,,,,,,,,,,,,,0,0,0,0,19,2,78,2,,,,,,,,,,,,,,,,,,,,,,,,,,,,,s,1,0.367685079575,None,0,0.5,squaregreen.gif,go,,,,,,,,,,,,,,,,,,,,,,,,0,0.514472961426,0.00090479850769,0.367685079575,1,s,566.539793968,,,,,,,,,,,,,,,,,,,,,,,,,,,,,,,,,2015_Jun_30_1020,60.1203753739,LearningTask,1,68,
-200,a,-200,,,,,,,,,,,,,,,,,0,0,0,0,19,3,79,3,,,,,,,,,,,,,,,,,,,,,,,,,,,,,a,1,0.451721906662,None,0,1.0,crosswhite.gif,stop,,,,,,,,,,,,,,,,,,,,,,,,1.23,0.513628959656,0.00104188919067,0.451721906662,1,a,569.543071032,,,,,,,,,,,,,,,,,,,,,,,,,,,,,,,,,2015_Jun_30_1020,60.1203753739,LearningTask,1,68,
-200,a,-200,,,,,,,,,,,,,,,,,0,0,0,0,20,0,80,3,,,,,,,,,,,,,,,,,,,,,,,,,,,,,a,1,0.384634971619,None,0,1.0,invertedtrianglecyan.gif,go,,,,,,,,,,,,,,,,,,,,,,,,1.04,0.513803005219,0.000949144363403,0.384634971619,1,a,572.546311855,,,,,,,,,,,,,,,,,,,,,,,,,,,,,,,,,2015_Jun_30_1020,60.1203753739,LearningTask,1,68,
-200,a,-200,,,,,,,,,,,,,,,,,0,0,0,0,20,1,81,3,,,,,,,,,,,,,,,,,,,,,,,,,,,,,a,1,0.367390871048,None,0,4.0,lineorange.gif,go,,,,,,,,,,,,,,,,,,,,,,,,0,0.514097929001,0.00101804733276,0.367390871048,1,a,575.549770832,,,,,,,,,,,,,,,,,,,,,,,,,,,,,,,,,2015_Jun_30_1020,60.1203753739,LearningTask,1,68,
200,w,200,,,,,,,,,,,,,,,,,0,0,0,0,20,2,82,0,,,,,,,,,,,,,,,,,,,,,,,,,,,,,w,1,0.434275865555,None,0,2.0,diamondblue.gif,stop,,,,,,,,,,,,,,,,,,,,,,,,2.12,0.514241218567,0.000980138778687,0.434275865555,1,w,578.553284883,,,,,,,,,,,,,,,,,,,,,,,,,,,,,,,,,2015_Jun_30_1020,60.1203753739,LearningTask,1,68,
-200,q,200,,,,,,,,,,,,,,,,,0,0,0,0,20,3,83,1,,,,,,,,,,,,,,,,,,,,,,,,,,,,,q,1,0.484665155411,None,0,0.5,squaregreen.gif,go,,,,,,,,,,,,,,,,,,,,,,,,0.38,0.513957977295,0.000946044921875,0.484665155411,1,q,581.556267977,,,,,,,,,,,,,,,,,,,,,,,,,,,,,,,,,2015_Jun_30_1020,60.1203753739,LearningTask,1,68,
-200,q,200,,,,,,,,,,,,,,,,,0,0,0,0,21,0,84,1,,,,,,,,,,,,,,,,,,,,,,,,,,,,,q,1,0.401294231415,None,0,2.0,diamondblue.gif,stop,,,,,,,,,,,,,,,,,,,,,,,,2.06,0.513984203339,0.000982046127319,0.401294231415,1,q,584.560135841,,,,,,,,,,,,,,,,,,,,,,,,,,,,,,,,,2015_Jun_30_1020,60.1203753739,LearningTask,1,68,
-200,q,200,,,,,,,,,,,,,,,,,0,0,0,0,21,1,85,1,,,,,,,,,,,,,,,,,,,,,,,,,,,,,q,1,0.400068044662,None,0,4.0,lineorange.gif,go,,,,,,,,,,,,,,,,,,,,,,,,3.76,0.514143943787,0.000913858413696,0.400068044662,1,q,587.563060999,,,,,,,,,,,,,,,,,,,,,,,,,,,,,,,,,2015_Jun_30_1020,60.1203753739,LearningTask,1,68,
200,w,200,,,,,,,,,,,,,,,,,0,0,0,0,21,2,86,0,,,,,,,,,,,,,,,,,,,,,,,,,,,,,w,1,0.43456196785,None,0,2.0,hexagongray.gif,go,,,,,,,,,,,,,,,,,,,,,,,,2.12,0.514486074448,0.00098705291748,0.43456196785,1,w,590.566546917,,,,,,,,,,,,,,,,,,,,,,,,,,,,,,,,,2015_Jun_30_1020,60.1203753739,LearningTask,1,68,
200,s,-200,,,,,,,,,,,,,,,,,0,0,0,0,21,3,87,2,,,,,,,,,,,,,,,,,,,,,,,,,,,,,s,1,0.434105873108,None,0,2.0,diamondblue.gif,stop,,,,,,,,,,,,,,,,,,,,,,,,2.11,0.513812065125,0.000977993011475,0.434105873108,1,s,593.569962978,,,,,,,,,,,,,,,,,,,,,,,,,,,,,,,,,2015_Jun_30_1020,60.1203753739,LearningTask,1,68,
200,s,-200,,,,,,,,,,,,,,,,,0,0,0,0,22,0,88,2,,,,,,,,,,,,,,,,,,,,,,,,,,,,,s,1,0.41775393486,None,0,0.5,circleyellow.gif,stop,,,,,,,,,,,,,,,,,,,,,,,,0.32,0.51433801651,0.00104308128357,0.41775393486,1,s,596.573319912,,,,,,,,,,,,,,,,,,,,,,,,,,,,,,,,,2015_Jun_30_1020,60.1203753739,LearningTask,1,68,
200,s,-200,,,,,,,,,,,,,,,,,0,0,0,0,22,1,89,2,,,,,,,,,,,,,,,,,,,,,,,,,,,,,s,1,0.384359836578,None,0,4.0,trianglemagenta.gif,stop,,,,,,,,,,,,,,,,,,,,,,,,0,0.513812065125,0.000977039337158,0.384359836578,1,s,599.576798916,,,,,,,,,,,,,,,,,,,,,,,,,,,,,,,,,2015_Jun_30_1020,60.1203753739,LearningTask,1,68,
200,w,200,,,,,,,,,,,,,,,,,0,0,0,0,22,2,90,0,,,,,,,,,,,,,,,,,,,,,,,,,,,,,w,1,0.417747974396,None,0,0.5,circleyellow.gif,stop,,,,,,,,,,,,,,,,,,,,,,,,0.47,0.51363992691,0.000998973846436,0.417747974396,1,w,602.580195904,,,,,,,,,,,,,,,,,,,,,,,,,,,,,,,,,2015_Jun_30_1020,60.1203753739,LearningTask,1,68,
-200,a,-200,,,,,,,,,,,,,,,,,0,0,0,0,22,3,91,3,,,,,,,,,,,,,,,,,,,,,,,,,,,,,a,1,0.401360988617,None,0,4.0,trianglemagenta.gif,stop,,,,,,,,,,,,,,,,,,,,,,,,3.89,0.513877868652,0.000918865203857,0.401360988617,1,a,605.58325386,,,,,,,,,,,,,,,,,,,,,,,,,,,,,,,,,2015_Jun_30_1020,60.1203753739,LearningTask,1,68,
-200,q,200,,,,,,,,,,,,,,,,,0,0,0,0,23,0,92,1,,,,,,,,,,,,,,,,,,,,,,,,,,,,,q,1,0.38431096077,None,0,1.0,invertedtrianglecyan.gif,go,,,,,,,,,,,,,,,,,,,,,,,,0.98,0.514188051224,0.000980138778687,0.38431096077,1,q,608.586904049,,,,,,,,,,,,,,,,,,,,,,,,,,,,,,,,,2015_Jun_30_1020,60.1203753739,LearningTask,1,68,
-200,q,200,,,,,,,,,,,,,,,,,0,0,0,0,23,1,93,1,,,,,,,,,,,,,,,,,,,,,,,,,,,,,q,1,0.384115934372,None,0,0.5,circleyellow.gif,stop,,,,,,,,,,,,,,,,,,,,,,,,0.47,0.514140129089,0.000924110412598,0.384115934372,1,q,611.590131998,,,,,,,,,,,,,,,,,,,,,,,,,,,,,,,,,2015_Jun_30_1020,60.1203753739,LearningTask,1,68,
200,s,-200,,,,,,,,,,,,,,,,,0,0,0,0,23,2,94,2,,,,,,,,,,,,,,,,,,,,,,,,,,,,,s,1,0.33443403244,None,0,2.0,hexagongray.gif,go,,,,,,,,,,,,,,,,,,,,,,,,0,0.513969182968,0.00122308731079,0.33443403244,1,s,614.593677044,,,,,,,,,,,,,,,,,,,,,,,,,,,,,,,,,2015_Jun_30_1020,60.1203753739,LearningTask,1,68,
200,w,200,,,,,,,,,,,,,,,,,0,0,0,0,23,3,95,0,,,,,,,,,,,,,,,,,,,,,,,,,,,,,w,1,0.41743183136,None,0,4.0,trianglemagenta.gif,stop,,,,,,,,,,,,,,,,,,,,,,,,4.17,0.513945102692,0.000954151153564,0.41743183136,1,w,617.596884012,,,,,,,,,,,,,,,,,,,,,,,,,,,,,,,,,2015_Jun_30_1020,60.1203753739,LearningTask,1,68,
200,w,200,,,,,,,,,,,,,,,,,0,0,0,0,24,0,96,0,,,,,,,,,,,,,,,,,,,,,,,,,,,,,w,1,0.434328079224,None,0,4.0,lineorange.gif,go,,,,,,,,,,,,,,,,,,,,,,,,3.81,0.513854980469,0.000990152359009,0.434328079224,1,w,620.600047827,,,,,,,,,,,,,,,,,,,,,,,,,,,,,,,,,2015_Jun_30_1020,60.1203753739,LearningTask,1,68,
200,s,-200,,,,,,,,,,,,,,,,,0,0,0,0,24,1,97,2,,,,,,,,,,,,,,,,,,,,,,,,,,,,,s,1,0.401015996933,None,0,4.0,lineorange.gif,go,,,,,,,,,,,,,,,,,,,,,,,,4.24,0.514437198639,0.00114107131958,0.401015996933,1,s,623.603798866,,,,,,,,,,,,,,,,,,,,,,,,,,,,,,,,,2015_Jun_30_1020,60.1203753739,LearningTask,1,68,
200,w,200,,,,,,,,,,,,,,,,,0,0,0,0,24,2,98,0,,,,,,,,,,,,,,,,,,,,,,,,,,,,,w,1,0.417517900467,None,0,2.0,hexagongray.gif,go,,,,,,,,,,,,,,,,,,,,,,,,2.11,0.514163970947,0.00091290473938,0.417517900467,1,w,626.606784821,,,,,,,,,,,,,,,,,,,,,,,,,,,,,,,,,2015_Jun_30_1020,60.1203753739,LearningTask,1,68,
-200,a,-200,,,,,,,,,,,,,,,,,0,0,0,0,24,3,99,3,,,,,,,,,,,,,,,,,,,,,,,,,,,,,a,1,0.434285879135,None,0,1.0,crosswhite.gif,stop,,,,,,,,,,,,,,,,,,,,,,,,0.99,0.514425039291,0.000942945480347,0.434285879135,1,a,629.610730886,,,,,,,,,,,,,,,,,,,,,,,,,,,,,,,,,2015_Jun_30_1020,60.1203753739,LearningTask,1,68,
,,,,,,,,,,,,,,,,,,,0,0,0,0,,,,,,,,,,,,,,,,,,,,,,,,,,,,,,,,,,,,,,,,,,,,,,,,,,,,,,,,,,,,,,,,,,,,,,,,,,,,,,9,17.2839579582,,,,,,,,,,,,,,,,,,,,,,,,2015_Jun_30_1020,60.1203753739,LearningTask,1,68,
-200,q,200,,,,,,,,,,,,,,,,,1,0,1,0,0,0,0,1,,,,,,,,,,,,,,,,,,,,,,,,,,,,,q,1,0.701164960861,None,0,1.0,crosswhite.gif,stop,,,,,,,,,,,,,,,,,,,,,,,,0,0.500751018524,0.000979900360107,0.701164960861,1,q,650.417240858,,,,,,,,,,,,,,,,,,,,,,,,,,,,,,,,,2015_Jun_30_1020,60.1203753739,LearningTask,1,68,
200,w,200,,,,,,,,,,,,,,,,,1,0,1,0,0,1,1,0,,,,,,,,,,,,,,,,,,,,,,,,,,,,,w,1,0.717833995819,None,0,0.5,squaregreen.gif,go,,,,,,,,,,,,,,,,,,,,,,,,0.75,0.513314962387,0.00093412399292,0.717833995819,1,w,653.420135975,,,,,,,,,,,,,,,,,,,,,,,,,,,,,,,,,2015_Jun_30_1020,60.1203753739,LearningTask,1,68,
-200,a,-200,,,,,,,,,,,,,,,,,1,0,1,0,0,2,2,3,,,,,,,,,,,,,,,,,,,,,,,,,,,,,a,1,0.367202043533,None,0,0.5,squaregreen.gif,go,,,,,,,,,,,,,,,,,,,,,,,,0.64,0.514482021332,0.000900983810425,0.367202043533,1,a,656.423728943,,,,,,,,,,,,,,,,,,,,,,,,,,,,,,,,,2015_Jun_30_1020,60.1203753739,LearningTask,1,68,
-200,a,-200,,,,,,,,,,,,,,,,,1,0,1,0,0,3,3,3,,,,,,,,,,,,,,,,,,,,,,,,,,,,,a,1,0.434272050858,None,0,2.0,diamondblue.gif,stop,,,,,,,,,,,,,,,,,,,,,,,,1.8,0.513995885849,0.00092887878418,0.434272050858,1,a,659.427223921,,,,,,,,,,,,,,,,,,,,,,,,,,,,,,,,,2015_Jun_30_1020,60.1203753739,LearningTask,1,68,
-200,q,200,,,,,,,,,,,,,,,,,1,0,1,0,1,0,4,1,,,,,,,,,,,,,,,,,,,,,,,,,,,,,q,1,0.384078979492,None,0,1.0,crosswhite.gif,stop,,,,,,,,,,,,,,,,,,,,,,,,1.08,0.513618946075,0.000905990600586,0.384078979492,1,q,662.430551052,,,,,,,,,,,,,,,,,,,,,,,,,,,,,,,,,2015_Jun_30_1020,60.1203753739,LearningTask,1,68,
200,w,200,,,,,,,,,,,,,,,,,1,0,1,0,1,1,5,0,,,,,,,,,,,,,,,,,,,,,,,,,,,,,w,1,0.384303808212,None,0,2.0,diamondblue.gif,stop,,,,,,,,,,,,,,,,,,,,,,,,2.16,0.513803005219,0.000982999801636,0.384303808212,1,w,665.433734894,,,,,,,,,,,,,,,,,,,,,,,,,,,,,,,,,2015_Jun_30_1020,60.1203753739,LearningTask,1,68,
200,w,200,,,,,,,,,,,,,,,,,1,0,1,0,1,2,6,0,,,,,,,,,,,,,,,,,,,,,,,,,,,,,w,1,0.351083040237,None,0,2.0,hexagongray.gif,go,,,,,,,,,,,,,,,,,,,,,,,,0,0.514003992081,0.000911951065063,0.351083040237,1,w,668.437618971,,,,,,,,,,,,,,,,,,,,,,,,,,,,,,,,,2015_Jun_30_1020,60.1203753739,LearningTask,1,68,
200,w,200,,,,,,,,,,,,,,,,,1,0,1,0,1,3,7,0,,,,,,,,,,,,,,,,,,,,,,,,,,,,,w,1,0.317507982254,None,0,0.5,circleyellow.gif,stop,,,,,,,,,,,,,,,,,,,,,,,,0.73,0.513448953629,0.000967979431152,0.317507982254,1,w,671.44024682,,,,,,,,,,,,,,,,,,,,,,,,,,,,,,,,,2015_Jun_30_1020,60.1203753739,LearningTask,1,68,
200,s,-200,,,,,,,,,,,,,,,,,1,0,1,0,2,0,8,2,,,,,,,,,,,,,,,,,,,,,,,,,,,,,s,1,0.384198188782,None,0,4.0,lineorange.gif,go,,,,,,,,,,,,,,,,,,,,,,,,3.85,0.514248847961,0.000908851623535,0.384198188782,1,s,674.443979025,,,,,,,,,,,,,,,,,,,,,,,,,,,,,,,,,2015_Jun_30_1020,60.1203753739,LearningTask,1,68,
-200,q,200,,,,,,,,,,,,,,,,,1,0,1,0,2,1,9,1,,,,,,,,,,,,,,,,,,,,,,,,,,,,,q,1,0.36766409874,None,0,4.0,lineorange.gif,go,,,,,,,,,,,,,,,,,,,,,,,,4.1,0.513706922531,0.000936985015869,0.36766409874,1,q,677.447099924,,,,,,,,,,,,,,,,,,,,,,,,,,,,,,,,,2015_Jun_30_1020,60.1203753739,LearningTask,1,68,
-200,a,-200,,,,,,,,,,,,,,,,,1,0,1,0,2,2,10,3,,,,,,,,,,,,,,,,,,,,,,,,,,,,,a,1,0.384084939957,None,0,2.0,diamondblue.gif,stop,,,,,,,,,,,,,,,,,,,,,,,,2.01,0.514112949371,0.000982999801636,0.384084939957,1,a,680.450325012,,,,,,,,,,,,,,,,,,,,,,,,,,,,,,,,,2015_Jun_30_1020,60.1203753739,LearningTask,1,68,
200,w,200,,,,,,,,,,,,,,,,,1,0,1,0,2,3,11,0,,,,,,,,,,,,,,,,,,,,,,,,,,,,,w,1,0.351035118103,None,0,0.5,circleyellow.gif,stop,,,,,,,,,,,,,,,,,,,,,,,,0.29,0.514200925827,0.00111699104309,0.351035118103,1,w,683.453970909,,,,,,,,,,,,,,,,,,,,,,,,,,,,,,,,,2015_Jun_30_1020,60.1203753739,LearningTask,1,68,
200,s,-200,,,,,,,,,,,,,,,,,1,0,1,0,3,0,12,2,,,,,,,,,,,,,,,,,,,,,,,,,,,,,s,1,0.384345054626,None,0,0.5,circleyellow.gif,stop,,,,,,,,,,,,,,,,,,,,,,,,0.73,0.513713121414,0.000929117202759,0.384345054626,1,s,686.45728302,,,,,,,,,,,,,,,,,,,,,,,,,,,,,,,,,2015_Jun_30_1020,60.1203753739,LearningTask,1,68,
-200,a,-200,,,,,,,,,,,,,,,,,1,0,1,0,3,1,13,3,,,,,,,,,,,,,,,,,,,,,,,,,,,,,a,1,0.400939941406,None,0,2.0,diamondblue.gif,stop,,,,,,,,,,,,,,,,,,,,,,,,2.13,0.513953924179,0.000988006591797,0.400939941406,1,a,689.460254908,,,,,,,,,,,,,,,,,,,,,,,,,,,,,,,,,2015_Jun_30_1020,60.1203753739,LearningTask,1,68,
-200,q,200,,,,,,,,,,,,,,,,,1,0,1,0,3,2,14,1,,,,,,,,,,,,,,,,,,,,,,,,,,,,,q,1,0.434202194214,None,0,0.5,circleyellow.gif,stop,,,,,,,,,,,,,,,,,,,,,,,,0.55,0.514155864716,0.000962972640991,0.434202194214,1,q,692.464107037,,,,,,,,,,,,,,,,,,,,,,,,,,,,,,,,,2015_Jun_30_1020,60.1203753739,LearningTask,1,68,
200,w,200,,,,,,,,,,,,,,,,,1,0,1,0,3,3,15,0,,,,,,,,,,,,,,,,,,,,,,,,,,,,,w,1,0.38418006897,None,0,2.0,diamondblue.gif,stop,,,,,,,,,,,,,,,,,,,,,,,,1.8,0.513979196548,0.000906229019165,0.38418006897,1,w,695.467747927,,,,,,,,,,,,,,,,,,,,,,,,,,,,,,,,,2015_Jun_30_1020,60.1203753739,LearningTask,1,68,
-200,a,-200,,,,,,,,,,,,,,,,,1,0,1,0,4,0,16,3,,,,,,,,,,,,,,,,,,,,,,,,,,,,,a,1,0.400376081467,None,0,2.0,hexagongray.gif,go,,,,,,,,,,,,,,,,,,,,,,,,2.04,0.51398897171,0.0126149654388,0.400376081467,1,a,698.470845938,,,,,,,,,,,,,,,,,,,,,,,,,,,,,,,,,2015_Jun_30_1020,60.1203753739,LearningTask,1,68,
-200,q,200,,,,,,,,,,,,,,,,,1,0,1,0,4,1,17,1,,,,,,,,,,,,,,,,,,,,,,,,,,,,,q,1,0.367533922195,None,0,4.0,lineorange.gif,go,,,,,,,,,,,,,,,,,,,,,,,,4.22,0.513571023941,0.000960111618042,0.367533922195,1,q,701.473795891,,,,,,,,,,,,,,,,,,,,,,,,,,,,,,,,,2015_Jun_30_1020,60.1203753739,LearningTask,1,68,
200,s,-200,,,,,,,,,,,,,,,,,1,0,1,0,4,2,18,2,,,,,,,,,,,,,,,,,,,,,,,,,,,,,s,1,0.367371082306,None,0,2.0,hexagongray.gif,go,,,,,,,,,,,,,,,,,,,,,,,,1.94,0.514318943024,0.000932931900024,0.367371082306,1,s,704.47731185,,,,,,,,,,,,,,,,,,,,,,,,,,,,,,,,,2015_Jun_30_1020,60.1203753739,LearningTask,1,68,
-200,q,200,,,,,,,,,,,,,,,,,1,0,1,0,4,3,19,1,,,,,,,,,,,,,,,,,,,,,,,,,,,,,q,1,0.367853879929,None,0,0.5,circleyellow.gif,stop,,,,,,,,,,,,,,,,,,,,,,,,0,0.514189004898,0.000920057296753,0.367853879929,1,q,707.480721951,,,,,,,,,,,,,,,,,,,,,,,,,,,,,,,,,2015_Jun_30_1020,60.1203753739,LearningTask,1,68,
200,s,-200,,,,,,,,,,,,,,,,,1,0,1,0,5,0,20,2,,,,,,,,,,,,,,,,,,,,,,,,,,,,,s,1,0.401302099228,None,0,4.0,lineorange.gif,go,,,,,,,,,,,,,,,,,,,,,,,,4.25,0.513731956482,0.000951051712036,0.401302099228,1,s,710.484040976,,,,,,,,,,,,,,,,,,,,,,,,,,,,,,,,,2015_Jun_30_1020,60.1203753739,LearningTask,1,68,
200,w,200,,,,,,,,,,,,,,,,,1,0,1,0,5,1,21,0,,,,,,,,,,,,,,,,,,,,,,,,,,,,,w,1,0.384010076523,None,0,4.0,lineorange.gif,go,,,,,,,,,,,,,,,,,,,,,,,,0,0.514168977737,0.000979900360107,0.384010076523,1,w,713.48764205,,,,,,,,,,,,,,,,,,,,,,,,,,,,,,,,,2015_Jun_30_1020,60.1203753739,LearningTask,1,68,
-200,a,-200,,,,,,,,,,,,,,,,,1,0,1,0,5,2,22,3,,,,,,,,,,,,,,,,,,,,,,,,,,,,,a,1,0.450972080231,None,0,4.0,trianglemagenta.gif,stop,,,,,,,,,,,,,,,,,,,,,,,,4.21,0.513756990433,0.0172019004822,0.450972080231,1,a,716.491004944,,,,,,,,,,,,,,,,,,,,,,,,,,,,,,,,,2015_Jun_30_1020,60.1203753739,LearningTask,1,68,
200,s,-200,,,,,,,,,,,,,,,,,1,0,1,0,5,3,23,2,,,,,,,,,,,,,,,,,,,,,,,,,,,,,s,1,0.401026010513,None,0,0.5,circleyellow.gif,stop,,,,,,,,,,,,,,,,,,,,,,,,0.51,0.514056921005,0.000969886779785,0.401026010513,1,s,719.494102001,,,,,,,,,,,,,,,,,,,,,,,,,,,,,,,,,2015_Jun_30_1020,60.1203753739,LearningTask,1,68,
200,w,200,,,,,,,,,,,,,,,,,1,0,1,0,6,0,24,0,,,,,,,,,,,,,,,,,,,,,,,,,,,,,w,1,0.450776100159,None,0,1.0,invertedtrianglecyan.gif,go,,,,,,,,,,,,,,,,,,,,,,,,1.1,0.514158010483,0.0324120521545,0.450776100159,1,w,722.497269869,,,,,,,,,,,,,,,,,,,,,,,,,,,,,,,,,2015_Jun_30_1020,60.1203753739,LearningTask,1,68,
-200,a,-200,,,,,,,,,,,,,,,,,1,0,1,0,6,1,25,3,,,,,,,,,,,,,,,,,,,,,,,,,,,,,a,1,0.417176008224,None,0,0.5,circleyellow.gif,stop,,,,,,,,,,,,,,,,,,,,,,,,0.71,0.514125108719,0.00106906890869,0.417176008224,1,a,725.500763893,,,,,,,,,,,,,,,,,,,,,,,,,,,,,,,,,2015_Jun_30_1020,60.1203753739,LearningTask,1,68,
200,s,-200,,,,,,,,,,,,,,,,,1,0,1,0,6,2,26,2,,,,,,,,,,,,,,,,,,,,,,,,,,,,,s,1,0.350631952286,None,0,1.0,crosswhite.gif,stop,,,,,,,,,,,,,,,,,,,,,,,,0.8,0.513679027557,0.0139200687408,0.350631952286,1,s,728.50444293,,,,,,,,,,,,,,,,,,,,,,,,,,,,,,,,,2015_Jun_30_1020,60.1203753739,LearningTask,1,68,
-200,q,200,,,,,,,,,,,,,,,,,1,0,1,0,6,3,27,1,,,,,,,,,,,,,,,,,,,,,,,,,,,,,q,1,0.450986862183,None,0,1.0,invertedtrianglecyan.gif,go,,,,,,,,,,,,,,,,,,,,,,,,0.81,0.51397895813,0.00114512443542,0.450986862183,1,q,731.507894039,,,,,,,,,,,,,,,,,,,,,,,,,,,,,,,,,2015_Jun_30_1020,60.1203753739,LearningTask,1,68,
200,w,200,,,,,,,,,,,,,,,,,1,0,1,0,7,0,28,0,,,,,,,,,,,,,,,,,,,,,,,,,,,,,w,1,0.400928020477,None,0,2.0,hexagongray.gif,go,,,,,,,,,,,,,,,,,,,,,,,,0,0.513875007629,0.0191750526428,0.400928020477,1,w,734.511049986,,,,,,,,,,,,,,,,,,,,,,,,,,,,,,,,,2015_Jun_30_1020,60.1203753739,LearningTask,1,68,
200,w,200,,,,,,,,,,,,,,,,,1,0,1,0,7,1,29,0,,,,,,,,,,,,,,,,,,,,,,,,,,,,,w,1,0.384130001068,None,0,4.0,trianglemagenta.gif,stop,,,,,,,,,,,,,,,,,,,,,,,,4.23,0.513781070709,0.000936031341553,0.384130001068,1,w,737.514389038,,,,,,,,,,,,,,,,,,,,,,,,,,,,,,,,,2015_Jun_30_1020,60.1203753739,LearningTask,1,68,
-200,q,200,,,,,,,,,,,,,,,,,1,0,1,0,7,2,30,1,,,,,,,,,,,,,,,,,,,,,,,,,,,,,q,1,0.45129108429,None,0,4.0,trianglemagenta.gif,stop,,,,,,,,,,,,,,,,,,,,,,,,4.15,0.513663053513,0.000952959060669,0.45129108429,1,q,740.517582893,,,,,,,,,,,,,,,,,,,,,,,,,,,,,,,,,2015_Jun_30_1020,60.1203753739,LearningTask,1,68,
200,s,-200,,,,,,,,,,,,,,,,,1,0,1,0,7,3,31,2,,,,,,,,,,,,,,,,,,,,,,,,,,,,,s,1,0.417519807816,None,0,1.0,crosswhite.gif,stop,,,,,,,,,,,,,,,,,,,,,,,,0.85,0.513857126236,0.000910997390747,0.417519807816,1,s,743.521162987,,,,,,,,,,,,,,,,,,,,,,,,,,,,,,,,,2015_Jun_30_1020,60.1203753739,LearningTask,1,68,
-200,a,-200,,,,,,,,,,,,,,,,,1,0,1,0,8,0,32,3,,,,,,,,,,,,,,,,,,,,,,,,,,,,,a,1,0.35116815567,None,0,4.0,trianglemagenta.gif,stop,,,,,,,,,,,,,,,,,,,,,,,,0,0.51368188858,0.000910043716431,0.35116815567,1,a,746.524250031,,,,,,,,,,,,,,,,,,,,,,,,,,,,,,,,,2015_Jun_30_1020,60.1203753739,LearningTask,1,68,
200,s,-200,,,,,,,,,,,,,,,,,1,0,1,0,8,1,33,2,,,,,,,,,,,,,,,,,,,,,,,,,,,,,s,1,0.384080886841,None,0,4.0,lineorange.gif,go,,,,,,,,,,,,,,,,,,,,,,,,0,0.513928890228,0.0189518928528,0.384080886841,1,s,749.527645826,,,,,,,,,,,,,,,,,,,,,,,,,,,,,,,,,2015_Jun_30_1020,60.1203753739,LearningTask,1,68,
200,w,200,,,,,,,,,,,,,,,,,1,0,1,0,8,2,34,0,,,,,,,,,,,,,,,,,,,,,,,,,,,,,w,1,0.317595005035,None,0,1.0,crosswhite.gif,stop,,,,,,,,,,,,,,,,,,,,,,,,1.2,0.514002084732,0.000909090042114,0.317595005035,1,w,752.531162977,,,,,,,,,,,,,,,,,,,,,,,,,,,,,,,,,2015_Jun_30_1020,60.1203753739,LearningTask,1,68,
-200,q,200,,,,,,,,,,,,,,,,,1,0,1,0,8,3,35,1,,,,,,,,,,,,,,,,,,,,,,,,,,,,,q,1,0.367486000061,None,0,2.0,diamondblue.gif,stop,,,,,,,,,,,,,,,,,,,,,,,,1.77,0.513804912567,0.0411961078644,0.367486000061,1,q,755.534407854,,,,,,,,,,,,,,,,,,,,,,,,,,,,,,,,,2015_Jun_30_1020,60.1203753739,LearningTask,1,68,
200,w,200,,,,,,,,,,,,,,,,,1,0,1,0,9,0,36,0,,,,,,,,,,,,,,,,,,,,,,,,,,,,,w,1,0.400191068649,None,0,2.0,hexagongray.gif,go,,,,,,,,,,,,,,,,,,,,,,,,1.76,0.514022111893,0.0160520076752,0.400191068649,1,w,758.537679911,,,,,,,,,,,,,,,,,,,,,,,,,,,,,,,,,2015_Jun_30_1020,60.1203753739,LearningTask,1,68,
-200,q,200,,,,,,,,,,,,,,,,,1,0,1,0,9,1,37,1,,,,,,,,,,,,,,,,,,,,,,,,,,,,,q,1,0.535082101822,None,0,4.0,lineorange.gif,go,,,,,,,,,,,,,,,,,,,,,,,,4.09,0.51429605484,0.000886201858521,0.535082101822,1,q,761.54130888,,,,,,,,,,,,,,,,,,,,,,,,,,,,,,,,,2015_Jun_30_1020,60.1203753739,LearningTask,1,68,
-200,q,200,,,,,,,,,,,,,,,,,1,0,1,0,9,2,38,1,,,,,,,,,,,,,,,,,,,,,,,,,,,,,q,1,0.350962877274,None,0,0.5,circleyellow.gif,stop,,,,,,,,,,,,,,,,,,,,,,,,0.41,0.514014959335,0.00916695594788,0.350962877274,1,q,764.544831038,,,,,,,,,,,,,,,,,,,,,,,,,,,,,,,,,2015_Jun_30_1020,60.1203753739,LearningTask,1,68,
200,s,-200,,,,,,,,,,,,,,,,,1,0,1,0,9,3,39,2,,,,,,,,,,,,,,,,,,,,,,,,,,,,,s,1,0.333806991577,None,0,1.0,crosswhite.gif,stop,,,,,,,,,,,,,,,,,,,,,,,,1.02,0.514236211777,0.0323331356049,0.333806991577,1,s,767.547762871,,,,,,,,,,,,,,,,,,,,,,,,,,,,,,,,,2015_Jun_30_1020,60.1203753739,LearningTask,1,68,
-200,q,200,,,,,,,,,,,,,,,,,1,0,1,0,10,0,40,1,,,,,,,,,,,,,,,,,,,,,,,,,,,,,q,1,0.317094087601,None,0,4.0,trianglemagenta.gif,stop,,,,,,,,,,,,,,,,,,,,,,,,3.87,0.5145008564,0.0269119739532,0.317094087601,1,q,770.551069021,,,,,,,,,,,,,,,,,,,,,,,,,,,,,,,,,2015_Jun_30_1020,60.1203753739,LearningTask,1,68,
200,s,-200,,,,,,,,,,,,,,,,,1,0,1,0,10,1,41,2,,,,,,,,,,,,,,,,,,,,,,,,,,,,,s,1,0.367475986481,None,0,1.0,invertedtrianglecyan.gif,go,,,,,,,,,,,,,,,,,,,,,,,,0,0.514193058014,0.0229871273041,0.367475986481,1,s,773.554450989,,,,,,,,,,,,,,,,,,,,,,,,,,,,,,,,,2015_Jun_30_1020,60.1203753739,LearningTask,1,68,
200,w,200,,,,,,,,,,,,,,,,,1,0,1,0,10,2,42,0,,,,,,,,,,,,,,,,,,,,,,,,,,,,,w,1,0.383888959885,None,0,0.5,squaregreen.gif,go,,,,,,,,,,,,,,,,,,,,,,,,0,0.514683961868,0.119369029999,0.383888959885,1,w,776.557751894,,,,,,,,,,,,,,,,,,,,,,,,,,,,,,,,,2015_Jun_30_1020,60.1203753739,LearningTask,1,68,
-200,a,-200,,,,,,,,,,,,,,,,,1,0,1,0,10,3,43,3,,,,,,,,,,,,,,,,,,,,,,,,,,,,,a,1,0.350980997086,None,0,1.0,crosswhite.gif,stop,,,,,,,,,,,,,,,,,,,,,,,,1.24,0.514594078064,0.0160880088806,0.350980997086,1,a,779.561044931,,,,,,,,,,,,,,,,,,,,,,,,,,,,,,,,,2015_Jun_30_1020,60.1203753739,LearningTask,1,68,
200,s,-200,,,,,,,,,,,,,,,,,1,0,1,0,11,0,44,2,,,,,,,,,,,,,,,,,,,,,,,,,,,,,s,1,0.334139823914,None,0,1.0,crosswhite.gif,stop,,,,,,,,,,,,,,,,,,,,,,,,0.92,0.514366149902,0.00106000900269,0.334139823914,1,s,782.56458497,,,,,,,,,,,,,,,,,,,,,,,,,,,,,,,,,2015_Jun_30_1020,60.1203753739,LearningTask,1,68,
-200,a,-200,,,,,,,,,,,,,,,,,1,0,1,0,11,1,45,3,,,,,,,,,,,,,,,,,,,,,,,,,,,,,a,1,0.384732961655,None,0,4.0,lineorange.gif,go,,,,,,,,,,,,,,,,,,,,,,,,4.19,0.514059066772,0.000927209854126,0.384732961655,1,a,785.567817926,,,,,,,,,,,,,,,,,,,,,,,,,,,,,,,,,2015_Jun_30_1020,60.1203753739,LearningTask,1,68,
200,w,200,,,,,,,,,,,,,,,,,1,0,1,0,11,2,46,0,,,,,,,,,,,,,,,,,,,,,,,,,,,,,w,1,0.400991916656,None,0,2.0,diamondblue.gif,stop,,,,,,,,,,,,,,,,,,,,,,,,2.23,0.51417517662,0.0396680831909,0.400991916656,1,w,788.571030855,,,,,,,,,,,,,,,,,,,,,,,,,,,,,,,,,2015_Jun_30_1020,60.1203753739,LearningTask,1,68,
200,w,200,,,,,,,,,,,,,,,,,1,0,1,0,11,3,47,0,,,,,,,,,,,,,,,,,,,,,,,,,,,,,w,1,0.350944042206,None,0,4.0,lineorange.gif,go,,,,,,,,,,,,,,,,,,,,,,,,0,0.514409065247,0.000910997390747,0.350944042206,1,w,791.574692011,,,,,,,,,,,,,,,,,,,,,,,,,,,,,,,,,2015_Jun_30_1020,60.1203753739,LearningTask,1,68,
-200,a,-200,,,,,,,,,,,,,,,,,1,0,1,0,12,0,48,3,,,,,,,,,,,,,,,,,,,,,,,,,,,,,a,1,0.36795091629,None,0,2.0,hexagongray.gif,go,,,,,,,,,,,,,,,,,,,,,,,,2.23,0.514039993286,0.0110769271851,0.36795091629,1,a,794.578222036,,,,,,,,,,,,,,,,,,,,,,,,,,,,,,,,,2015_Jun_30_1020,60.1203753739,LearningTask,1,68,
200,s,-200,,,,,,,,,,,,,,,,,1,0,1,0,12,1,49,2,,,,,,,,,,,,,,,,,,,,,,,,,,,,,s,1,0.317045927048,None,0,1.0,crosswhite.gif,stop,,,,,,,,,,,,,,,,,,,,,,,,1.17,0.513756990433,0.00100088119507,0.317045927048,1,s,797.581475973,,,,,,,,,,,,,,,,,,,,,,,,,,,,,,,,,2015_Jun_30_1020,60.1203753739,LearningTask,1,68,
-200,a,-200,,,,,,,,,,,,,,,,,1,0,1,0,12,2,50,3,,,,,,,,,,,,,,,,,,,,,,,,,,,,,a,1,0.401041030884,None,0,4.0,trianglemagenta.gif,stop,,,,,,,,,,,,,,,,,,,,,,,,4.19,0.513885974884,0.000977993011475,0.401041030884,1,a,800.584815025,,,,,,,,,,,,,,,,,,,,,,,,,,,,,,,,,2015_Jun_30_1020,60.1203753739,LearningTask,1,68,
-200,q,200,,,,,,,,,,,,,,,,,1,0,1,0,12,3,51,1,,,,,,,,,,,,,,,,,,,,,,,,,,,,,q,1,0.351072072983,None,0,1.0,crosswhite.gif,stop,,,,,,,,,,,,,,,,,,,,,,,,0,0.513809919357,0.00100588798523,0.351072072983,1,q,803.588286877,,,,,,,,,,,,,,,,,,,,,,,,,,,,,,,,,2015_Jun_30_1020,60.1203753739,LearningTask,1,68,
200,w,200,,,,,,,,,,,,,,,,,1,0,1,0,13,0,52,0,,,,,,,,,,,,,,,,,,,,,,,,,,,,,w,1,0.317821979523,None,0,2.0,diamondblue.gif,stop,,,,,,,,,,,,,,,,,,,,,,,,0,0.512938976288,0.00110411643982,0.317821979523,1,w,806.591521025,,,,,,,,,,,,,,,,,,,,,,,,,,,,,,,,,2015_Jun_30_1020,60.1203753739,LearningTask,1,68,
200,w,200,,,,,,,,,,,,,,,,,1,0,1,0,13,1,53,0,,,,,,,,,,,,,,,,,,,,,,,,,,,,,w,1,0.317389011383,None,0,2.0,diamondblue.gif,stop,,,,,,,,,,,,,,,,,,,,,,,,0,0.514003992081,0.00102114677429,0.317389011383,1,w,809.594760895,,,,,,,,,,,,,,,,,,,,,,,,,,,,,,,,,2015_Jun_30_1020,60.1203753739,LearningTask,1,68,
200,w,200,,,,,,,,,,,,,,,,,1,0,1,0,13,2,54,0,,,,,,,,,,,,,,,,,,,,,,,,,,,,,w,1,0.350906848907,None,0,1.0,invertedtrianglecyan.gif,go,,,,,,,,,,,,,,,,,,,,,,,,1.04,0.514079093933,0.000975131988525,0.350906848907,1,w,812.59860301,,,,,,,,,,,,,,,,,,,,,,,,,,,,,,,,,2015_Jun_30_1020,60.1203753739,LearningTask,1,68,
-200,q,200,,,,,,,,,,,,,,,,,1,0,1,0,13,3,55,1,,,,,,,,,,,,,,,,,,,,,,,,,,,,,q,1,0.384097099304,None,0,1.0,invertedtrianglecyan.gif,go,,,,,,,,,,,,,,,,,,,,,,,,0,0.513822078705,0.000904083251953,0.384097099304,1,q,815.601559877,,,,,,,,,,,,,,,,,,,,,,,,,,,,,,,,,2015_Jun_30_1020,60.1203753739,LearningTask,1,68,
200,s,-200,,,,,,,,,,,,,,,,,1,0,1,0,14,0,56,2,,,,,,,,,,,,,,,,,,,,,,,,,,,,,s,1,0.384391069412,None,0,4.0,trianglemagenta.gif,stop,,,,,,,,,,,,,,,,,,,,,,,,4.03,0.513978004456,0.0010359287262,0.384391069412,1,s,818.604743004,,,,,,,,,,,,,,,,,,,,,,,,,,,,,,,,,2015_Jun_30_1020,60.1203753739,LearningTask,1,68,
200,w,200,,,,,,,,,,,,,,,,,1,0,1,0,14,1,57,0,,,,,,,,,,,,,,,,,,,,,,,,,,,,,w,1,0.401365041733,None,0,2.0,diamondblue.gif,stop,,,,,,,,,,,,,,,,,,,,,,,,1.81,0.514362096786,0.00100803375244,0.401365041733,1,w,821.608160973,,,,,,,,,,,,,,,,,,,,,,,,,,,,,,,,,2015_Jun_30_1020,60.1203753739,LearningTask,1,68,
-200,a,-200,,,,,,,,,,,,,,,,,1,0,1,0,14,2,58,3,,,,,,,,,,,,,,,,,,,,,,,,,,,,,a,1,0.434784173965,None,0,1.0,invertedtrianglecyan.gif,go,,,,,,,,,,,,,,,,,,,,,,,,0,0.514014959335,0.000957012176514,0.434784173965,1,a,824.611423969,,,,,,,,,,,,,,,,,,,,,,,,,,,,,,,,,2015_Jun_30_1020,60.1203753739,LearningTask,1,68,
-200,a,-200,,,,,,,,,,,,,,,,,1,0,1,0,14,3,59,3,,,,,,,,,,,,,,,,,,,,,,,,,,,,,a,1,0.367516040802,None,0,0.5,circleyellow.gif,stop,,,,,,,,,,,,,,,,,,,,,,,,0.4,0.51439499855,0.00952291488647,0.367516040802,1,a,827.615322828,,,,,,,,,,,,,,,,,,,,,,,,,,,,,,,,,2015_Jun_30_1020,60.1203753739,LearningTask,1,68,
-200,q,200,,,,,,,,,,,,,,,,,1,0,1,0,15,0,60,1,,,,,,,,,,,,,,,,,,,,,,,,,,,,,q,1,0.467385053635,None,0,1.0,crosswhite.gif,stop,,,,,,,,,,,,,,,,,,,,,,,,0.85,0.513650894165,0.0010290145874,0.467385053635,1,q,830.618253946,,,,,,,,,,,,,,,,,,,,,,,,,,,,,,,,,2015_Jun_30_1020,60.1203753739,LearningTask,1,68,
200,s,-200,,,,,,,,,,,,,,,,,1,0,1,0,15,1,61,2,,,,,,,,,,,,,,,,,,,,,,,,,,,,,s,1,0.400904178619,None,0,2.0,diamondblue.gif,stop,,,,,,,,,,,,,,,,,,,,,,,,1.9,0.514084815979,0.000938892364502,0.400904178619,1,s,833.621572971,,,,,,,,,,,,,,,,,,,,,,,,,,,,,,,,,2015_Jun_30_1020,60.1203753739,LearningTask,1,68,
-200,a,-200,,,,,,,,,,,,,,,,,1,0,1,0,15,2,62,3,,,,,,,,,,,,,,,,,,,,,,,,,,,,,a,1,0.617476940155,None,0,2.0,hexagongray.gif,go,,,,,,,,,,,,,,,,,,,,,,,,0,0.51407790184,0.000954866409302,0.617476940155,1,a,836.625061989,,,,,,,,,,,,,,,,,,,,,,,,,,,,,,,,,2015_Jun_30_1020,60.1203753739,LearningTask,1,68,
-200,a,-200,,,,,,,,,,,,,,,,,1,0,1,0,15,3,63,3,,,,,,,,,,,,,,,,,,,,,,,,,,,,,a,1,0.40095615387,None,0,2.0,hexagongray.gif,go,,,,,,,,,,,,,,,,,,,,,,,,2.01,0.514108896255,0.000982999801636,0.40095615387,1,a,839.628275871,,,,,,,,,,,,,,,,,,,,,,,,,,,,,,,,,2015_Jun_30_1020,60.1203753739,LearningTask,1,68,
-200,q,200,,,,,,,,,,,,,,,,,1,0,1,0,16,0,64,1,,,,,,,,,,,,,,,,,,,,,,,,,,,,,q,1,0.917900085449,None,0,0.5,circleyellow.gif,stop,,,,,,,,,,,,,,,,,,,,,,,,0.74,0.514340877533,0.00101184844971,0.917900085449,1,q,842.631786823,,,,,,,,,,,,,,,,,,,,,,,,,,,,,,,,,2015_Jun_30_1020,60.1203753739,LearningTask,1,68,
-200,a,-200,,,,,,,,,,,,,,,,,1,0,1,0,16,1,65,3,,,,,,,,,,,,,,,,,,,,,,,,,,,,,a,1,0.367089986801,None,0,1.0,crosswhite.gif,stop,,,,,,,,,,,,,,,,,,,,,,,,0,0.514276981354,0.000929832458496,0.367089986801,1,a,845.63508296,,,,,,,,,,,,,,,,,,,,,,,,,,,,,,,,,2015_Jun_30_1020,60.1203753739,LearningTask,1,68,
-200,a,-200,,,,,,,,,,,,,,,,,1,0,1,0,16,2,66,3,,,,,,,,,,,,,,,,,,,,,,,,,,,,,a,1,0.367328166962,None,0,4.0,lineorange.gif,go,,,,,,,,,,,,,,,,,,,,,,,,3.9,0.514260053635,0.0145530700684,0.367328166962,1,a,848.638880014,,,,,,,,,,,,,,,,,,,,,,,,,,,,,,,,,2015_Jun_30_1020,60.1203753739,LearningTask,1,68,
-200,q,200,,,,,,,,,,,,,,,,,1,0,1,0,16,3,67,1,,,,,,,,,,,,,,,,,,,,,,,,,,,,,q,1,0.383802890778,None,0,2.0,diamondblue.gif,stop,,,,,,,,,,,,,,,,,,,,,,,,2.18,0.513753175735,0.000915050506592,0.383802890778,1,q,851.642379999,,,,,,,,,,,,,,,,,,,,,,,,,,,,,,,,,2015_Jun_30_1020,60.1203753739,LearningTask,1,68,
-200,q,200,,,,,,,,,,,,,,,,,1,0,1,0,17,0,68,1,,,,,,,,,,,,,,,,,,,,,,,,,,,,,q,1,0.35111618042,None,0,1.0,crosswhite.gif,stop,,,,,,,,,,,,,,,,,,,,,,,,0.79,0.513140916824,0.00097393989563,0.35111618042,1,q,854.6451509,,,,,,,,,,,,,,,,,,,,,,,,,,,,,,,,,2015_Jun_30_1020,60.1203753739,LearningTask,1,68,
-200,a,-200,,,,,,,,,,,,,,,,,1,0,1,0,17,1,69,3,,,,,,,,,,,,,,,,,,,,,,,,,,,,,a,1,0.367469072342,None,0,0.5,circleyellow.gif,stop,,,,,,,,,,,,,,,,,,,,,,,,0.55,0.514085054398,0.000912189483643,0.367469072342,1,a,857.648893833,,,,,,,,,,,,,,,,,,,,,,,,,,,,,,,,,2015_Jun_30_1020,60.1203753739,LearningTask,1,68,
-200,q,200,,,,,,,,,,,,,,,,,1,0,1,0,17,2,70,1,,,,,,,,,,,,,,,,,,,,,,,,,,,,,q,1,0.317703962326,None,0,4.0,trianglemagenta.gif,stop,,,,,,,,,,,,,,,,,,,,,,,,4.08,0.513523101807,0.000999212265015,0.317703962326,1,q,860.652390003,,,,,,,,,,,,,,,,,,,,,,,,,,,,,,,,,2015_Jun_30_1020,60.1203753739,LearningTask,1,68,
-200,q,200,,,,,,,,,,,,,,,,,1,0,1,0,17,3,71,1,,,,,,,,,,,,,,,,,,,,,,,,,,,,,q,1,0.383780002594,None,0,0.5,circleyellow.gif,stop,,,,,,,,,,,,,,,,,,,,,,,,0.43,0.513992071152,0.000988006591797,0.383780002594,1,q,863.65506196,,,,,,,,,,,,,,,,,,,,,,,,,,,,,,,,,2015_Jun_30_1020,60.1203753739,LearningTask,1,68,
200,s,-200,,,,,,,,,,,,,,,,,1,0,1,0,18,0,72,2,,,,,,,,,,,,,,,,,,,,,,,,,,,,,s,1,0.38418006897,None,0,1.0,crosswhite.gif,stop,,,,,,,,,,,,,,,,,,,,,,,,0.84,0.514519929886,0.000893831253052,0.38418006897,1,s,866.658591986,,,,,,,,,,,,,,,,,,,,,,,,,,,,,,,,,2015_Jun_30_1020,60.1203753739,LearningTask,1,68,
200,s,-200,,,,,,,,,,,,,,,,,1,0,1,0,18,1,73,2,,,,,,,,,,,,,,,,,,,,,,,,,,,,,s,1,0.384398937225,None,0,0.5,squaregreen.gif,go,,,,,,,,,,,,,,,,,,,,,,,,0.25,0.514241218567,0.0332491397858,0.384398937225,1,s,869.662078857,,,,,,,,,,,,,,,,,,,,,,,,,,,,,,,,,2015_Jun_30_1020,60.1203753739,LearningTask,1,68,
-200,q,200,,,,,,,,,,,,,,,,,1,0,1,0,18,2,74,1,,,,,,,,,,,,,,,,,,,,,,,,,,,,,q,1,0.384160041809,None,0,2.0,hexagongray.gif,go,,,,,,,,,,,,,,,,,,,,,,,,0,0.5137758255,0.0174188613892,0.384160041809,1,q,872.665462017,,,,,,,,,,,,,,,,,,,,,,,,,,,,,,,,,2015_Jun_30_1020,60.1203753739,LearningTask,1,68,
200,s,-200,,,,,,,,,,,,,,,,,1,0,1,0,18,3,75,2,,,,,,,,,,,,,,,,,,,,,,,,,,,,,s,1,0.317352056503,None,0,2.0,diamondblue.gif,stop,,,,,,,,,,,,,,,,,,,,,,,,2.23,0.513396978378,0.000963926315308,0.317352056503,1,s,875.668812037,,,,,,,,,,,,,,,,,,,,,,,,,,,,,,,,,2015_Jun_30_1020,60.1203753739,LearningTask,1,68,
200,w,200,,,,,,,,,,,,,,,,,1,0,1,0,19,0,76,0,,,,,,,,,,,,,,,,,,,,,,,,,,,,,w,1,0.350977897644,None,0,4.0,trianglemagenta.gif,stop,,,,,,,,,,,,,,,,,,,,,,,,0,0.514070987701,0.000899076461792,0.350977897644,1,w,878.671819925,,,,,,,,,,,,,,,,,,,,,,,,,,,,,,,,,2015_Jun_30_1020,60.1203753739,LearningTask,1,68,
200,w,200,,,,,,,,,,,,,,,,,1,0,1,0,19,1,77,0,,,,,,,,,,,,,,,,,,,,,,,,,,,,,w,1,0.434680938721,None,0,0.5,squaregreen.gif,go,,,,,,,,,,,,,,,,,,,,,,,,0.54,0.514371156693,0.000936985015869,0.434680938721,1,w,881.675302029,,,,,,,,,,,,,,,,,,,,,,,,,,,,,,,,,2015_Jun_30_1020,60.1203753739,LearningTask,1,68,
200,w,200,,,,,,,,,,,,,,,,,1,0,1,0,19,2,78,0,,,,,,,,,,,,,,,,,,,,,,,,,,,,,w,1,0.400537967682,None,0,2.0,hexagongray.gif,go,,,,,,,,,,,,,,,,,,,,,,,,2.2,0.514113903046,0.00100493431091,0.400537967682,1,w,884.678529024,,,,,,,,,,,,,,,,,,,,,,,,,,,,,,,,,2015_Jun_30_1020,60.1203753739,LearningTask,1,68,
200,w,200,,,,,,,,,,,,,,,,,1,0,1,0,19,3,79,0,,,,,,,,,,,,,,,,,,,,,,,,,,,,,w,1,0.384660959244,None,0,0.5,circleyellow.gif,stop,,,,,,,,,,,,,,,,,,,,,,,,0.73,0.514408111572,0.000907182693481,0.384660959244,1,w,887.682401896,,,,,,,,,,,,,,,,,,,,,,,,,,,,,,,,,2015_Jun_30_1020,60.1203753739,LearningTask,1,68,
200,s,-200,,,,,,,,,,,,,,,,,1,0,1,0,20,0,80,2,,,,,,,,,,,,,,,,,,,,,,,,,,,,,s,1,0.434146165848,None,0,0.5,squaregreen.gif,go,,,,,,,,,,,,,,,,,,,,,,,,0,0.513982057571,0.00090217590332,0.434146165848,1,s,890.685616016,,,,,,,,,,,,,,,,,,,,,,,,,,,,,,,,,2015_Jun_30_1020,60.1203753739,LearningTask,1,68,
-200,q,200,,,,,,,,,,,,,,,,,1,0,1,0,20,1,81,1,,,,,,,,,,,,,,,,,,,,,,,,,,,,,q,1,0.384291172028,None,0,1.0,invertedtrianglecyan.gif,go,,,,,,,,,,,,,,,,,,,,,,,,1.18,0.513414859772,0.017511844635,0.384291172028,1,q,893.688837051,,,,,,,,,,,,,,,,,,,,,,,,,,,,,,,,,2015_Jun_30_1020,60.1203753739,LearningTask,1,68,
200,s,-200,,,,,,,,,,,,,,,,,1,0,1,0,20,2,82,2,,,,,,,,,,,,,,,,,,,,,,,,,,,,,s,1,0.467566013336,None,0,0.5,circleyellow.gif,stop,,,,,,,,,,,,,,,,,,,,,,,,0.46,0.51398396492,0.00096583366394,0.467566013336,1,s,896.692263842,,,,,,,,,,,,,,,,,,,,,,,,,,,,,,,,,2015_Jun_30_1020,60.1203753739,LearningTask,1,68,
-200,a,-200,,,,,,,,,,,,,,,,,1,0,1,0,20,3,83,3,,,,,,,,,,,,,,,,,,,,,,,,,,,,,a,1,0.41747713089,None,0,0.5,circleyellow.gif,stop,,,,,,,,,,,,,,,,,,,,,,,,0.73,0.5139939785,0.000945091247559,0.41747713089,1,a,899.695930958,,,,,,,,,,,,,,,,,,,,,,,,,,,,,,,,,2015_Jun_30_1020,60.1203753739,LearningTask,1,68,
200,s,-200,,,,,,,,,,,,,,,,,1,0,1,0,21,0,84,2,,,,,,,,,,,,,,,,,,,,,,,,,,,,,s,1,0.401408195496,None,0,2.0,diamondblue.gif,stop,,,,,,,,,,,,,,,,,,,,,,,,2.07,0.51368522644,0.000962018966675,0.401408195496,1,s,902.699172974,,,,,,,,,,,,,,,,,,,,,,,,,,,,,,,,,2015_Jun_30_1020,60.1203753739,LearningTask,1,68,
-200,a,-200,,,,,,,,,,,,,,,,,1,0,1,0,21,1,85,3,,,,,,,,,,,,,,,,,,,,,,,,,,,,,a,1,0.367528915405,None,0,2.0,hexagongray.gif,go,,,,,,,,,,,,,,,,,,,,,,,,1.97,0.513842821121,0.00100898742676,0.367528915405,1,a,905.702551842,,,,,,,,,,,,,,,,,,,,,,,,,,,,,,,,,2015_Jun_30_1020,60.1203753739,LearningTask,1,68,
200,s,-200,,,,,,,,,,,,,,,,,1,0,1,0,21,2,86,2,,,,,,,,,,,,,,,,,,,,,,,,,,,,,s,1,0.400856018066,None,0,1.0,invertedtrianglecyan.gif,go,,,,,,,,,,,,,,,,,,,,,,,,1.03,0.514081954956,0.000883102416992,0.400856018066,1,s,908.705751896,,,,,,,,,,,,,,,,,,,,,,,,,,,,,,,,,2015_Jun_30_1020,60.1203753739,LearningTask,1,68,
200,s,-200,,,,,,,,,,,,,,,,,1,0,1,0,21,3,87,2,,,,,,,,,,,,,,,,,,,,,,,,,,,,,s,1,0.383551120758,None,0,0.5,circleyellow.gif,stop,,,,,,,,,,,,,,,,,,,,,,,,0.52,0.514193058014,0.00102305412292,0.383551120758,1,s,911.708734989,,,,,,,,,,,,,,,,,,,,,,,,,,,,,,,,,2015_Jun_30_1020,60.1203753739,LearningTask,1,68,
200,s,-200,,,,,,,,,,,,,,,,,1,0,1,0,22,0,88,2,,,,,,,,,,,,,,,,,,,,,,,,,,,,,s,1,0.384505033493,None,0,4.0,lineorange.gif,go,,,,,,,,,,,,,,,,,,,,,,,,0,0.514703989029,0.0225739479065,0.384505033493,1,s,914.712412834,,,,,,,,,,,,,,,,,,,,,,,,,,,,,,,,,2015_Jun_30_1020,60.1203753739,LearningTask,1,68,
-200,a,-200,,,,,,,,,,,,,,,,,1,0,1,0,22,1,89,3,,,,,,,,,,,,,,,,,,,,,,,,,,,,,a,1,0.417625904083,None,0,1.0,crosswhite.gif,stop,,,,,,,,,,,,,,,,,,,,,,,,0,0.51419210434,0.0362749099731,0.417625904083,1,a,917.715734959,,,,,,,,,,,,,,,,,,,,,,,,,,,,,,,,,2015_Jun_30_1020,60.1203753739,LearningTask,1,68,
200,w,200,,,,,,,,,,,,,,,,,1,0,1,0,22,2,90,0,,,,,,,,,,,,,,,,,,,,,,,,,,,,,w,1,0.551453828812,None,0,0.5,squaregreen.gif,go,,,,,,,,,,,,,,,,,,,,,,,,0.54,0.513805150986,0.0123310089111,0.551453828812,1,w,920.719171047,,,,,,,,,,,,,,,,,,,,,,,,,,,,,,,,,2015_Jun_30_1020,60.1203753739,LearningTask,1,68,
200,w,200,,,,,,,,,,,,,,,,,1,0,1,0,22,3,91,0,,,,,,,,,,,,,,,,,,,,,,,,,,,,,w,1,0.367057085037,None,0,1.0,invertedtrianglecyan.gif,go,,,,,,,,,,,,,,,,,,,,,,,,0,0.514348983765,0.00105094909668,0.367057085037,1,w,923.722961903,,,,,,,,,,,,,,,,,,,,,,,,,,,,,,,,,2015_Jun_30_1020,60.1203753739,LearningTask,1,68,
200,s,-200,,,,,,,,,,,,,,,,,1,0,1,0,23,0,92,2,,,,,,,,,,,,,,,,,,,,,,,,,,,,,s,1,0.517575025558,None,0,0.5,squaregreen.gif,go,,,,,,,,,,,,,,,,,,,,,,,,0.48,0.513370990753,0.00116300582886,0.517575025558,1,s,926.725862026,,,,,,,,,,,,,,,,,,,,,,,,,,,,,,,,,2015_Jun_30_1020,60.1203753739,LearningTask,1,68,
-200,q,200,,,,,,,,,,,,,,,,,1,0,1,0,23,1,93,1,,,,,,,,,,,,,,,,,,,,,,,,,,,,,q,1,0.334594011307,None,0,4.0,trianglemagenta.gif,stop,,,,,,,,,,,,,,,,,,,,,,,,0,0.514008045197,0.0138220787048,0.334594011307,1,q,929.729099035,,,,,,,,,,,,,,,,,,,,,,,,,,,,,,,,,2015_Jun_30_1020,60.1203753739,LearningTask,1,68,
-200,q,200,,,,,,,,,,,,,,,,,1,0,1,0,23,2,94,1,,,,,,,,,,,,,,,,,,,,,,,,,,,,,q,1,0.384552001953,None,0,4.0,lineorange.gif,go,,,,,,,,,,,,,,,,,,,,,,,,4.2,0.514037132263,0.00101208686829,0.384552001953,1,q,932.732722044,,,,,,,,,,,,,,,,,,,,,,,,,,,,,,,,,2015_Jun_30_1020,60.1203753739,LearningTask,1,68,
-200,a,-200,,,,,,,,,,,,,,,,,1,0,1,0,23,3,95,3,,,,,,,,,,,,,,,,,,,,,,,,,,,,,a,1,0.418125152588,None,0,1.0,invertedtrianglecyan.gif,go,,,,,,,,,,,,,,,,,,,,,,,,0.92,0.51357293129,0.000975847244263,0.418125152588,1,a,935.735901833,,,,,,,,,,,,,,,,,,,,,,,,,,,,,,,,,2015_Jun_30_1020,60.1203753739,LearningTask,1,68,
-200,a,-200,,,,,,,,,,,,,,,,,1,0,1,0,24,0,96,3,,,,,,,,,,,,,,,,,,,,,,,,,,,,,a,1,0.517200946808,None,0,4.0,lineorange.gif,go,,,,,,,,,,,,,,,,,,,,,,,,0,0.514222145081,0.000909090042114,0.517200946808,1,a,938.739125967,,,,,,,,,,,,,,,,,,,,,,,,,,,,,,,,,2015_Jun_30_1020,60.1203753739,LearningTask,1,68,
-200,a,-200,,,,,,,,,,,,,,,,,1,0,1,0,24,1,97,3,,,,,,,,,,,,,,,,,,,,,,,,,,,,,a,1,0.35102391243,None,0,2.0,diamondblue.gif,stop,,,,,,,,,,,,,,,,,,,,,,,,2.11,0.514123916626,0.0442187786102,0.35102391243,1,a,941.742385864,,,,,,,,,,,,,,,,,,,,,,,,,,,,,,,,,2015_Jun_30_1020,60.1203753739,LearningTask,1,68,
-200,q,200,,,,,,,,,,,,,,,,,1,0,1,0,24,2,98,1,,,,,,,,,,,,,,,,,,,,,,,,,,,,,q,1,0.35086607933,None,0,4.0,lineorange.gif,go,,,,,,,,,,,,,,,,,,,,,,,,3.95,0.514330863953,0.000880002975464,0.35086607933,1,q,944.745503902,,,,,,,,,,,,,,,,,,,,,,,,,,,,,,,,,2015_Jun_30_1020,60.1203753739,LearningTask,1,68,
200,s,-200,,,,,,,,,,,,,,,,,1,0,1,0,24,3,99,2,,,,,,,,,,,,,,,,,,,,,,,,,,,,,s,1,0.384260892868,None,0,2.0,diamondblue.gif,stop,,,,,,,,,,,,,,,,,,,,,,,,1.81,0.514615058899,0.000879049301147,0.384260892868,1,s,947.74958086,,,,,,,,,,,,,,,,,,,,,,,,,,,,,,,,,2015_Jun_30_1020,60.1203753739,LearningTask,1,68,
,,,,,,,,,,,,,,,,,,,1,0,1,0,,,,,,,,,,,,,,,,,,,,,,,,,,,,,,,,,,,,,,,,,,,,,,,,,,,,,,,,,,,,,,,,,,,,,,,,,,,,,,9,15.2921700478,,,,,,,,,,,,,,,,,,,,,,,,2015_Jun_30_1020,60.1203753739,LearningTask,1,68,
-200,a,-200,,,,,,,,,,,,,,,,,2,0,2,0,0,0,0,3,,,,,,,,,,,,,,,,,,,,,,,,,,,,,a,1,0.768759012222,None,0,2.0,diamondblue.gif,stop,,,,,,,,,,,,,,,,,,,,,,,,2.01,0.512872934341,0.000890970230103,0.768759012222,1,a,966.721724033,,,,,,,,,,,,,,,,,,,,,,,,,,,,,,,,,2015_Jun_30_1020,60.1203753739,LearningTask,1,68,
200,w,200,,,,,,,,,,,,,,,,,2,0,2,0,0,1,1,0,,,,,,,,,,,,,,,,,,,,,,,,,,,,,w,1,0.334604978561,None,0,1.0,invertedtrianglecyan.gif,go,,,,,,,,,,,,,,,,,,,,,,,,1.11,0.512697935104,0.000953912734985,0.334604978561,1,w,969.724052906,,,,,,,,,,,,,,,,,,,,,,,,,,,,,,,,,2015_Jun_30_1020,60.1203753739,LearningTask,1,68,
200,s,-200,,,,,,,,,,,,,,,,,2,0,2,0,0,2,2,2,,,,,,,,,,,,,,,,,,,,,,,,,,,,,s,1,0.350672006607,None,0,4.0,lineorange.gif,go,,,,,,,,,,,,,,,,,,,,,,,,3.79,0.514235973358,0.000879049301147,0.350672006607,1,s,972.727215052,,,,,,,,,,,,,,,,,,,,,,,,,,,,,,,,,2015_Jun_30_1020,60.1203753739,LearningTask,1,68,
200,w,200,,,,,,,,,,,,,,,,,2,0,2,0,0,3,3,0,,,,,,,,,,,,,,,,,,,,,,,,,,,,,w,1,0.400459051132,None,0,1.0,invertedtrianglecyan.gif,go,,,,,,,,,,,,,,,,,,,,,,,,0.99,0.513983011246,0.000983953475952,0.400459051132,1,w,975.730917931,,,,,,,,,,,,,,,,,,,,,,,,,,,,,,,,,2015_Jun_30_1020,60.1203753739,LearningTask,1,68,
-200,a,-200,,,,,,,,,,,,,,,,,2,0,2,0,1,0,4,3,,,,,,,,,,,,,,,,,,,,,,,,,,,,,a,1,0.434393882751,None,0,0.5,circleyellow.gif,stop,,,,,,,,,,,,,,,,,,,,,,,,0.67,0.513244152069,0.00979614257812,0.434393882751,1,a,978.734156847,,,,,,,,,,,,,,,,,,,,,,,,,,,,,,,,,2015_Jun_30_1020,60.1203753739,LearningTask,1,68,
-200,a,-200,,,,,,,,,,,,,,,,,2,0,2,0,1,1,5,3,,,,,,,,,,,,,,,,,,,,,,,,,,,,,a,1,0.367668151855,None,0,1.0,invertedtrianglecyan.gif,go,,,,,,,,,,,,,,,,,,,,,,,,0.98,0.513803005219,0.000885963439941,0.367668151855,1,a,981.737216949,,,,,,,,,,,,,,,,,,,,,,,,,,,,,,,,,2015_Jun_30_1020,60.1203753739,LearningTask,1,68,
200,s,-200,,,,,,,,,,,,,,,,,2,0,2,0,1,2,6,2,,,,,,,,,,,,,,,,,,,,,,,,,,,,,s,1,0.334033966064,None,0,0.5,squaregreen.gif,go,,,,,,,,,,,,,,,,,,,,,,,,0.33,0.513963937759,0.00592708587646,0.334033966064,1,s,984.741240978,,,,,,,,,,,,,,,,,,,,,,,,,,,,,,,,,2015_Jun_30_1020,60.1203753739,LearningTask,1,68,
200,s,-200,,,,,,,,,,,,,,,,,2,0,2,0,1,3,7,2,,,,,,,,,,,,,,,,,,,,,,,,,,,,,s,1,0.36761879921,None,0,2.0,diamondblue.gif,stop,,,,,,,,,,,,,,,,,,,,,,,,2.02,0.513530015945,0.00103116035461,0.36761879921,1,s,987.74386692,,,,,,,,,,,,,,,,,,,,,,,,,,,,,,,,,2015_Jun_30_1020,60.1203753739,LearningTask,1,68,
200,s,-200,,,,,,,,,,,,,,,,,2,0,2,0,2,0,8,2,,,,,,,,,,,,,,,,,,,,,,,,,,,,,s,1,0.367363929749,None,0,4.0,lineorange.gif,go,,,,,,,,,,,,,,,,,,,,,,,,4.19,0.514152050018,0.00110983848572,0.367363929749,1,s,990.747421026,,,,,,,,,,,,,,,,,,,,,,,,,,,,,,,,,2015_Jun_30_1020,60.1203753739,LearningTask,1,68,
200,s,-200,,,,,,,,,,,,,,,,,2,0,2,0,2,1,9,2,,,,,,,,,,,,,,,,,,,,,,,,,,,,,s,1,0.334271192551,None,0,1.0,crosswhite.gif,stop,,,,,,,,,,,,,,,,,,,,,,,,0.86,0.514167785645,0.00560283660889,0.334271192551,1,s,993.751245975,,,,,,,,,,,,,,,,,,,,,,,,,,,,,,,,,2015_Jun_30_1020,60.1203753739,LearningTask,1,68,
200,w,200,,,,,,,,,,,,,,,,,2,0,2,0,2,2,10,0,,,,,,,,,,,,,,,,,,,,,,,,,,,,,w,1,0.401293992996,None,0,1.0,invertedtrianglecyan.gif,go,,,,,,,,,,,,,,,,,,,,,,,,0,0.513245105743,0.00101494789124,0.401293992996,1,w,996.754052877,,,,,,,,,,,,,,,,,,,,,,,,,,,,,,,,,2015_Jun_30_1020,60.1203753739,LearningTask,1,68,
-200,a,-200,,,,,,,,,,,,,,,,,2,0,2,0,2,3,11,3,,,,,,,,,,,,,,,,,,,,,,,,,,,,,a,1,0.383727073669,None,0,2.0,hexagongray.gif,go,,,,,,,,,,,,,,,,,,,,,,,,2.11,0.514735937119,0.0109989643097,0.383727073669,1,a,999.757601976,,,,,,,,,,,,,,,,,,,,,,,,,,,,,,,,,2015_Jun_30_1020,60.1203753739,LearningTask,1,68,
-200,a,-200,,,,,,,,,,,,,,,,,2,0,2,0,3,0,12,3,,,,,,,,,,,,,,,,,,,,,,,,,,,,,a,1,0.367342948914,None,0,2.0,hexagongray.gif,go,,,,,,,,,,,,,,,,,,,,,,,,2.04,0.514039993286,0.000904083251953,0.367342948914,1,a,1002.76079488,,,,,,,,,,,,,,,,,,,,,,,,,,,,,,,,,2015_Jun_30_1020,60.1203753739,LearningTask,1,68,
-200,q,200,,,,,,,,,,,,,,,,,2,0,2,0,3,1,13,1,,,,,,,,,,,,,,,,,,,,,,,,,,,,,q,1,0.417583942413,None,0,0.5,squaregreen.gif,go,,,,,,,,,,,,,,,,,,,,,,,,0.5,0.514183044434,0.000876903533936,0.417583942413,1,q,1005.76412988,,,,,,,,,,,,,,,,,,,,,,,,,,,,,,,,,2015_Jun_30_1020,60.1203753739,LearningTask,1,68,
200,s,-200,,,,,,,,,,,,,,,,,2,0,2,0,3,2,14,2,,,,,,,,,,,,,,,,,,,,,,,,,,,,,s,1,0.334206104279,None,0,1.0,invertedtrianglecyan.gif,go,,,,,,,,,,,,,,,,,,,,,,,,1.07,0.513996124268,0.00123620033264,0.334206104279,1,s,1008.76741004,,,,,,,,,,,,,,,,,,,,,,,,,,,,,,,,,2015_Jun_30_1020,60.1203753739,LearningTask,1,68,
200,w,200,,,,,,,,,,,,,,,,,2,0,2,0,3,3,15,0,,,,,,,,,,,,,,,,,,,,,,,,,,,,,w,1,0.584675073624,None,0,1.0,crosswhite.gif,stop,,,,,,,,,,,,,,,,,,,,,,,,0.99,0.514508008957,0.000881195068359,0.584675073624,1,w,1011.77117085,,,,,,,,,,,,,,,,,,,,,,,,,,,,,,,,,2015_Jun_30_1020,60.1203753739,LearningTask,1,68,
-200,a,-200,,,,,,,,,,,,,,,,,2,0,2,0,4,0,16,3,,,,,,,,,,,,,,,,,,,,,,,,,,,,,a,1,0.384396076202,None,0,4.0,trianglemagenta.gif,stop,,,,,,,,,,,,,,,,,,,,,,,,4.07,0.513815879822,0.00703287124634,0.384396076202,1,a,1014.77446294,,,,,,,,,,,,,,,,,,,,,,,,,,,,,,,,,2015_Jun_30_1020,60.1203753739,LearningTask,1,68,
200,s,-200,,,,,,,,,,,,,,,,,2,0,2,0,4,1,17,2,,,,,,,,,,,,,,,,,,,,,,,,,,,,,s,1,0.433816194534,None,0,2.0,diamondblue.gif,stop,,,,,,,,,,,,,,,,,,,,,,,,0,0.513689041138,0.000940084457397,0.433816194534,1,s,1017.77758789,,,,,,,,,,,,,,,,,,,,,,,,,,,,,,,,,2015_Jun_30_1020,60.1203753739,LearningTask,1,68,
200,w,200,,,,,,,,,,,,,,,,,2,0,2,0,4,2,18,0,,,,,,,,,,,,,,,,,,,,,,,,,,,,,w,1,0.383900880814,None,0,0.5,circleyellow.gif,stop,,,,,,,,,,,,,,,,,,,,,,,,0,0.514510154724,0.00088095664978,0.383900880814,1,w,1020.78089905,,,,,,,,,,,,,,,,,,,,,,,,,,,,,,,,,2015_Jun_30_1020,60.1203753739,LearningTask,1,68,
200,s,-200,,,,,,,,,,,,,,,,,2,0,2,0,4,3,19,2,,,,,,,,,,,,,,,,,,,,,,,,,,,,,s,1,0.40075802803,None,0,0.5,circleyellow.gif,stop,,,,,,,,,,,,,,,,,,,,,,,,0.35,0.514250040054,0.000884056091309,0.40075802803,1,s,1023.78497386,,,,,,,,,,,,,,,,,,,,,,,,,,,,,,,,,2015_Jun_30_1020,60.1203753739,LearningTask,1,68,
-200,a,-200,,,,,,,,,,,,,,,,,2,0,2,0,5,0,20,3,,,,,,,,,,,,,,,,,,,,,,,,,,,,,a,1,0.401223182678,None,0,0.5,circleyellow.gif,stop,,,,,,,,,,,,,,,,,,,,,,,,0,0.513203859329,0.000934839248657,0.401223182678,1,a,1026.78799295,,,,,,,,,,,,,,,,,,,,,,,,,,,,,,,,,2015_Jun_30_1020,60.1203753739,LearningTask,1,68,
-200,q,200,,,,,,,,,,,,,,,,,2,0,2,0,5,1,21,1,,,,,,,,,,,,,,,,,,,,,,,,,,,,,q,1,0.434527158737,None,0,1.0,crosswhite.gif,stop,,,,,,,,,,,,,,,,,,,,,,,,0.8,0.513751983643,0.000888109207153,0.434527158737,1,q,1029.79112387,,,,,,,,,,,,,,,,,,,,,,,,,,,,,,,,,2015_Jun_30_1020,60.1203753739,LearningTask,1,68,
200,s,-200,,,,,,,,,,,,,,,,,2,0,2,0,5,2,22,2,,,,,,,,,,,,,,,,,,,,,,,,,,,,,s,1,0.384179830551,None,0,1.0,crosswhite.gif,stop,,,,,,,,,,,,,,,,,,,,,,,,1.2,0.514546871185,0.000882863998413,0.384179830551,1,s,1032.79468799,,,,,,,,,,,,,,,,,,,,,,,,,,,,,,,,,2015_Jun_30_1020,60.1203753739,LearningTask,1,68,
-200,q,200,,,,,,,,,,,,,,,,,2,0,2,0,5,3,23,1,,,,,,,,,,,,,,,,,,,,,,,,,,,,,q,1,0.351099967957,None,0,1.0,crosswhite.gif,stop,,,,,,,,,,,,,,,,,,,,,,,,0.79,0.513873815536,0.00092601776123,0.351099967957,1,q,1035.79760385,,,,,,,,,,,,,,,,,,,,,,,,,,,,,,,,,2015_Jun_30_1020,60.1203753739,LearningTask,1,68,
-200,q,200,,,,,,,,,,,,,,,,,2,0,2,0,6,0,24,1,,,,,,,,,,,,,,,,,,,,,,,,,,,,,q,1,0.384162187576,None,0,0.5,squaregreen.gif,go,,,,,,,,,,,,,,,,,,,,,,,,0.34,0.514278888702,0.000963926315308,0.384162187576,1,q,1038.801126,,,,,,,,,,,,,,,,,,,,,,,,,,,,,,,,,2015_Jun_30_1020,60.1203753739,LearningTask,1,68,
-200,a,-200,,,,,,,,,,,,,,,,,2,0,2,0,6,1,25,3,,,,,,,,,,,,,,,,,,,,,,,,,,,,,a,1,0.384074211121,None,0,1.0,crosswhite.gif,stop,,,,,,,,,,,,,,,,,,,,,,,,1.07,0.514093875885,0.00117993354797,0.384074211121,1,a,1041.80432987,,,,,,,,,,,,,,,,,,,,,,,,,,,,,,,,,2015_Jun_30_1020,60.1203753739,LearningTask,1,68,
-200,q,200,,,,,,,,,,,,,,,,,2,0,2,0,6,2,26,1,,,,,,,,,,,,,,,,,,,,,,,,,,,,,q,1,0.367612123489,None,0,1.0,invertedtrianglecyan.gif,go,,,,,,,,,,,,,,,,,,,,,,,,0,0.513967037201,0.000885009765625,0.367612123489,1,q,1044.8078959,,,,,,,,,,,,,,,,,,,,,,,,,,,,,,,,,2015_Jun_30_1020,60.1203753739,LearningTask,1,68,
-200,a,-200,,,,,,,,,,,,,,,,,2,0,2,0,6,3,27,3,,,,,,,,,,,,,,,,,,,,,,,,,,,,,a,1,0.417669773102,None,0,1.0,crosswhite.gif,stop,,,,,,,,,,,,,,,,,,,,,,,,1.02,0.513995885849,0.000940084457397,0.417669773102,1,a,1047.81125188,,,,,,,,,,,,,,,,,,,,,,,,,,,,,,,,,2015_Jun_30_1020,60.1203753739,LearningTask,1,68,
200,s,-200,,,,,,,,,,,,,,,,,2,0,2,0,7,0,28,2,,,,,,,,,,,,,,,,,,,,,,,,,,,,,s,1,0.434382915497,None,0,1.0,invertedtrianglecyan.gif,go,,,,,,,,,,,,,,,,,,,,,,,,0.78,0.514097213745,0.000900030136108,0.434382915497,1,s,1050.81437182,,,,,,,,,,,,,,,,,,,,,,,,,,,,,,,,,2015_Jun_30_1020,60.1203753739,LearningTask,1,68,
200,w,200,,,,,,,,,,,,,,,,,2,0,2,0,7,1,29,0,,,,,,,,,,,,,,,,,,,,,,,,,,,,,w,1,0.43408703804,None,0,4.0,trianglemagenta.gif,stop,,,,,,,,,,,,,,,,,,,,,,,,4.02,0.514543771744,0.000901937484741,0.43408703804,1,w,1053.81782484,,,,,,,,,,,,,,,,,,,,,,,,,,,,,,,,,2015_Jun_30_1020,60.1203753739,LearningTask,1,68,
-200,q,200,,,,,,,,,,,,,,,,,2,0,2,0,7,2,30,1,,,,,,,,,,,,,,,,,,,,,,,,,,,,,q,1,0.36748290062,None,0,4.0,lineorange.gif,go,,,,,,,,,,,,,,,,,,,,,,,,3.84,0.514012098312,0.000932931900024,0.36748290062,1,q,1056.8211,,,,,,,,,,,,,,,,,,,,,,,,,,,,,,,,,2015_Jun_30_1020,60.1203753739,LearningTask,1,68,
200,s,-200,,,,,,,,,,,,,,,,,2,0,2,0,7,3,31,2,,,,,,,,,,,,,,,,,,,,,,,,,,,,,s,1,0.384577035904,None,0,4.0,trianglemagenta.gif,stop,,,,,,,,,,,,,,,,,,,,,,,,4.13,0.513847827911,0.000944852828979,0.384577035904,1,s,1059.82466984,,,,,,,,,,,,,,,,,,,,,,,,,,,,,,,,,2015_Jun_30_1020,60.1203753739,LearningTask,1,68,
-200,a,-200,,,,,,,,,,,,,,,,,2,0,2,0,8,0,32,3,,,,,,,,,,,,,,,,,,,,,,,,,,,,,a,1,0.367383003235,None,0,1.0,invertedtrianglecyan.gif,go,,,,,,,,,,,,,,,,,,,,,,,,0,0.514095067978,0.000880002975464,0.367383003235,1,a,1062.82798791,,,,,,,,,,,,,,,,,,,,,,,,,,,,,,,,,2015_Jun_30_1020,60.1203753739,LearningTask,1,68,
200,s,-200,,,,,,,,,,,,,,,,,2,0,2,0,8,1,33,2,,,,,,,,,,,,,,,,,,,,,,,,,,,,,s,1,0.333822965622,None,0,0.5,squaregreen.gif,go,,,,,,,,,,,,,,,,,,,,,,,,0.72,0.514028072357,0.000904083251953,0.333822965622,1,s,1065.83113384,,,,,,,,,,,,,,,,,,,,,,,,,,,,,,,,,2015_Jun_30_1020,60.1203753739,LearningTask,1,68,
200,s,-200,,,,,,,,,,,,,,,,,2,0,2,0,8,2,34,2,,,,,,,,,,,,,,,,,,,,,,,,,,,,,s,1,0.351202011108,None,0,4.0,trianglemagenta.gif,stop,,,,,,,,,,,,,,,,,,,,,,,,0,0.51425909996,0.000887155532837,0.284363985062,0,w,1068.83472395,4.25,0.515051841736,0.000995874404907,0.351202011108,1,s,1071.83884287,,,,,,,,,,,,,,,,,,,,,,,,,,2015_Jun_30_1020,60.1203753739,LearningTask,1,68,
200,w,200,,,,,,,,,,,,,,,,,2,0,2,0,8,3,35,0,,,,,,,,,,,,,,,,,,,,,,,,,,,,,w,1,0.417593955994,None,0,0.5,circleyellow.gif,stop,,,,,,,,,,,,,,,,,,,,,,,,0.5,0.513067960739,0.000936985015869,0.417593955994,1,w,1074.84175801,,,,,,,,,,,,,,,,,,,,,,,,,,,,,,,,,2015_Jun_30_1020,60.1203753739,LearningTask,1,68,
-200,a,-200,,,,,,,,,,,,,,,,,2,0,2,0,9,0,36,3,,,,,,,,,,,,,,,,,,,,,,,,,,,,,a,1,0.400449991226,None,0,2.0,diamondblue.gif,stop,,,,,,,,,,,,,,,,,,,,,,,,1.89,0.51428604126,0.000916957855225,0.400449991226,1,a,1077.84469295,,,,,,,,,,,,,,,,,,,,,,,,,,,,,,,,,2015_Jun_30_1020,60.1203753739,LearningTask,1,68,
200,s,-200,,,,,,,,,,,,,,,,,2,0,2,0,9,1,37,2,,,,,,,,,,,,,,,,,,,,,,,,,,,,,s,1,0.334452152252,None,0,4.0,trianglemagenta.gif,stop,,,,,,,,,,,,,,,,,,,,,,,,3.97,0.514446020126,0.000935077667236,0.334452152252,1,s,1080.84815884,,,,,,,,,,,,,,,,,,,,,,,,,,,,,,,,,2015_Jun_30_1020,60.1203753739,LearningTask,1,68,
-200,a,-200,,,,,,,,,,,,,,,,,2,0,2,0,9,2,38,3,,,,,,,,,,,,,,,,,,,,,,,,,,,,,a,1,0.451070070267,None,0,2.0,hexagongray.gif,go,,,,,,,,,,,,,,,,,,,,,,,,2.1,0.514034032822,0.000962018966675,0.451070070267,1,a,1083.85126686,,,,,,,,,,,,,,,,,,,,,,,,,,,,,,,,,2015_Jun_30_1020,60.1203753739,LearningTask,1,68,
200,w,200,,,,,,,,,,,,,,,,,2,0,2,0,9,3,39,0,,,,,,,,,,,,,,,,,,,,,,,,,,,,,w,1,0.45095705986,None,0,2.0,diamondblue.gif,stop,,,,,,,,,,,,,,,,,,,,,,,,2.23,0.514668941498,0.000882863998413,0.45095705986,1,w,1086.85458684,,,,,,,,,,,,,,,,,,,,,,,,,,,,,,,,,2015_Jun_30_1020,60.1203753739,LearningTask,1,68,
200,w,200,,,,,,,,,,,,,,,,,2,0,2,0,10,0,40,0,,,,,,,,,,,,,,,,,,,,,,,,,,,,,w,1,0.450985193253,None,0,0.5,squaregreen.gif,go,,,,,,,,,,,,,,,,,,,,,,,,0.66,0.514424800873,0.000895977020264,0.450985193253,1,w,1089.85809302,,,,,,,,,,,,,,,,,,,,,,,,,,,,,,,,,2015_Jun_30_1020,60.1203753739,LearningTask,1,68,
-200,q,200,,,,,,,,,,,,,,,,,2,0,2,0,10,1,41,1,,,,,,,,,,,,,,,,,,,,,,,,,,,,,q,1,0.384661912918,None,0,4.0,trianglemagenta.gif,stop,,,,,,,,,,,,,,,,,,,,,,,,0,0.513943910599,0.000895977020264,0.5012819767,0,w,1092.86141896,3.96,0.515616178513,0.000946044921875,0.384661912918,1,q,1095.86496091,,,,,,,,,,,,,,,,,,,,,,,,,,2015_Jun_30_1020,60.1203753739,LearningTask,1,68,
-200,q,200,,,,,,,,,,,,,,,,,2,0,2,0,10,2,42,1,,,,,,,,,,,,,,,,,,,,,,,,,,,,,q,1,0.384123086929,None,0,4.0,lineorange.gif,go,,,,,,,,,,,,,,,,,,,,,,,,3.89,0.514245986938,0.000881910324097,0.384123086929,1,q,1098.86869693,,,,,,,,,,,,,,,,,,,,,,,,,,,,,,,,,2015_Jun_30_1020,60.1203753739,LearningTask,1,68,
200,w,200,,,,,,,,,,,,,,,,,2,0,2,0,10,3,43,0,,,,,,,,,,,,,,,,,,,,,,,,,,,,,w,1,0.400737047195,None,0,0.5,circleyellow.gif,stop,,,,,,,,,,,,,,,,,,,,,,,,0,0.513608932495,0.00092887878418,0.400737047195,1,w,1101.87152004,,,,,,,,,,,,,,,,,,,,,,,,,,,,,,,,,2015_Jun_30_1020,60.1203753739,LearningTask,1,68,
200,w,200,,,,,,,,,,,,,,,,,2,0,2,0,11,0,44,0,,,,,,,,,,,,,,,,,,,,,,,,,,,,,w,1,0.400801181793,None,0,1.0,invertedtrianglecyan.gif,go,,,,,,,,,,,,,,,,,,,,,,,,0.85,0.514141082764,0.000974178314209,0.400801181793,1,w,1104.87480187,,,,,,,,,,,,,,,,,,,,,,,,,,,,,,,,,2015_Jun_30_1020,60.1203753739,LearningTask,1,68,
-200,q,200,,,,,,,,,,,,,,,,,2,0,2,0,11,1,45,1,,,,,,,,,,,,,,,,,,,,,,,,,,,,,q,1,0.417537927628,None,0,4.0,lineorange.gif,go,,,,,,,,,,,,,,,,,,,,,,,,4.1,0.514279842377,0.000880002975464,0.417537927628,1,q,1107.87855005,,,,,,,,,,,,,,,,,,,,,,,,,,,,,,,,,2015_Jun_30_1020,60.1203753739,LearningTask,1,68,
-200,q,200,,,,,,,,,,,,,,,,,2,0,2,0,11,2,46,1,,,,,,,,,,,,,,,,,,,,,,,,,,,,,q,1,0.384012937546,None,0,1.0,invertedtrianglecyan.gif,go,,,,,,,,,,,,,,,,,,,,,,,,0.8,0.514163970947,0.000895977020264,0.384012937546,1,q,1110.881814,,,,,,,,,,,,,,,,,,,,,,,,,,,,,,,,,2015_Jun_30_1020,60.1203753739,LearningTask,1,68,
200,s,-200,,,,,,,,,,,,,,,,,2,0,2,0,11,3,47,2,,,,,,,,,,,,,,,,,,,,,,,,,,,,,s,1,0.434272050858,None,0,0.5,squaregreen.gif,go,,,,,,,,,,,,,,,,,,,,,,,,0.26,0.513794898987,0.000916957855225,0.434272050858,1,s,1113.88491583,,,,,,,,,,,,,,,,,,,,,,,,,,,,,,,,,2015_Jun_30_1020,60.1203753739,LearningTask,1,68,
200,s,-200,,,,,,,,,,,,,,,,,2,0,2,0,12,0,48,2,,,,,,,,,,,,,,,,,,,,,,,,,,,,,s,1,0.467442989349,None,0,4.0,trianglemagenta.gif,stop,,,,,,,,,,,,,,,,,,,,,,,,0,0.514332056046,0.000903129577637,0.467442989349,1,s,1116.88843203,,,,,,,,,,,,,,,,,,,,,,,,,,,,,,,,,2015_Jun_30_1020,60.1203753739,LearningTask,1,68,
200,s,-200,,,,,,,,,,,,,,,,,2,0,2,0,12,1,49,2,,,,,,,,,,,,,,,,,,,,,,,,,,,,,s,1,0.401110172272,None,0,0.5,circleyellow.gif,stop,,,,,,,,,,,,,,,,,,,,,,,,0.32,0.514039993286,0.000908136367798,0.401110172272,1,s,1119.89191294,,,,,,,,,,,,,,,,,,,,,,,,,,,,,,,,,2015_Jun_30_1020,60.1203753739,LearningTask,1,68,
-200,q,200,,,,,,,,,,,,,,,,,2,0,2,0,12,2,50,1,,,,,,,,,,,,,,,,,,,,,,,,,,,,,q,1,0.417891979218,None,0,0.5,squaregreen.gif,go,,,,,,,,,,,,,,,,,,,,,,,,0.56,0.513657093048,0.000936985015869,0.417891979218,1,q,1122.89488101,,,,,,,,,,,,,,,,,,,,,,,,,,,,,,,,,2015_Jun_30_1020,60.1203753739,LearningTask,1,68,
-200,a,-200,,,,,,,,,,,,,,,,,2,0,2,0,12,3,51,3,,,,,,,,,,,,,,,,,,,,,,,,,,,,,a,1,0.717568874359,None,0,4.0,trianglemagenta.gif,stop,,,,,,,,,,,,,,,,,,,,,,,,3.84,0.514617919922,0.000900983810425,0.717568874359,1,a,1125.89837003,,,,,,,,,,,,,,,,,,,,,,,,,,,,,,,,,2015_Jun_30_1020,60.1203753739,LearningTask,1,68,
200,s,-200,,,,,,,,,,,,,,,,,2,0,2,0,13,0,52,2,,,,,,,,,,,,,,,,,,,,,,,,,,,,,s,1,0.534600973129,None,0,4.0,trianglemagenta.gif,stop,,,,,,,,,,,,,,,,,,,,,,,,3.76,0.514254808426,0.000902891159058,0.534600973129,1,s,1128.90205884,,,,,,,,,,,,,,,,,,,,,,,,,,,,,,,,,2015_Jun_30_1020,60.1203753739,LearningTask,1,68,
200,w,200,,,,,,,,,,,,,,,,,2,0,2,0,13,1,53,0,,,,,,,,,,,,,,,,,,,,,,,,,,,,,w,1,0.584575891495,None,0,0.5,squaregreen.gif,go,,,,,,,,,,,,,,,,,,,,,,,,0.38,0.513690948486,0.000897884368896,0.584575891495,1,w,1131.90508699,,,,,,,,,,,,,,,,,,,,,,,,,,,,,,,,,2015_Jun_30_1020,60.1203753739,LearningTask,1,68,
200,s,-200,,,,,,,,,,,,,,,,,2,0,2,0,13,2,54,2,,,,,,,,,,,,,,,,,,,,,,,,,,,,,s,1,0.651417016983,None,0,0.5,circleyellow.gif,stop,,,,,,,,,,,,,,,,,,,,,,,,0.75,0.514324188232,0.000909090042114,0.651417016983,1,s,1134.90839195,,,,,,,,,,,,,,,,,,,,,,,,,,,,,,,,,2015_Jun_30_1020,60.1203753739,LearningTask,1,68,
-200,a,-200,,,,,,,,,,,,,,,,,2,0,2,0,13,3,55,3,,,,,,,,,,,,,,,,,,,,,,,,,,,,,a,1,0.65119099617,None,0,1.0,crosswhite.gif,stop,,,,,,,,,,,,,,,,,,,,,,,,0.98,0.514206886292,0.000899791717529,0.65119099617,1,a,1137.91205788,,,,,,,,,,,,,,,,,,,,,,,,,,,,,,,,,2015_Jun_30_1020,60.1203753739,LearningTask,1,68,
-200,a,-200,,,,,,,,,,,,,,,,,2,0,2,0,14,0,56,3,,,,,,,,,,,,,,,,,,,,,,,,,,,,,a,1,0.434653043747,None,0,2.0,diamondblue.gif,stop,,,,,,,,,,,,,,,,,,,,,,,,0,0.513664960861,0.000885963439941,0.434653043747,1,a,1140.91514587,,,,,,,,,,,,,,,,,,,,,,,,,,,,,,,,,2015_Jun_30_1020,60.1203753739,LearningTask,1,68,
-200,a,-200,,,,,,,,,,,,,,,,,2,0,2,0,14,1,57,3,,,,,,,,,,,,,,,,,,,,,,,,,,,,,a,1,0.518124818802,None,0,2.0,hexagongray.gif,go,,,,,,,,,,,,,,,,,,,,,,,,1.89,0.514051914215,0.00108909606934,0.518124818802,1,a,1143.91869903,,,,,,,,,,,,,,,,,,,,,,,,,,,,,,,,,2015_Jun_30_1020,60.1203753739,LearningTask,1,68,
200,w,200,,,,,,,,,,,,,,,,,2,0,2,0,14,2,58,0,,,,,,,,,,,,,,,,,,,,,,,,,,,,,w,1,0.467540979385,None,0,4.0,lineorange.gif,go,,,,,,,,,,,,,,,,,,,,,,,,3.87,0.514094114304,0.00088095664978,0.467540979385,1,w,1146.92190599,,,,,,,,,,,,,,,,,,,,,,,,,,,,,,,,,2015_Jun_30_1020,60.1203753739,LearningTask,1,68,
-200,a,-200,,,,,,,,,,,,,,,,,2,0,2,0,14,3,59,3,,,,,,,,,,,,,,,,,,,,,,,,,,,,,a,1,0.451289892197,None,0,4.0,trianglemagenta.gif,stop,,,,,,,,,,,,,,,,,,,,,,,,4.15,0.514260053635,0.00114488601685,0.451289892197,1,a,1149.92525887,,,,,,,,,,,,,,,,,,,,,,,,,,,,,,,,,2015_Jun_30_1020,60.1203753739,LearningTask,1,68,
200,w,200,,,,,,,,,,,,,,,,,2,0,2,0,15,0,60,0,,,,,,,,,,,,,,,,,,,,,,,,,,,,,w,1,0.450876951218,None,0,1.0,invertedtrianglecyan.gif,go,,,,,,,,,,,,,,,,,,,,,,,,1.02,0.514446020126,0.000925064086914,0.450876951218,1,w,1152.92859697,,,,,,,,,,,,,,,,,,,,,,,,,,,,,,,,,2015_Jun_30_1020,60.1203753739,LearningTask,1,68,
-200,a,-200,,,,,,,,,,,,,,,,,2,0,2,0,15,1,61,3,,,,,,,,,,,,,,,,,,,,,,,,,,,,,a,1,0.417973041534,None,0,2.0,hexagongray.gif,go,,,,,,,,,,,,,,,,,,,,,,,,2.12,0.514400959015,0.000894069671631,0.417973041534,1,a,1155.93211293,,,,,,,,,,,,,,,,,,,,,,,,,,,,,,,,,2015_Jun_30_1020,60.1203753739,LearningTask,1,68,
-200,a,-200,,,,,,,,,,,,,,,,,2,0,2,0,15,2,62,3,,,,,,,,,,,,,,,,,,,,,,,,,,,,,a,1,0.417269945145,None,0,4.0,trianglemagenta.gif,stop,,,,,,,,,,,,,,,,,,,,,,,,0,0.514400959015,0.000898122787476,0.417269945145,1,a,1158.93533397,,,,,,,,,,,,,,,,,,,,,,,,,,,,,,,,,2015_Jun_30_1020,60.1203753739,LearningTask,1,68,
200,w,200,,,,,,,,,,,,,,,,,2,0,2,0,15,3,63,0,,,,,,,,,,,,,,,,,,,,,,,,,,,,,w,1,0.534448862076,None,0,2.0,hexagongray.gif,go,,,,,,,,,,,,,,,,,,,,,,,,0,0.514188051224,0.000900983810425,0.534448862076,1,w,1161.938586,,,,,,,,,,,,,,,,,,,,,,,,,,,,,,,,,2015_Jun_30_1020,60.1203753739,LearningTask,1,68,
200,w,200,,,,,,,,,,,,,,,,,2,0,2,0,16,0,64,0,,,,,,,,,,,,,,,,,,,,,,,,,,,,,w,1,0.484483957291,None,0,2.0,diamondblue.gif,stop,,,,,,,,,,,,,,,,,,,,,,,,2.19,0.514488935471,0.000901937484741,0.484483957291,1,w,1164.94222498,,,,,,,,,,,,,,,,,,,,,,,,,,,,,,,,,2015_Jun_30_1020,60.1203753739,LearningTask,1,68,
-200,a,-200,,,,,,,,,,,,,,,,,2,0,2,0,16,1,65,3,,,,,,,,,,,,,,,,,,,,,,,,,,,,,a,1,0.450834989548,None,0,2.0,hexagongray.gif,go,,,,,,,,,,,,,,,,,,,,,,,,1.99,0.514059066772,0.000905990600586,0.450834989548,1,a,1167.94550705,,,,,,,,,,,,,,,,,,,,,,,,,,,,,,,,,2015_Jun_30_1020,60.1203753739,LearningTask,1,68,
-200,q,200,,,,,,,,,,,,,,,,,2,0,2,0,16,2,66,1,,,,,,,,,,,,,,,,,,,,,,,,,,,,,q,1,0.401237010956,None,0,0.5,squaregreen.gif,go,,,,,,,,,,,,,,,,,,,,,,,,0.6,0.514376878738,0.000931978225708,0.401237010956,1,q,1170.94964695,,,,,,,,,,,,,,,,,,,,,,,,,,,,,,,,,2015_Jun_30_1020,60.1203753739,LearningTask,1,68,
-200,q,200,,,,,,,,,,,,,,,,,2,0,2,0,16,3,67,1,,,,,,,,,,,,,,,,,,,,,,,,,,,,,q,1,0.417759895325,None,0,4.0,trianglemagenta.gif,stop,,,,,,,,,,,,,,,,,,,,,,,,0,0.513360977173,0.000916957855225,0.417759895325,1,q,1173.95219302,,,,,,,,,,,,,,,,,,,,,,,,,,,,,,,,,2015_Jun_30_1020,60.1203753739,LearningTask,1,68,
200,w,200,,,,,,,,,,,,,,,,,2,0,2,0,17,0,68,0,,,,,,,,,,,,,,,,,,,,,,,,,,,,,w,1,0.483912944794,None,0,2.0,hexagongray.gif,go,,,,,,,,,,,,,,,,,,,,,,,,1.92,0.514346122742,0.000890016555786,0.483912944794,1,w,1176.95542288,,,,,,,,,,,,,,,,,,,,,,,,,,,,,,,,,2015_Jun_30_1020,60.1203753739,LearningTask,1,68,
-200,q,200,,,,,,,,,,,,,,,,,2,0,2,0,17,1,69,1,,,,,,,,,,,,,,,,,,,,,,,,,,,,,q,1,0.451001882553,None,0,4.0,trianglemagenta.gif,stop,,,,,,,,,,,,,,,,,,,,,,,,3.95,0.514027118683,0.000925064086914,0.451001882553,1,q,1179.95936203,,,,,,,,,,,,,,,,,,,,,,,,,,,,,,,,,2015_Jun_30_1020,60.1203753739,LearningTask,1,68,
-200,q,200,,,,,,,,,,,,,,,,,2,0,2,0,17,2,70,1,,,,,,,,,,,,,,,,,,,,,,,,,,,,,q,1,0.400869846344,None,0,1.0,invertedtrianglecyan.gif,go,,,,,,,,,,,,,,,,,,,,,,,,0.83,0.513957977295,0.000885009765625,0.400869846344,1,q,1182.96245193,,,,,,,,,,,,,,,,,,,,,,,,,,,,,,,,,2015_Jun_30_1020,60.1203753739,LearningTask,1,68,
200,s,-200,,,,,,,,,,,,,,,,,2,0,2,0,17,3,71,2,,,,,,,,,,,,,,,,,,,,,,,,,,,,,s,1,0.384279966354,None,0,0.5,squaregreen.gif,go,,,,,,,,,,,,,,,,,,,,,,,,0.51,0.513854980469,0.000882863998413,0.384279966354,1,s,1185.96546483,,,,,,,,,,,,,,,,,,,,,,,,,,,,,,,,,2015_Jun_30_1020,60.1203753739,LearningTask,1,68,
200,w,200,,,,,,,,,,,,,,,,,2,0,2,0,18,0,72,0,,,,,,,,,,,,,,,,,,,,,,,,,,,,,w,1,0.568199157715,None,0,2.0,diamondblue.gif,stop,,,,,,,,,,,,,,,,,,,,,,,,1.99,0.5141248703,0.00089693069458,0.568199157715,1,w,1188.96898603,,,,,,,,,,,,,,,,,,,,,,,,,,,,,,,,,2015_Jun_30_1020,60.1203753739,LearningTask,1,68,
200,s,-200,,,,,,,,,,,,,,,,,2,0,2,0,18,1,73,2,,,,,,,,,,,,,,,,,,,,,,,,,,,,,s,1,0.450700998306,None,0,1.0,crosswhite.gif,stop,,,,,,,,,,,,,,,,,,,,,,,,0.86,0.514230966568,0.000885963439941,0.450700998306,1,s,1191.97216892,,,,,,,,,,,,,,,,,,,,,,,,,,,,,,,,,2015_Jun_30_1020,60.1203753739,LearningTask,1,68,
-200,a,-200,,,,,,,,,,,,,,,,,2,0,2,0,18,2,74,3,,,,,,,,,,,,,,,,,,,,,,,,,,,,,a,1,0.517478942871,None,0,4.0,lineorange.gif,go,,,,,,,,,,,,,,,,,,,,,,,,4.19,0.514423131943,0.000998020172119,0.517478942871,1,a,1194.97589803,,,,,,,,,,,,,,,,,,,,,,,,,,,,,,,,,2015_Jun_30_1020,60.1203753739,LearningTask,1,68,
-200,q,200,,,,,,,,,,,,,,,,,2,0,2,0,18,3,75,1,,,,,,,,,,,,,,,,,,,,,,,,,,,,,q,1,0.517707109451,None,0,2.0,hexagongray.gif,go,,,,,,,,,,,,,,,,,,,,,,,,2.22,0.514142990112,0.000915050506592,0.517707109451,1,q,1197.97895193,,,,,,,,,,,,,,,,,,,,,,,,,,,,,,,,,2015_Jun_30_1020,60.1203753739,LearningTask,1,68,
-200,q,200,,,,,,,,,,,,,,,,,2,0,2,0,19,0,76,1,,,,,,,,,,,,,,,,,,,,,,,,,,,,,q,1,0.584450960159,None,0,1.0,invertedtrianglecyan.gif,go,,,,,,,,,,,,,,,,,,,,,,,,1.22,0.514339923859,0.000885009765625,0.584450960159,1,q,1200.98261595,,,,,,,,,,,,,,,,,,,,,,,,,,,,,,,,,2015_Jun_30_1020,60.1203753739,LearningTask,1,68,
-200,q,200,,,,,,,,,,,,,,,,,2,0,2,0,19,1,77,1,,,,,,,,,,,,,,,,,,,,,,,,,,,,,q,1,0.501044988632,None,0,0.5,squaregreen.gif,go,,,,,,,,,,,,,,,,,,,,,,,,0.5,0.513799905777,0.000914812088013,0.501044988632,1,q,1203.98579001,,,,,,,,,,,,,,,,,,,,,,,,,,,,,,,,,2015_Jun_30_1020,60.1203753739,LearningTask,1,68,
-200,a,-200,,,,,,,,,,,,,,,,,2,0,2,0,19,2,78,3,,,,,,,,,,,,,,,,,,,,,,,,,,,,,a,1,0.617547988892,None,0,0.5,circleyellow.gif,stop,,,,,,,,,,,,,,,,,,,,,,,,0.38,0.514216184616,0.00091814994812,0.617547988892,1,a,1206.98911691,,,,,,,,,,,,,,,,,,,,,,,,,,,,,,,,,2015_Jun_30_1020,60.1203753739,LearningTask,1,68,
200,w,200,,,,,,,,,,,,,,,,,2,0,2,0,19,3,79,0,,,,,,,,,,,,,,,,,,,,,,,,,,,,,w,1,0.734572172165,None,0,2.0,diamondblue.gif,stop,,,,,,,,,,,,,,,,,,,,,,,,2.15,0.514511823654,0.000883817672729,0.734572172165,1,w,1209.992311,,,,,,,,,,,,,,,,,,,,,,,,,,,,,,,,,2015_Jun_30_1020,60.1203753739,LearningTask,1,68,
-200,a,-200,,,,,,,,,,,,,,,,,2,0,2,0,20,0,80,3,,,,,,,,,,,,,,,,,,,,,,,,,,,,,a,1,0.650767803192,None,0,4.0,lineorange.gif,go,,,,,,,,,,,,,,,,,,,,,,,,3.89,0.514545917511,0.000926971435547,0.650767803192,1,a,1212.99582791,,,,,,,,,,,,,,,,,,,,,,,,,,,,,,,,,2015_Jun_30_1020,60.1203753739,LearningTask,1,68,
200,s,-200,,,,,,,,,,,,,,,,,2,0,2,0,20,1,81,2,,,,,,,,,,,,,,,,,,,,,,,,,,,,,s,1,0.668186903,None,0,1.0,crosswhite.gif,stop,,,,,,,,,,,,,,,,,,,,,,,,1.2,0.514261007309,0.000883817672729,0.668186903,1,s,1215.99895692,,,,,,,,,,,,,,,,,,,,,,,,,,,,,,,,,2015_Jun_30_1020,60.1203753739,LearningTask,1,68,
200,w,200,,,,,,,,,,,,,,,,,2,0,2,0,20,2,82,0,,,,,,,,,,,,,,,,,,,,,,,,,,,,,w,1,0.601230859756,None,0,1.0,crosswhite.gif,stop,,,,,,,,,,,,,,,,,,,,,,,,0,0.514451980591,0.000960826873779,0.601230859756,1,w,1219.00319695,,,,,,,,,,,,,,,,,,,,,,,,,,,,,,,,,2015_Jun_30_1020,60.1203753739,LearningTask,1,68,
200,w,200,,,,,,,,,,,,,,,,,2,0,2,0,20,3,83,0,,,,,,,,,,,,,,,,,,,,,,,,,,,,,w,1,0.50060915947,None,0,2.0,hexagongray.gif,go,,,,,,,,,,,,,,,,,,,,,,,,2.04,0.513362884521,0.00089693069458,0.50060915947,1,w,1222.00589705,,,,,,,,,,,,,,,,,,,,,,,,,,,,,,,,,2015_Jun_30_1020,60.1203753739,LearningTask,1,68,
200,s,-200,,,,,,,,,,,,,,,,,2,0,2,0,21,0,84,2,,,,,,,,,,,,,,,,,,,,,,,,,,,,,s,1,0.501303911209,None,0,0.5,squaregreen.gif,go,,,,,,,,,,,,,,,,,,,,,,,,0,0.514178037643,0.00088095664978,0.501303911209,1,s,1225.00913405,,,,,,,,,,,,,,,,,,,,,,,,,,,,,,,,,2015_Jun_30_1020,60.1203753739,LearningTask,1,68,
-200,q,200,,,,,,,,,,,,,,,,,2,0,2,0,21,1,85,1,,,,,,,,,,,,,,,,,,,,,,,,,,,,,q,1,0.501531839371,None,0,0.5,circleyellow.gif,stop,,,,,,,,,,,,,,,,,,,,,,,,0,0.514267921448,0.00094199180603,0.501531839371,1,q,1228.01279497,,,,,,,,,,,,,,,,,,,,,,,,,,,,,,,,,2015_Jun_30_1020,60.1203753739,LearningTask,1,68,
200,w,200,,,,,,,,,,,,,,,,,2,0,2,0,21,2,86,0,,,,,,,,,,,,,,,,,,,,,,,,,,,,,w,1,0.48494887352,None,0,4.0,trianglemagenta.gif,stop,,,,,,,,,,,,,,,,,,,,,,,,4.07,0.513745069504,0.00088095664978,0.48494887352,1,w,1231.01588702,,,,,,,,,,,,,,,,,,,,,,,,,,,,,,,,,2015_Jun_30_1020,60.1203753739,LearningTask,1,68,
200,w,200,,,,,,,,,,,,,,,,,2,0,2,0,21,3,87,0,,,,,,,,,,,,,,,,,,,,,,,,,,,,,w,1,0.367776870728,None,0,1.0,invertedtrianglecyan.gif,go,,,,,,,,,,,,,,,,,,,,,,,,0,0.514381170273,0.000880002975464,0.584326028824,0,s,1234.01929283,1.02,0.515524148941,0.0010290145874,0.367776870728,1,w,1237.02272487,,,,,,,,,,,,,,,,,,,,,,,,,,2015_Jun_30_1020,60.1203753739,LearningTask,1,68,
-200,a,-200,,,,,,,,,,,,,,,,,2,0,2,0,22,0,88,3,,,,,,,,,,,,,,,,,,,,,,,,,,,,,a,1,0.634953975677,None,0,2.0,hexagongray.gif,go,,,,,,,,,,,,,,,,,,,,,,,,2.01,0.513946056366,0.000895977020264,0.634953975677,1,a,1240.02605796,,,,,,,,,,,,,,,,,,,,,,,,,,,,,,,,,2015_Jun_30_1020,60.1203753739,LearningTask,1,68,
-200,q,200,,,,,,,,,,,,,,,,,2,0,2,0,22,1,89,1,,,,,,,,,,,,,,,,,,,,,,,,,,,,,q,1,0.417324066162,None,0,0.5,squaregreen.gif,go,,,,,,,,,,,,,,,,,,,,,,,,0.42,0.514154911041,0.000982046127319,0.417324066162,1,q,1243.02901292,,,,,,,,,,,,,,,,,,,,,,,,,,,,,,,,,2015_Jun_30_1020,60.1203753739,LearningTask,1,68,
200,w,200,,,,,,,,,,,,,,,,,2,0,2,0,22,2,90,0,,,,,,,,,,,,,,,,,,,,,,,,,,,,,w,1,0.634884119034,None,0,4.0,lineorange.gif,go,,,,,,,,,,,,,,,,,,,,,,,,0,0.514496088028,0.00088095664978,0.634884119034,1,w,1246.03273797,,,,,,,,,,,,,,,,,,,,,,,,,,,,,,,,,2015_Jun_30_1020,60.1203753739,LearningTask,1,68,
-200,q,200,,,,,,,,,,,,,,,,,2,0,2,0,22,3,91,1,,,,,,,,,,,,,,,,,,,,,,,,,,,,,q,1,0.434175014496,None,0,4.0,lineorange.gif,go,,,,,,,,,,,,,,,,,,,,,,,,3.75,0.514382839203,0.000894069671631,0.434175014496,1,q,1249.03594804,,,,,,,,,,,,,,,,,,,,,,,,,,,,,,,,,2015_Jun_30_1020,60.1203753739,LearningTask,1,68,
-200,q,200,,,,,,,,,,,,,,,,,2,0,2,0,23,0,92,1,,,,,,,,,,,,,,,,,,,,,,,,,,,,,q,1,0.500972986221,None,0,4.0,trianglemagenta.gif,stop,,,,,,,,,,,,,,,,,,,,,,,,4.02,0.514133930206,0.00108194351196,0.500972986221,1,q,1252.03951883,,,,,,,,,,,,,,,,,,,,,,,,,,,,,,,,,2015_Jun_30_1020,60.1203753739,LearningTask,1,68,
-200,q,200,,,,,,,,,,,,,,,,,2,0,2,0,23,1,93,1,,,,,,,,,,,,,,,,,,,,,,,,,,,,,q,1,0.751049995422,None,0,1.0,crosswhite.gif,stop,,,,,,,,,,,,,,,,,,,,,,,,1.08,0.514303207397,0.000886201858521,0.751049995422,1,q,1255.04329205,,,,,,,,,,,,,,,,,,,,,,,,,,,,,,,,,2015_Jun_30_1020,60.1203753739,LearningTask,1,68,
200,w,200,,,,,,,,,,,,,,,,,2,0,2,0,23,2,94,0,,,,,,,,,,,,,,,,,,,,,,,,,,,,,w,1,0.518013954163,None,0,1.0,invertedtrianglecyan.gif,go,,,,,,,,,,,,,,,,,,,,,,,,1.11,0.513789176941,0.000953197479248,0.518013954163,1,w,1258.04599285,,,,,,,,,,,,,,,,,,,,,,,,,,,,,,,,,2015_Jun_30_1020,60.1203753739,LearningTask,1,68,
-200,q,200,,,,,,,,,,,,,,,,,2,0,2,0,23,3,95,1,,,,,,,,,,,,,,,,,,,,,,,,,,,,,q,1,0.58474111557,None,0,0.5,squaregreen.gif,go,,,,,,,,,,,,,,,,,,,,,,,,0.64,0.514256954193,0.000911951065063,0.58474111557,1,q,1261.04951692,,,,,,,,,,,,,,,,,,,,,,,,,,,,,,,,,2015_Jun_30_1020,60.1203753739,LearningTask,1,68,
-200,q,200,,,,,,,,,,,,,,,,,2,0,2,0,24,0,96,1,,,,,,,,,,,,,,,,,,,,,,,,,,,,,q,1,0.60099196434,None,0,0.5,circleyellow.gif,stop,,,,,,,,,,,,,,,,,,,,,,,,0,0.514137029648,0.000910043716431,0.60099196434,1,q,1264.05272603,,,,,,,,,,,,,,,,,,,,,,,,,,,,,,,,,2015_Jun_30_1020,60.1203753739,LearningTask,1,68,
-200,a,-200,,,,,,,,,,,,,,,,,2,0,2,0,24,1,97,3,,,,,,,,,,,,,,,,,,,,,,,,,,,,,a,1,0.718659877777,None,0,2.0,hexagongray.gif,go,,,,,,,,,,,,,,,,,,,,,,,,2.24,0.514295101166,0.000910997390747,0.718659877777,1,a,1267.05694485,,,,,,,,,,,,,,,,,,,,,,,,,,,,,,,,,2015_Jun_30_1020,60.1203753739,LearningTask,1,68,
200,s,-200,,,,,,,,,,,,,,,,,2,0,2,0,24,2,98,2,,,,,,,,,,,,,,,,,,,,,,,,,,,,,s,1,0.617771863937,None,0,4.0,trianglemagenta.gif,stop,,,,,,,,,,,,,,,,,,,,,,,,3.76,0.513374090195,0.000918865203857,0.617771863937,1,s,1270.05949998,,,,,,,,,,,,,,,,,,,,,,,,,,,,,,,,,2015_Jun_30_1020,60.1203753739,LearningTask,1,68,
200,s,-200,,,,,,,,,,,,,,,,,2,0,2,0,24,3,99,2,,,,,,,,,,,,,,,,,,,,,,,,,,,,,s,1,0.384167909622,None,0,2.0,diamondblue.gif,stop,,,,,,,,,,,,,,,,,,,,,,,,0,0.514250040054,0.000883102416992,[],0,None,1273.06296396,0,0.515274047852,0.000946044921875,0.384167909622,1,s,1276.06662583,,,0.258183002472,,,,,,,,,,,,,,,,,,,,,,,2015_Jun_30_1020,60.1203753739,LearningTask,1,68,
,,,,,,,,,,,,,,,,,,,2,0,2,0,,,,,,,,,,,,,,,,,,,,,,,,,,,,,,,,,,,,,,,,,,,,,,,,,,,,,,,,,,,,,,,,,,,,,,,,,,,,,,9,17.2369019985,,,,,,,,,,,,,,,,,,,,,,,,2015_Jun_30_1020,60.1203753739,LearningTask,1,68,
-200,a,-200,,,,,,,,,,,,,,,,,3,0,3,0,0,0,0,3,,,,,,,,,,,,,,,,,,,,,,,,,,,,,a,1,0.667661905289,None,0,0.5,circleyellow.gif,stop,,,,,,,,,,,,,,,,,,,,,,,,0,0.510625839233,0.00088095664978,0.667661905289,1,a,1297.15756989,,,,,,,,,,,,,,,,,,,,,,,,,,,,,,,,,2015_Jun_30_1020,60.1203753739,LearningTask,1,68,
200,s,-200,,,,,,,,,,,,,,,,,3,0,3,0,0,1,1,2,,,,,,,,,,,,,,,,,,,,,,,,,,,,,s,1,0.384255170822,None,0,2.0,diamondblue.gif,stop,,,,,,,,,,,,,,,,,,,,,,,,1.99,0.513069152832,0.00088095664978,0.384255170822,1,s,1300.15985703,,,,,,,,,,,,,,,,,,,,,,,,,,,,,,,,,2015_Jun_30_1020,60.1203753739,LearningTask,1,68,
-200,a,-200,,,,,,,,,,,,,,,,,3,0,3,0,0,2,2,3,,,,,,,,,,,,,,,,,,,,,,,,,,,,,a,1,0.334385871887,None,0,1.0,invertedtrianglecyan.gif,go,,,,,,,,,,,,,,,,,,,,,,,,1.0,0.513984918594,0.00096607208252,0.334385871887,1,a,1303.16371202,,,,,,,,,,,,,,,,,,,,,,,,,,,,,,,,,2015_Jun_30_1020,60.1203753739,LearningTask,1,68,
