xPos,corrAns,yPos,corrGoResp,yPosGoStim,xPosGoStim,pracTrials.thisRepN,pracTrials.thisTrialN,pracTrials.thisN,pracTrials.thisIndex,ReDoLoopPrac.thisRepN,ReDoLoopPrac.thisTrialN,ReDoLoopPrac.thisN,ReDoLoopPrac.thisIndex,ReDoLoopPrac.thisTrial,pracStopTrials.thisRepN,pracStopTrials.thisTrialN,pracStopTrials.thisN,pracStopTrials.thisIndex,Blocks.thisRepN,Blocks.thisTrialN,Blocks.thisN,Blocks.thisIndex,trials.thisRepN,trials.thisTrialN,trials.thisN,trials.thisIndex,ReDoLoopMain.thisRepN,ReDoLoopMain.thisTrialN,ReDoLoopMain.thisN,ReDoLoopMain.thisIndex,ReDoLoopMain.thisTrial,StopBlocks.thisRepN,StopBlocks.thisTrialN,StopBlocks.thisN,StopBlocks.thisIndex,StopTrials.thisRepN,StopTrials.thisTrialN,StopTrials.thisN,StopTrials.thisIndex,auctionBlocks.thisRepN,auctionBlocks.thisTrialN,auctionBlocks.thisN,auctionBlocks.thisIndex,auctionTrials.thisRepN,auctionTrials.thisTrialN,auctionTrials.thisN,auctionTrials.thisIndex,learningTrialList,learningPracTrialList,stopTrialList,stopPracTrialList,auctionTrialList,ok1.keys,ok1.rt,resp.keys,resp.corr,resp.rt,feedbackResp.keys,feedbackResp.corr,currentReward,currentStimulus,currentStimType,firstPracComputedRewardOutput,firstPracLearningStimOnset,firstPracLearningFixOnset,firstPracPresentationRT,firstPracPresentationAcc,firstPracPresentationResp,firstPracEndTrialTimeStamp,StartTrialTimeStamp,trialType,goStim,stimType,stopStimValue,goResp.keys,goResp.corr,goResp.rt,key_resp_9.keys,key_resp_9.corr,fixStopOnset,goStimOnset,EndTrialTimeStamp,stopSignalOnset,key_resp_3.keys,key_resp_3.rt,firstComputedRewardOutput,firstLearningStimOnset,firstLearningFixOnset,firstPresentationRT,firstPresentationAcc,firstPresentationResp,firstEndTrialTimeStamp,secondComputedRewardOutput,secondLearningStimOnset,secondLearningFixOnset,secondPresentationRT,secondPresentationAcc,secondPresentationResp,secondEndTrialTimeStamp,key_resp_7.keys,key_resp_7.rt,feedbackResp.rt,beginningSSD,EndingSSD,key_resp_9.rt,key_resp_4.keys,key_resp_4.rt,auctionResponse.keys,auctionStimDuration,auctionStim,auctionAmounts,auctionStimValue,auctionCondition,chosenAuctionAmount,auctionResponse.rt,key_resp_5.keys,key_resp_5.rt,shuffledRewardList,chosenReward1,chosenReward2,chosenReward3,chosenReward4,chosenReward5,key_resp_6.keys,key_resp_6.rt,date,frameRate,expName,session,participant,
,,,,,,,,,,,,,,,,,,,,,,,,,,,,,,,,,,,,,,,,,,,,,,,,[],[],[],[],[],9,52.0821931362,,,,,,,,,,,,,,,,,,,,,,,,,,,,,,,,,,,,,,,,,,,,,,,,,,,,,,,,,,,,,,,,,,,,,,,,2015_Jul_02_1405,59.8236798453,LearningTask,1,76,
-200,q,200,,,,0,0,0,1,,,,,,,,,,,,,,,,,,,,,,,,,,,,,,,,,,,,,,,,,,,,,,q,1,0.73441696167,None,0,2.0,triangleblue.gif,go,1.84,0.507535934448,0.0743589401245,0.73441696167,1,q,80.6055920124,,,,,,,,,,,,,,,,,,,,,,,,,,,,,,,,,,,,,,,,,,,,,,,,,,,,,,,,,2015_Jul_02_1405,59.8236798453,LearningTask,1,76,
-200,q,200,,,,0,1,1,5,,,,,,,,,,,,,,,,,,,,,,,,,,,,,,,,,,,,,,,,,,,,,,q,1,0.651756048203,None,0,4.0,invertedtrianglegreen.gif,stop,3.78,0.514031171799,0.0695099830627,0.651756048203,1,q,83.6079790592,,,,,,,,,,,,,,,,,,,,,,,,,,,,,,,,,,,,,,,,,,,,,,,,,,,,,,,,,2015_Jul_02_1405,59.8236798453,LearningTask,1,76,
200,s,-200,,,,0,2,2,2,,,,,,,,,,,,,,,,,,,,,,,,,,,,,,,,,,,,,,,,,,,,,,s,1,0.384370088577,None,0,1.0,crosscyan.gif,stop,1.06,0.515089035034,0.0384640693665,0.384370088577,1,s,86.6112101078,,,,,,,,,,,,,,,,,,,,,,,,,,,,,,,,,,,,,,,,,,,,,,,,,,,,,,,,,2015_Jul_02_1405,59.8236798453,LearningTask,1,76,
-200,a,-200,,,,0,3,3,7,,,,,,,,,,,,,,,,,,,,,,,,,,,,,,,,,,,,,,,,,,,,,,a,1,0.350968122482,None,0,1.0,circlegray.gif,go,0.84,0.515470027924,0.00189113616943,0.350968122482,1,a,89.6149880886,,,,,,,,,,,,,,,,,,,,,,,,,,,,,,,,,,,,,,,,,,,,,,,,,,,,,,,,,2015_Jul_02_1405,59.8236798453,LearningTask,1,76,
-200,a,-200,,,,0,4,4,3,,,,,,,,,,,,,,,,,,,,,,,,,,,,,,,,,,,,,,,,,,,,,,a,1,0.401090145111,None,0,4.0,invertedtrianglegreen.gif,stop,3.75,0.514897823334,0.000898838043213,0.401090145111,1,a,92.6181299686,,,,,,,,,,,,,,,,,,,,,,,,,,,,,,,,,,,,,,,,,,,,,,,,,,,,,,,,,2015_Jul_02_1405,59.8236798453,LearningTask,1,76,
200,w,200,,,,0,5,5,0,,,,,,,,,,,,,,,,,,,,,,,,,,,,,,,,,,,,,,,,,,,,,,w,1,0.367109060287,None,0,4.0,squareorange.gif,go,3.87,0.515274047852,0.0583729743958,0.367109060287,1,w,95.6214630604,,,,,,,,,,,,,,,,,,,,,,,,,,,,,,,,,,,,,,,,,,,,,,,,,,,,,,,,,2015_Jul_02_1405,59.8236798453,LearningTask,1,76,
-200,q,200,,,,0,6,6,9,,,,,,,,,,,,,,,,,,,,,,,,,,,,,,,,,,,,,,,,,,,,,,q,1,0.401614904404,None,0,0.5,linewhite.gif,go,0.59,0.515062093735,0.00181317329407,0.401614904404,1,q,98.624819994,,,,,,,,,,,,,,,,,,,,,,,,,,,,,,,,,,,,,,,,,,,,,,,,,,,,,,,,,2015_Jul_02_1405,59.8236798453,LearningTask,1,76,
200,w,200,,,,0,7,7,8,,,,,,,,,,,,,,,,,,,,,,,,,,,,,,,,,,,,,,,,,,,,,,w,1,0.350703001022,None,0,4.0,invertedtrianglegreen.gif,stop,3.78,0.515160083771,0.000895023345947,0.350703001022,1,w,101.628107071,,,,,,,,,,,,,,,,,,,,,,,,,,,,,,,,,,,,,,,,,,,,,,,,,,,,,,,,,2015_Jul_02_1405,59.8236798453,LearningTask,1,76,
200,s,-200,,,,0,8,8,6,,,,,,,,,,,,,,,,,,,,,,,,,,,,,,,,,,,,,,,,,,,,,,s,1,0.351387023926,None,0,2.0,diamondmagenta.gif,stop,2.06,0.515229940414,0.0432238578796,0.351387023926,1,s,104.63154006,,,,,,,,,,,,,,,,,,,,,,,,,,,,,,,,,,,,,,,,,,,,,,,,,,,,,,,,,2015_Jul_02_1405,59.8236798453,LearningTask,1,76,
200,w,200,,,,0,9,9,4,,,,,,,,,,,,,,,,,,,,,,,,,,,,,,,,,,,,,,,,,,,,,,w,1,0.317222118378,None,0,2.0,triangleblue.gif,go,0,0.515189886093,0.000931978225708,0.317222118378,1,w,107.635133982,,,,,,,,,,,,,,,,,,,,,,,,,,,,,,,,,,,,,,,,,,,,,,,,,,,,,,,,,2015_Jul_02_1405,59.8236798453,LearningTask,1,76,
,,,z,0,-200,,,,,,,,,,0,0,0,0,,,,,,,,,,,,,,,,,,,,,,,,,,,,,,,,,,,,,,,,,,,,,,,,,,,,157.913790941,go,triangleblue.gif,go,2.0,z,1,0.401046037674,None,0,0.00169396400452,0.510252952576,160.911621094,,,,,,,,,,,,,,,,,,,,,,,,,,,,,,,,,,,,,,,,,,,,2015_Jul_02_1405,59.8236798453,LearningTask,1,76,
,,,m,0,200,,,,,,,,,,0,1,1,1,,,,,,,,,,,,,,,,,,,,,,,,,,,,,,,,,,,,,,,,,,,,,,,,,,,,160.912014008,stop,diamondmagenta.gif,stop,2.0,m,1,0.283607959747,None,0,0.00132417678833,0.515733957291,163.914803028,0.765874147415,,,,,,,,,,,,,,,,,,,,,,,,,,,,,,,,,,,,,,,,,,,2015_Jul_02_1405,59.8236798453,LearningTask,1,76,
,,,m,0,200,,,,,,,,,,1,0,2,1,,,,,,,,,,,,,,,,,,,,,,,,,,,,,,,,,,,,,,,,,,,,,,,,,,,,163.915169001,go,triangleblue.gif,go,2.0,m,1,0.467806100845,None,0,0.00096607208252,0.51552605629,166.91803503,,,,,,,,,,,,,,,,,,,,,,,,,,,,,,,,,,,,,,,,,,,,2015_Jul_02_1405,59.8236798453,LearningTask,1,76,
,,,z,0,-200,,,,,,,,,,1,1,3,0,,,,,,,,,,,,,,,,,,,,,,,,,,,,,,,,,,,,,,,,,,,,,,,,,,,,166.918399096,stop,diamondmagenta.gif,stop,2.0,z,1,0.400989055634,None,0,0.00097393989563,0.515707015991,169.921422958,0.766366004944,,,,,,,,,,,,,,,,,,,,,,,,,,,,,,,,,,,,,,,,,,,2015_Jul_02_1405,59.8236798453,LearningTask,1,76,
,,,m,0,200,,,,,,,,,,2,0,4,1,,,,,,,,,,,,,,,,,,,,,,,,,,,,,,,,,,,,,,,,,,,,,,,,,,,,169.921781063,stop,diamondmagenta.gif,stop,2.0,None,0,,None,0,0.00107097625732,0.515924930573,172.924806118,0.765877008438,,,,,,,,,,,,,,,,,,,,,,,,,,,,,,,,,,,,,,,,,,,2015_Jul_02_1405,59.8236798453,LearningTask,1,76,
,,,z,0,-200,,,,,,,,,,2,1,5,0,,,,,,,,,,,,,,,,,,,,,,,,,,,,,,,,,,,,,,,,,,,,,,,,,,,,172.925162077,go,squareorange.gif,go,4.0,z,1,0.467683076859,None,0,0.00148892402649,0.515761852264,175.928180933,,,,,,,,,,,,,,,,,,,,,,,,,,,,,,,,,,,,,,,,,,,,2015_Jul_02_1405,59.8236798453,LearningTask,1,76,
,,,m,0,200,,,,,,,,,,3,0,6,1,,,,,,,,,,,,,,,,,,,,,,,,,,,,,,,,,,,,,,,,,,,,,,,,,,,,175.928544044,stop,invertedtrianglegreen.gif,stop,4.0,m,1,0.500936985016,None,0,0.00136590003967,0.516132831573,178.931623936,0.766300916672,,,,,,,,,,,,,,,,,,,,,,,,,,,,,,,,,,,,,,,,,,,2015_Jul_02_1405,59.8236798453,LearningTask,1,76,
,,,m,0,200,,,,,,,,,,3,1,7,1,,,,,,,,,,,,,,,,,,,,,,,,,,,,,,,,,,,,,,,,,,,,,,,,,,,,178.93198204,stop,invertedtrianglegreen.gif,stop,4.0,None,0,,None,0,0.00101613998413,0.515757083893,181.934900045,0.766183137894,,,,,,,,,,,,,,,,,,,,,,,,,,,,,,,,,,,,,,,,,,,2015_Jul_02_1405,59.8236798453,LearningTask,1,76,
,,,z,0,-200,,,,,,,,,,4,0,8,0,,,,,,,,,,,,,,,,,,,,,,,,,,,,,,,,,,,,,,,,,,,,,,,,,,,,181.935261965,go,circlegray.gif,go,1.0,z,1,0.567495107651,None,0,0.0015721321106,0.516054153442,184.938295126,,,,,,,,,,,,,,,,,,,,,,,,,,,,,,,,,,,,,,,,,,,,2015_Jul_02_1405,59.8236798453,LearningTask,1,76,
,,,z,0,-200,,,,,,,,,,4,1,9,0,,,,,,,,,,,,,,,,,,,,,,,,,,,,,,,,,,,,,,,,,,,,,,,,,,,,184.938698053,go,triangleblue.gif,go,2.0,None,0,,None,0,0.00100088119507,0.515763998032,187.941679955,,,,,,,,,,,,,,,,,,,,,,,,,,,,,,,,,,,,,,,,,,,,2015_Jul_02_1405,59.8236798453,LearningTask,1,76,
,,,,,,,,,,,,,,,,,,,,,,,,,,,,,,,,,,,,,,,,,,,,,,,,,,,,,,,,,,,,,,,,,,,,,,,,,,,,,,,,,,,,9,34.5351810455,,,,,,,,,,,,,,,,,,,,,,,,,,,,,,,,,,,,,,,,,2015_Jul_02_1405,59.8236798453,LearningTask,1,76,
,,,,,,,,,,,,,,,,,,,,,,,,,,,,,,,,,,,,,,,,,,,,,,,,,,,,,9,9.14400100708,,,,,,,,,,,,,,,,,,,,,,,,,,,,,,,,,,,,,,,,,,,,,,,,,,,,,,,,,,,,,,,,,,,,,,,,2015_Jul_02_1405,59.8236798453,LearningTask,1,76,
200,w,200,,,,,,,,,,,,,,,,,0,0,0,0,0,0,0,0,,,,,,,,,,,,,,,,,,,,,,,,,,,,,w,1,0.484220027924,None,0,0.5,hexagonyellow.gif,stop,,,,,,,,,,,,,,,,,,,,,,,,0.62,0.508142948151,0.0365700721741,0.484220027924,1,w,234.762725115,,,,,,,,,,,,,,,,,,,,,,,,,,,,,,,,,,2015_Jul_02_1405,59.8236798453,LearningTask,1,76,
200,w,200,,,,,,,,,,,,,,,,,0,0,0,0,0,1,1,0,,,,,,,,,,,,,,,,,,,,,,,,,,,,,w,1,0.333978891373,None,0,1.0,crosscyan.gif,stop,,,,,,,,,,,,,,,,,,,,,,,,1.12,0.513688087463,0.00127100944519,0.333978891373,1,w,237.765501022,,,,,,,,,,,,,,,,,,,,,,,,,,,,,,,,,,2015_Jul_02_1405,59.8236798453,LearningTask,1,76,
-200,a,-200,,,,,,,,,,,,,,,,,0,0,0,0,0,2,2,3,,,,,,,,,,,,,,,,,,,,,,,,,,,,,a,1,0.351063013077,None,0,0.5,linewhite.gif,go,,,,,,,,,,,,,,,,,,,,,,,,0,0.513841867447,0.00127983093262,0.351063013077,1,a,240.768554926,,,,,,,,,,,,,,,,,,,,,,,,,,,,,,,,,,2015_Jul_02_1405,59.8236798453,LearningTask,1,76,
200,w,200,,,,,,,,,,,,,,,,,0,0,0,0,0,3,3,0,,,,,,,,,,,,,,,,,,,,,,,,,,,,,w,1,0.317593097687,None,0,2.0,diamondmagenta.gif,stop,,,,,,,,,,,,,,,,,,,,,,,,2.01,0.514605998993,0.00089693069458,0.317593097687,1,w,243.772197008,,,,,,,,,,,,,,,,,,,,,,,,,,,,,,,,,,2015_Jul_02_1405,59.8236798453,LearningTask,1,76,
200,s,-200,,,,,,,,,,,,,,,,,0,0,0,0,1,0,4,2,,,,,,,,,,,,,,,,,,,,,,,,,,,,,s,1,0.517727851868,None,0,4.0,invertedtrianglegreen.gif,stop,,,,,,,,,,,,,,,,,,,,,,,,4.0,0.514079809189,0.000908851623535,0.517727851868,1,s,246.775370121,,,,,,,,,,,,,,,,,,,,,,,,,,,,,,,,,,2015_Jul_02_1405,59.8236798453,LearningTask,1,76,
200,s,-200,,,,,,,,,,,,,,,,,0,0,0,0,1,1,5,2,,,,,,,,,,,,,,,,,,,,,,,,,,,,,s,1,0.501274108887,None,0,2.0,diamondmagenta.gif,stop,,,,,,,,,,,,,,,,,,,,,,,,1.94,0.514271974564,0.000933885574341,0.501274108887,1,s,249.778496027,,,,,,,,,,,,,,,,,,,,,,,,,,,,,,,,,,2015_Jul_02_1405,59.8236798453,LearningTask,1,76,
-200,q,200,,,,,,,,,,,,,,,,,0,0,0,0,1,2,6,1,,,,,,,,,,,,,,,,,,,,,,,,,,,,,q,1,0.351000070572,None,0,4.0,squareorange.gif,go,,,,,,,,,,,,,,,,,,,,,,,,4.01,0.514178037643,0.000971078872681,0.351000070572,1,q,252.782292128,,,,,,,,,,,,,,,,,,,,,,,,,,,,,,,,,,2015_Jul_02_1405,59.8236798453,LearningTask,1,76,
200,s,-200,,,,,,,,,,,,,,,,,0,0,0,0,1,3,7,2,,,,,,,,,,,,,,,,,,,,,,,,,,,,,s,1,0.417244911194,None,0,4.0,invertedtrianglegreen.gif,stop,,,,,,,,,,,,,,,,,,,,,,,,0,0.514295101166,0.000915050506592,0.417244911194,1,s,255.785636902,,,,,,,,,,,,,,,,,,,,,,,,,,,,,,,,,,2015_Jul_02_1405,59.8236798453,LearningTask,1,76,
-200,q,200,,,,,,,,,,,,,,,,,0,0,0,0,2,0,8,1,,,,,,,,,,,,,,,,,,,,,,,,,,,,,q,1,0.400803089142,None,0,4.0,invertedtrianglegreen.gif,stop,,,,,,,,,,,,,,,,,,,,,,,,3.88,0.513978004456,0.000959873199463,0.400803089142,1,q,258.788888931,,,,,,,,,,,,,,,,,,,,,,,,,,,,,,,,,,2015_Jul_02_1405,59.8236798453,LearningTask,1,76,
-200,q,200,,,,,,,,,,,,,,,,,0,0,0,0,2,1,9,1,,,,,,,,,,,,,,,,,,,,,,,,,,,,,q,1,0.401194095612,None,0,0.5,hexagonyellow.gif,stop,,,,,,,,,,,,,,,,,,,,,,,,0,0.514084815979,0.00094199180603,0.401194095612,1,q,261.792192936,,,,,,,,,,,,,,,,,,,,,,,,,,,,,,,,,,2015_Jul_02_1405,59.8236798453,LearningTask,1,76,
200,w,200,,,,,,,,,,,,,,,,,0,0,0,0,2,2,10,0,,,,,,,,,,,,,,,,,,,,,,,,,,,,,w,1,0.384063959122,None,0,2.0,diamondmagenta.gif,stop,,,,,,,,,,,,,,,,,,,,,,,,2.02,0.51442694664,0.000894069671631,0.384063959122,1,w,264.795484066,,,,,,,,,,,,,,,,,,,,,,,,,,,,,,,,,,2015_Jul_02_1405,59.8236798453,LearningTask,1,76,
-200,a,-200,,,,,,,,,,,,,,,,,0,0,0,0,2,3,11,3,,,,,,,,,,,,,,,,,,,,,,,,,,,,,a,1,0.317517995834,None,0,2.0,diamondmagenta.gif,stop,,,,,,,,,,,,,,,,,,,,,,,,1.87,0.514085054398,0.000940084457397,0.317517995834,1,a,267.798897982,,,,,,,,,,,,,,,,,,,,,,,,,,,,,,,,,,2015_Jul_02_1405,59.8236798453,LearningTask,1,76,
-200,a,-200,,,,,,,,,,,,,,,,,0,0,0,0,3,0,12,3,,,,,,,,,,,,,,,,,,,,,,,,,,,,,a,1,0.317341804504,None,0,4.0,invertedtrianglegreen.gif,stop,,,,,,,,,,,,,,,,,,,,,,,,4.1,0.514307975769,0.000908136367798,0.317341804504,1,a,270.802295923,,,,,,,,,,,,,,,,,,,,,,,,,,,,,,,,,,2015_Jul_02_1405,59.8236798453,LearningTask,1,76,
200,w,200,,,,,,,,,,,,,,,,,0,0,0,0,3,1,13,0,,,,,,,,,,,,,,,,,,,,,,,,,,,,,w,1,0.334494113922,None,0,2.0,diamondmagenta.gif,stop,,,,,,,,,,,,,,,,,,,,,,,,1.8,0.514285802841,0.000900983810425,0.334494113922,1,w,273.805649042,,,,,,,,,,,,,,,,,,,,,,,,,,,,,,,,,,2015_Jul_02_1405,59.8236798453,LearningTask,1,76,
-200,q,200,,,,,,,,,,,,,,,,,0,0,0,0,3,2,14,1,,,,,,,,,,,,,,,,,,,,,,,,,,,,,q,1,0.351042985916,None,0,4.0,squareorange.gif,go,,,,,,,,,,,,,,,,,,,,,,,,4.02,0.514103889465,0.000922918319702,0.351042985916,1,q,276.809052944,,,,,,,,,,,,,,,,,,,,,,,,,,,,,,,,,,2015_Jul_02_1405,59.8236798453,LearningTask,1,76,
-200,a,-200,,,,,,,,,,,,,,,,,0,0,0,0,3,3,15,3,,,,,,,,,,,,,,,,,,,,,,,,,,,,,a,1,0.400979995728,None,0,2.0,triangleblue.gif,go,,,,,,,,,,,,,,,,,,,,,,,,0,0.51433801651,0.000891923904419,0.400979995728,1,a,279.812453985,,,,,,,,,,,,,,,,,,,,,,,,,,,,,,,,,,2015_Jul_02_1405,59.8236798453,LearningTask,1,76,
200,s,-200,,,,,,,,,,,,,,,,,0,0,0,0,4,0,16,2,,,,,,,,,,,,,,,,,,,,,,,,,,,,,s,1,0.43451499939,None,0,1.0,crosscyan.gif,stop,,,,,,,,,,,,,,,,,,,,,,,,0,0.514357089996,0.000891923904419,0.43451499939,1,s,282.816474915,,,,,,,,,,,,,,,,,,,,,,,,,,,,,,,,,,2015_Jul_02_1405,59.8236798453,LearningTask,1,76,
-200,a,-200,,,,,,,,,,,,,,,,,0,0,0,0,4,1,17,3,,,,,,,,,,,,,,,,,,,,,,,,,,,,,a,1,0.434043169022,None,0,0.5,linewhite.gif,go,,,,,,,,,,,,,,,,,,,,,,,,0.47,0.513444900513,0.000926971435547,0.434043169022,1,a,285.819354057,,,,,,,,,,,,,,,,,,,,,,,,,,,,,,,,,,2015_Jul_02_1405,59.8236798453,LearningTask,1,76,
200,w,200,,,,,,,,,,,,,,,,,0,0,0,0,4,2,18,0,,,,,,,,,,,,,,,,,,,,,,,,,,,,,w,1,0.43416595459,None,0,2.0,triangleblue.gif,go,,,,,,,,,,,,,,,,,,,,,,,,2.01,0.514180898666,0.000911951065063,0.43416595459,1,w,288.822465897,,,,,,,,,,,,,,,,,,,,,,,,,,,,,,,,,,2015_Jul_02_1405,59.8236798453,LearningTask,1,76,
200,w,200,,,,,,,,,,,,,,,,,0,0,0,0,4,3,19,0,,,,,,,,,,,,,,,,,,,,,,,,,,,,,w,1,0.417098999023,None,0,0.5,hexagonyellow.gif,stop,,,,,,,,,,,,,,,,,,,,,,,,0.53,0.514623165131,0.000955104827881,0.417098999023,1,w,291.826080084,,,,,,,,,,,,,,,,,,,,,,,,,,,,,,,,,,2015_Jul_02_1405,59.8236798453,LearningTask,1,76,
200,s,-200,,,,,,,,,,,,,,,,,0,0,0,0,5,0,20,2,,,,,,,,,,,,,,,,,,,,,,,,,,,,,s,1,0.334180116653,None,0,2.0,triangleblue.gif,go,,,,,,,,,,,,,,,,,,,,,,,,2.12,0.514008998871,0.000931978225708,0.334180116653,1,s,294.829325914,,,,,,,,,,,,,,,,,,,,,,,,,,,,,,,,,,2015_Jul_02_1405,59.8236798453,LearningTask,1,76,
200,s,-200,,,,,,,,,,,,,,,,,0,0,0,0,5,1,21,2,,,,,,,,,,,,,,,,,,,,,,,,,,,,,s,1,0.350687980652,None,0,4.0,invertedtrianglegreen.gif,stop,,,,,,,,,,,,,,,,,,,,,,,,0,0.514320135117,0.00113701820374,0.350687980652,1,s,297.833065033,,,,,,,,,,,,,,,,,,,,,,,,,,,,,,,,,,2015_Jul_02_1405,59.8236798453,LearningTask,1,76,
-200,q,200,,,,,,,,,,,,,,,,,0,0,0,0,5,2,22,1,,,,,,,,,,,,,,,,,,,,,,,,,,,,,q,1,0.634454965591,None,0,4.0,squareorange.gif,go,,,,,,,,,,,,,,,,,,,,,,,,4.2,0.513875007629,0.000962972640991,0.634454965591,1,q,300.836077929,,,,,,,,,,,,,,,,,,,,,,,,,,,,,,,,,,2015_Jul_02_1405,59.8236798453,LearningTask,1,76,
200,w,200,,,,,,,,,,,,,,,,,0,0,0,0,5,3,23,0,,,,,,,,,,,,,,,,,,,,,,,,,,,,,w,1,0.284090995789,None,0,0.5,hexagonyellow.gif,stop,,,,,,,,,,,,,,,,,,,,,,,,0.59,0.514482975006,0.000890970230103,0.284090995789,1,w,303.83937192,,,,,,,,,,,,,,,,,,,,,,,,,,,,,,,,,,2015_Jul_02_1405,59.8236798453,LearningTask,1,76,
-200,q,200,,,,,,,,,,,,,,,,,0,0,0,0,6,0,24,1,,,,,,,,,,,,,,,,,,,,,,,,,,,,,q,1,0.350862979889,None,0,0.5,hexagonyellow.gif,stop,,,,,,,,,,,,,,,,,,,,,,,,0,0.514297008514,0.00096583366394,0.350862979889,1,q,306.842989922,,,,,,,,,,,,,,,,,,,,,,,,,,,,,,,,,,2015_Jul_02_1405,59.8236798453,LearningTask,1,76,
-200,q,200,,,,,,,,,,,,,,,,,0,0,0,0,6,1,25,1,,,,,,,,,,,,,,,,,,,,,,,,,,,,,q,1,0.334137916565,None,0,1.0,circlegray.gif,go,,,,,,,,,,,,,,,,,,,,,,,,1.16,0.514572143555,0.000893115997314,0.334137916565,1,q,309.846199036,,,,,,,,,,,,,,,,,,,,,,,,,,,,,,,,,,2015_Jul_02_1405,59.8236798453,LearningTask,1,76,
200,w,200,,,,,,,,,,,,,,,,,0,0,0,0,6,2,26,0,,,,,,,,,,,,,,,,,,,,,,,,,,,,,w,1,0.317089080811,None,0,0.5,linewhite.gif,go,,,,,,,,,,,,,,,,,,,,,,,,0.51,0.514653921127,0.000895977020264,0.317089080811,1,w,312.849770069,,,,,,,,,,,,,,,,,,,,,,,,,,,,,,,,,,2015_Jul_02_1405,59.8236798453,LearningTask,1,76,
200,s,-200,,,,,,,,,,,,,,,,,0,0,0,0,6,3,27,2,,,,,,,,,,,,,,,,,,,,,,,,,,,,,s,1,0.317422866821,None,0,2.0,diamondmagenta.gif,stop,,,,,,,,,,,,,,,,,,,,,,,,1.79,0.513882160187,0.000932216644287,0.317422866821,1,s,315.853104115,,,,,,,,,,,,,,,,,,,,,,,,,,,,,,,,,,2015_Jul_02_1405,59.8236798453,LearningTask,1,76,
-200,a,-200,,,,,,,,,,,,,,,,,0,0,0,0,7,0,28,3,,,,,,,,,,,,,,,,,,,,,,,,,,,,,a,1,0.300588846207,None,0,0.5,hexagonyellow.gif,stop,,,,,,,,,,,,,,,,,,,,,,,,0.7,0.514057159424,0.000905990600586,0.300588846207,1,a,318.856324911,,,,,,,,,,,,,,,,,,,,,,,,,,,,,,,,,,2015_Jul_02_1405,59.8236798453,LearningTask,1,76,
200,s,-200,,,,,,,,,,,,,,,,,0,0,0,0,7,1,29,2,,,,,,,,,,,,,,,,,,,,,,,,,,,,,s,1,0.351329088211,None,0,0.5,linewhite.gif,go,,,,,,,,,,,,,,,,,,,,,,,,0.48,0.514414072037,0.000890016555786,0.351329088211,1,s,321.860068083,,,,,,,,,,,,,,,,,,,,,,,,,,,,,,,,,,2015_Jul_02_1405,59.8236798453,LearningTask,1,76,
200,s,-200,,,,,,,,,,,,,,,,,0,0,0,0,7,2,30,2,,,,,,,,,,,,,,,,,,,,,,,,,,,,,s,1,0.317780971527,None,0,0.5,linewhite.gif,go,,,,,,,,,,,,,,,,,,,,,,,,0.5,0.513674020767,0.000965118408203,0.317780971527,1,s,324.863378048,,,,,,,,,,,,,,,,,,,,,,,,,,,,,,,,,,2015_Jul_02_1405,59.8236798453,LearningTask,1,76,
200,w,200,,,,,,,,,,,,,,,,,0,0,0,0,7,3,31,0,,,,,,,,,,,,,,,,,,,,,,,,,,,,,w,1,0.367219924927,None,0,2.0,triangleblue.gif,go,,,,,,,,,,,,,,,,,,,,,,,,2.21,0.514263868332,0.000954866409302,0.367219924927,1,w,327.866518021,,,,,,,,,,,,,,,,,,,,,,,,,,,,,,,,,,2015_Jul_02_1405,59.8236798453,LearningTask,1,76,
200,w,200,,,,,,,,,,,,,,,,,0,0,0,0,8,0,32,0,,,,,,,,,,,,,,,,,,,,,,,,,,,,,w,1,0.301031112671,None,0,4.0,squareorange.gif,go,,,,,,,,,,,,,,,,,,,,,,,,0,0.514461040497,0.000927925109863,0.301031112671,1,w,330.870052099,,,,,,,,,,,,,,,,,,,,,,,,,,,,,,,,,,2015_Jul_02_1405,59.8236798453,LearningTask,1,76,
200,s,-200,,,,,,,,,,,,,,,,,0,0,0,0,8,1,33,2,,,,,,,,,,,,,,,,,,,,,,,,,,,,,s,1,0.367812871933,None,0,0.5,linewhite.gif,go,,,,,,,,,,,,,,,,,,,,,,,,0.55,0.514060020447,0.000920057296753,0.367812871933,1,s,333.87333703,,,,,,,,,,,,,,,,,,,,,,,,,,,,,,,,,,2015_Jul_02_1405,59.8236798453,LearningTask,1,76,
-200,a,-200,,,,,,,,,,,,,,,,,0,0,0,0,8,2,34,3,,,,,,,,,,,,,,,,,,,,,,,,,,,,,a,1,0.334119081497,None,0,0.5,linewhite.gif,go,,,,,,,,,,,,,,,,,,,,,,,,0.67,0.514268159866,0.000993013381958,0.334119081497,1,a,336.876578093,,,,,,,,,,,,,,,,,,,,,,,,,,,,,,,,,,2015_Jul_02_1405,59.8236798453,LearningTask,1,76,
-200,a,-200,,,,,,,,,,,,,,,,,0,0,0,0,8,3,35,3,,,,,,,,,,,,,,,,,,,,,,,,,,,,,a,1,0.350400924683,None,0,1.0,circlegray.gif,go,,,,,,,,,,,,,,,,,,,,,,,,0.77,0.514572143555,0.000943183898926,0.350400924683,1,a,339.880230904,,,,,,,,,,,,,,,,,,,,,,,,,,,,,,,,,,2015_Jul_02_1405,59.8236798453,LearningTask,1,76,
-200,q,200,,,,,,,,,,,,,,,,,0,0,0,0,9,0,36,1,,,,,,,,,,,,,,,,,,,,,,,,,,,,,q,1,0.484409809113,None,0,4.0,invertedtrianglegreen.gif,stop,,,,,,,,,,,,,,,,,,,,,,,,3.85,0.514083862305,0.000894069671631,0.484409809113,1,q,342.884047031,,,,,,,,,,,,,,,,,,,,,,,,,,,,,,,,,,2015_Jul_02_1405,59.8236798453,LearningTask,1,76,
-200,a,-200,,,,,,,,,,,,,,,,,0,0,0,0,9,1,37,3,,,,,,,,,,,,,,,,,,,,,,,,,,,,,a,1,0.317552804947,None,0,1.0,crosscyan.gif,stop,,,,,,,,,,,,,,,,,,,,,,,,0.75,0.513602972031,0.000940084457397,0.317552804947,1,a,345.886893034,,,,,,,,,,,,,,,,,,,,,,,,,,,,,,,,,,2015_Jul_02_1405,59.8236798453,LearningTask,1,76,
-200,a,-200,,,,,,,,,,,,,,,,,0,0,0,0,9,2,38,3,,,,,,,,,,,,,,,,,,,,,,,,,,,,,a,1,0.367626190186,None,0,2.0,triangleblue.gif,go,,,,,,,,,,,,,,,,,,,,,,,,0,0.514084100723,0.000922203063965,0.367626190186,1,a,348.890094995,,,,,,,,,,,,,,,,,,,,,,,,,,,,,,,,,,2015_Jul_02_1405,59.8236798453,LearningTask,1,76,
200,w,200,,,,,,,,,,,,,,,,,0,0,0,0,9,3,39,0,,,,,,,,,,,,,,,,,,,,,,,,,,,,,w,1,0.41731595993,None,0,0.5,linewhite.gif,go,,,,,,,,,,,,,,,,,,,,,,,,0.31,0.514424085617,0.000904083251953,0.41731595993,1,w,351.893537045,,,,,,,,,,,,,,,,,,,,,,,,,,,,,,,,,,2015_Jul_02_1405,59.8236798453,LearningTask,1,76,
-200,a,-200,,,,,,,,,,,,,,,,,0,0,0,0,10,0,40,3,,,,,,,,,,,,,,,,,,,,,,,,,,,,,a,1,0.367630004883,None,0,0.5,hexagonyellow.gif,stop,,,,,,,,,,,,,,,,,,,,,,,,0.55,0.513971090317,0.000956058502197,0.367630004883,1,a,354.896891117,,,,,,,,,,,,,,,,,,,,,,,,,,,,,,,,,,2015_Jul_02_1405,59.8236798453,LearningTask,1,76,
200,s,-200,,,,,,,,,,,,,,,,,0,0,0,0,10,1,41,2,,,,,,,,,,,,,,,,,,,,,,,,,,,,,s,1,0.383904933929,None,0,4.0,squareorange.gif,go,,,,,,,,,,,,,,,,,,,,,,,,4.1,0.51461315155,0.000907182693481,0.383904933929,1,s,357.900216103,,,,,,,,,,,,,,,,,,,,,,,,,,,,,,,,,,2015_Jul_02_1405,59.8236798453,LearningTask,1,76,
-200,q,200,,,,,,,,,,,,,,,,,0,0,0,0,10,2,42,1,,,,,,,,,,,,,,,,,,,,,,,,,,,,,q,1,0.38436293602,None,0,0.5,hexagonyellow.gif,stop,,,,,,,,,,,,,,,,,,,,,,,,0.69,0.514349222183,0.000898122787476,0.38436293602,1,q,360.90360713,,,,,,,,,,,,,,,,,,,,,,,,,,,,,,,,,,2015_Jul_02_1405,59.8236798453,LearningTask,1,76,
-200,q,200,,,,,,,,,,,,,,,,,0,0,0,0,10,3,43,1,,,,,,,,,,,,,,,,,,,,,,,,,,,,,q,1,0.367803812027,None,0,1.0,circlegray.gif,go,,,,,,,,,,,,,,,,,,,,,,,,1.1,0.51407289505,0.000937938690186,0.367803812027,1,q,363.907074928,,,,,,,,,,,,,,,,,,,,,,,,,,,,,,,,,,2015_Jul_02_1405,59.8236798453,LearningTask,1,76,
200,s,-200,,,,,,,,,,,,,,,,,0,0,0,0,11,0,44,2,,,,,,,,,,,,,,,,,,,,,,,,,,,,,s,1,0.317501068115,None,0,1.0,circlegray.gif,go,,,,,,,,,,,,,,,,,,,,,,,,1.2,0.514308929443,0.000909090042114,0.317501068115,1,s,366.910267115,,,,,,,,,,,,,,,,,,,,,,,,,,,,,,,,,,2015_Jul_02_1405,59.8236798453,LearningTask,1,76,
200,s,-200,,,,,,,,,,,,,,,,,0,0,0,0,11,1,45,2,,,,,,,,,,,,,,,,,,,,,,,,,,,,,s,1,0.300701141357,None,0,4.0,squareorange.gif,go,,,,,,,,,,,,,,,,,,,,,,,,0,0.514401912689,0.000900030136108,0.300701141357,1,s,369.914160967,,,,,,,,,,,,,,,,,,,,,,,,,,,,,,,,,,2015_Jul_02_1405,59.8236798453,LearningTask,1,76,
200,s,-200,,,,,,,,,,,,,,,,,0,0,0,0,11,2,46,2,,,,,,,,,,,,,,,,,,,,,,,,,,,,,s,1,0.350594997406,None,0,1.0,circlegray.gif,go,,,,,,,,,,,,,,,,,,,,,,,,0,0.514028787613,0.000898838043213,0.350594997406,1,s,372.917277098,,,,,,,,,,,,,,,,,,,,,,,,,,,,,,,,,,2015_Jul_02_1405,59.8236798453,LearningTask,1,76,
200,s,-200,,,,,,,,,,,,,,,,,0,0,0,0,11,3,47,2,,,,,,,,,,,,,,,,,,,,,,,,,,,,,s,1,0.384135007858,None,0,1.0,crosscyan.gif,stop,,,,,,,,,,,,,,,,,,,,,,,,1.21,0.514045000076,0.00090503692627,0.384135007858,1,s,375.920424938,,,,,,,,,,,,,,,,,,,,,,,,,,,,,,,,,,2015_Jul_02_1405,59.8236798453,LearningTask,1,76,
-200,a,-200,,,,,,,,,,,,,,,,,0,0,0,0,12,0,48,3,,,,,,,,,,,,,,,,,,,,,,,,,,,,,a,1,0.350811958313,None,0,0.5,linewhite.gif,go,,,,,,,,,,,,,,,,,,,,,,,,0.46,0.514509916306,0.000967025756836,0.350811958313,1,a,378.923868895,,,,,,,,,,,,,,,,,,,,,,,,,,,,,,,,,,2015_Jul_02_1405,59.8236798453,LearningTask,1,76,
200,w,200,,,,,,,,,,,,,,,,,0,0,0,0,12,1,49,0,,,,,,,,,,,,,,,,,,,,,,,,,,,,,w,1,0.318114042282,None,0,1.0,crosscyan.gif,stop,,,,,,,,,,,,,,,,,,,,,,,,0,0.514415025711,0.000900983810425,0.317656993866,0,s,381.92794013,0.93,0.514822006226,0.000985860824585,0.318114042282,1,w,384.930701017,,,,,,,,,,,,,,,,,,,,,,,,,,,2015_Jul_02_1405,59.8236798453,LearningTask,1,76,
-200,a,-200,,,,,,,,,,,,,,,,,0,0,0,0,12,2,50,3,,,,,,,,,,,,,,,,,,,,,,,,,,,,,a,1,0.350867986679,None,0,2.0,diamondmagenta.gif,stop,,,,,,,,,,,,,,,,,,,,,,,,2.08,0.514302968979,0.000926971435547,0.350867986679,1,a,387.934099913,,,,,,,,,,,,,,,,,,,,,,,,,,,,,,,,,,2015_Jul_02_1405,59.8236798453,LearningTask,1,76,
-200,a,-200,,,,,,,,,,,,,,,,,0,0,0,0,12,3,51,3,,,,,,,,,,,,,,,,,,,,,,,,,,,,,a,1,0.333603143692,None,0,2.0,triangleblue.gif,go,,,,,,,,,,,,,,,,,,,,,,,,2.05,0.514241933823,0.000951051712036,0.333603143692,1,a,390.937422037,,,,,,,,,,,,,,,,,,,,,,,,,,,,,,,,,,2015_Jul_02_1405,59.8236798453,LearningTask,1,76,
-200,q,200,,,,,,,,,,,,,,,,,0,0,0,0,13,0,52,1,,,,,,,,,,,,,,,,,,,,,,,,,,,,,q,1,0.384693861008,None,0,0.5,hexagonyellow.gif,stop,,,,,,,,,,,,,,,,,,,,,,,,0.54,0.514034032822,0.00124311447144,0.384693861008,1,q,393.940726042,,,,,,,,,,,,,,,,,,,,,,,,,,,,,,,,,,2015_Jul_02_1405,59.8236798453,LearningTask,1,76,
-200,q,200,,,,,,,,,,,,,,,,,0,0,0,0,13,1,53,1,,,,,,,,,,,,,,,,,,,,,,,,,,,,,q,1,0.334555864334,None,0,0.5,linewhite.gif,go,,,,,,,,,,,,,,,,,,,,,,,,0.73,0.514052867889,0.000918865203857,0.334555864334,1,q,396.944143057,,,,,,,,,,,,,,,,,,,,,,,,,,,,,,,,,,2015_Jul_02_1405,59.8236798453,LearningTask,1,76,
-200,q,200,,,,,,,,,,,,,,,,,0,0,0,0,13,2,54,1,,,,,,,,,,,,,,,,,,,,,,,,,,,,,q,1,0.317348003387,None,0,1.0,crosscyan.gif,stop,,,,,,,,,,,,,,,,,,,,,,,,1.0,0.514370918274,0.000910997390747,0.317348003387,1,q,399.94780302,,,,,,,,,,,,,,,,,,,,,,,,,,,,,,,,,,2015_Jul_02_1405,59.8236798453,LearningTask,1,76,
-200,a,-200,,,,,,,,,,,,,,,,,0,0,0,0,13,3,55,3,,,,,,,,,,,,,,,,,,,,,,,,,,,,,a,1,0.467667102814,None,0,1.0,crosscyan.gif,stop,,,,,,,,,,,,,,,,,,,,,,,,0.96,0.513474941254,0.000930070877075,0.467667102814,1,a,402.95107913,,,,,,,,,,,,,,,,,,,,,,,,,,,,,,,,,,2015_Jul_02_1405,59.8236798453,LearningTask,1,76,
-200,a,-200,,,,,,,,,,,,,,,,,0,0,0,0,14,0,56,3,,,,,,,,,,,,,,,,,,,,,,,,,,,,,a,1,0.333914995193,None,0,2.0,diamondmagenta.gif,stop,,,,,,,,,,,,,,,,,,,,,,,,2.14,0.514203071594,0.00134491920471,0.333914995193,1,a,405.954256058,,,,,,,,,,,,,,,,,,,,,,,,,,,,,,,,,,2015_Jul_02_1405,59.8236798453,LearningTask,1,76,
-200,q,200,,,,,,,,,,,,,,,,,0,0,0,0,14,1,57,1,,,,,,,,,,,,,,,,,,,,,,,,,,,,,q,1,0.367337942123,None,0,0.5,hexagonyellow.gif,stop,,,,,,,,,,,,,,,,,,,,,,,,0.51,0.514433860779,0.000903844833374,0.367337942123,1,q,408.957479954,,,,,,,,,,,,,,,,,,,,,,,,,,,,,,,,,,2015_Jul_02_1405,59.8236798453,LearningTask,1,76,
-200,a,-200,,,,,,,,,,,,,,,,,0,0,0,0,14,2,58,3,,,,,,,,,,,,,,,,,,,,,,,,,,,,,a,1,0.334036111832,None,0,0.5,linewhite.gif,go,,,,,,,,,,,,,,,,,,,,,,,,0.26,0.513942956924,0.000916957855225,0.334036111832,1,a,411.961266041,,,,,,,,,,,,,,,,,,,,,,,,,,,,,,,,,,2015_Jul_02_1405,59.8236798453,LearningTask,1,76,
200,w,200,,,,,,,,,,,,,,,,,0,0,0,0,14,3,59,0,,,,,,,,,,,,,,,,,,,,,,,,,,,,,w,1,0.350691080093,None,0,0.5,linewhite.gif,go,,,,,,,,,,,,,,,,,,,,,,,,0,0.514086961746,0.00089693069458,0.350691080093,1,w,414.964972973,,,,,,,,,,,,,,,,,,,,,,,,,,,,,,,,,,2015_Jul_02_1405,59.8236798453,LearningTask,1,76,
200,s,-200,,,,,,,,,,,,,,,,,0,0,0,0,15,0,60,2,,,,,,,,,,,,,,,,,,,,,,,,,,,,,s,1,0.383955001831,None,0,2.0,diamondmagenta.gif,stop,,,,,,,,,,,,,,,,,,,,,,,,1.8,0.513576030731,0.000998020172119,0.383955001831,1,s,417.96835494,,,,,,,,,,,,,,,,,,,,,,,,,,,,,,,,,,2015_Jul_02_1405,59.8236798453,LearningTask,1,76,
200,w,200,,,,,,,,,,,,,,,,,0,0,0,0,15,1,61,0,,,,,,,,,,,,,,,,,,,,,,,,,,,,,w,1,0.384565830231,None,0,1.0,circlegray.gif,go,,,,,,,,,,,,,,,,,,,,,,,,1.2,0.513769865036,0.000917911529541,0.384565830231,1,w,420.971384048,,,,,,,,,,,,,,,,,,,,,,,,,,,,,,,,,,2015_Jul_02_1405,59.8236798453,LearningTask,1,76,
200,s,-200,,,,,,,,,,,,,,,,,0,0,0,0,15,2,62,2,,,,,,,,,,,,,,,,,,,,,,,,,,,,,s,1,0.417773008347,None,0,0.5,linewhite.gif,go,,,,,,,,,,,,,,,,,,,,,,,,0.46,0.514215946198,0.000900030136108,0.417773008347,1,s,423.974560022,,,,,,,,,,,,,,,,,,,,,,,,,,,,,,,,,,2015_Jul_02_1405,59.8236798453,LearningTask,1,76,
-200,a,-200,,,,,,,,,,,,,,,,,0,0,0,0,15,3,63,3,,,,,,,,,,,,,,,,,,,,,,,,,,,,,a,1,0.367215871811,None,0,0.5,linewhite.gif,go,,,,,,,,,,,,,,,,,,,,,,,,0.57,0.514366149902,0.000923156738281,0.367215871811,1,a,426.978168011,,,,,,,,,,,,,,,,,,,,,,,,,,,,,,,,,,2015_Jul_02_1405,59.8236798453,LearningTask,1,76,
-200,q,200,,,,,,,,,,,,,,,,,0,0,0,0,16,0,64,1,,,,,,,,,,,,,,,,,,,,,,,,,,,,,q,1,0.384294033051,None,0,1.0,crosscyan.gif,stop,,,,,,,,,,,,,,,,,,,,,,,,1.24,0.514302015305,0.000890970230103,0.384294033051,1,q,429.981246948,,,,,,,,,,,,,,,,,,,,,,,,,,,,,,,,,,2015_Jul_02_1405,59.8236798453,LearningTask,1,76,
-200,q,200,,,,,,,,,,,,,,,,,0,0,0,0,16,1,65,1,,,,,,,,,,,,,,,,,,,,,,,,,,,,,q,1,0.284231901169,None,0,0.5,linewhite.gif,go,,,,,,,,,,,,,,,,,,,,,,,,0.51,0.514117002487,0.00101685523987,0.284231901169,1,q,432.984860897,,,,,,,,,,,,,,,,,,,,,,,,,,,,,,,,,,2015_Jul_02_1405,59.8236798453,LearningTask,1,76,
-200,q,200,,,,,,,,,,,,,,,,,0,0,0,0,16,2,66,1,,,,,,,,,,,,,,,,,,,,,,,,,,,,,q,1,0.317358016968,None,0,0.5,hexagonyellow.gif,stop,,,,,,,,,,,,,,,,,,,,,,,,0.69,0.51403093338,0.000951051712036,0.317358016968,1,q,435.988068104,,,,,,,,,,,,,,,,,,,,,,,,,,,,,,,,,,2015_Jul_02_1405,59.8236798453,LearningTask,1,76,
-200,q,200,,,,,,,,,,,,,,,,,0,0,0,0,16,3,67,1,,,,,,,,,,,,,,,,,,,,,,,,,,,,,q,1,0.350914001465,None,0,2.0,triangleblue.gif,go,,,,,,,,,,,,,,,,,,,,,,,,0,0.514544010162,0.000899791717529,0.350914001465,1,q,438.991396904,,,,,,,,,,,,,,,,,,,,,,,,,,,,,,,,,,2015_Jul_02_1405,59.8236798453,LearningTask,1,76,
200,s,-200,,,,,,,,,,,,,,,,,0,0,0,0,17,0,68,2,,,,,,,,,,,,,,,,,,,,,,,,,,,,,s,1,0.367593050003,None,0,0.5,linewhite.gif,go,,,,,,,,,,,,,,,,,,,,,,,,0.68,0.514055967331,0.00103092193604,0.367593050003,1,s,441.995127916,,,,,,,,,,,,,,,,,,,,,,,,,,,,,,,,,,2015_Jul_02_1405,59.8236798453,LearningTask,1,76,
-200,a,-200,,,,,,,,,,,,,,,,,0,0,0,0,17,1,69,3,,,,,,,,,,,,,,,,,,,,,,,,,,,,,a,1,0.383905887604,None,0,1.0,circlegray.gif,go,,,,,,,,,,,,,,,,,,,,,,,,0.76,0.514209032059,0.000897884368896,0.383905887604,1,a,444.998157978,,,,,,,,,,,,,,,,,,,,,,,,,,,,,,,,,,2015_Jul_02_1405,59.8236798453,LearningTask,1,76,
-200,q,200,,,,,,,,,,,,,,,,,0,0,0,0,17,2,70,1,,,,,,,,,,,,,,,,,,,,,,,,,,,,,q,1,0.367391109467,None,0,2.0,triangleblue.gif,go,,,,,,,,,,,,,,,,,,,,,,,,2.19,0.51441192627,0.000890970230103,0.367391109467,1,q,448.001574993,,,,,,,,,,,,,,,,,,,,,,,,,,,,,,,,,,2015_Jul_02_1405,59.8236798453,LearningTask,1,76,
-200,a,-200,,,,,,,,,,,,,,,,,0,0,0,0,17,3,71,3,,,,,,,,,,,,,,,,,,,,,,,,,,,,,a,1,0.334103107452,None,0,0.5,hexagonyellow.gif,stop,,,,,,,,,,,,,,,,,,,,,,,,0.59,0.514127969742,0.00092887878418,0.334103107452,1,a,451.005064964,,,,,,,,,,,,,,,,,,,,,,,,,,,,,,,,,,2015_Jul_02_1405,59.8236798453,LearningTask,1,76,
-200,q,200,,,,,,,,,,,,,,,,,0,0,0,0,18,0,72,1,,,,,,,,,,,,,,,,,,,,,,,,,,,,,q,1,0.46764087677,None,0,2.0,triangleblue.gif,go,,,,,,,,,,,,,,,,,,,,,,,,1.96,0.514095067978,0.000890970230103,0.46764087677,1,q,454.00830698,,,,,,,,,,,,,,,,,,,,,,,,,,,,,,,,,,2015_Jul_02_1405,59.8236798453,LearningTask,1,76,
200,w,200,,,,,,,,,,,,,,,,,0,0,0,0,18,1,73,0,,,,,,,,,,,,,,,,,,,,,,,,,,,,,w,1,0.334082126617,None,0,4.0,invertedtrianglegreen.gif,stop,,,,,,,,,,,,,,,,,,,,,,,,3.8,0.51433300972,0.000916004180908,0.334082126617,1,w,457.011966944,,,,,,,,,,,,,,,,,,,,,,,,,,,,,,,,,,2015_Jul_02_1405,59.8236798453,LearningTask,1,76,
-200,q,200,,,,,,,,,,,,,,,,,0,0,0,0,18,2,74,1,,,,,,,,,,,,,,,,,,,,,,,,,,,,,q,1,0.434652090073,None,0,1.0,circlegray.gif,go,,,,,,,,,,,,,,,,,,,,,,,,0.85,0.514055013657,0.000907182693481,0.434652090073,1,q,460.015160084,,,,,,,,,,,,,,,,,,,,,,,,,,,,,,,,,,2015_Jul_02_1405,59.8236798453,LearningTask,1,76,
200,s,-200,,,,,,,,,,,,,,,,,0,0,0,0,18,3,75,2,,,,,,,,,,,,,,,,,,,,,,,,,,,,,s,1,0.384510993958,None,0,1.0,crosscyan.gif,stop,,,,,,,,,,,,,,,,,,,,,,,,0,0.514359951019,0.00096607208252,0.384510993958,1,s,463.018525124,,,,,,,,,,,,,,,,,,,,,,,,,,,,,,,,,,2015_Jul_02_1405,59.8236798453,LearningTask,1,76,
-200,a,-200,,,,,,,,,,,,,,,,,0,0,0,0,19,0,76,3,,,,,,,,,,,,,,,,,,,,,,,,,,,,,a,1,0.367370843887,None,0,2.0,triangleblue.gif,go,,,,,,,,,,,,,,,,,,,,,,,,2.03,0.514433860779,0.000901937484741,0.367370843887,1,a,466.021907091,,,,,,,,,,,,,,,,,,,,,,,,,,,,,,,,,,2015_Jul_02_1405,59.8236798453,LearningTask,1,76,
200,s,-200,,,,,,,,,,,,,,,,,0,0,0,0,19,1,77,2,,,,,,,,,,,,,,,,,,,,,,,,,,,,,s,1,0.401128053665,None,0,0.5,linewhite.gif,go,,,,,,,,,,,,,,,,,,,,,,,,0.37,0.514221906662,0.00089693069458,0.401128053665,1,s,469.025224924,,,,,,,,,,,,,,,,,,,,,,,,,,,,,,,,,,2015_Jul_02_1405,59.8236798453,LearningTask,1,76,
200,w,200,,,,,,,,,,,,,,,,,0,0,0,0,19,2,78,0,,,,,,,,,,,,,,,,,,,,,,,,,,,,,w,1,0.367493867874,None,0,4.0,invertedtrianglegreen.gif,stop,,,,,,,,,,,,,,,,,,,,,,,,4.17,0.514328956604,0.00095009803772,0.367493867874,1,w,472.028712988,,,,,,,,,,,,,,,,,,,,,,,,,,,,,,,,,,2015_Jul_02_1405,59.8236798453,LearningTask,1,76,
200,s,-200,,,,,,,,,,,,,,,,,0,0,0,0,19,3,79,2,,,,,,,,,,,,,,,,,,,,,,,,,,,,,s,1,0.384665966034,None,0,4.0,invertedtrianglegreen.gif,stop,,,,,,,,,,,,,,,,,,,,,,,,4.22,0.514032125473,0.000961065292358,0.384665966034,1,s,475.031989098,,,,,,,,,,,,,,,,,,,,,,,,,,,,,,,,,,2015_Jul_02_1405,59.8236798453,LearningTask,1,76,
200,w,200,,,,,,,,,,,,,,,,,0,0,0,0,20,0,80,0,,,,,,,,,,,,,,,,,,,,,,,,,,,,,w,1,0.417562961578,None,0,4.0,invertedtrianglegreen.gif,stop,,,,,,,,,,,,,,,,,,,,,,,,4.2,0.514376878738,0.000923871994019,0.417562961578,1,w,478.035723925,,,,,,,,,,,,,,,,,,,,,,,,,,,,,,,,,,2015_Jul_02_1405,59.8236798453,LearningTask,1,76,
-200,q,200,,,,,,,,,,,,,,,,,0,0,0,0,20,1,81,1,,,,,,,,,,,,,,,,,,,,,,,,,,,,,q,1,0.417117118835,None,0,0.5,hexagonyellow.gif,stop,,,,,,,,,,,,,,,,,,,,,,,,0,0.514065980911,0.000976085662842,0.417117118835,1,q,481.03874898,,,,,,,,,,,,,,,,,,,,,,,,,,,,,,,,,,2015_Jul_02_1405,59.8236798453,LearningTask,1,76,
-200,q,200,,,,,,,,,,,,,,,,,0,0,0,0,20,2,82,1,,,,,,,,,,,,,,,,,,,,,,,,,,,,,q,1,0.417823076248,None,0,1.0,crosscyan.gif,stop,,,,,,,,,,,,,,,,,,,,,,,,0.96,0.514022827148,0.000917911529541,0.417823076248,1,q,484.04212904,,,,,,,,,,,,,,,,,,,,,,,,,,,,,,,,,,2015_Jul_02_1405,59.8236798453,LearningTask,1,76,
200,s,-200,,,,,,,,,,,,,,,,,0,0,0,0,20,3,83,2,,,,,,,,,,,,,,,,,,,,,,,,,,,,,s,1,0.417649030685,None,0,2.0,triangleblue.gif,go,,,,,,,,,,,,,,,,,,,,,,,,2.08,0.514362096786,0.000900983810425,0.417649030685,1,s,487.04538393,,,,,,,,,,,,,,,,,,,,,,,,,,,,,,,,,,2015_Jul_02_1405,59.8236798453,LearningTask,1,76,
200,w,200,,,,,,,,,,,,,,,,,0,0,0,0,21,0,84,0,,,,,,,,,,,,,,,,,,,,,,,,,,,,,w,1,0.334593057632,None,0,0.5,hexagonyellow.gif,stop,,,,,,,,,,,,,,,,,,,,,,,,0.5,0.514118909836,0.000930786132812,0.334593057632,1,w,490.048906088,,,,,,,,,,,,,,,,,,,,,,,,,,,,,,,,,,2015_Jul_02_1405,59.8236798453,LearningTask,1,76,
-200,q,200,,,,,,,,,,,,,,,,,0,0,0,0,21,1,85,1,,,,,,,,,,,,,,,,,,,,,,,,,,,,,q,1,0.417366981506,None,0,4.0,invertedtrianglegreen.gif,stop,,,,,,,,,,,,,,,,,,,,,,,,3.77,0.514419078827,0.000898122787476,0.417366981506,1,q,493.052163124,,,,,,,,,,,,,,,,,,,,,,,,,,,,,,,,,,2015_Jul_02_1405,59.8236798453,LearningTask,1,76,
200,w,200,,,,,,,,,,,,,,,,,0,0,0,0,21,2,86,0,,,,,,,,,,,,,,,,,,,,,,,,,,,,,w,1,0.367570161819,None,0,2.0,triangleblue.gif,go,,,,,,,,,,,,,,,,,,,,,,,,2.15,0.514575958252,0.000900983810425,0.367570161819,1,w,496.056138992,,,,,,,,,,,,,,,,,,,,,,,,,,,,,,,,,,2015_Jul_02_1405,59.8236798453,LearningTask,1,76,
200,w,200,,,,,,,,,,,,,,,,,0,0,0,0,21,3,87,0,,,,,,,,,,,,,,,,,,,,,,,,,,,,,w,1,0.30140209198,None,0,4.0,invertedtrianglegreen.gif,stop,,,,,,,,,,,,,,,,,,,,,,,,3.93,0.513450860977,0.000942945480347,0.30140209198,1,w,499.059256077,,,,,,,,,,,,,,,,,,,,,,,,,,,,,,,,,,2015_Jul_02_1405,59.8236798453,LearningTask,1,76,
-200,a,-200,,,,,,,,,,,,,,,,,0,0,0,0,22,0,88,3,,,,,,,,,,,,,,,,,,,,,,,,,,,,,a,1,0.417742013931,None,0,1.0,crosscyan.gif,stop,,,,,,,,,,,,,,,,,,,,,,,,0.82,0.514001846313,0.000898838043213,0.417742013931,1,a,502.06249404,,,,,,,,,,,,,,,,,,,,,,,,,,,,,,,,,,2015_Jul_02_1405,59.8236798453,LearningTask,1,76,
200,w,200,,,,,,,,,,,,,,,,,0,0,0,0,22,1,89,0,,,,,,,,,,,,,,,,,,,,,,,,,,,,,w,1,0.317437887192,None,0,1.0,circlegray.gif,go,,,,,,,,,,,,,,,,,,,,,,,,0,0.514132976532,0.000911951065063,0.317437887192,1,w,505.066150904,,,,,,,,,,,,,,,,,,,,,,,,,,,,,,,,,,2015_Jul_02_1405,59.8236798453,LearningTask,1,76,
200,s,-200,,,,,,,,,,,,,,,,,0,0,0,0,22,2,90,2,,,,,,,,,,,,,,,,,,,,,,,,,,,,,s,1,0.384314060211,None,0,0.5,linewhite.gif,go,,,,,,,,,,,,,,,,,,,,,,,,0.45,0.513844966888,0.000895023345947,0.384314060211,1,s,508.069207907,,,,,,,,,,,,,,,,,,,,,,,,,,,,,,,,,,2015_Jul_02_1405,59.8236798453,LearningTask,1,76,
200,w,200,,,,,,,,,,,,,,,,,0,0,0,0,22,3,91,0,,,,,,,,,,,,,,,,,,,,,,,,,,,,,w,1,0.367384195328,None,0,1.0,crosscyan.gif,stop,,,,,,,,,,,,,,,,,,,,,,,,0,0.514360904694,0.000935077667236,0.367384195328,1,w,511.072520018,,,,,,,,,,,,,,,,,,,,,,,,,,,,,,,,,,2015_Jul_02_1405,59.8236798453,LearningTask,1,76,
-200,a,-200,,,,,,,,,,,,,,,,,0,0,0,0,23,0,92,3,,,,,,,,,,,,,,,,,,,,,,,,,,,,,a,1,0.401480913162,None,0,2.0,diamondmagenta.gif,stop,,,,,,,,,,,,,,,,,,,,,,,,1.91,0.514390945435,0.000946044921875,0.401480913162,1,a,514.076416016,,,,,,,,,,,,,,,,,,,,,,,,,,,,,,,,,,2015_Jul_02_1405,59.8236798453,LearningTask,1,76,
-200,q,200,,,,,,,,,,,,,,,,,0,0,0,0,23,1,93,1,,,,,,,,,,,,,,,,,,,,,,,,,,,,,q,1,0.400465011597,None,0,1.0,crosscyan.gif,stop,,,,,,,,,,,,,,,,,,,,,,,,0.92,0.514125823975,0.000897884368896,0.400465011597,1,q,517.079375029,,,,,,,,,,,,,,,,,,,,,,,,,,,,,,,,,,2015_Jul_02_1405,59.8236798453,LearningTask,1,76,
-200,a,-200,,,,,,,,,,,,,,,,,0,0,0,0,23,2,94,3,,,,,,,,,,,,,,,,,,,,,,,,,,,,,a,1,0.367472887039,None,0,2.0,triangleblue.gif,go,,,,,,,,,,,,,,,,,,,,,,,,1.87,0.514332056046,0.00105905532837,0.367472887039,1,a,520.082999945,,,,,,,,,,,,,,,,,,,,,,,,,,,,,,,,,,2015_Jul_02_1405,59.8236798453,LearningTask,1,76,
200,w,200,,,,,,,,,,,,,,,,,0,0,0,0,23,3,95,0,,,,,,,,,,,,,,,,,,,,,,,,,,,,,w,1,0.367463111877,None,0,4.0,squareorange.gif,go,,,,,,,,,,,,,,,,,,,,,,,,3.81,0.513736963272,0.000936031341553,0.367463111877,1,w,523.086077929,,,,,,,,,,,,,,,,,,,,,,,,,,,,,,,,,,2015_Jul_02_1405,59.8236798453,LearningTask,1,76,
200,s,-200,,,,,,,,,,,,,,,,,0,0,0,0,24,0,96,2,,,,,,,,,,,,,,,,,,,,,,,,,,,,,s,1,0.551472187042,None,0,2.0,diamondmagenta.gif,stop,,,,,,,,,,,,,,,,,,,,,,,,1.85,0.514342069626,0.000896215438843,0.551472187042,1,s,526.089394093,,,,,,,,,,,,,,,,,,,,,,,,,,,,,,,,,,2015_Jul_02_1405,59.8236798453,LearningTask,1,76,
-200,a,-200,,,,,,,,,,,,,,,,,0,0,0,0,24,1,97,3,,,,,,,,,,,,,,,,,,,,,,,,,,,,,a,1,0.617505073547,None,0,1.0,circlegray.gif,go,,,,,,,,,,,,,,,,,,,,,,,,0.96,0.514029026031,0.000952005386353,0.617505073547,1,a,529.092766047,,,,,,,,,,,,,,,,,,,,,,,,,,,,,,,,,,2015_Jul_02_1405,59.8236798453,LearningTask,1,76,
200,s,-200,,,,,,,,,,,,,,,,,0,0,0,0,24,2,98,2,,,,,,,,,,,,,,,,,,,,,,,,,,,,,s,1,0.334713935852,None,0,2.0,diamondmagenta.gif,stop,,,,,,,,,,,,,,,,,,,,,,,,2.16,0.514021158218,0.000897169113159,0.334713935852,1,s,532.096100092,,,,,,,,,,,,,,,,,,,,,,,,,,,,,,,,,,2015_Jul_02_1405,59.8236798453,LearningTask,1,76,
200,w,200,,,,,,,,,,,,,,,,,0,0,0,0,24,3,99,0,,,,,,,,,,,,,,,,,,,,,,,,,,,,,w,1,0.584456205368,None,0,2.0,diamondmagenta.gif,stop,,,,,,,,,,,,,,,,,,,,,,,,2.24,0.514518976212,0.000894069671631,0.584456205368,1,w,535.099534988,,,,,,,,,,,,,,,,,,,,,,,,,,,,,,,,,,2015_Jul_02_1405,59.8236798453,LearningTask,1,76,
,,,,,,,,,,,,,,,,,,,0,0,0,0,,,,,,,,,,,,,,,,,,,,,,,,,,,,,,,,,,,,,,,,,,,,,,,,,,,,,,,,,,,,,,,,,,,,,,,,,,,,,,9,5.29498386383,,,,,,,,,,,,,,,,,,,,,,,,,2015_Jul_02_1405,59.8236798453,LearningTask,1,76,
200,w,200,,,,,,,,,,,,,,,,,1,0,1,0,0,0,0,0,,,,,,,,,,,,,,,,,,,,,,,,,,,,,w,1,0.384142875671,None,0,0.5,linewhite.gif,go,,,,,,,,,,,,,,,,,,,,,,,,0.6,0.509726047516,0.000979900360107,0.384142875671,1,w,543.84346509,,,,,,,,,,,,,,,,,,,,,,,,,,,,,,,,,,2015_Jul_02_1405,59.8236798453,LearningTask,1,76,
200,w,200,,,,,,,,,,,,,,,,,1,0,1,0,0,1,1,0,,,,,,,,,,,,,,,,,,,,,,,,,,,,,w,1,0.333945989609,None,0,1.0,crosscyan.gif,stop,,,,,,,,,,,,,,,,,,,,,,,,0,0.51368689537,0.00089693069458,0.333945989609,1,w,546.846326113,,,,,,,,,,,,,,,,,,,,,,,,,,,,,,,,,,2015_Jul_02_1405,59.8236798453,LearningTask,1,76,
200,s,-200,,,,,,,,,,,,,,,,,1,0,1,0,0,2,2,2,,,,,,,,,,,,,,,,,,,,,,,,,,,,,s,1,0.367414951324,None,0,4.0,invertedtrianglegreen.gif,stop,,,,,,,,,,,,,,,,,,,,,,,,0,0.513813018799,0.000958919525146,0.367414951324,1,s,549.849462032,,,,,,,,,,,,,,,,,,,,,,,,,,,,,,,,,,2015_Jul_02_1405,59.8236798453,LearningTask,1,76,
200,w,200,,,,,,,,,,,,,,,,,1,0,1,0,0,3,3,0,,,,,,,,,,,,,,,,,,,,,,,,,,,,,w,1,0.367681026459,None,0,1.0,circlegray.gif,go,,,,,,,,,,,,,,,,,,,,,,,,1.1,0.51437497139,0.000900030136108,0.367681026459,1,w,552.852689981,,,,,,,,,,,,,,,,,,,,,,,,,,,,,,,,,,2015_Jul_02_1405,59.8236798453,LearningTask,1,76,
200,w,200,,,,,,,,,,,,,,,,,1,0,1,0,1,0,4,0,,,,,,,,,,,,,,,,,,,,,,,,,,,,,w,1,0.334435939789,None,0,0.5,linewhite.gif,go,,,,,,,,,,,,,,,,,,,,,,,,0.47,0.514271974564,0.000897884368896,0.334435939789,1,w,555.856914997,,,,,,,,,,,,,,,,,,,,,,,,,,,,,,,,,,2015_Jul_02_1405,59.8236798453,LearningTask,1,76,
-200,a,-200,,,,,,,,,,,,,,,,,1,0,1,0,1,1,5,3,,,,,,,,,,,,,,,,,,,,,,,,,,,,,a,1,0.367269039154,None,0,1.0,crosscyan.gif,stop,,,,,,,,,,,,,,,,,,,,,,,,0.94,0.513889074326,0.000900030136108,0.367269039154,1,a,558.859683037,,,,,,,,,,,,,,,,,,,,,,,,,,,,,,,,,,2015_Jul_02_1405,59.8236798453,LearningTask,1,76,
-200,q,200,,,,,,,,,,,,,,,,,1,0,1,0,1,2,6,1,,,,,,,,,,,,,,,,,,,,,,,,,,,,,q,1,0.334331035614,None,0,0.5,hexagonyellow.gif,stop,,,,,,,,,,,,,,,,,,,,,,,,0.26,0.514260053635,0.000969886779785,0.334331035614,1,q,561.862972021,,,,,,,,,,,,,,,,,,,,,,,,,,,,,,,,,,2015_Jul_02_1405,59.8236798453,LearningTask,1,76,
-200,a,-200,,,,,,,,,,,,,,,,,1,0,1,0,1,3,7,3,,,,,,,,,,,,,,,,,,,,,,,,,,,,,a,1,0.383977890015,None,0,0.5,hexagonyellow.gif,stop,,,,,,,,,,,,,,,,,,,,,,,,0.41,0.514542818069,0.000894784927368,0.383977890015,1,a,564.866404057,,,,,,,,,,,,,,,,,,,,,,,,,,,,,,,,,,2015_Jul_02_1405,59.8236798453,LearningTask,1,76,
-200,a,-200,,,,,,,,,,,,,,,,,1,0,1,0,2,0,8,3,,,,,,,,,,,,,,,,,,,,,,,,,,,,,a,1,0.334138870239,None,0,1.0,circlegray.gif,go,,,,,,,,,,,,,,,,,,,,,,,,0,0.514366865158,0.000904083251953,0.334138870239,1,a,567.86963892,,,,,,,,,,,,,,,,,,,,,,,,,,,,,,,,,,2015_Jul_02_1405,59.8236798453,LearningTask,1,76,
-200,q,200,,,,,,,,,,,,,,,,,1,0,1,0,2,1,9,1,,,,,,,,,,,,,,,,,,,,,,,,,,,,,q,1,0.317945957184,None,0,2.0,diamondmagenta.gif,stop,,,,,,,,,,,,,,,,,,,,,,,,0,0.514127969742,0.00108909606934,0.317945957184,1,q,570.873333931,,,,,,,,,,,,,,,,,,,,,,,,,,,,,,,,,,2015_Jul_02_1405,59.8236798453,LearningTask,1,76,
-200,a,-200,,,,,,,,,,,,,,,,,1,0,1,0,2,2,10,3,,,,,,,,,,,,,,,,,,,,,,,,,,,,,a,1,0.367939949036,None,0,0.5,hexagonyellow.gif,stop,,,,,,,,,,,,,,,,,,,,,,,,0.6,0.514169931412,0.00102090835571,0.367939949036,1,a,573.876441002,,,,,,,,,,,,,,,,,,,,,,,,,,,,,,,,,,2015_Jul_02_1405,59.8236798453,LearningTask,1,76,
200,s,-200,,,,,,,,,,,,,,,,,1,0,1,0,2,3,11,2,,,,,,,,,,,,,,,,,,,,,,,,,,,,,s,1,0.367286920547,None,0,1.0,crosscyan.gif,stop,,,,,,,,,,,,,,,,,,,,,,,,0.86,0.514517068863,0.000900983810425,0.367286920547,1,s,576.879852057,,,,,,,,,,,,,,,,,,,,,,,,,,,,,,,,,,2015_Jul_02_1405,59.8236798453,LearningTask,1,76,
200,w,200,,,,,,,,,,,,,,,,,1,0,1,0,3,0,12,0,,,,,,,,,,,,,,,,,,,,,,,,,,,,,w,1,0.351027011871,None,0,1.0,crosscyan.gif,stop,,,,,,,,,,,,,,,,,,,,,,,,0.85,0.514350891113,0.000940799713135,0.351027011871,1,w,579.883141994,,,,,,,,,,,,,,,,,,,,,,,,,,,,,,,,,,2015_Jul_02_1405,59.8236798453,LearningTask,1,76,
200,s,-200,,,,,,,,,,,,,,,,,1,0,1,0,3,1,13,2,,,,,,,,,,,,,,,,,,,,,,,,,,,,,s,1,0.367471218109,None,0,1.0,circlegray.gif,go,,,,,,,,,,,,,,,,,,,,,,,,0,0.514472007751,0.000898122787476,0.367471218109,1,s,582.886811018,,,,,,,,,,,,,,,,,,,,,,,,,,,,,,,,,,2015_Jul_02_1405,59.8236798453,LearningTask,1,76,
-200,q,200,,,,,,,,,,,,,,,,,1,0,1,0,3,2,14,1,,,,,,,,,,,,,,,,,,,,,,,,,,,,,q,1,0.368115186691,None,0,4.0,squareorange.gif,go,,,,,,,,,,,,,,,,,,,,,,,,4.0,0.514046907425,0.000884056091309,0.368115186691,1,q,585.890360117,,,,,,,,,,,,,,,,,,,,,,,,,,,,,,,,,,2015_Jul_02_1405,59.8236798453,LearningTask,1,76,
-200,a,-200,,,,,,,,,,,,,,,,,1,0,1,0,3,3,15,3,,,,,,,,,,,,,,,,,,,,,,,,,,,,,a,1,0.384224891663,None,0,2.0,triangleblue.gif,go,,,,,,,,,,,,,,,,,,,,,,,,2.02,0.514075994492,0.000903129577637,0.384224891663,1,a,588.89339304,,,,,,,,,,,,,,,,,,,,,,,,,,,,,,,,,,2015_Jul_02_1405,59.8236798453,LearningTask,1,76,
-200,a,-200,,,,,,,,,,,,,,,,,1,0,1,0,4,0,16,3,,,,,,,,,,,,,,,,,,,,,,,,,,,,,a,1,0.35084605217,None,0,2.0,diamondmagenta.gif,stop,,,,,,,,,,,,,,,,,,,,,,,,1.94,0.514122009277,0.000901937484741,0.35084605217,1,a,591.896934032,,,,,,,,,,,,,,,,,,,,,,,,,,,,,,,,,,2015_Jul_02_1405,59.8236798453,LearningTask,1,76,
-200,q,200,,,,,,,,,,,,,,,,,1,0,1,0,4,1,17,1,,,,,,,,,,,,,,,,,,,,,,,,,,,,,q,1,0.4007999897,None,0,1.0,circlegray.gif,go,,,,,,,,,,,,,,,,,,,,,,,,1.22,0.514158964157,0.000895023345947,0.4007999897,1,q,594.900886059,,,,,,,,,,,,,,,,,,,,,,,,,,,,,,,,,,2015_Jul_02_1405,59.8236798453,LearningTask,1,76,
200,w,200,,,,,,,,,,,,,,,,,1,0,1,0,4,2,18,0,,,,,,,,,,,,,,,,,,,,,,,,,,,,,w,1,0.467837810516,None,0,1.0,circlegray.gif,go,,,,,,,,,,,,,,,,,,,,,,,,1.25,0.513492822647,0.000914812088013,0.467837810516,1,w,597.903748989,,,,,,,,,,,,,,,,,,,,,,,,,,,,,,,,,,2015_Jul_02_1405,59.8236798453,LearningTask,1,76,
200,s,-200,,,,,,,,,,,,,,,,,1,0,1,0,4,3,19,2,,,,,,,,,,,,,,,,,,,,,,,,,,,,,s,1,0.500972986221,None,0,1.0,crosscyan.gif,stop,,,,,,,,,,,,,,,,,,,,,,,,0,0.514126062393,0.00096607208252,0.500972986221,1,s,600.907197952,,,,,,,,,,,,,,,,,,,,,,,,,,,,,,,,,,2015_Jul_02_1405,59.8236798453,LearningTask,1,76,
-200,q,200,,,,,,,,,,,,,,,,,1,0,1,0,5,0,20,1,,,,,,,,,,,,,,,,,,,,,,,,,,,,,q,1,0.700875997543,None,0,2.0,diamondmagenta.gif,stop,,,,,,,,,,,,,,,,,,,,,,,,0,0.514252185822,0.000876188278198,0.700875997543,1,q,603.910581112,,,,,,,,,,,,,,,,,,,,,,,,,,,,,,,,,,2015_Jul_02_1405,59.8236798453,LearningTask,1,76,
200,w,200,,,,,,,,,,,,,,,,,1,0,1,0,5,1,21,0,,,,,,,,,,,,,,,,,,,,,,,,,,,,,w,1,0.450678110123,None,0,1.0,circlegray.gif,go,,,,,,,,,,,,,,,,,,,,,,,,1.1,0.514237880707,0.000880002975464,0.450678110123,1,w,606.913713932,,,,,,,,,,,,,,,,,,,,,,,,,,,,,,,,,,2015_Jul_02_1405,59.8236798453,LearningTask,1,76,
-200,a,-200,,,,,,,,,,,,,,,,,1,0,1,0,5,2,22,3,,,,,,,,,,,,,,,,,,,,,,,,,,,,,a,1,0.400675058365,None,0,1.0,crosscyan.gif,stop,,,,,,,,,,,,,,,,,,,,,,,,1.18,0.514137983322,0.0010039806366,0.400675058365,1,a,609.916912079,,,,,,,,,,,,,,,,,,,,,,,,,,,,,,,,,,2015_Jul_02_1405,59.8236798453,LearningTask,1,76,
200,w,200,,,,,,,,,,,,,,,,,1,0,1,0,5,3,23,0,,,,,,,,,,,,,,,,,,,,,,,,,,,,,w,1,0.367639064789,None,0,2.0,triangleblue.gif,go,,,,,,,,,,,,,,,,,,,,,,,,1.89,0.51443696022,0.000882863998413,0.367639064789,1,w,612.920783043,,,,,,,,,,,,,,,,,,,,,,,,,,,,,,,,,,2015_Jul_02_1405,59.8236798453,LearningTask,1,76,
-200,a,-200,,,,,,,,,,,,,,,,,1,0,1,0,6,0,24,3,,,,,,,,,,,,,,,,,,,,,,,,,,,,,a,1,0.400876998901,None,0,4.0,invertedtrianglegreen.gif,stop,,,,,,,,,,,,,,,,,,,,,,,,4.14,0.513736009598,0.0011260509491,0.400876998901,1,a,615.923797131,,,,,,,,,,,,,,,,,,,,,,,,,,,,,,,,,,2015_Jul_02_1405,59.8236798453,LearningTask,1,76,
-200,q,200,,,,,,,,,,,,,,,,,1,0,1,0,6,1,25,1,,,,,,,,,,,,,,,,,,,,,,,,,,,,,q,1,0.450878858566,None,0,1.0,circlegray.gif,go,,,,,,,,,,,,,,,,,,,,,,,,0,0.514413833618,0.00107192993164,0.450878858566,1,q,618.927171946,,,,,,,,,,,,,,,,,,,,,,,,,,,,,,,,,,2015_Jul_02_1405,59.8236798453,LearningTask,1,76,
200,s,-200,,,,,,,,,,,,,,,,,1,0,1,0,6,2,26,2,,,,,,,,,,,,,,,,,,,,,,,,,,,,,s,1,0.400849103928,None,0,2.0,triangleblue.gif,go,,,,,,,,,,,,,,,,,,,,,,,,1.78,0.514195919037,0.00087308883667,0.400849103928,1,s,621.930426121,,,,,,,,,,,,,,,,,,,,,,,,,,,,,,,,,,2015_Jul_02_1405,59.8236798453,LearningTask,1,76,
-200,a,-200,,,,,,,,,,,,,,,,,1,0,1,0,6,3,27,3,,,,,,,,,,,,,,,,,,,,,,,,,,,,,a,1,0.350598096848,None,0,1.0,circlegray.gif,go,,,,,,,,,,,,,,,,,,,,,,,,1.19,0.514492034912,0.00094199180603,0.350598096848,1,a,624.933945894,,,,,,,,,,,,,,,,,,,,,,,,,,,,,,,,,,2015_Jul_02_1405,59.8236798453,LearningTask,1,76,
200,w,200,,,,,,,,,,,,,,,,,1,0,1,0,7,0,28,0,,,,,,,,,,,,,,,,,,,,,,,,,,,,,w,1,0.384359121323,None,0,0.5,hexagonyellow.gif,stop,,,,,,,,,,,,,,,,,,,,,,,,0.38,0.513818025589,0.000923156738281,0.384359121323,1,w,627.937267065,,,,,,,,,,,,,,,,,,,,,,,,,,,,,,,,,,2015_Jul_02_1405,59.8236798453,LearningTask,1,76,
-200,q,200,,,,,,,,,,,,,,,,,1,0,1,0,7,1,29,1,,,,,,,,,,,,,,,,,,,,,,,,,,,,,q,1,0.417909145355,None,0,2.0,triangleblue.gif,go,,,,,,,,,,,,,,,,,,,,,,,,1.76,0.51393699646,0.000916004180908,0.417909145355,1,q,630.940721035,,,,,,,,,,,,,,,,,,,,,,,,,,,,,,,,,,2015_Jul_02_1405,59.8236798453,LearningTask,1,76,
-200,q,200,,,,,,,,,,,,,,,,,1,0,1,0,7,2,30,1,,,,,,,,,,,,,,,,,,,,,,,,,,,,,q,1,0.367291212082,None,0,0.5,linewhite.gif,go,,,,,,,,,,,,,,,,,,,,,,,,0.37,0.514367818832,0.000875949859619,0.367291212082,1,q,633.944312096,,,,,,,,,,,,,,,,,,,,,,,,,,,,,,,,,,2015_Jul_02_1405,59.8236798453,LearningTask,1,76,
200,w,200,,,,,,,,,,,,,,,,,1,0,1,0,7,3,31,0,,,,,,,,,,,,,,,,,,,,,,,,,,,,,w,1,0.334455013275,None,0,4.0,invertedtrianglegreen.gif,stop,,,,,,,,,,,,,,,,,,,,,,,,4.25,0.513488054276,0.000915050506592,0.334455013275,1,w,636.947561026,,,,,,,,,,,,,,,,,,,,,,,,,,,,,,,,,,2015_Jul_02_1405,59.8236798453,LearningTask,1,76,
-200,q,200,,,,,,,,,,,,,,,,,1,0,1,0,8,0,32,1,,,,,,,,,,,,,,,,,,,,,,,,,,,,,q,1,0.384011030197,None,0,0.5,hexagonyellow.gif,stop,,,,,,,,,,,,,,,,,,,,,,,,0.63,0.514209032059,0.000877141952515,0.384011030197,1,q,639.95065999,,,,,,,,,,,,,,,,,,,,,,,,,,,,,,,,,,2015_Jul_02_1405,59.8236798453,LearningTask,1,76,
-200,q,200,,,,,,,,,,,,,,,,,1,0,1,0,8,1,33,1,,,,,,,,,,,,,,,,,,,,,,,,,,,,,q,1,0.367463111877,None,0,1.0,crosscyan.gif,stop,,,,,,,,,,,,,,,,,,,,,,,,0.89,0.514436006546,0.00088095664978,0.367463111877,1,q,642.954947948,,,,,,,,,,,,,,,,,,,,,,,,,,,,,,,,,,2015_Jul_02_1405,59.8236798453,LearningTask,1,76,
-200,a,-200,,,,,,,,,,,,,,,,,1,0,1,0,8,2,34,3,,,,,,,,,,,,,,,,,,,,,,,,,,,,,a,1,0.434142112732,None,0,2.0,diamondmagenta.gif,stop,,,,,,,,,,,,,,,,,,,,,,,,0,0.51353597641,0.000890016555786,0.434142112732,1,a,645.957935095,,,,,,,,,,,,,,,,,,,,,,,,,,,,,,,,,,2015_Jul_02_1405,59.8236798453,LearningTask,1,76,
-200,a,-200,,,,,,,,,,,,,,,,,1,0,1,0,8,3,35,3,,,,,,,,,,,,,,,,,,,,,,,,,,,,,a,1,0.334265947342,None,0,4.0,squareorange.gif,go,,,,,,,,,,,,,,,,,,,,,,,,0,0.513777971268,0.00106692314148,0.334265947342,1,a,648.961023092,,,,,,,,,,,,,,,,,,,,,,,,,,,,,,,,,,2015_Jul_02_1405,59.8236798453,LearningTask,1,76,
-200,q,200,,,,,,,,,,,,,,,,,1,0,1,0,9,0,36,1,,,,,,,,,,,,,,,,,,,,,,,,,,,,,q,1,0.418004989624,None,0,4.0,squareorange.gif,go,,,,,,,,,,,,,,,,,,,,,,,,4.03,0.514274835587,0.000880002975464,0.418004989624,1,q,651.965282917,,,,,,,,,,,,,,,,,,,,,,,,,,,,,,,,,,2015_Jul_02_1405,59.8236798453,LearningTask,1,76,
-200,a,-200,,,,,,,,,,,,,,,,,1,0,1,0,9,1,37,3,,,,,,,,,,,,,,,,,,,,,,,,,,,,,a,1,0.400698900223,None,0,1.0,circlegray.gif,go,,,,,,,,,,,,,,,,,,,,,,,,1.1,0.513460159302,0.00088095664978,0.400698900223,1,a,654.967525959,,,,,,,,,,,,,,,,,,,,,,,,,,,,,,,,,,2015_Jul_02_1405,59.8236798453,LearningTask,1,76,
200,s,-200,,,,,,,,,,,,,,,,,1,0,1,0,9,2,38,2,,,,,,,,,,,,,,,,,,,,,,,,,,,,,s,1,0.601561069489,None,0,1.0,crosscyan.gif,stop,,,,,,,,,,,,,,,,,,,,,,,,0.78,0.51429104805,0.00105118751526,0.601561069489,1,s,657.971524,,,,,,,,,,,,,,,,,,,,,,,,,,,,,,,,,,2015_Jul_02_1405,59.8236798453,LearningTask,1,76,
-200,a,-200,,,,,,,,,,,,,,,,,1,0,1,0,9,3,39,3,,,,,,,,,,,,,,,,,,,,,,,,,,,,,a,1,0.400881052017,None,0,4.0,squareorange.gif,go,,,,,,,,,,,,,,,,,,,,,,,,4.09,0.514110088348,0.000866174697876,0.400881052017,1,a,660.974457979,,,,,,,,,,,,,,,,,,,,,,,,,,,,,,,,,,2015_Jul_02_1405,59.8236798453,LearningTask,1,76,
200,s,-200,,,,,,,,,,,,,,,,,1,0,1,0,10,0,40,2,,,,,,,,,,,,,,,,,,,,,,,,,,,,,s,1,0.384124994278,None,0,0.5,hexagonyellow.gif,stop,,,,,,,,,,,,,,,,,,,,,,,,0.39,0.514455080032,0.000884056091309,0.384124994278,1,s,663.977608919,,,,,,,,,,,,,,,,,,,,,,,,,,,,,,,,,,2015_Jul_02_1405,59.8236798453,LearningTask,1,76,
200,w,200,,,,,,,,,,,,,,,,,1,0,1,0,10,1,41,0,,,,,,,,,,,,,,,,,,,,,,,,,,,,,w,1,0.367906093597,None,0,2.0,triangleblue.gif,go,,,,,,,,,,,,,,,,,,,,,,,,1.88,0.514142990112,0.000946044921875,0.367906093597,1,w,666.981199026,,,,,,,,,,,,,,,,,,,,,,,,,,,,,,,,,,2015_Jul_02_1405,59.8236798453,LearningTask,1,76,
-200,q,200,,,,,,,,,,,,,,,,,1,0,1,0,10,2,42,1,,,,,,,,,,,,,,,,,,,,,,,,,,,,,q,1,0.300839185715,None,0,4.0,invertedtrianglegreen.gif,stop,,,,,,,,,,,,,,,,,,,,,,,,4.13,0.514364957809,0.000895977020264,0.300839185715,1,q,669.984621048,,,,,,,,,,,,,,,,,,,,,,,,,,,,,,,,,,2015_Jul_02_1405,59.8236798453,LearningTask,1,76,
200,w,200,,,,,,,,,,,,,,,,,1,0,1,0,10,3,43,0,,,,,,,,,,,,,,,,,,,,,,,,,,,,,w,1,0.367536783218,None,0,4.0,squareorange.gif,go,,,,,,,,,,,,,,,,,,,,,,,,3.98,0.514267921448,0.000871896743774,0.367536783218,1,w,672.988047123,,,,,,,,,,,,,,,,,,,,,,,,,,,,,,,,,,2015_Jul_02_1405,59.8236798453,LearningTask,1,76,
200,s,-200,,,,,,,,,,,,,,,,,1,0,1,0,11,0,44,2,,,,,,,,,,,,,,,,,,,,,,,,,,,,,s,1,0.383710861206,None,0,1.0,circlegray.gif,go,,,,,,,,,,,,,,,,,,,,,,,,0.9,0.51417517662,0.000898122787476,0.383710861206,1,s,675.991387129,,,,,,,,,,,,,,,,,,,,,,,,,,,,,,,,,,2015_Jul_02_1405,59.8236798453,LearningTask,1,76,
200,s,-200,,,,,,,,,,,,,,,,,1,0,1,0,11,1,45,2,,,,,,,,,,,,,,,,,,,,,,,,,,,,,s,1,0.400861978531,None,0,0.5,linewhite.gif,go,,,,,,,,,,,,,,,,,,,,,,,,0.73,0.514292001724,0.000877857208252,0.400861978531,1,s,678.99465394,,,,,,,,,,,,,,,,,,,,,,,,,,,,,,,,,,2015_Jul_02_1405,59.8236798453,LearningTask,1,76,
-200,a,-200,,,,,,,,,,,,,,,,,1,0,1,0,11,2,46,3,,,,,,,,,,,,,,,,,,,,,,,,,,,,,a,1,0.367606878281,None,0,4.0,squareorange.gif,go,,,,,,,,,,,,,,,,,,,,,,,,3.78,0.514315128326,0.000870227813721,0.367606878281,1,a,681.998456001,,,,,,,,,,,,,,,,,,,,,,,,,,,,,,,,,,2015_Jul_02_1405,59.8236798453,LearningTask,1,76,
-200,q,200,,,,,,,,,,,,,,,,,1,0,1,0,11,3,47,1,,,,,,,,,,,,,,,,,,,,,,,,,,,,,q,1,0.334553956985,None,0,4.0,squareorange.gif,go,,,,,,,,,,,,,,,,,,,,,,,,4.23,0.513550043106,0.000918865203857,0.334553956985,1,q,685.00159502,,,,,,,,,,,,,,,,,,,,,,,,,,,,,,,,,,2015_Jul_02_1405,59.8236798453,LearningTask,1,76,
-200,q,200,,,,,,,,,,,,,,,,,1,0,1,0,12,0,48,1,,,,,,,,,,,,,,,,,,,,,,,,,,,,,q,1,0.26734495163,None,0,2.0,diamondmagenta.gif,stop,,,,,,,,,,,,,,,,,,,,,,,,1.97,0.514240980148,0.000923871994019,0.26734495163,1,q,688.005222082,,,,,,,,,,,,,,,,,,,,,,,,,,,,,,,,,,2015_Jul_02_1405,59.8236798453,LearningTask,1,76,
200,s,-200,,,,,,,,,,,,,,,,,1,0,1,0,12,1,49,2,,,,,,,,,,,,,,,,,,,,,,,,,,,,,s,1,0.317600011826,None,0,1.0,crosscyan.gif,stop,,,,,,,,,,,,,,,,,,,,,,,,1.01,0.514008045197,0.000880002975464,0.317600011826,1,s,691.008621931,,,,,,,,,,,,,,,,,,,,,,,,,,,,,,,,,,2015_Jul_02_1405,59.8236798453,LearningTask,1,76,
-200,a,-200,,,,,,,,,,,,,,,,,1,0,1,0,12,2,50,3,,,,,,,,,,,,,,,,,,,,,,,,,,,,,a,1,0.334181070328,None,0,2.0,triangleblue.gif,go,,,,,,,,,,,,,,,,,,,,,,,,0,0.513938903809,0.000897884368896,0.334181070328,1,a,694.011563063,,,,,,,,,,,,,,,,,,,,,,,,,,,,,,,,,,2015_Jul_02_1405,59.8236798453,LearningTask,1,76,
-200,q,200,,,,,,,,,,,,,,,,,1,0,1,0,12,3,51,1,,,,,,,,,,,,,,,,,,,,,,,,,,,,,q,1,0.417424917221,None,0,4.0,invertedtrianglegreen.gif,stop,,,,,,,,,,,,,,,,,,,,,,,,4.11,0.51417183876,0.00100493431091,0.417424917221,1,q,697.015051126,,,,,,,,,,,,,,,,,,,,,,,,,,,,,,,,,,2015_Jul_02_1405,59.8236798453,LearningTask,1,76,
-200,a,-200,,,,,,,,,,,,,,,,,1,0,1,0,13,0,52,3,,,,,,,,,,,,,,,,,,,,,,,,,,,,,a,1,0.384811878204,None,0,1.0,crosscyan.gif,stop,,,,,,,,,,,,,,,,,,,,,,,,1.2,0.514031887054,0.000929832458496,0.384811878204,1,a,700.018281937,,,,,,,,,,,,,,,,,,,,,,,,,,,,,,,,,,2015_Jul_02_1405,59.8236798453,LearningTask,1,76,
200,w,200,,,,,,,,,,,,,,,,,1,0,1,0,13,1,53,0,,,,,,,,,,,,,,,,,,,,,,,,,,,,,w,1,0.467743873596,None,0,4.0,invertedtrianglegreen.gif,stop,,,,,,,,,,,,,,,,,,,,,,,,3.95,0.514360189438,0.000892162322998,0.467743873596,1,w,703.02155304,,,,,,,,,,,,,,,,,,,,,,,,,,,,,,,,,,2015_Jul_02_1405,59.8236798453,LearningTask,1,76,
200,s,-200,,,,,,,,,,,,,,,,,1,0,1,0,13,2,54,2,,,,,,,,,,,,,,,,,,,,,,,,,,,,,s,1,0.351137876511,None,0,4.0,invertedtrianglegreen.gif,stop,,,,,,,,,,,,,,,,,,,,,,,,4.12,0.514250993729,0.00109386444092,0.351137876511,1,s,706.024910927,,,,,,,,,,,,,,,,,,,,,,,,,,,,,,,,,,2015_Jul_02_1405,59.8236798453,LearningTask,1,76,
200,s,-200,,,,,,,,,,,,,,,,,1,0,1,0,13,3,55,2,,,,,,,,,,,,,,,,,,,,,,,,,,,,,s,1,0.367670059204,None,0,1.0,circlegray.gif,go,,,,,,,,,,,,,,,,,,,,,,,,0,0.514407157898,0.000885009765625,0.367670059204,1,s,709.0285151,,,,,,,,,,,,,,,,,,,,,,,,,,,,,,,,,,2015_Jul_02_1405,59.8236798453,LearningTask,1,76,
200,s,-200,,,,,,,,,,,,,,,,,1,0,1,0,14,0,56,2,,,,,,,,,,,,,,,,,,,,,,,,,,,,,s,1,0.351479053497,None,0,1.0,circlegray.gif,go,,,,,,,,,,,,,,,,,,,,,,,,1.03,0.514357089996,0.000880002975464,0.351479053497,1,s,712.031821966,,,,,,,,,,,,,,,,,,,,,,,,,,,,,,,,,,2015_Jul_02_1405,59.8236798453,LearningTask,1,76,
200,w,200,,,,,,,,,,,,,,,,,1,0,1,0,14,1,57,0,,,,,,,,,,,,,,,,,,,,,,,,,,,,,w,1,0.400712013245,None,0,1.0,crosscyan.gif,stop,,,,,,,,,,,,,,,,,,,,,,,,0.75,0.513876914978,0.000919818878174,0.400712013245,1,w,715.035280943,,,,,,,,,,,,,,,,,,,,,,,,,,,,,,,,,,2015_Jul_02_1405,59.8236798453,LearningTask,1,76,
200,s,-200,,,,,,,,,,,,,,,,,1,0,1,0,14,2,58,2,,,,,,,,,,,,,,,,,,,,,,,,,,,,,s,1,0.36749792099,None,0,2.0,diamondmagenta.gif,stop,,,,,,,,,,,,,,,,,,,,,,,,1.88,0.513959169388,0.00093412399292,0.36749792099,1,s,718.038558006,,,,,,,,,,,,,,,,,,,,,,,,,,,,,,,,,,2015_Jul_02_1405,59.8236798453,LearningTask,1,76,
-200,a,-200,,,,,,,,,,,,,,,,,1,0,1,0,14,3,59,3,,,,,,,,,,,,,,,,,,,,,,,,,,,,,a,1,0.400995969772,None,0,0.5,linewhite.gif,go,,,,,,,,,,,,,,,,,,,,,,,,0.48,0.514355182648,0.000885963439941,0.400995969772,1,a,721.042341948,,,,,,,,,,,,,,,,,,,,,,,,,,,,,,,,,,2015_Jul_02_1405,59.8236798453,LearningTask,1,76,
-200,a,-200,,,,,,,,,,,,,,,,,1,0,1,0,15,0,60,3,,,,,,,,,,,,,,,,,,,,,,,,,,,,,a,1,0.568163156509,None,0,2.0,triangleblue.gif,go,,,,,,,,,,,,,,,,,,,,,,,,0,0.513746976852,0.000895023345947,0.568163156509,1,a,724.045222998,,,,,,,,,,,,,,,,,,,,,,,,,,,,,,,,,,2015_Jul_02_1405,59.8236798453,LearningTask,1,76,
200,s,-200,,,,,,,,,,,,,,,,,1,0,1,0,15,1,61,2,,,,,,,,,,,,,,,,,,,,,,,,,,,,,s,1,0.367386817932,None,0,0.5,linewhite.gif,go,,,,,,,,,,,,,,,,,,,,,,,,0.5,0.514627933502,0.000874996185303,0.367386817932,1,s,727.048902035,,,,,,,,,,,,,,,,,,,,,,,,,,,,,,,,,,2015_Jul_02_1405,59.8236798453,LearningTask,1,76,
200,s,-200,,,,,,,,,,,,,,,,,1,0,1,0,15,2,62,2,,,,,,,,,,,,,,,,,,,,,,,,,,,,,s,1,0.367937088013,None,0,2.0,triangleblue.gif,go,,,,,,,,,,,,,,,,,,,,,,,,2.03,0.513967990875,0.0012218952179,0.367937088013,1,s,730.052829981,,,,,,,,,,,,,,,,,,,,,,,,,,,,,,,,,,2015_Jul_02_1405,59.8236798453,LearningTask,1,76,
200,s,-200,,,,,,,,,,,,,,,,,1,0,1,0,15,3,63,2,,,,,,,,,,,,,,,,,,,,,,,,,,,,,s,1,0.334223985672,None,0,4.0,squareorange.gif,go,,,,,,,,,,,,,,,,,,,,,,,,3.93,0.513659954071,0.000881910324097,0.334223985672,1,s,733.055458069,,,,,,,,,,,,,,,,,,,,,,,,,,,,,,,,,,2015_Jul_02_1405,59.8236798453,LearningTask,1,76,
200,s,-200,,,,,,,,,,,,,,,,,1,0,1,0,16,0,64,2,,,,,,,,,,,,,,,,,,,,,,,,,,,,,s,1,0.300426006317,None,0,1.0,circlegray.gif,go,,,,,,,,,,,,,,,,,,,,,,,,1.11,0.514630794525,0.000927925109863,0.300426006317,1,s,736.058907032,,,,,,,,,,,,,,,,,,,,,,,,,,,,,,,,,,2015_Jul_02_1405,59.8236798453,LearningTask,1,76,
-200,q,200,,,,,,,,,,,,,,,,,1,0,1,0,16,1,65,1,,,,,,,,,,,,,,,,,,,,,,,,,,,,,q,1,0.467552900314,None,0,4.0,squareorange.gif,go,,,,,,,,,,,,,,,,,,,,,,,,3.75,0.514336109161,0.000869989395142,0.467552900314,1,q,739.062381029,,,,,,,,,,,,,,,,,,,,,,,,,,,,,,,,,,2015_Jul_02_1405,59.8236798453,LearningTask,1,76,
200,w,200,,,,,,,,,,,,,,,,,1,0,1,0,16,2,66,0,,,,,,,,,,,,,,,,,,,,,,,,,,,,,w,1,0.551226139069,None,0,4.0,squareorange.gif,go,,,,,,,,,,,,,,,,,,,,,,,,0,0.514253854752,0.000866889953613,0.551226139069,1,w,742.065596104,,,,,,,,,,,,,,,,,,,,,,,,,,,,,,,,,,2015_Jul_02_1405,59.8236798453,LearningTask,1,76,
-200,a,-200,,,,,,,,,,,,,,,,,1,0,1,0,16,3,67,3,,,,,,,,,,,,,,,,,,,,,,,,,,,,,a,1,0.350937843323,None,0,4.0,squareorange.gif,go,,,,,,,,,,,,,,,,,,,,,,,,4.06,0.514115095139,0.000986099243164,0.350937843323,1,a,745.069391966,,,,,,,,,,,,,,,,,,,,,,,,,,,,,,,,,,2015_Jul_02_1405,59.8236798453,LearningTask,1,76,
200,s,-200,,,,,,,,,,,,,,,,,1,0,1,0,17,0,68,2,,,,,,,,,,,,,,,,,,,,,,,,,,,,,s,1,0.517588853836,None,0,4.0,invertedtrianglegreen.gif,stop,,,,,,,,,,,,,,,,,,,,,,,,3.94,0.513867139816,0.000893115997314,0.517588853836,1,s,748.07249403,,,,,,,,,,,,,,,,,,,,,,,,,,,,,,,,,,2015_Jul_02_1405,59.8236798453,LearningTask,1,76,
-200,a,-200,,,,,,,,,,,,,,,,,1,0,1,0,17,1,69,3,,,,,,,,,,,,,,,,,,,,,,,,,,,,,a,1,0.367541074753,None,0,4.0,squareorange.gif,go,,,,,,,,,,,,,,,,,,,,,,,,4.25,0.513763904572,0.00103998184204,0.367541074753,1,a,751.075818062,,,,,,,,,,,,,,,,,,,,,,,,,,,,,,,,,,2015_Jul_02_1405,59.8236798453,LearningTask,1,76,
-200,a,-200,,,,,,,,,,,,,,,,,1,0,1,0,17,2,70,3,,,,,,,,,,,,,,,,,,,,,,,,,,,,,a,1,0.384007930756,None,0,1.0,crosscyan.gif,stop,,,,,,,,,,,,,,,,,,,,,,,,0.94,0.513840913773,0.000931024551392,0.384007930756,1,a,754.07913208,,,,,,,,,,,,,,,,,,,,,,,,,,,,,,,,,,2015_Jul_02_1405,59.8236798453,LearningTask,1,76,
-200,a,-200,,,,,,,,,,,,,,,,,1,0,1,0,17,3,71,3,,,,,,,,,,,,,,,,,,,,,,,,,,,,,a,1,0.400609970093,None,0,1.0,crosscyan.gif,stop,,,,,,,,,,,,,,,,,,,,,,,,0,0.51452589035,0.000881910324097,0.400609970093,1,a,757.082475901,,,,,,,,,,,,,,,,,,,,,,,,,,,,,,,,,,2015_Jul_02_1405,59.8236798453,LearningTask,1,76,
-200,q,200,,,,,,,,,,,,,,,,,1,0,1,0,18,0,72,1,,,,,,,,,,,,,,,,,,,,,,,,,,,,,q,1,0.384553909302,None,0,2.0,triangleblue.gif,go,,,,,,,,,,,,,,,,,,,,,,,,2.25,0.514236927032,0.000937938690186,0.384553909302,1,q,760.086261988,,,,,,,,,,,,,,,,,,,,,,,,,,,,,,,,,,2015_Jul_02_1405,59.8236798453,LearningTask,1,76,
-200,q,200,,,,,,,,,,,,,,,,,1,0,1,0,18,1,73,1,,,,,,,,,,,,,,,,,,,,,,,,,,,,,q,1,0.434397220612,None,0,2.0,diamondmagenta.gif,stop,,,,,,,,,,,,,,,,,,,,,,,,0,0.513798952103,0.000895023345947,0.434397220612,1,q,763.089360952,,,,,,,,,,,,,,,,,,,,,,,,,,,,,,,,,,2015_Jul_02_1405,59.8236798453,LearningTask,1,76,
200,w,200,,,,,,,,,,,,,,,,,1,0,1,0,18,2,74,0,,,,,,,,,,,,,,,,,,,,,,,,,,,,,w,1,0.317002058029,None,0,1.0,crosscyan.gif,stop,,,,,,,,,,,,,,,,,,,,,,,,0.75,0.514461994171,0.000876188278198,0.317002058029,1,w,766.09279108,,,,,,,,,,,,,,,,,,,,,,,,,,,,,,,,,,2015_Jul_02_1405,59.8236798453,LearningTask,1,76,
-200,a,-200,,,,,,,,,,,,,,,,,1,0,1,0,18,3,75,3,,,,,,,,,,,,,,,,,,,,,,,,,,,,,a,1,0.400981903076,None,0,0.5,hexagonyellow.gif,stop,,,,,,,,,,,,,,,,,,,,,,,,0,0.514194965363,0.000879049301147,0.400981903076,1,a,769.096589088,,,,,,,,,,,,,,,,,,,,,,,,,,,,,,,,,,2015_Jul_02_1405,59.8236798453,LearningTask,1,76,
-200,q,200,,,,,,,,,,,,,,,,,1,0,1,0,19,0,76,1,,,,,,,,,,,,,,,,,,,,,,,,,,,,,q,1,0.384300947189,None,0,0.5,hexagonyellow.gif,stop,,,,,,,,,,,,,,,,,,,,,,,,0,0.513648033142,0.000895977020264,0.384300947189,1,q,772.099437952,,,,,,,,,,,,,,,,,,,,,,,,,,,,,,,,,,2015_Jul_02_1405,59.8236798453,LearningTask,1,76,
200,s,-200,,,,,,,,,,,,,,,,,1,0,1,0,19,1,77,2,,,,,,,,,,,,,,,,,,,,,,,,,,,,,s,1,0.351069927216,None,0,2.0,triangleblue.gif,go,,,,,,,,,,,,,,,,,,,,,,,,1.89,0.514263868332,0.000884056091309,0.351069927216,1,s,775.102636099,,,,,,,,,,,,,,,,,,,,,,,,,,,,,,,,,,2015_Jul_02_1405,59.8236798453,LearningTask,1,76,
200,w,200,,,,,,,,,,,,,,,,,1,0,1,0,19,2,78,0,,,,,,,,,,,,,,,,,,,,,,,,,,,,,w,1,0.467470169067,None,0,2.0,triangleblue.gif,go,,,,,,,,,,,,,,,,,,,,,,,,2.05,0.514714002609,0.000879049301147,0.467470169067,1,w,778.106405973,,,,,,,,,,,,,,,,,,,,,,,,,,,,,,,,,,2015_Jul_02_1405,59.8236798453,LearningTask,1,76,
200,s,-200,,,,,,,,,,,,,,,,,1,0,1,0,19,3,79,2,,,,,,,,,,,,,,,,,,,,,,,,,,,,,s,1,0.434405088425,None,0,1.0,circlegray.gif,go,,,,,,,,,,,,,,,,,,,,,,,,1.13,0.514075040817,0.00088095664978,0.434405088425,1,s,781.109277964,,,,,,,,,,,,,,,,,,,,,,,,,,,,,,,,,,2015_Jul_02_1405,59.8236798453,LearningTask,1,76,
200,w,200,,,,,,,,,,,,,,,,,1,0,1,0,20,0,80,0,,,,,,,,,,,,,,,,,,,,,,,,,,,,,w,1,0.351026058197,None,0,1.0,circlegray.gif,go,,,,,,,,,,,,,,,,,,,,,,,,0.83,0.514387130737,0.000923156738281,0.351026058197,1,w,784.11285305,,,,,,,,,,,,,,,,,,,,,,,,,,,,,,,,,,2015_Jul_02_1405,59.8236798453,LearningTask,1,76,
200,s,-200,,,,,,,,,,,,,,,,,1,0,1,0,20,1,81,2,,,,,,,,,,,,,,,,,,,,,,,,,,,,,s,1,0.417534828186,None,0,0.5,linewhite.gif,go,,,,,,,,,,,,,,,,,,,,,,,,0.74,0.514496803284,0.000872850418091,0.417534828186,1,s,787.116494894,,,,,,,,,,,,,,,,,,,,,,,,,,,,,,,,,,2015_Jul_02_1405,59.8236798453,LearningTask,1,76,
-200,q,200,,,,,,,,,,,,,,,,,1,0,1,0,20,2,82,1,,,,,,,,,,,,,,,,,,,,,,,,,,,,,q,1,0.53440117836,None,0,0.5,hexagonyellow.gif,stop,,,,,,,,,,,,,,,,,,,,,,,,0.32,0.514050006866,0.000879049301147,0.53440117836,1,q,790.119940042,,,,,,,,,,,,,,,,,,,,,,,,,,,,,,,,,,2015_Jul_02_1405,59.8236798453,LearningTask,1,76,
200,w,200,,,,,,,,,,,,,,,,,1,0,1,0,20,3,83,0,,,,,,,,,,,,,,,,,,,,,,,,,,,,,w,1,0.501578092575,None,0,2.0,diamondmagenta.gif,stop,,,,,,,,,,,,,,,,,,,,,,,,0,0.513586044312,0.00091814994812,0.501578092575,1,w,793.12319994,,,,,,,,,,,,,,,,,,,,,,,,,,,,,,,,,,2015_Jul_02_1405,59.8236798453,LearningTask,1,76,
200,w,200,,,,,,,,,,,,,,,,,1,0,1,0,21,0,84,0,,,,,,,,,,,,,,,,,,,,,,,,,,,,,w,1,0.434720039368,None,0,4.0,invertedtrianglegreen.gif,stop,,,,,,,,,,,,,,,,,,,,,,,,0,0.514303922653,0.00140404701233,0.650949001312,0,s,796.126456976,4.17,0.515281915665,0.000949859619141,0.434720039368,1,w,799.130182981,,,,,,,,,,,,,,,,,,,,,,,,,,,2015_Jul_02_1405,59.8236798453,LearningTask,1,76,
200,s,-200,,,,,,,,,,,,,,,,,1,0,1,0,21,1,85,2,,,,,,,,,,,,,,,,,,,,,,,,,,,,,s,1,0.600931882858,None,0,4.0,squareorange.gif,go,,,,,,,,,,,,,,,,,,,,,,,,3.99,0.513667821884,0.00088095664978,0.600931882858,1,s,802.133168936,,,,,,,,,,,,,,,,,,,,,,,,,,,,,,,,,,2015_Jul_02_1405,59.8236798453,LearningTask,1,76,
200,w,200,,,,,,,,,,,,,,,,,1,0,1,0,21,2,86,0,,,,,,,,,,,,,,,,,,,,,,,,,,,,,w,1,0.367341995239,None,0,0.5,hexagonyellow.gif,stop,,,,,,,,,,,,,,,,,,,,,,,,0,0.514331102371,0.000897169113159,0.367341995239,1,w,805.136554956,,,,,,,,,,,,,,,,,,,,,,,,,,,,,,,,,,2015_Jul_02_1405,59.8236798453,LearningTask,1,76,
-200,q,200,,,,,,,,,,,,,,,,,1,0,1,0,21,3,87,1,,,,,,,,,,,,,,,,,,,,,,,,,,,,,q,1,0.434147119522,None,0,0.5,linewhite.gif,go,,,,,,,,,,,,,,,,,,,,,,,,0.67,0.514319896698,0.000877857208252,0.434147119522,1,q,808.140358925,,,,,,,,,,,,,,,,,,,,,,,,,,,,,,,,,,2015_Jul_02_1405,59.8236798453,LearningTask,1,76,
-200,q,200,,,,,,,,,,,,,,,,,1,0,1,0,22,0,88,1,,,,,,,,,,,,,,,,,,,,,,,,,,,,,q,1,0.350327014923,None,0,2.0,triangleblue.gif,go,,,,,,,,,,,,,,,,,,,,,,,,2.05,0.513815164566,0.000890970230103,0.350327014923,1,q,811.14338398,,,,,,,,,,,,,,,,,,,,,,,,,,,,,,,,,,2015_Jul_02_1405,59.8236798453,LearningTask,1,76,
200,s,-200,,,,,,,,,,,,,,,,,1,0,1,0,22,1,89,2,,,,,,,,,,,,,,,,,,,,,,,,,,,,,s,1,0.484314918518,None,0,4.0,invertedtrianglegreen.gif,stop,,,,,,,,,,,,,,,,,,,,,,,,4.07,0.514501810074,0.000890970230103,0.484314918518,1,s,814.146729946,,,,,,,,,,,,,,,,,,,,,,,,,,,,,,,,,,2015_Jul_02_1405,59.8236798453,LearningTask,1,76,
-200,a,-200,,,,,,,,,,,,,,,,,1,0,1,0,22,2,90,3,,,,,,,,,,,,,,,,,,,,,,,,,,,,,a,1,0.417705059052,None,0,2.0,diamondmagenta.gif,stop,,,,,,,,,,,,,,,,,,,,,,,,0,0.514311075211,0.000909090042114,0.417705059052,1,a,817.150748968,,,,,,,,,,,,,,,,,,,,,,,,,,,,,,,,,,2015_Jul_02_1405,59.8236798453,LearningTask,1,76,
200,w,200,,,,,,,,,,,,,,,,,1,0,1,0,22,3,91,0,,,,,,,,,,,,,,,,,,,,,,,,,,,,,w,1,0.41765999794,None,0,2.0,diamondmagenta.gif,stop,,,,,,,,,,,,,,,,,,,,,,,,1.78,0.513571977615,0.00088095664978,0.41765999794,1,w,820.153611898,,,,,,,,,,,,,,,,,,,,,,,,,,,,,,,,,,2015_Jul_02_1405,59.8236798453,LearningTask,1,76,
-200,q,200,,,,,,,,,,,,,,,,,1,0,1,0,23,0,92,1,,,,,,,,,,,,,,,,,,,,,,,,,,,,,q,1,0.451421022415,None,0,2.0,triangleblue.gif,go,,,,,,,,,,,,,,,,,,,,,,,,1.96,0.514098882675,0.000935077667236,0.451421022415,1,q,823.157088041,,,,,,,,,,,,,,,,,,,,,,,,,,,,,,,,,,2015_Jul_02_1405,59.8236798453,LearningTask,1,76,
-200,a,-200,,,,,,,,,,,,,,,,,1,0,1,0,23,1,93,3,,,,,,,,,,,,,,,,,,,,,,,,,,,,,a,1,0.567756175995,None,0,4.0,invertedtrianglegreen.gif,stop,,,,,,,,,,,,,,,,,,,,,,,,3.87,0.513933897018,0.00100803375244,0.567756175995,1,a,826.160589933,,,,,,,,,,,,,,,,,,,,,,,,,,,,,,,,,,2015_Jul_02_1405,59.8236798453,LearningTask,1,76,
200,w,200,,,,,,,,,,,,,,,,,1,0,1,0,23,2,94,0,,,,,,,,,,,,,,,,,,,,,,,,,,,,,w,1,0.400758981705,None,0,1.0,circlegray.gif,go,,,,,,,,,,,,,,,,,,,,,,,,0.79,0.513929843903,0.000884056091309,0.400758981705,1,w,829.163597107,,,,,,,,,,,,,,,,,,,,,,,,,,,,,,,,,,2015_Jul_02_1405,59.8236798453,LearningTask,1,76,
-200,q,200,,,,,,,,,,,,,,,,,1,0,1,0,23,3,95,1,,,,,,,,,,,,,,,,,,,,,,,,,,,,,q,1,0.417905807495,None,0,1.0,circlegray.gif,go,,,,,,,,,,,,,,,,,,,,,,,,0.86,0.514258861542,0.00111198425293,0.417905807495,1,q,832.166760921,,,,,,,,,,,,,,,,,,,,,,,,,,,,,,,,,,2015_Jul_02_1405,59.8236798453,LearningTask,1,76,
200,s,-200,,,,,,,,,,,,,,,,,1,0,1,0,24,0,96,2,,,,,,,,,,,,,,,,,,,,,,,,,,,,,s,1,0.450956106186,None,0,4.0,squareorange.gif,go,,,,,,,,,,,,,,,,,,,,,,,,3.75,0.514783859253,0.000880002975464,0.450956106186,1,s,835.170507908,,,,,,,,,,,,,,,,,,,,,,,,,,,,,,,,,,2015_Jul_02_1405,59.8236798453,LearningTask,1,76,
200,w,200,,,,,,,,,,,,,,,,,1,0,1,0,24,1,97,0,,,,,,,,,,,,,,,,,,,,,,,,,,,,,w,1,0.401179075241,None,0,4.0,invertedtrianglegreen.gif,stop,,,,,,,,,,,,,,,,,,,,,,,,4.13,0.513981103897,0.000882148742676,0.401179075241,1,w,838.173821926,,,,,,,,,,,,,,,,,,,,,,,,,,,,,,,,,,2015_Jul_02_1405,59.8236798453,LearningTask,1,76,
200,w,200,,,,,,,,,,,,,,,,,1,0,1,0,24,2,98,0,,,,,,,,,,,,,,,,,,,,,,,,,,,,,w,1,0.333945035934,None,0,0.5,hexagonyellow.gif,stop,,,,,,,,,,,,,,,,,,,,,,,,0,0.514189958572,0.00094199180603,0.333945035934,1,w,841.177165985,,,,,,,,,,,,,,,,,,,,,,,,,,,,,,,,,,2015_Jul_02_1405,59.8236798453,LearningTask,1,76,
-200,q,200,,,,,,,,,,,,,,,,,1,0,1,0,24,3,99,1,,,,,,,,,,,,,,,,,,,,,,,,,,,,,q,1,0.434064865112,None,0,0.5,hexagonyellow.gif,stop,,,,,,,,,,,,,,,,,,,,,,,,0.7,0.514183998108,0.000890970230103,0.434064865112,1,q,844.18048811,,,,,,,,,,,,,,,,,,,,,,,,,,,,,,,,,,2015_Jul_02_1405,59.8236798453,LearningTask,1,76,
,,,,,,,,,,,,,,,,,,,1,0,1,0,,,,,,,,,,,,,,,,,,,,,,,,,,,,,,,,,,,,,,,,,,,,,,,,,,,,,,,,,,,,,,,,,,,,,,,,,,,,,,9,54.6690161228,,,,,,,,,,,,,,,,,,,,,,,,,2015_Jul_02_1405,59.8236798453,LearningTask,1,76,
200,s,-200,,,,,,,,,,,,,,,,,2,0,2,0,0,0,0,2,,,,,,,,,,,,,,,,,,,,,,,,,,,,,s,1,0.417703151703,None,0,2.0,diamondmagenta.gif,stop,,,,,,,,,,,,,,,,,,,,,,,,2.0,0.509994983673,0.000895977020264,0.417703151703,1,s,902.596586943,,,,,,,,,,,,,,,,,,,,,,,,,,,,,,,,,,2015_Jul_02_1405,59.8236798453,LearningTask,1,76,
200,w,200,,,,,,,,,,,,,,,,,2,0,2,0,0,1,1,0,,,,,,,,,,,,,,,,,,,,,,,,,,,,,w,1,0.433897018433,None,0,1.0,circlegray.gif,go,,,,,,,,,,,,,,,,,,,,,,,,0.78,0.513917922974,0.000957012176514,0.433897018433,1,w,905.599468946,,,,,,,,,,,,,,,,,,,,,,,,,,,,,,,,,,2015_Jul_02_1405,59.8236798453,LearningTask,1,76,
200,s,-200,,,,,,,,,,,,,,,,,2,0,2,0,0,2,2,2,,,,,,,,,,,,,,,,,,,,,,,,,,,,,s,1,0.434600830078,None,0,4.0,squareorange.gif,go,,,,,,,,,,,,,,,,,,,,,,,,4.13,0.51448392868,0.0011420249939,0.434600830078,1,s,908.602852106,,,,,,,,,,,,,,,,,,,,,,,,,,,,,,,,,,2015_Jul_02_1405,59.8236798453,LearningTask,1,76,
-200,q,200,,,,,,,,,,,,,,,,,2,0,2,0,0,3,3,1,,,,,,,,,,,,,,,,,,,,,,,,,,,,,q,1,0.350630998611,None,0,2.0,diamondmagenta.gif,stop,,,,,,,,,,,,,,,,,,,,,,,,0,0.514638185501,0.00112700462341,0.350630998611,1,q,911.606348991,,,,,,,,,,,,,,,,,,,,,,,,,,,,,,,,,,2015_Jul_02_1405,59.8236798453,LearningTask,1,76,
-200,a,-200,,,,,,,,,,,,,,,,,2,0,2,0,1,0,4,3,,,,,,,,,,,,,,,,,,,,,,,,,,,,,a,1,0.284554004669,None,0,1.0,circlegray.gif,go,,,,,,,,,,,,,,,,,,,,,,,,0.86,0.514033794403,0.000898838043213,0.284554004669,1,a,914.609682083,,,,,,,,,,,,,,,,,,,,,,,,,,,,,,,,,,2015_Jul_02_1405,59.8236798453,LearningTask,1,76,
200,s,-200,,,,,,,,,,,,,,,,,2,0,2,0,1,1,5,2,,,,,,,,,,,,,,,,,,,,,,,,,,,,,s,1,0.434587955475,None,0,0.5,linewhite.gif,go,,,,,,,,,,,,,,,,,,,,,,,,0.55,0.514364004135,0.000880002975464,0.434587955475,1,s,917.613070965,,,,,,,,,,,,,,,,,,,,,,,,,,,,,,,,,,2015_Jul_02_1405,59.8236798453,LearningTask,1,76,
200,w,200,,,,,,,,,,,,,,,,,2,0,2,0,1,2,6,0,,,,,,,,,,,,,,,,,,,,,,,,,,,,,w,1,0.367713928223,None,0,2.0,triangleblue.gif,go,,,,,,,,,,,,,,,,,,,,,,,,1.85,0.513990163803,0.000931024551392,0.367713928223,1,w,920.616580009,,,,,,,,,,,,,,,,,,,,,,,,,,,,,,,,,,2015_Jul_02_1405,59.8236798453,LearningTask,1,76,
200,w,200,,,,,,,,,,,,,,,,,2,0,2,0,1,3,7,0,,,,,,,,,,,,,,,,,,,,,,,,,,,,,w,1,0.551124811172,None,0,2.0,diamondmagenta.gif,stop,,,,,,,,,,,,,,,,,,,,,,,,1.88,0.513933181763,0.000884056091309,0.551124811172,1,w,923.619905949,,,,,,,,,,,,,,,,,,,,,,,,,,,,,,,,,,2015_Jul_02_1405,59.8236798453,LearningTask,1,76,
-200,q,200,,,,,,,,,,,,,,,,,2,0,2,0,2,0,8,1,,,,,,,,,,,,,,,,,,,,,,,,,,,,,q,1,0.350848913193,None,0,4.0,invertedtrianglegreen.gif,stop,,,,,,,,,,,,,,,,,,,,,,,,4.22,0.514394044876,0.000876188278198,0.350848913193,1,q,926.623198986,,,,,,,,,,,,,,,,,,,,,,,,,,,,,,,,,,2015_Jul_02_1405,59.8236798453,LearningTask,1,76,
-200,q,200,,,,,,,,,,,,,,,,,2,0,2,0,2,1,9,1,,,,,,,,,,,,,,,,,,,,,,,,,,,,,q,1,0.284090995789,None,0,2.0,diamondmagenta.gif,stop,,,,,,,,,,,,,,,,,,,,,,,,2.23,0.513966083527,0.000963926315308,0.284090995789,1,q,929.626543045,,,,,,,,,,,,,,,,,,,,,,,,,,,,,,,,,,2015_Jul_02_1405,59.8236798453,LearningTask,1,76,
200,s,-200,,,,,,,,,,,,,,,,,2,0,2,0,2,2,10,2,,,,,,,,,,,,,,,,,,,,,,,,,,,,,s,1,0.367223978043,None,0,2.0,triangleblue.gif,go,,,,,,,,,,,,,,,,,,,,,,,,2.17,0.514555931091,0.000890016555786,0.367223978043,1,s,932.629959106,,,,,,,,,,,,,,,,,,,,,,,,,,,,,,,,,,2015_Jul_02_1405,59.8236798453,LearningTask,1,76,
200,w,200,,,,,,,,,,,,,,,,,2,0,2,0,2,3,11,0,,,,,,,,,,,,,,,,,,,,,,,,,,,,,w,1,0.333995103836,None,0,0.5,hexagonyellow.gif,stop,,,,,,,,,,,,,,,,,,,,,,,,0.29,0.51430606842,0.000883102416992,0.333995103836,1,w,935.633973122,,,,,,,,,,,,,,,,,,,,,,,,,,,,,,,,,,2015_Jul_02_1405,59.8236798453,LearningTask,1,76,
-200,q,200,,,,,,,,,,,,,,,,,2,0,2,0,3,0,12,1,,,,,,,,,,,,,,,,,,,,,,,,,,,,,q,1,0.31776714325,None,0,1.0,circlegray.gif,go,,,,,,,,,,,,,,,,,,,,,,,,0.93,0.513123989105,0.000897884368896,0.31776714325,1,q,938.636883974,,,,,,,,,,,,,,,,,,,,,,,,,,,,,,,,,,2015_Jul_02_1405,59.8236798453,LearningTask,1,76,
-200,q,200,,,,,,,,,,,,,,,,,2,0,2,0,3,1,13,1,,,,,,,,,,,,,,,,,,,,,,,,,,,,,q,1,0.334179162979,None,0,4.0,squareorange.gif,go,,,,,,,,,,,,,,,,,,,,,,,,3.83,0.514304876328,0.000869989395142,0.334179162979,1,q,941.640161991,,,,,,,,,,,,,,,,,,,,,,,,,,,,,,,,,,2015_Jul_02_1405,59.8236798453,LearningTask,1,76,
-200,a,-200,,,,,,,,,,,,,,,,,2,0,2,0,3,2,14,3,,,,,,,,,,,,,,,,,,,,,,,,,,,,,a,1,0.383944034576,None,0,4.0,invertedtrianglegreen.gif,stop,,,,,,,,,,,,,,,,,,,,,,,,0,0.514221906662,0.000968933105469,0.383944034576,1,a,944.643861055,,,,,,,,,,,,,,,,,,,,,,,,,,,,,,,,,,2015_Jul_02_1405,59.8236798453,LearningTask,1,76,
-200,a,-200,,,,,,,,,,,,,,,,,2,0,2,0,3,3,15,3,,,,,,,,,,,,,,,,,,,,,,,,,,,,,a,1,0.317574977875,None,0,0.5,linewhite.gif,go,,,,,,,,,,,,,,,,,,,,,,,,0.63,0.514050960541,0.000876903533936,0.317574977875,1,a,947.646888018,,,,,,,,,,,,,,,,,,,,,,,,,,,,,,,,,,2015_Jul_02_1405,59.8236798453,LearningTask,1,76,
200,s,-200,,,,,,,,,,,,,,,,,2,0,2,0,4,0,16,2,,,,,,,,,,,,,,,,,,,,,,,,,,,,,s,1,0.417402982712,None,0,2.0,triangleblue.gif,go,,,,,,,,,,,,,,,,,,,,,,,,2.16,0.514352083206,0.00109100341797,0.417402982712,1,s,950.650727987,,,,,,,,,,,,,,,,,,,,,,,,,,,,,,,,,,2015_Jul_02_1405,59.8236798453,LearningTask,1,76,
200,s,-200,,,,,,,,,,,,,,,,,2,0,2,0,4,1,17,2,,,,,,,,,,,,,,,,,,,,,,,,,,,,,s,1,0.351251125336,None,0,0.5,linewhite.gif,go,,,,,,,,,,,,,,,,,,,,,,,,0.73,0.513593912125,0.000914096832275,0.351251125336,1,s,953.653666019,,,,,,,,,,,,,,,,,,,,,,,,,,,,,,,,,,2015_Jul_02_1405,59.8236798453,LearningTask,1,76,
200,w,200,,,,,,,,,,,,,,,,,2,0,2,0,4,2,18,0,,,,,,,,,,,,,,,,,,,,,,,,,,,,,w,1,0.350689172745,None,0,1.0,crosscyan.gif,stop,,,,,,,,,,,,,,,,,,,,,,,,0,0.514451980591,0.000875949859619,0.350689172745,1,w,956.656961918,,,,,,,,,,,,,,,,,,,,,,,,,,,,,,,,,,2015_Jul_02_1405,59.8236798453,LearningTask,1,76,
-200,q,200,,,,,,,,,,,,,,,,,2,0,2,0,4,3,19,1,,,,,,,,,,,,,,,,,,,,,,,,,,,,,q,1,0.36744594574,None,0,1.0,circlegray.gif,go,,,,,,,,,,,,,,,,,,,,,,,,0,0.514240026474,0.00108695030212,0.36744594574,1,q,959.660495996,,,,,,,,,,,,,,,,,,,,,,,,,,,,,,,,,,2015_Jul_02_1405,59.8236798453,LearningTask,1,76,
-200,a,-200,,,,,,,,,,,,,,,,,2,0,2,0,5,0,20,3,,,,,,,,,,,,,,,,,,,,,,,,,,,,,a,1,0.36763215065,None,0,4.0,invertedtrianglegreen.gif,stop,,,,,,,,,,,,,,,,,,,,,,,,4.2,0.514439821243,0.000876903533936,0.36763215065,1,a,962.663727999,,,,,,,,,,,,,,,,,,,,,,,,,,,,,,,,,,2015_Jul_02_1405,59.8236798453,LearningTask,1,76,
200,s,-200,,,,,,,,,,,,,,,,,2,0,2,0,5,1,21,2,,,,,,,,,,,,,,,,,,,,,,,,,,,,,s,1,0.350986003876,None,0,0.5,hexagonyellow.gif,stop,,,,,,,,,,,,,,,,,,,,,,,,0.41,0.514392852783,0.000875949859619,0.350986003876,1,s,965.667011976,,,,,,,,,,,,,,,,,,,,,,,,,,,,,,,,,,2015_Jul_02_1405,59.8236798453,LearningTask,1,76,
200,w,200,,,,,,,,,,,,,,,,,2,0,2,0,5,2,22,0,,,,,,,,,,,,,,,,,,,,,,,,,,,,,w,1,0.500829935074,None,0,2.0,diamondmagenta.gif,stop,,,,,,,,,,,,,,,,,,,,,,,,0,0.51404094696,0.000910997390747,0.500829935074,1,w,968.670531988,,,,,,,,,,,,,,,,,,,,,,,,,,,,,,,,,,2015_Jul_02_1405,59.8236798453,LearningTask,1,76,
-200,q,200,,,,,,,,,,,,,,,,,2,0,2,0,5,3,23,1,,,,,,,,,,,,,,,,,,,,,,,,,,,,,q,1,0.384292125702,None,0,0.5,hexagonyellow.gif,stop,,,,,,,,,,,,,,,,,,,,,,,,0.52,0.514123916626,0.00088095664978,0.384292125702,1,q,971.673877001,,,,,,,,,,,,,,,,,,,,,,,,,,,,,,,,,,2015_Jul_02_1405,59.8236798453,LearningTask,1,76,
-200,a,-200,,,,,,,,,,,,,,,,,2,0,2,0,6,0,24,3,,,,,,,,,,,,,,,,,,,,,,,,,,,,,a,1,0.367630958557,None,0,4.0,squareorange.gif,go,,,,,,,,,,,,,,,,,,,,,,,,3.9,0.514189958572,0.00087308883667,0.367630958557,1,a,974.677450895,,,,,,,,,,,,,,,,,,,,,,,,,,,,,,,,,,2015_Jul_02_1405,59.8236798453,LearningTask,1,76,
-200,a,-200,,,,,,,,,,,,,,,,,2,0,2,0,6,1,25,3,,,,,,,,,,,,,,,,,,,,,,,,,,,,,a,1,0.334393978119,None,0,0.5,hexagonyellow.gif,stop,,,,,,,,,,,,,,,,,,,,,,,,0.25,0.514219999313,0.000878095626831,0.334393978119,1,a,977.680752993,,,,,,,,,,,,,,,,,,,,,,,,,,,,,,,,,,2015_Jul_02_1405,59.8236798453,LearningTask,1,76,
-200,a,-200,,,,,,,,,,,,,,,,,2,0,2,0,6,2,26,3,,,,,,,,,,,,,,,,,,,,,,,,,,,,,a,1,0.467359781265,None,0,2.0,triangleblue.gif,go,,,,,,,,,,,,,,,,,,,,,,,,0,0.514245986938,0.000871181488037,0.467359781265,1,a,980.684149981,,,,,,,,,,,,,,,,,,,,,,,,,,,,,,,,,,2015_Jul_02_1405,59.8236798453,LearningTask,1,76,
-200,q,200,,,,,,,,,,,,,,,,,2,0,2,0,6,3,27,1,,,,,,,,,,,,,,,,,,,,,,,,,,,,,q,1,0.350697040558,None,0,0.5,linewhite.gif,go,,,,,,,,,,,,,,,,,,,,,,,,0.58,0.514674186707,0.00087308883667,0.350697040558,1,q,983.687814951,,,,,,,,,,,,,,,,,,,,,,,,,,,,,,,,,,2015_Jul_02_1405,59.8236798453,LearningTask,1,76,
-200,a,-200,,,,,,,,,,,,,,,,,2,0,2,0,7,0,28,3,,,,,,,,,,,,,,,,,,,,,,,,,,,,,a,1,0.367280006409,None,0,4.0,invertedtrianglegreen.gif,stop,,,,,,,,,,,,,,,,,,,,,,,,4.01,0.513792991638,0.000884056091309,0.367280006409,1,a,986.690768957,,,,,,,,,,,,,,,,,,,,,,,,,,,,,,,,,,2015_Jul_02_1405,59.8236798453,LearningTask,1,76,
200,s,-200,,,,,,,,,,,,,,,,,2,0,2,0,7,1,29,2,,,,,,,,,,,,,,,,,,,,,,,,,,,,,s,1,0.43411898613,None,0,1.0,crosscyan.gif,stop,,,,,,,,,,,,,,,,,,,,,,,,1.17,0.514549970627,0.000877141952515,0.43411898613,1,s,989.694077015,,,,,,,,,,,,,,,,,,,,,,,,,,,,,,,,,,2015_Jul_02_1405,59.8236798453,LearningTask,1,76,
-200,a,-200,,,,,,,,,,,,,,,,,2,0,2,0,7,2,30,3,,,,,,,,,,,,,,,,,,,,,,,,,,,,,a,1,0.334238052368,None,0,2.0,diamondmagenta.gif,stop,,,,,,,,,,,,,,,,,,,,,,,,2.07,0.514313936234,0.000980138778687,0.334238052368,1,a,992.697784901,,,,,,,,,,,,,,,,,,,,,,,,,,,,,,,,,,2015_Jul_02_1405,59.8236798453,LearningTask,1,76,
200,s,-200,,,,,,,,,,,,,,,,,2,0,2,0,7,3,31,2,,,,,,,,,,,,,,,,,,,,,,,,,,,,,s,1,0.367952108383,None,0,4.0,squareorange.gif,go,,,,,,,,,,,,,,,,,,,,,,,,4.02,0.51393699646,0.000864028930664,0.367952108383,1,s,995.70103693,,,,,,,,,,,,,,,,,,,,,,,,,,,,,,,,,,2015_Jul_02_1405,59.8236798453,LearningTask,1,76,
-200,a,-200,,,,,,,,,,,,,,,,,2,0,2,0,8,0,32,3,,,,,,,,,,,,,,,,,,,,,,,,,,,,,a,1,0.400573015213,None,0,0.5,linewhite.gif,go,,,,,,,,,,,,,,,,,,,,,,,,0.51,0.514557123184,0.00126504898071,0.400573015213,1,a,998.704262018,,,,,,,,,,,,,,,,,,,,,,,,,,,,,,,,,,2015_Jul_02_1405,59.8236798453,LearningTask,1,76,
200,s,-200,,,,,,,,,,,,,,,,,2,0,2,0,8,1,33,2,,,,,,,,,,,,,,,,,,,,,,,,,,,,,s,1,0.334345817566,None,0,1.0,circlegray.gif,go,,,,,,,,,,,,,,,,,,,,,,,,0.97,0.514198064804,0.000910043716431,0.334345817566,1,s,1001.7076869,,,,,,,,,,,,,,,,,,,,,,,,,,,,,,,,,,2015_Jul_02_1405,59.8236798453,LearningTask,1,76,
-200,a,-200,,,,,,,,,,,,,,,,,2,0,2,0,8,2,34,3,,,,,,,,,,,,,,,,,,,,,,,,,,,,,a,1,0.384454965591,None,0,2.0,triangleblue.gif,go,,,,,,,,,,,,,,,,,,,,,,,,2.07,0.514327049255,0.000885963439941,0.384454965591,1,a,1004.71121812,,,,,,,,,,,,,,,,,,,,,,,,,,,,,,,,,,2015_Jul_02_1405,59.8236798453,LearningTask,1,76,
200,w,200,,,,,,,,,,,,,,,,,2,0,2,0,8,3,35,0,,,,,,,,,,,,,,,,,,,,,,,,,,,,,w,1,0.417475938797,None,0,4.0,invertedtrianglegreen.gif,stop,,,,,,,,,,,,,,,,,,,,,,,,3.9,0.513945102692,0.000916957855225,0.417475938797,1,w,1007.71441293,,,,,,,,,,,,,,,,,,,,,,,,,,,,,,,,,,2015_Jul_02_1405,59.8236798453,LearningTask,1,76,
200,s,-200,,,,,,,,,,,,,,,,,2,0,2,0,9,0,36,2,,,,,,,,,,,,,,,,,,,,,,,,,,,,,s,1,0.534152984619,None,0,0.5,linewhite.gif,go,,,,,,,,,,,,,,,,,,,,,,,,0.27,0.514322042465,0.000874996185303,0.534152984619,1,s,1010.71782494,,,,,,,,,,,,,,,,,,,,,,,,,,,,,,,,,,2015_Jul_02_1405,59.8236798453,LearningTask,1,76,
-200,q,200,,,,,,,,,,,,,,,,,2,0,2,0,9,1,37,1,,,,,,,,,,,,,,,,,,,,,,,,,,,,,q,1,0.500992059708,None,0,0.5,linewhite.gif,go,,,,,,,,,,,,,,,,,,,,,,,,0.54,0.51426410675,0.000878095626831,0.500992059708,1,q,1013.72132206,,,,,,,,,,,,,,,,,,,,,,,,,,,,,,,,,,2015_Jul_02_1405,59.8236798453,LearningTask,1,76,
200,w,200,,,,,,,,,,,,,,,,,2,0,2,0,9,2,38,0,,,,,,,,,,,,,,,,,,,,,,,,,,,,,w,1,0.517395973206,None,0,0.5,hexagonyellow.gif,stop,,,,,,,,,,,,,,,,,,,,,,,,0,0.513962030411,0.000905990600586,0.517395973206,1,w,1016.72470307,,,,,,,,,,,,,,,,,,,,,,,,,,,,,,,,,,2015_Jul_02_1405,59.8236798453,LearningTask,1,76,
-200,a,-200,,,,,,,,,,,,,,,,,2,0,2,0,9,3,39,3,,,,,,,,,,,,,,,,,,,,,,,,,,,,,a,1,0.434343099594,None,0,0.5,linewhite.gif,go,,,,,,,,,,,,,,,,,,,,,,,,0.29,0.514210939407,0.000869989395142,0.434343099594,1,a,1019.72789407,,,,,,,,,,,,,,,,,,,,,,,,,,,,,,,,,,2015_Jul_02_1405,59.8236798453,LearningTask,1,76,
-200,a,-200,,,,,,,,,,,,,,,,,2,0,2,0,10,0,40,3,,,,,,,,,,,,,,,,,,,,,,,,,,,,,a,1,0.351340055466,None,0,4.0,squareorange.gif,go,,,,,,,,,,,,,,,,,,,,,,,,4.0,0.51433300972,0.00086784362793,0.351340055466,1,a,1022.73201299,,,,,,,,,,,,,,,,,,,,,,,,,,,,,,,,,,2015_Jul_02_1405,59.8236798453,LearningTask,1,76,
-200,a,-200,,,,,,,,,,,,,,,,,2,0,2,0,10,1,41,3,,,,,,,,,,,,,,,,,,,,,,,,,,,,,a,1,0.400768041611,None,0,0.5,hexagonyellow.gif,stop,,,,,,,,,,,,,,,,,,,,,,,,0.43,0.513542175293,0.000895977020264,0.400768041611,1,a,1025.73486996,,,,,,,,,,,,,,,,,,,,,,,,,,,,,,,,,,2015_Jul_02_1405,59.8236798453,LearningTask,1,76,
-200,q,200,,,,,,,,,,,,,,,,,2,0,2,0,10,2,42,1,,,,,,,,,,,,,,,,,,,,,,,,,,,,,q,1,0.283946037292,None,0,0.5,hexagonyellow.gif,stop,,,,,,,,,,,,,,,,,,,,,,,,0.67,0.514196157455,0.000878095626831,0.283946037292,1,q,1028.73820305,,,,,,,,,,,,,,,,,,,,,,,,,,,,,,,,,,2015_Jul_02_1405,59.8236798453,LearningTask,1,76,
200,w,200,,,,,,,,,,,,,,,,,2,0,2,0,10,3,43,0,,,,,,,,,,,,,,,,,,,,,,,,,,,,,w,1,0.384250879288,None,0,1.0,circlegray.gif,go,,,,,,,,,,,,,,,,,,,,,,,,1.16,0.514596939087,0.000927925109863,0.384250879288,1,w,1031.74156904,,,,,,,,,,,,,,,,,,,,,,,,,,,,,,,,,,2015_Jul_02_1405,59.8236798453,LearningTask,1,76,
-200,a,-200,,,,,,,,,,,,,,,,,2,0,2,0,11,0,44,3,,,,,,,,,,,,,,,,,,,,,,,,,,,,,a,1,0.351097106934,None,0,4.0,invertedtrianglegreen.gif,stop,,,,,,,,,,,,,,,,,,,,,,,,3.94,0.514245986938,0.000919103622437,0.351097106934,1,a,1034.74483204,,,,,,,,,,,,,,,,,,,,,,,,,,,,,,,,,,2015_Jul_02_1405,59.8236798453,LearningTask,1,76,
200,w,200,,,,,,,,,,,,,,,,,2,0,2,0,11,1,45,0,,,,,,,,,,,,,,,,,,,,,,,,,,,,,w,1,0.284220933914,None,0,0.5,hexagonyellow.gif,stop,,,,,,,,,,,,,,,,,,,,,,,,0,0.514132976532,0.000916004180908,0.284220933914,1,w,1037.74804401,,,,,,,,,,,,,,,,,,,,,,,,,,,,,,,,,,2015_Jul_02_1405,59.8236798453,LearningTask,1,76,
-200,q,200,,,,,,,,,,,,,,,,,2,0,2,0,11,2,46,1,,,,,,,,,,,,,,,,,,,,,,,,,,,,,q,1,0.334639072418,None,0,1.0,crosscyan.gif,stop,,,,,,,,,,,,,,,,,,,,,,,,0.87,0.514487028122,0.000920057296753,0.334639072418,1,q,1040.75170207,,,,,,,,,,,,,,,,,,,,,,,,,,,,,,,,,,2015_Jul_02_1405,59.8236798453,LearningTask,1,76,
200,w,200,,,,,,,,,,,,,,,,,2,0,2,0,11,3,47,0,,,,,,,,,,,,,,,,,,,,,,,,,,,,,w,1,0.38400888443,None,0,1.0,crosscyan.gif,stop,,,,,,,,,,,,,,,,,,,,,,,,1.11,0.514200925827,0.000881910324097,0.38400888443,1,w,1043.75498796,,,,,,,,,,,,,,,,,,,,,,,,,,,,,,,,,,2015_Jul_02_1405,59.8236798453,LearningTask,1,76,
200,s,-200,,,,,,,,,,,,,,,,,2,0,2,0,12,0,48,2,,,,,,,,,,,,,,,,,,,,,,,,,,,,,s,1,0.367451906204,None,0,1.0,circlegray.gif,go,,,,,,,,,,,,,,,,,,,,,,,,0,0.514382123947,0.00116109848022,0.367451906204,1,s,1046.75846291,,,,,,,,,,,,,,,,,,,,,,,,,,,,,,,,,,2015_Jul_02_1405,59.8236798453,LearningTask,1,76,
200,w,200,,,,,,,,,,,,,,,,,2,0,2,0,12,1,49,0,,,,,,,,,,,,,,,,,,,,,,,,,,,,,w,1,0.501266956329,None,0,0.5,hexagonyellow.gif,stop,,,,,,,,,,,,,,,,,,,,,,,,0.61,0.513804912567,0.000876903533936,0.501266956329,1,w,1049.76183891,,,,,,,,,,,,,,,,,,,,,,,,,,,,,,,,,,2015_Jul_02_1405,59.8236798453,LearningTask,1,76,
-200,a,-200,,,,,,,,,,,,,,,,,2,0,2,0,12,2,50,3,,,,,,,,,,,,,,,,,,,,,,,,,,,,,a,1,0.367961168289,None,0,4.0,invertedtrianglegreen.gif,stop,,,,,,,,,,,,,,,,,,,,,,,,0,0.514081001282,0.000884056091309,0.367961168289,1,a,1052.76606393,,,,,,,,,,,,,,,,,,,,,,,,,,,,,,,,,,2015_Jul_02_1405,59.8236798453,LearningTask,1,76,
200,w,200,,,,,,,,,,,,,,,,,2,0,2,0,12,3,51,0,,,,,,,,,,,,,,,,,,,,,,,,,,,,,w,1,0.368026971817,None,0,2.0,triangleblue.gif,go,,,,,,,,,,,,,,,,,,,,,,,,1.91,0.512911081314,0.000883102416992,0.368026971817,1,w,1055.76852608,,,,,,,,,,,,,,,,,,,,,,,,,,,,,,,,,,2015_Jul_02_1405,59.8236798453,LearningTask,1,76,
200,s,-200,,,,,,,,,,,,,,,,,2,0,2,0,13,0,52,2,,,,,,,,,,,,,,,,,,,,,,,,,,,,,s,1,0.367045164108,None,0,4.0,squareorange.gif,go,,,,,,,,,,,,,,,,,,,,,,,,4.19,0.514530897141,0.000869989395142,0.367045164108,1,s,1058.77190113,,,,,,,,,,,,,,,,,,,,,,,,,,,,,,,,,,2015_Jul_02_1405,59.8236798453,LearningTask,1,76,
200,w,200,,,,,,,,,,,,,,,,,2,0,2,0,13,1,53,0,,,,,,,,,,,,,,,,,,,,,,,,,,,,,w,1,0.3844871521,None,0,2.0,triangleblue.gif,go,,,,,,,,,,,,,,,,,,,,,,,,0,0.514348983765,0.000879049301147,0.3844871521,1,w,1061.7760179,,,,,,,,,,,,,,,,,,,,,,,,,,,,,,,,,,2015_Jul_02_1405,59.8236798453,LearningTask,1,76,
200,s,-200,,,,,,,,,,,,,,,,,2,0,2,0,13,2,54,2,,,,,,,,,,,,,,,,,,,,,,,,,,,,,s,1,0.333836078644,None,0,4.0,squareorange.gif,go,,,,,,,,,,,,,,,,,,,,,,,,3.77,0.513643980026,0.000888109207153,0.333836078644,1,s,1064.77893901,,,,,,,,,,,,,,,,,,,,,,,,,,,,,,,,,,2015_Jul_02_1405,59.8236798453,LearningTask,1,76,
-200,q,200,,,,,,,,,,,,,,,,,2,0,2,0,13,3,55,1,,,,,,,,,,,,,,,,,,,,,,,,,,,,,q,1,0.367604017258,q,1,1.0,circlegray.gif,go,,,,,,,,,,,,,,,,,,,,,,,,1.05,0.514022111893,0.000878095626831,0.367604017258,1,q,1067.78212595,,,,,,,,,,0.808270931244,,,,,,,,,,,,,,,,,,,,,,,,2015_Jul_02_1405,59.8236798453,LearningTask,1,76,
-200,a,-200,,,,,,,,,,,,,,,,,2,0,2,0,14,0,56,3,,,,,,,,,,,,,,,,,,,,,,,,,,,,,a,1,0.534744977951,None,0,0.5,linewhite.gif,go,,,,,,,,,,,,,,,,,,,,,,,,0.39,0.51390504837,0.00089693069458,0.534744977951,1,a,1070.78572702,,,,,,,,,,,,,,,,,,,,,,,,,,,,,,,,,,2015_Jul_02_1405,59.8236798453,LearningTask,1,76,
-200,a,-200,,,,,,,,,,,,,,,,,2,0,2,0,14,1,57,3,,,,,,,,,,,,,,,,,,,,,,,,,,,,,a,1,0.401335954666,None,0,4.0,squareorange.gif,go,,,,,,,,,,,,,,,,,,,,,,,,4.05,0.513933897018,0.00086784362793,0.401335954666,1,a,1073.7886529,,,,,,,,,,,,,,,,,,,,,,,,,,,,,,,,,,2015_Jul_02_1405,59.8236798453,LearningTask,1,76,
200,w,200,,,,,,,,,,,,,,,,,2,0,2,0,14,2,58,0,,,,,,,,,,,,,,,,,,,,,,,,,,,,,w,1,0.350800991058,None,0,0.5,hexagonyellow.gif,stop,,,,,,,,,,,,,,,,,,,,,,,,0.38,0.514309167862,0.000878095626831,0.350800991058,1,w,1076.79201412,,,,,,,,,,,,,,,,,,,,,,,,,,,,,,,,,,2015_Jul_02_1405,59.8236798453,LearningTask,1,76,
-200,q,200,,,,,,,,,,,,,,,,,2,0,2,0,14,3,59,1,,,,,,,,,,,,,,,,,,,,,,,,,,,,,q,1,0.317367076874,None,0,1.0,crosscyan.gif,stop,,,,,,,,,,,,,,,,,,,,,,,,0.94,0.514420986176,0.000978946685791,0.317367076874,1,q,1079.79562593,,,,,,,,,,,,,,,,,,,,,,,,,,,,,,,,,,2015_Jul_02_1405,59.8236798453,LearningTask,1,76,
-200,q,200,,,,,,,,,,,,,,,,,2,0,2,0,15,0,60,1,,,,,,,,,,,,,,,,,,,,,,,,,,,,,q,1,0.284483194351,None,0,4.0,invertedtrianglegreen.gif,stop,,,,,,,,,,,,,,,,,,,,,,,,4.09,0.514183044434,0.000882863998413,0.284483194351,1,q,1082.79863501,,,,,,,,,,,,,,,,,,,,,,,,,,,,,,,,,,2015_Jul_02_1405,59.8236798453,LearningTask,1,76,
-200,a,-200,,,,,,,,,,,,,,,,,2,0,2,0,15,1,61,3,,,,,,,,,,,,,,,,,,,,,,,,,,,,,a,1,0.350927829742,None,0,4.0,squareorange.gif,go,,,,,,,,,,,,,,,,,,,,,,,,3.82,0.514548063278,0.000968933105469,0.350927829742,1,a,1085.80243397,,,,,,,,,,,,,,,,,,,,,,,,,,,,,,,,,,2015_Jul_02_1405,59.8236798453,LearningTask,1,76,
-200,q,200,,,,,,,,,,,,,,,,,2,0,2,0,15,2,62,1,,,,,,,,,,,,,,,,,,,,,,,,,,,,,q,1,0.400916814804,None,0,1.0,circlegray.gif,go,,,,,,,,,,,,,,,,,,,,,,,,1.16,0.513890028,0.000898122787476,0.400916814804,1,q,1088.80563998,,,,,,,,,,,,,,,,,,,,,,,,,,,,,,,,,,2015_Jul_02_1405,59.8236798453,LearningTask,1,76,
200,s,-200,,,,,,,,,,,,,,,,,2,0,2,0,15,3,63,2,,,,,,,,,,,,,,,,,,,,,,,,,,,,,s,1,0.350826978683,None,0,4.0,invertedtrianglegreen.gif,stop,,,,,,,,,,,,,,,,,,,,,,,,0,0.514277935028,0.000910043716431,0.350826978683,1,s,1091.80888009,,,,,,,,,,,,,,,,,,,,,,,,,,,,,,,,,,2015_Jul_02_1405,59.8236798453,LearningTask,1,76,
-200,a,-200,,,,,,,,,,,,,,,,,2,0,2,0,16,0,64,3,,,,,,,,,,,,,,,,,,,,,,,,,,,,,a,1,0.384745121002,None,0,2.0,triangleblue.gif,go,,,,,,,,,,,,,,,,,,,,,,,,0,0.514163970947,0.000942945480347,0.384745121002,1,a,1094.8123939,,,,,,,,,,,,,,,,,,,,,,,,,,,,,,,,,,2015_Jul_02_1405,59.8236798453,LearningTask,1,76,
-200,q,200,,,,,,,,,,,,,,,,,2,0,2,0,16,1,65,1,,,,,,,,,,,,,,,,,,,,,,,,,,,,,q,1,0.317213058472,None,0,4.0,squareorange.gif,go,,,,,,,,,,,,,,,,,,,,,,,,3.97,0.514549016953,0.00087308883667,0.317213058472,1,q,1097.81578112,,,,,,,,,,,,,,,,,,,,,,,,,,,,,,,,,,2015_Jul_02_1405,59.8236798453,LearningTask,1,76,
200,w,200,,,,,,,,,,,,,,,,,2,0,2,0,16,2,66,0,,,,,,,,,,,,,,,,,,,,,,,,,,,,,w,1,0.317337989807,None,0,2.0,triangleblue.gif,go,,,,,,,,,,,,,,,,,,,,,,,,0,0.514679908752,0.000880002975464,0.317337989807,1,w,1100.81931806,,,,,,,,,,,,,,,,,,,,,,,,,,,,,,,,,,2015_Jul_02_1405,59.8236798453,LearningTask,1,76,
200,s,-200,,,,,,,,,,,,,,,,,2,0,2,0,16,3,67,2,,,,,,,,,,,,,,,,,,,,,,,,,,,,,s,1,0.367254972458,None,0,0.5,linewhite.gif,go,,,,,,,,,,,,,,,,,,,,,,,,0.58,0.514036893845,0.000901937484741,0.367254972458,1,s,1103.822788,,,,,,,,,,,,,,,,,,,,,,,,,,,,,,,,,,2015_Jul_02_1405,59.8236798453,LearningTask,1,76,
200,s,-200,,,,,,,,,,,,,,,,,2,0,2,0,17,0,68,2,,,,,,,,,,,,,,,,,,,,,,,,,,,,,s,1,0.367390155792,None,0,4.0,invertedtrianglegreen.gif,stop,,,,,,,,,,,,,,,,,,,,,,,,3.89,0.514159917831,0.000885009765625,0.367390155792,1,s,1106.82592511,,,,,,,,,,,,,,,,,,,,,,,,,,,,,,,,,,2015_Jul_02_1405,59.8236798453,LearningTask,1,76,
200,w,200,,,,,,,,,,,,,,,,,2,0,2,0,17,1,69,0,,,,,,,,,,,,,,,,,,,,,,,,,,,,,w,1,0.534247159958,None,0,4.0,squareorange.gif,go,,,,,,,,,,,,,,,,,,,,,,,,3.83,0.514225006104,0.000876188278198,0.534247159958,1,w,1109.8297689,,,,,,,,,,,,,,,,,,,,,,,,,,,,,,,,,,2015_Jul_02_1405,59.8236798453,LearningTask,1,76,
200,s,-200,,,,,,,,,,,,,,,,,2,0,2,0,17,2,70,2,,,,,,,,,,,,,,,,,,,,,,,,,,,,,s,1,0.367877960205,None,0,2.0,diamondmagenta.gif,stop,,,,,,,,,,,,,,,,,,,,,,,,1.77,0.513277053833,0.00104713439941,0.367877960205,1,s,1112.83287597,,,,,,,,,,,,,,,,,,,,,,,,,,,,,,,,,,2015_Jul_02_1405,59.8236798453,LearningTask,1,76,
200,w,200,,,,,,,,,,,,,,,,,2,0,2,0,17,3,71,0,,,,,,,,,,,,,,,,,,,,,,,,,,,,,w,1,0.367446899414,None,0,2.0,triangleblue.gif,go,,,,,,,,,,,,,,,,,,,,,,,,1.93,0.514195919037,0.000872850418091,0.367446899414,1,w,1115.83606791,,,,,,,,,,,,,,,,,,,,,,,,,,,,,,,,,,2015_Jul_02_1405,59.8236798453,LearningTask,1,76,
200,w,200,,,,,,,,,,,,,,,,,2,0,2,0,18,0,72,0,,,,,,,,,,,,,,,,,,,,,,,,,,,,,w,1,0.400730848312,None,0,4.0,squareorange.gif,go,,,,,,,,,,,,,,,,,,,,,,,,3.94,0.51439499855,0.000905990600586,0.400730848312,1,w,1118.8397789,,,,,,,,,,,,,,,,,,,,,,,,,,,,,,,,,,2015_Jul_02_1405,59.8236798453,LearningTask,1,76,
200,s,-200,,,,,,,,,,,,,,,,,2,0,2,0,18,1,73,2,,,,,,,,,,,,,,,,,,,,,,,,,,,,,s,1,0.334202051163,None,0,1.0,crosscyan.gif,stop,,,,,,,,,,,,,,,,,,,,,,,,1.14,0.513946056366,0.000891923904419,0.334202051163,1,s,1121.84286809,,,,,,,,,,,,,,,,,,,,,,,,,,,,,,,,,,2015_Jul_02_1405,59.8236798453,LearningTask,1,76,
-200,q,200,,,,,,,,,,,,,,,,,2,0,2,0,18,2,74,1,,,,,,,,,,,,,,,,,,,,,,,,,,,,,q,1,0.45117688179,None,0,4.0,squareorange.gif,go,,,,,,,,,,,,,,,,,,,,,,,,4.15,0.513878107071,0.000933885574341,0.45117688179,1,q,1124.84599495,,,,,,,,,,,,,,,,,,,,,,,,,,,,,,,,,,2015_Jul_02_1405,59.8236798453,LearningTask,1,76,
-200,a,-200,,,,,,,,,,,,,,,,,2,0,2,0,18,3,75,3,,,,,,,,,,,,,,,,,,,,,,,,,,,,,a,1,0.417099952698,None,0,1.0,circlegray.gif,go,,,,,,,,,,,,,,,,,,,,,,,,1.07,0.514430046082,0.000984907150269,0.417099952698,1,a,1127.84970903,,,,,,,,,,,,,,,,,,,,,,,,,,,,,,,,,,2015_Jul_02_1405,59.8236798453,LearningTask,1,76,
200,s,-200,,,,,,,,,,,,,,,,,2,0,2,0,19,0,76,2,,,,,,,,,,,,,,,,,,,,,,,,,,,,,s,1,0.333920955658,None,0,4.0,squareorange.gif,go,,,,,,,,,,,,,,,,,,,,,,,,3.81,0.514243125916,0.000870943069458,0.333920955658,1,s,1130.85289311,,,,,,,,,,,,,,,,,,,,,,,,,,,,,,,,,,2015_Jul_02_1405,59.8236798453,LearningTask,1,76,
-200,a,-200,,,,,,,,,,,,,,,,,2,0,2,0,19,1,77,3,,,,,,,,,,,,,,,,,,,,,,,,,,,,,a,1,0.384649991989,None,0,0.5,hexagonyellow.gif,stop,,,,,,,,,,,,,,,,,,,,,,,,0,0.514177083969,0.000949144363403,0.384649991989,1,a,1133.85660696,,,,,,,,,,,,,,,,,,,,,,,,,,,,,,,,,,2015_Jul_02_1405,59.8236798453,LearningTask,1,76,
-200,a,-200,,,,,,,,,,,,,,,,,2,0,2,0,19,2,78,3,,,,,,,,,,,,,,,,,,,,,,,,,,,,,a,1,0.384597063065,None,0,4.0,squareorange.gif,go,,,,,,,,,,,,,,,,,,,,,,,,4.02,0.513622999191,0.000900030136108,0.384597063065,1,a,1136.85972905,,,,,,,,,,,,,,,,,,,,,,,,,,,,,,,,,,2015_Jul_02_1405,59.8236798453,LearningTask,1,76,
200,s,-200,,,,,,,,,,,,,,,,,2,0,2,0,19,3,79,2,,,,,,,,,,,,,,,,,,,,,,,,,,,,,s,1,0.36728811264,None,0,2.0,diamondmagenta.gif,stop,,,,,,,,,,,,,,,,,,,,,,,,1.9,0.514364957809,0.000879049301147,0.36728811264,1,s,1139.86301494,,,,,,,,,,,,,,,,,,,,,,,,,,,,,,,,,,2015_Jul_02_1405,59.8236798453,LearningTask,1,76,
200,s,-200,,,,,,,,,,,,,,,,,2,0,2,0,20,0,80,2,,,,,,,,,,,,,,,,,,,,,,,,,,,,,s,1,0.31694984436,None,0,0.5,linewhite.gif,go,,,,,,,,,,,,,,,,,,,,,,,,0.67,0.51452088356,0.000905990600586,0.31694984436,1,s,1142.86639905,,,,,,,,,,,,,,,,,,,,,,,,,,,,,,,,,,2015_Jul_02_1405,59.8236798453,LearningTask,1,76,
200,w,200,,,,,,,,,,,,,,,,,2,0,2,0,20,1,81,0,,,,,,,,,,,,,,,,,,,,,,,,,,,,,w,1,0.500697851181,None,0,4.0,invertedtrianglegreen.gif,stop,,,,,,,,,,,,,,,,,,,,,,,,3.98,0.514564990997,0.000876903533936,0.500697851181,1,w,1145.87001204,,,,,,,,,,,,,,,,,,,,,,,,,,,,,,,,,,2015_Jul_02_1405,59.8236798453,LearningTask,1,76,
200,w,200,,,,,,,,,,,,,,,,,2,0,2,0,20,2,82,0,,,,,,,,,,,,,,,,,,,,,,,,,,,,,w,1,0.284156084061,None,0,2.0,diamondmagenta.gif,stop,,,,,,,,,,,,,,,,,,,,,,,,1.81,0.514247894287,0.00088095664978,0.284156084061,1,w,1148.873981,,,,,,,,,,,,,,,,,,,,,,,,,,,,,,,,,,2015_Jul_02_1405,59.8236798453,LearningTask,1,76,
200,s,-200,,,,,,,,,,,,,,,,,2,0,2,0,20,3,83,2,,,,,,,,,,,,,,,,,,,,,,,,,,,,,s,1,0.401039123535,None,0,2.0,diamondmagenta.gif,stop,,,,,,,,,,,,,,,,,,,,,,,,1.86,0.513319969177,0.000900030136108,0.401039123535,1,s,1151.87687707,,,,,,,,,,,,,,,,,,,,,,,,,,,,,,,,,,2015_Jul_02_1405,59.8236798453,LearningTask,1,76,
200,w,200,,,,,,,,,,,,,,,,,2,0,2,0,21,0,84,0,,,,,,,,,,,,,,,,,,,,,,,,,,,,,w,1,0.35090303421,None,0,4.0,invertedtrianglegreen.gif,stop,,,,,,,,,,,,,,,,,,,,,,,,0,0.513766050339,0.000876188278198,0.35090303421,1,w,1154.87997103,,,,,,,,,,,,,,,,,,,,,,,,,,,,,,,,,,2015_Jul_02_1405,59.8236798453,LearningTask,1,76,
200,w,200,,,,,,,,,,,,,,,,,2,0,2,0,21,1,85,0,,,,,,,,,,,,,,,,,,,,,,,,,,,,,w,1,0.3008248806,None,0,2.0,diamondmagenta.gif,stop,,,,,,,,,,,,,,,,,,,,,,,,2.05,0.514232158661,0.000933170318604,0.3008248806,1,w,1157.88398504,,,,,,,,,,,,,,,,,,,,,,,,,,,,,,,,,,2015_Jul_02_1405,59.8236798453,LearningTask,1,76,
-200,q,200,,,,,,,,,,,,,,,,,2,0,2,0,21,2,86,1,,,,,,,,,,,,,,,,,,,,,,,,,,,,,q,1,0.38427901268,None,0,0.5,hexagonyellow.gif,stop,,,,,,,,,,,,,,,,,,,,,,,,0.54,0.513738155365,0.000893115997314,0.38427901268,1,q,1160.88710213,,,,,,,,,,,,,,,,,,,,,,,,,,,,,,,,,,2015_Jul_02_1405,59.8236798453,LearningTask,1,76,
-200,a,-200,,,,,,,,,,,,,,,,,2,0,2,0,21,3,87,3,,,,,,,,,,,,,,,,,,,,,,,,,,,,,a,1,0.417356014252,None,0,0.5,linewhite.gif,go,,,,,,,,,,,,,,,,,,,,,,,,0.26,0.514086961746,0.00088095664978,0.417356014252,1,a,1163.89008212,,,,,,,,,,,,,,,,,,,,,,,,,,,,,,,,,,2015_Jul_02_1405,59.8236798453,LearningTask,1,76,
-200,q,200,,,,,,,,,,,,,,,,,2,0,2,0,22,0,88,1,,,,,,,,,,,,,,,,,,,,,,,,,,,,,q,1,0.301130056381,None,0,1.0,crosscyan.gif,stop,,,,,,,,,,,,,,,,,,,,,,,,0,0.51433300972,0.000942945480347,0.301130056381,1,q,1166.89377308,,,,,,,,,,,,,,,,,,,,,,,,,,,,,,,,,,2015_Jul_02_1405,59.8236798453,LearningTask,1,76,
-200,q,200,,,,,,,,,,,,,,,,,2,0,2,0,22,1,89,1,,,,,,,,,,,,,,,,,,,,,,,,,,,,,q,1,0.367565870285,None,0,0.5,hexagonyellow.gif,stop,,,,,,,,,,,,,,,,,,,,,,,,0.33,0.51394200325,0.000884056091309,0.367565870285,1,q,1169.89686894,,,,,,,,,,,,,,,,,,,,,,,,,,,,,,,,,,2015_Jul_02_1405,59.8236798453,LearningTask,1,76,
200,w,200,,,,,,,,,,,,,,,,,2,0,2,0,22,2,90,0,,,,,,,,,,,,,,,,,,,,,,,,,,,,,w,1,0.400907993317,None,0,2.0,triangleblue.gif,go,,,,,,,,,,,,,,,,,,,,,,,,2.11,0.514326095581,0.000942945480347,0.400907993317,1,w,1172.90052509,,,,,,,,,,,,,,,,,,,,,,,,,,,,,,,,,,2015_Jul_02_1405,59.8236798453,LearningTask,1,76,
200,s,-200,,,,,,,,,,,,,,,,,2,0,2,0,22,3,91,2,,,,,,,,,,,,,,,,,,,,,,,,,,,,,s,1,0.434270858765,None,0,0.5,linewhite.gif,go,,,,,,,,,,,,,,,,,,,,,,,,0.66,0.513829946518,0.000895977020264,0.434270858765,1,s,1175.9034791,,,,,,,,,,,,,,,,,,,,,,,,,,,,,,,,,,2015_Jul_02_1405,59.8236798453,LearningTask,1,76,
-200,q,200,,,,,,,,,,,,,,,,,2,0,2,0,23,0,92,1,,,,,,,,,,,,,,,,,,,,,,,,,,,,,q,1,0.367780208588,None,0,0.5,linewhite.gif,go,,,,,,,,,,,,,,,,,,,,,,,,0.45,0.514397859573,0.000871896743774,0.367780208588,1,q,1178.9069581,,,,,,,,,,,,,,,,,,,,,,,,,,,,,,,,,,2015_Jul_02_1405,59.8236798453,LearningTask,1,76,
-200,q,200,,,,,,,,,,,,,,,,,2,0,2,0,23,1,93,1,,,,,,,,,,,,,,,,,,,,,,,,,,,,,q,1,0.300812005997,None,0,2.0,diamondmagenta.gif,stop,,,,,,,,,,,,,,,,,,,,,,,,2.03,0.514147996902,0.000984907150269,0.300812005997,1,q,1181.91039109,,,,,,,,,,,,,,,,,,,,,,,,,,,,,,,,,,2015_Jul_02_1405,59.8236798453,LearningTask,1,76,
-200,q,200,,,,,,,,,,,,,,,,,2,0,2,0,23,2,94,1,,,,,,,,,,,,,,,,,,,,,,,,,,,,,q,1,0.317584037781,None,0,4.0,invertedtrianglegreen.gif,stop,,,,,,,,,,,,,,,,,,,,,,,,4.03,0.514209032059,0.000895023345947,0.317584037781,1,q,1184.91375208,,,,,,,,,,,,,,,,,,,,,,,,,,,,,,,,,,2015_Jul_02_1405,59.8236798453,LearningTask,1,76,
-200,q,200,,,,,,,,,,,,,,,,,2,0,2,0,23,3,95,1,,,,,,,,,,,,,,,,,,,,,,,,,,,,,q,1,0.317682027817,None,0,1.0,crosscyan.gif,stop,,,,,,,,,,,,,,,,,,,,,,,,0.9,0.514245986938,0.00088095664978,0.317682027817,1,q,1187.91716099,,,,,,,,,,,,,,,,,,,,,,,,,,,,,,,,,,2015_Jul_02_1405,59.8236798453,LearningTask,1,76,
200,s,-200,,,,,,,,,,,,,,,,,2,0,2,0,24,0,96,2,,,,,,,,,,,,,,,,,,,,,,,,,,,,,s,1,0.417733192444,None,0,1.0,circlegray.gif,go,,,,,,,,,,,,,,,,,,,,,,,,0.99,0.513954877853,0.000891923904419,0.417733192444,1,s,1190.92052794,,,,,,,,,,,,,,,,,,,,,,,,,,,,,,,,,,2015_Jul_02_1405,59.8236798453,LearningTask,1,76,
-200,q,200,,,,,,,,,,,,,,,,,2,0,2,0,24,1,97,1,,,,,,,,,,,,,,,,,,,,,,,,,,,,,q,1,0.350522041321,None,0,2.0,triangleblue.gif,go,,,,,,,,,,,,,,,,,,,,,,,,0,0.514158964157,0.000874996185303,0.350522041321,1,q,1193.92399812,,,,,,,,,,,,,,,,,,,,,,,,,,,,,,,,,,2015_Jul_02_1405,59.8236798453,LearningTask,1,76,
200,w,200,,,,,,,,,,,,,,,,,2,0,2,0,24,2,98,0,,,,,,,,,,,,,,,,,,,,,,,,,,,,,w,1,0.367733955383,None,0,2.0,triangleblue.gif,go,,,,,,,,,,,,,,,,,,,,,,,,2.25,0.51417183876,0.000874996185303,0.367733955383,1,w,1196.927665,,,,,,,,,,,,,,,,,,,,,,,,,,,,,,,,,,2015_Jul_02_1405,59.8236798453,LearningTask,1,76,
-200,a,-200,,,,,,,,,,,,,,,,,2,0,2,0,24,3,99,3,,,,,,,,,,,,,,,,,,,,,,,,,,,,,a,1,0.350513935089,None,0,0.5,hexagonyellow.gif,stop,,,,,,,,,,,,,,,,,,,,,,,,0,0.514041900635,0.000892877578735,0.350513935089,1,a,1199.93065095,,,,,,,,,,,,,,,,,,,,,,,,,,,,,,,,,,2015_Jul_02_1405,59.8236798453,LearningTask,1,76,
,,,,,,,,,,,,,,,,,,,2,0,2,0,,,,,,,,,,,,,,,,,,,,,,,,,,,,,,,,,,,,,,,,,,,,,,,,,,,,,,,,,,,,,,,,,,,,,,,,,,,,,,9,7.22455406189,,,,,,,,,,,,,,,,,,,,,,,,,2015_Jul_02_1405,59.8236798453,LearningTask,1,76,
200,w,200,,,,,,,,,,,,,,,,,3,0,3,0,0,0,0,0,,,,,,,,,,,,,,,,,,,,,,,,,,,,,w,1,0.383947134018,None,0,0.5,linewhite.gif,go,,,,,,,,,,,,,,,,,,,,,,,,0,0.510663032532,0.000868082046509,0.383947134018,1,w,1210.91019893,,,,,,,,,,,,,,,,,,,,,,,,,,,,,,,,,,2015_Jul_02_1405,59.8236798453,LearningTask,1,76,
-200,a,-200,,,,,,,,,,,,,,,,,3,0,3,0,0,1,1,3,,,,,,,,,,,,,,,,,,,,,,,,,,,,,a,1,0.350594997406,None,0,0.5,hexagonyellow.gif,stop,,,,,,,,,,,,,,,,,,,,,,,,0,0.513583898544,0.00100088119507,0.350594997406,1,a,1213.91293693,,,,,,,,,,,,,,,,,,,,,,,,,,,,,,,,,,2015_Jul_02_1405,59.8236798453,LearningTask,1,76,
