xPos,corrAns,yPos,corrGoResp,yPosGoStim,xPosGoStim,pracTrials.thisRepN,pracTrials.thisTrialN,pracTrials.thisN,pracTrials.thisIndex,ReDoLoopPrac.thisRepN,ReDoLoopPrac.thisTrialN,ReDoLoopPrac.thisN,ReDoLoopPrac.thisIndex,ReDoLoopPrac.thisTrial,pracStopTrials.thisRepN,pracStopTrials.thisTrialN,pracStopTrials.thisN,pracStopTrials.thisIndex,Blocks.thisRepN,Blocks.thisTrialN,Blocks.thisN,Blocks.thisIndex,trials.thisRepN,trials.thisTrialN,trials.thisN,trials.thisIndex,ReDoLoopMain.thisRepN,ReDoLoopMain.thisTrialN,ReDoLoopMain.thisN,ReDoLoopMain.thisIndex,ReDoLoopMain.thisTrial,StopBlocks.thisRepN,StopBlocks.thisTrialN,StopBlocks.thisN,StopBlocks.thisIndex,StopTrials.thisRepN,StopTrials.thisTrialN,StopTrials.thisN,StopTrials.thisIndex,auctionBlocks.thisRepN,auctionBlocks.thisTrialN,auctionBlocks.thisN,auctionBlocks.thisIndex,auctionTrials.thisRepN,auctionTrials.thisTrialN,auctionTrials.thisN,auctionTrials.thisIndex,learningTrialList,learningPracTrialList,stopTrialList,stopPracTrialList,auctionTrialList,ok1.keys,ok1.rt,resp.keys,resp.corr,resp.rt,feedbackResp.keys,feedbackResp.corr,currentReward,currentStimulus,currentStimType,firstPracComputedRewardOutput,firstPracLearningStimOnset,firstPracLearningFixOnset,firstPracPresentationRT,firstPracPresentationAcc,firstPracPresentationResp,firstPracEndTrialTimeStamp,feedbackResp.rt,StartTrialTimeStamp,trialType,goStim,stimType,stopStimValue,goResp.keys,goResp.corr,goResp.rt,key_resp_9.keys,key_resp_9.corr,fixStopOnset,goStimOnset,stopSignalOnset,EndTrialTimeStamp,key_resp_3.keys,key_resp_3.rt,firstComputedRewardOutput,firstLearningStimOnset,firstLearningFixOnset,firstPresentationRT,firstPresentationAcc,firstPresentationResp,firstEndTrialTimeStamp,secondComputedRewardOutput,secondLearningStimOnset,secondLearningFixOnset,secondPresentationRT,secondPresentationAcc,secondPresentationResp,secondEndTrialTimeStamp,key_resp_7.keys,key_resp_7.rt,beginningSSD,EndingSSD,key_resp_9.rt,key_resp_4.keys,key_resp_4.rt,auctionResponse.keys,auctionStimDuration,auctionStim,auctionAmounts,auctionStimValue,auctionCondition,chosenAuctionAmount,auctionResponse.rt,key_resp_5.keys,key_resp_5.rt,shuffledRewardList,chosenReward1,chosenReward2,chosenReward3,chosenReward4,chosenReward5,key_resp_6.keys,key_resp_6.rt,date,frameRate,expName,session,participant,
,,,,,,,,,,,,,,,,,,,,,,,,,,,,,,,,,,,,,,,,,,,,,,,,[],[],[],[],[],9,43.0904119015,,,,,,,,,,,,,,,,,,,,,,,,,,,,,,,,,,,,,,,,,,,,,,,,,,,,,,,,,,,,,,,,,,,,,,,,2015_Jul_06_1123,59.7196767341,LearningTask,1,77,
-200,a,-200,,,,0,0,0,3,,,,,,,,,,,,,,,,,,,,,,,,,,,,,,,,,,,,,,,,,,,,,,a,1,0.567687034607,None,0,2.0,squareblue.gif,stop,1.97,0.515309095383,0.0098569393158,0.567687034607,1,a,99.868350029,,,,,,,,,,,,,,,,,,,,,,,,,,,,,,,,,,,,,,,,,,,,,,,,,,,,,,,,,2015_Jul_06_1123,59.7196767341,LearningTask,1,77,
200,w,200,,,,0,1,1,8,,,,,,,,,,,,,,,,,,,,,,,,,,,,,,,,,,,,,,,,,,,,,,w,1,0.53484416008,None,0,0.5,invertedtrianglecyan.gif,stop,0,0.514518976212,0.0363240242004,0.53484416008,1,w,102.871011972,,,,,,,,,,,,,,,,,,,,,,,,,,,,,,,,,,,,,,,,,,,,,,,,,,,,,,,,,2015_Jul_06_1123,59.7196767341,LearningTask,1,77,
200,w,200,,,,0,2,2,0,,,,,,,,,,,,,,,,,,,,,,,,,,,,,,,,,,,,,,,,,,,,,,w,1,0.417383909225,None,0,0.5,invertedtrianglecyan.gif,stop,0.64,0.515254974365,0.00090503692627,0.417383909225,1,w,105.874584913,,,,,,,,,,,,,,,,,,,,,,,,,,,,,,,,,,,,,,,,,,,,,,,,,,,,,,,,,2015_Jul_06_1123,59.7196767341,LearningTask,1,77,
-200,q,200,,,,0,3,3,9,,,,,,,,,,,,,,,,,,,,,,,,,,,,,,,,,,,,,,,,,,,,,,q,1,0.317725896835,a,0,0.5,invertedtrianglecyan.gif,stop,0,0.514709949493,0.000926971435547,0.317725896835,1,q,108.878172874,0.0253579616547,,,,,,,,,,,,,,,,,,,,,,,,,,,,,,,,,,,,,,,,,,,,,,,,,,,,,,,,2015_Jul_06_1123,59.7196767341,LearningTask,1,77,
200,s,-200,,,,0,4,4,6,,,,,,,,,,,,,,,,,,,,,,,,,,,,,,,,,,,,,,,,,,,,,,s,1,0.384192943573,None,0,4.0,crossmagenta.gif,stop,4.09,0.515029907227,0.0371890068054,0.384192943573,1,s,111.881150007,,,,,,,,,,,,,,,,,,,,,,,,,,,,,,,,,,,,,,,,,,,,,,,,,,,,,,,,,2015_Jul_06_1123,59.7196767341,LearningTask,1,77,
-200,q,200,,,,0,5,5,1,,,,,,,,,,,,,,,,,,,,,,,,,,,,,,,,,,,,,,,,,,,,,,q,1,0.55113697052,None,0,0.5,invertedtrianglecyan.gif,stop,0.3,0.515461921692,0.000895977020264,0.55113697052,1,q,114.884716988,,,,,,,,,,,,,,,,,,,,,,,,,,,,,,,,,,,,,,,,,,,,,,,,,,,,,,,,,2015_Jul_06_1123,59.7196767341,LearningTask,1,77,
200,w,200,,,,0,6,6,4,,,,,,,,,,,,,,,,,,,,,,,,,,,,,,,,,,,,,,,,,,,,,,w,1,0.551130056381,None,0,4.0,crossmagenta.gif,stop,4.09,0.514945030212,0.000910997390747,0.551130056381,1,w,117.888057947,,,,,,,,,,,,,,,,,,,,,,,,,,,,,,,,,,,,,,,,,,,,,,,,,,,,,,,,,2015_Jul_06_1123,59.7196767341,LearningTask,1,77,
200,s,-200,,,,0,7,7,2,,,,,,,,,,,,,,,,,,,,,,,,,,,,,,,,,,,,,,,,,,,,,,s,1,0.551354885101,None,0,4.0,crossmagenta.gif,stop,3.95,0.515005111694,0.000900030136108,0.551354885101,1,s,120.891716957,,,,,,,,,,,,,,,,,,,,,,,,,,,,,,,,,,,,,,,,,,,,,,,,,,,,,,,,,2015_Jul_06_1123,59.7196767341,LearningTask,1,77,
-200,a,-200,,,,0,8,8,7,,,,,,,,,,,,,,,,,,,,,,,,,,,,,,,,,,,,,,,,,,,,,,a,1,0.618045091629,None,0,2.0,linegreen.gif,go,1.8,0.51450586319,0.0205960273743,0.618045091629,1,a,123.894748926,,,,,,,,,,,,,,,,,,,,,,,,,,,,,,,,,,,,,,,,,,,,,,,,,,,,,,,,,2015_Jul_06_1123,59.7196767341,LearningTask,1,77,
-200,q,200,,,,0,9,9,5,,,,,,,,,,,,,,,,,,,,,,,,,,,,,,,,,,,,,,,,,,,,,,q,1,0.417768955231,None,0,1.0,hexagonwhite.gif,stop,1.06,0.515052080154,0.0397920608521,0.417768955231,1,q,126.898115873,,,,,,,,,,,,,,,,,,,,,,,,,,,,,,,,,,,,,,,,,,,,,,,,,,,,,,,,,2015_Jul_06_1123,59.7196767341,LearningTask,1,77,
,,,z,0,-200,,,,,,,,,,0,0,0,0,,,,,,,,,,,,,,,,,,,,,,,,,,,,,,,,,,,,,,,,,,,,,,,,,,,,,167.826726913,stop,crossmagenta.gif,stop,4.0,z,1,0.617921113968,None,0,0.0013210773468,0.516136884689,0.766464948654,170.830626965,,,,,,,,,,,,,,,,,,,,,,,,,,,,,,,,,,,,,,,,,,2015_Jul_06_1123,59.7196767341,LearningTask,1,77,
,,,m,0,200,,,,,,,,,,0,1,1,1,,,,,,,,,,,,,,,,,,,,,,,,,,,,,,,,,,,,,,,,,,,,,,,,,,,,,170.831017017,stop,crossmagenta.gif,stop,4.0,m,1,0.38423705101,None,0,0.00112295150757,0.515757083893,0.765968084335,173.833811045,,,,,,,,,,,,,,,,,,,,,,,,,,,,,,,,,,,,,,,,,,2015_Jul_06_1123,59.7196767341,LearningTask,1,77,
,,,m,0,200,,,,,,,,,,1,0,2,1,,,,,,,,,,,,,,,,,,,,,,,,,,,,,,,,,,,,,,,,,,,,,,,,,,,,,173.834176064,go,linegreen.gif,go,2.0,m,1,0.450864076614,None,0,0.000965118408203,0.51592206955,,176.837187052,,,,,,,,,,,,,,,,,,,,,,,,,,,,,,,,,,,,,,,,,,2015_Jul_06_1123,59.7196767341,LearningTask,1,77,
,,,z,0,-200,,,,,,,,,,1,1,3,0,,,,,,,,,,,,,,,,,,,,,,,,,,,,,,,,,,,,,,,,,,,,,,,,,,,,,176.837549925,stop,invertedtrianglecyan.gif,stop,0.5,None,0,,None,0,0.000951051712036,0.515902042389,0.766493082047,179.840842962,,,,,,,,,,,,,,,,,,,,,,,,,,,,,,,,,,,,,,,,,,2015_Jul_06_1123,59.7196767341,LearningTask,1,77,
,,,m,0,200,,,,,,,,,,2,0,4,1,,,,,,,,,,,,,,,,,,,,,,,,,,,,,,,,,,,,,,,,,,,,,,,,,,,,,179.84127593,go,diamondgray.gif,go,1.0,m,1,0.483989953995,None,0,0.0158708095551,0.515463829041,,182.844033957,,,,,,,,,,,,,,,,,,,,,,,,,,,,,,,,,,,,,,,,,,2015_Jul_06_1123,59.7196767341,LearningTask,1,77,
,,,m,0,200,,,,,,,,,,2,1,5,1,,,,,,,,,,,,,,,,,,,,,,,,,,,,,,,,,,,,,,,,,,,,,,,,,,,,,182.844439983,go,diamondgray.gif,go,1.0,m,1,0.567565917969,None,0,0.000948905944824,0.515702009201,,185.847230911,,,,,,,,,,,,,,,,,,,,,,,,,,,,,,,,,,,,,,,,,,2015_Jul_06_1123,59.7196767341,LearningTask,1,77,
,,,z,0,-200,,,,,,,,,,3,0,6,0,,,,,,,,,,,,,,,,,,,,,,,,,,,,,,,,,,,,,,,,,,,,,,,,,,,,,185.847645998,stop,invertedtrianglecyan.gif,stop,0.5,None,0,,None,0,0.00101613998413,0.515846967697,0.766044139862,188.850955963,,,,,,,,,,,,,,,,,,,,,,,,,,,,,,,,,,,,,,,,,,2015_Jul_06_1123,59.7196767341,LearningTask,1,77,
,,,z,0,-200,,,,,,,,,,3,1,7,0,,,,,,,,,,,,,,,,,,,,,,,,,,,,,,,,,,,,,,,,,,,,,,,,,,,,,188.851393938,stop,hexagonwhite.gif,stop,1.0,None,0,,None,0,0.00103402137756,0.515475034714,0.765586137772,191.854232073,,,,,,,,,,,,,,,,,,,,,,,,,,,,,,,,,,,,,,,,,,2015_Jul_06_1123,59.7196767341,LearningTask,1,77,
,,,z,0,-200,,,,,,,,,,4,0,8,0,,,,,,,,,,,,,,,,,,,,,,,,,,,,,,,,,,,,,,,,,,,,,,,,,,,,,191.854597092,go,diamondgray.gif,go,1.0,z,1,0.434135913849,None,0,0.000952005386353,0.515710115433,,194.857367039,,,,,,,,,,,,,,,,,,,,,,,,,,,,,,,,,,,,,,,,,,2015_Jul_06_1123,59.7196767341,LearningTask,1,77,
,,,m,0,200,,,,,,,,,,4,1,9,1,,,,,,,,,,,,,,,,,,,,,,,,,,,,,,,,,,,,,,,,,,,,,,,,,,,,,194.857728004,go,triangleyellow.gif,go,4.0,m,1,0.534624099731,None,0,0.0428159236908,0.515973091125,,197.86097002,,,,,,,,,,,,,,,,,,,,,,,,,,,,,,,,,,,,,,,,,,2015_Jul_06_1123,59.7196767341,LearningTask,1,77,
,,,,,,,,,,,,,,,,,,,,,,,,,,,,,,,,,,,,,,,,,,,,,,,,,,,,,,,,,,,,,,,,,,,,,,,,,,,,,,,,,,,,,9,3.0812420845,,,,,,,,,,,,,,,,,,,,,,,,,,,,,,,,,,,,,,,,2015_Jul_06_1123,59.7196767341,LearningTask,1,77,
,,,,,,,,,,,,,,,,,,,,,,,,,,,,,,,,,,,,,,,,,,,,,,,,,,,,,9,61.0691981316,,,,,,,,,,,,,,,,,,,,,,,,,,,,,,,,,,,,,,,,,,,,,,,,,,,,,,,,,,,,,,,,,,,,,,,,2015_Jul_06_1123,59.7196767341,LearningTask,1,77,
-200,a,-200,,,,,,,,,,,,,,,,,0,0,0,0,0,0,0,3,,,,,,,,,,,,,,,,,,,,,,,,,,,,,a,1,0.601551055908,None,0,4.0,triangleyellow.gif,go,,,,,,,,,,,,,,,,,,,,,,,,,3.76,0.500571012497,0.000910997390747,0.601551055908,1,a,265.204319,,,,,,,,,,,,,,,,,,,,,,,,,,,,,,,,,2015_Jul_06_1123,59.7196767341,LearningTask,1,77,
200,w,200,,,,,,,,,,,,,,,,,0,0,0,0,0,1,1,0,,,,,,,,,,,,,,,,,,,,,,,,,,,,,w,1,0.417226791382,None,0,1.0,diamondgray.gif,go,,,,,,,,,,,,,,,,,,,,,,,,,0.98,0.513768911362,0.000890970230103,0.417226791382,1,w,268.207688093,,,,,,,,,,,,,,,,,,,,,,,,,,,,,,,,,2015_Jul_06_1123,59.7196767341,LearningTask,1,77,
-200,q,200,,,,,,,,,,,,,,,,,0,0,0,0,0,2,2,1,,,,,,,,,,,,,,,,,,,,,,,,,,,,,q,1,0.400767087936,None,0,0.5,invertedtrianglecyan.gif,stop,,,,,,,,,,,,,,,,,,,,,,,,,0.39,0.513782024384,0.000994920730591,0.400767087936,1,q,271.21064496,,,,,,,,,,,,,,,,,,,,,,,,,,,,,,,,,2015_Jul_06_1123,59.7196767341,LearningTask,1,77,
200,w,200,,,,,,,,,,,,,,,,,0,0,0,0,0,3,3,0,,,,,,,,,,,,,,,,,,,,,,,,,,,,,w,1,0.501106023788,None,0,2.0,squareblue.gif,stop,,,,,,,,,,,,,,,,,,,,,,,,,1.87,0.514054059982,0.000952959060669,0.501106023788,1,w,274.213931084,,,,,,,,,,,,,,,,,,,,,,,,,,,,,,,,,2015_Jul_06_1123,59.7196767341,LearningTask,1,77,
-200,a,-200,,,,,,,,,,,,,,,,,0,0,0,0,1,0,4,3,,,,,,,,,,,,,,,,,,,,,,,,,,,,,a,1,0.450694084167,None,0,2.0,squareblue.gif,stop,,,,,,,,,,,,,,,,,,,,,,,,,0,0.514739990234,0.000904083251953,0.450694084167,1,a,277.217442989,,,,,,,,,,,,,,,,,,,,,,,,,,,,,,,,,2015_Jul_06_1123,59.7196767341,LearningTask,1,77,
200,s,-200,,,,,,,,,,,,,,,,,0,0,0,0,1,1,5,2,,,,,,,,,,,,,,,,,,,,,,,,,,,,,s,1,0.518218994141,None,0,2.0,linegreen.gif,go,,,,,,,,,,,,,,,,,,,,,,,,,1.9,0.51429104805,0.000898122787476,0.518218994141,1,s,280.221069098,,,,,,,,,,,,,,,,,,,,,,,,,,,,,,,,,2015_Jul_06_1123,59.7196767341,LearningTask,1,77,
200,s,-200,,,,,,,,,,,,,,,,,0,0,0,0,1,2,6,2,,,,,,,,,,,,,,,,,,,,,,,,,,,,,s,1,0.384649991989,None,0,2.0,linegreen.gif,go,,,,,,,,,,,,,,,,,,,,,,,,,2.09,0.513341903687,0.00089693069458,0.384649991989,1,s,283.224174023,,,,,,,,,,,,,,,,,,,,,,,,,,,,,,,,,2015_Jul_06_1123,59.7196767341,LearningTask,1,77,
-200,q,200,,,,,,,,,,,,,,,,,0,0,0,0,1,3,7,1,,,,,,,,,,,,,,,,,,,,,,,,,,,,,q,1,0.317795991898,None,0,4.0,triangleyellow.gif,go,,,,,,,,,,,,,,,,,,,,,,,,,3.84,0.514312028885,0.000895977020264,0.317795991898,1,q,286.227534056,,,,,,,,,,,,,,,,,,,,,,,,,,,,,,,,,2015_Jul_06_1123,59.7196767341,LearningTask,1,77,
200,s,-200,,,,,,,,,,,,,,,,,0,0,0,0,2,0,8,2,,,,,,,,,,,,,,,,,,,,,,,,,,,,,s,1,0.384231090546,None,0,4.0,crossmagenta.gif,stop,,,,,,,,,,,,,,,,,,,,,,,,,0,0.514387130737,0.000909090042114,0.384231090546,1,s,289.231476068,,,,,,,,,,,,,,,,,,,,,,,,,,,,,,,,,2015_Jul_06_1123,59.7196767341,LearningTask,1,77,
200,w,200,,,,,,,,,,,,,,,,,0,0,0,0,2,1,9,0,,,,,,,,,,,,,,,,,,,,,,,,,,,,,w,1,0.317622900009,None,0,0.5,circleorange.gif,go,,,,,,,,,,,,,,,,,,,,,,,,,0.46,0.513575077057,0.0348799228668,0.317622900009,1,w,292.234390974,,,,,,,,,,,,,,,,,,,,,,,,,,,,,,,,,2015_Jul_06_1123,59.7196767341,LearningTask,1,77,
200,w,200,,,,,,,,,,,,,,,,,0,0,0,0,2,2,10,0,,,,,,,,,,,,,,,,,,,,,,,,,,,,,w,1,0.317521095276,None,0,4.0,crossmagenta.gif,stop,,,,,,,,,,,,,,,,,,,,,,,,,3.95,0.514243125916,0.000894069671631,0.317521095276,1,w,295.237618923,,,,,,,,,,,,,,,,,,,,,,,,,,,,,,,,,2015_Jul_06_1123,59.7196767341,LearningTask,1,77,
200,s,-200,,,,,,,,,,,,,,,,,0,0,0,0,2,3,11,2,,,,,,,,,,,,,,,,,,,,,,,,,,,,,s,1,0.350760936737,None,0,4.0,triangleyellow.gif,go,,,,,,,,,,,,,,,,,,,,,,,,,4.03,0.514698982239,0.000901937484741,0.350760936737,1,s,298.241260052,,,,,,,,,,,,,,,,,,,,,,,,,,,,,,,,,2015_Jul_06_1123,59.7196767341,LearningTask,1,77,
-200,q,200,,,,,,,,,,,,,,,,,0,0,0,0,3,0,12,1,,,,,,,,,,,,,,,,,,,,,,,,,,,,,q,1,0.384577989578,None,0,4.0,crossmagenta.gif,stop,,,,,,,,,,,,,,,,,,,,,,,,,4.09,0.514070034027,0.000904083251953,0.384577989578,1,q,301.244630098,,,,,,,,,,,,,,,,,,,,,,,,,,,,,,,,,2015_Jul_06_1123,59.7196767341,LearningTask,1,77,
-200,q,200,,,,,,,,,,,,,,,,,0,0,0,0,3,1,13,1,,,,,,,,,,,,,,,,,,,,,,,,,,,,,q,1,0.38414478302,None,0,0.5,circleorange.gif,go,,,,,,,,,,,,,,,,,,,,,,,,,0.33,0.513733148575,0.00117301940918,0.38414478302,1,q,304.247725964,,,,,,,,,,,,,,,,,,,,,,,,,,,,,,,,,2015_Jul_06_1123,59.7196767341,LearningTask,1,77,
-200,q,200,,,,,,,,,,,,,,,,,0,0,0,0,3,2,14,1,,,,,,,,,,,,,,,,,,,,,,,,,,,,,q,1,0.334496974945,None,0,1.0,diamondgray.gif,go,,,,,,,,,,,,,,,,,,,,,,,,,0,0.514246940613,0.00095796585083,0.334496974945,1,q,307.251441956,,,,,,,,,,,,,,,,,,,,,,,,,,,,,,,,,2015_Jul_06_1123,59.7196767341,LearningTask,1,77,
-200,q,200,,,,,,,,,,,,,,,,,0,0,0,0,3,3,15,1,,,,,,,,,,,,,,,,,,,,,,,,,,,,,q,1,0.334048986435,None,0,1.0,hexagonwhite.gif,stop,,,,,,,,,,,,,,,,,,,,,,,,,0.79,0.513635873795,0.00102186203003,0.334048986435,1,q,310.254266024,,,,,,,,,,,,,,,,,,,,,,,,,,,,,,,,,2015_Jul_06_1123,59.7196767341,LearningTask,1,77,
-200,a,-200,,,,,,,,,,,,,,,,,0,0,0,0,4,0,16,3,,,,,,,,,,,,,,,,,,,,,,,,,,,,,a,1,0.401262998581,None,0,4.0,crossmagenta.gif,stop,,,,,,,,,,,,,,,,,,,,,,,,,3.97,0.514595985413,0.00115990638733,0.401262998581,1,a,313.258039951,,,,,,,,,,,,,,,,,,,,,,,,,,,,,,,,,2015_Jul_06_1123,59.7196767341,LearningTask,1,77,
-200,a,-200,,,,,,,,,,,,,,,,,0,0,0,0,4,1,17,3,,,,,,,,,,,,,,,,,,,,,,,,,,,,,a,1,0.434617996216,None,0,4.0,triangleyellow.gif,go,,,,,,,,,,,,,,,,,,,,,,,,,3.82,0.513948202133,0.00095009803772,0.434617996216,1,a,316.261178017,,,,,,,,,,,,,,,,,,,,,,,,,,,,,,,,,2015_Jul_06_1123,59.7196767341,LearningTask,1,77,
-200,a,-200,,,,,,,,,,,,,,,,,0,0,0,0,4,2,18,3,,,,,,,,,,,,,,,,,,,,,,,,,,,,,a,1,0.601622104645,None,0,2.0,linegreen.gif,go,,,,,,,,,,,,,,,,,,,,,,,,,0,0.514497041702,0.000894069671631,0.601622104645,1,a,319.2646029,,,,,,,,,,,,,,,,,,,,,,,,,,,,,,,,,2015_Jul_06_1123,59.7196767341,LearningTask,1,77,
-200,q,200,,,,,,,,,,,,,,,,,0,0,0,0,4,3,19,1,,,,,,,,,,,,,,,,,,,,,,,,,,,,,q,1,0.367363214493,None,0,0.5,invertedtrianglecyan.gif,stop,,,,,,,,,,,,,,,,,,,,,,,,,0.34,0.514128923416,0.000955104827881,0.367363214493,1,q,322.267999887,,,,,,,,,,,,,,,,,,,,,,,,,,,,,,,,,2015_Jul_06_1123,59.7196767341,LearningTask,1,77,
200,s,-200,,,,,,,,,,,,,,,,,0,0,0,0,5,0,20,2,,,,,,,,,,,,,,,,,,,,,,,,,,,,,s,1,0.417915821075,None,0,1.0,hexagonwhite.gif,stop,,,,,,,,,,,,,,,,,,,,,,,,,1.2,0.514235973358,0.000951051712036,0.417915821075,1,s,325.271271944,,,,,,,,,,,,,,,,,,,,,,,,,,,,,,,,,2015_Jul_06_1123,59.7196767341,LearningTask,1,77,
-200,a,-200,,,,,,,,,,,,,,,,,0,0,0,0,5,1,21,3,,,,,,,,,,,,,,,,,,,,,,,,,,,,,a,1,0.517456054688,None,0,0.5,circleorange.gif,go,,,,,,,,,,,,,,,,,,,,,,,,,0.44,0.514605998993,0.00090503692627,0.517456054688,1,a,328.274849892,,,,,,,,,,,,,,,,,,,,,,,,,,,,,,,,,2015_Jul_06_1123,59.7196767341,LearningTask,1,77,
200,w,200,,,,,,,,,,,,,,,,,0,0,0,0,5,2,22,0,,,,,,,,,,,,,,,,,,,,,,,,,,,,,w,1,0.467216014862,None,0,1.0,diamondgray.gif,go,,,,,,,,,,,,,,,,,,,,,,,,,0.8,0.514256954193,0.000924825668335,0.467216014862,1,w,331.278300047,,,,,,,,,,,,,,,,,,,,,,,,,,,,,,,,,2015_Jul_06_1123,59.7196767341,LearningTask,1,77,
-200,a,-200,,,,,,,,,,,,,,,,,0,0,0,0,5,3,23,3,,,,,,,,,,,,,,,,,,,,,,,,,,,,,a,1,0.584851980209,None,0,4.0,crossmagenta.gif,stop,,,,,,,,,,,,,,,,,,,,,,,,,3.82,0.514093160629,0.000894069671631,0.584851980209,1,a,334.281432867,,,,,,,,,,,,,,,,,,,,,,,,,,,,,,,,,2015_Jul_06_1123,59.7196767341,LearningTask,1,77,
-200,a,-200,,,,,,,,,,,,,,,,,0,0,0,0,6,0,24,3,,,,,,,,,,,,,,,,,,,,,,,,,,,,,a,1,0.801789045334,None,0,0.5,invertedtrianglecyan.gif,stop,,,,,,,,,,,,,,,,,,,,,,,,,0.73,0.514285087585,0.000930070877075,0.801789045334,1,a,337.285373926,,,,,,,,,,,,,,,,,,,,,,,,,,,,,,,,,2015_Jul_06_1123,59.7196767341,LearningTask,1,77,
200,w,200,,,,,,,,,,,,,,,,,0,0,0,0,6,1,25,0,,,,,,,,,,,,,,,,,,,,,,,,,,,,,w,1,0.484046936035,None,0,2.0,linegreen.gif,go,,,,,,,,,,,,,,,,,,,,,,,,,1.94,0.513859987259,0.000901937484741,0.484046936035,1,w,340.288227081,,,,,,,,,,,,,,,,,,,,,,,,,,,,,,,,,2015_Jul_06_1123,59.7196767341,LearningTask,1,77,
200,s,-200,,,,,,,,,,,,,,,,,0,0,0,0,6,2,26,2,,,,,,,,,,,,,,,,,,,,,,,,,,,,,s,1,0.384527921677,None,0,4.0,triangleyellow.gif,go,,,,,,,,,,,,,,,,,,,,,,,,,4.11,0.514090061188,0.000893115997314,0.384527921677,1,s,343.291673899,,,,,,,,,,,,,,,,,,,,,,,,,,,,,,,,,2015_Jul_06_1123,59.7196767341,LearningTask,1,77,
200,s,-200,,,,,,,,,,,,,,,,,0,0,0,0,6,3,27,2,,,,,,,,,,,,,,,,,,,,,,,,,,,,,s,1,0.384122133255,None,0,1.0,diamondgray.gif,go,,,,,,,,,,,,,,,,,,,,,,,,,0.79,0.514448881149,0.000978946685791,0.384122133255,1,s,346.295475006,,,,,,,,,,,,,,,,,,,,,,,,,,,,,,,,,2015_Jul_06_1123,59.7196767341,LearningTask,1,77,
-200,q,200,,,,,,,,,,,,,,,,,0,0,0,0,7,0,28,1,,,,,,,,,,,,,,,,,,,,,,,,,,,,,q,1,0.801498889923,None,0,0.5,invertedtrianglecyan.gif,stop,,,,,,,,,,,,,,,,,,,,,,,,,0.41,0.513746023178,0.000919818878174,0.801498889923,1,q,349.298424006,,,,,,,,,,,,,,,,,,,,,,,,,,,,,,,,,2015_Jul_06_1123,59.7196767341,LearningTask,1,77,
-200,q,200,,,,,,,,,,,,,,,,,0,0,0,0,7,1,29,1,,,,,,,,,,,,,,,,,,,,,,,,,,,,,q,1,0.668053150177,None,0,1.0,hexagonwhite.gif,stop,,,,,,,,,,,,,,,,,,,,,,,,,0,0.514233112335,0.00100302696228,0.668053150177,1,q,352.30153203,,,,,,,,,,,,,,,,,,,,,,,,,,,,,,,,,2015_Jul_06_1123,59.7196767341,LearningTask,1,77,
200,w,200,,,,,,,,,,,,,,,,,0,0,0,0,7,2,30,0,,,,,,,,,,,,,,,,,,,,,,,,,,,,,w,1,0.41801404953,None,0,2.0,linegreen.gif,go,,,,,,,,,,,,,,,,,,,,,,,,,1.83,0.51451921463,0.000953197479248,0.41801404953,1,w,355.305375099,,,,,,,,,,,,,,,,,,,,,,,,,,,,,,,,,2015_Jul_06_1123,59.7196767341,LearningTask,1,77,
200,w,200,,,,,,,,,,,,,,,,,0,0,0,0,7,3,31,0,,,,,,,,,,,,,,,,,,,,,,,,,,,,,w,1,0.384050130844,None,0,1.0,diamondgray.gif,go,,,,,,,,,,,,,,,,,,,,,,,,,1.11,0.514107942581,0.000903129577637,0.384050130844,1,w,358.308713913,,,,,,,,,,,,,,,,,,,,,,,,,,,,,,,,,2015_Jul_06_1123,59.7196767341,LearningTask,1,77,
200,w,200,,,,,,,,,,,,,,,,,0,0,0,0,8,0,32,0,,,,,,,,,,,,,,,,,,,,,,,,,,,,,w,1,0.300894021988,None,0,4.0,triangleyellow.gif,go,,,,,,,,,,,,,,,,,,,,,,,,,4.21,0.513884067535,0.00102496147156,0.300894021988,1,w,361.311965942,,,,,,,,,,,,,,,,,,,,,,,,,,,,,,,,,2015_Jul_06_1123,59.7196767341,LearningTask,1,77,
200,s,-200,,,,,,,,,,,,,,,,,0,0,0,0,8,1,33,2,,,,,,,,,,,,,,,,,,,,,,,,,,,,,s,1,0.417224884033,None,0,4.0,crossmagenta.gif,stop,,,,,,,,,,,,,,,,,,,,,,,,,3.93,0.51432299614,0.0010998249054,0.417224884033,1,s,364.315211058,,,,,,,,,,,,,,,,,,,,,,,,,,,,,,,,,2015_Jul_06_1123,59.7196767341,LearningTask,1,77,
-200,q,200,,,,,,,,,,,,,,,,,0,0,0,0,8,2,34,1,,,,,,,,,,,,,,,,,,,,,,,,,,,,,q,1,0.367382049561,None,0,2.0,linegreen.gif,go,,,,,,,,,,,,,,,,,,,,,,,,,0,0.514330148697,0.000901222229004,0.367382049561,1,q,367.318578959,,,,,,,,,,,,,,,,,,,,,,,,,,,,,,,,,2015_Jul_06_1123,59.7196767341,LearningTask,1,77,
-200,a,-200,,,,,,,,,,,,,,,,,0,0,0,0,8,3,35,3,,,,,,,,,,,,,,,,,,,,,,,,,,,,,a,1,0.401238918304,None,0,0.5,circleorange.gif,go,,,,,,,,,,,,,,,,,,,,,,,,,0.25,0.514051914215,0.00094199180603,0.401238918304,1,a,370.321985006,,,,,,,,,,,,,,,,,,,,,,,,,,,,,,,,,2015_Jul_06_1123,59.7196767341,LearningTask,1,77,
-200,q,200,,,,,,,,,,,,,,,,,0,0,0,0,9,0,36,1,,,,,,,,,,,,,,,,,,,,,,,,,,,,,q,1,0.401043891907,None,0,0.5,invertedtrianglecyan.gif,stop,,,,,,,,,,,,,,,,,,,,,,,,,0.54,0.514236927032,0.00089693069458,0.401043891907,1,q,373.325291872,,,,,,,,,,,,,,,,,,,,,,,,,,,,,,,,,2015_Jul_06_1123,59.7196767341,LearningTask,1,77,
-200,q,200,,,,,,,,,,,,,,,,,0,0,0,0,9,1,37,1,,,,,,,,,,,,,,,,,,,,,,,,,,,,,q,1,0.350939035416,None,0,4.0,triangleyellow.gif,go,,,,,,,,,,,,,,,,,,,,,,,,,4.13,0.514446020126,0.00090503692627,0.350939035416,1,q,376.328809023,,,,,,,,,,,,,,,,,,,,,,,,,,,,,,,,,2015_Jul_06_1123,59.7196767341,LearningTask,1,77,
-200,a,-200,,,,,,,,,,,,,,,,,0,0,0,0,9,2,38,3,,,,,,,,,,,,,,,,,,,,,,,,,,,,,a,1,0.400661945343,None,0,4.0,triangleyellow.gif,go,,,,,,,,,,,,,,,,,,,,,,,,,4.02,0.51433300972,0.000948905944824,0.400661945343,1,a,379.332256079,,,,,,,,,,,,,,,,,,,,,,,,,,,,,,,,,2015_Jul_06_1123,59.7196767341,LearningTask,1,77,
200,w,200,,,,,,,,,,,,,,,,,0,0,0,0,9,3,39,0,,,,,,,,,,,,,,,,,,,,,,,,,,,,,w,1,0.350941181183,None,0,4.0,crossmagenta.gif,stop,,,,,,,,,,,,,,,,,,,,,,,,,3.96,0.514142990112,0.000900983810425,0.350941181183,1,w,382.335408926,,,,,,,,,,,,,,,,,,,,,,,,,,,,,,,,,2015_Jul_06_1123,59.7196767341,LearningTask,1,77,
-200,a,-200,,,,,,,,,,,,,,,,,0,0,0,0,10,0,40,3,,,,,,,,,,,,,,,,,,,,,,,,,,,,,a,1,0.350728988647,None,0,0.5,circleorange.gif,go,,,,,,,,,,,,,,,,,,,,,,,,,0.53,0.514364004135,0.000923156738281,0.350728988647,1,a,385.339238882,,,,,,,,,,,,,,,,,,,,,,,,,,,,,,,,,2015_Jul_06_1123,59.7196767341,LearningTask,1,77,
200,s,-200,,,,,,,,,,,,,,,,,0,0,0,0,10,1,41,2,,,,,,,,,,,,,,,,,,,,,,,,,,,,,s,1,0.334271907806,None,0,2.0,squareblue.gif,stop,,,,,,,,,,,,,,,,,,,,,,,,,1.88,0.513788938522,0.000895977020264,0.334271907806,1,s,388.342451096,,,,,,,,,,,,,,,,,,,,,,,,,,,,,,,,,2015_Jul_06_1123,59.7196767341,LearningTask,1,77,
200,w,200,,,,,,,,,,,,,,,,,0,0,0,0,10,2,42,0,,,,,,,,,,,,,,,,,,,,,,,,,,,,,w,1,0.350535154343,None,0,1.0,diamondgray.gif,go,,,,,,,,,,,,,,,,,,,,,,,,,0.78,0.514167070389,0.000899076461792,0.350535154343,1,w,391.345546007,,,,,,,,,,,,,,,,,,,,,,,,,,,,,,,,,2015_Jul_06_1123,59.7196767341,LearningTask,1,77,
200,s,-200,,,,,,,,,,,,,,,,,0,0,0,0,10,3,43,2,,,,,,,,,,,,,,,,,,,,,,,,,,,,,s,1,0.368076086044,None,0,0.5,invertedtrianglecyan.gif,stop,,,,,,,,,,,,,,,,,,,,,,,,,0,0.514099836349,0.000966787338257,0.368076086044,1,s,394.349238873,,,,,,,,,,,,,,,,,,,,,,,,,,,,,,,,,2015_Jul_06_1123,59.7196767341,LearningTask,1,77,
-200,q,200,,,,,,,,,,,,,,,,,0,0,0,0,11,0,44,1,,,,,,,,,,,,,,,,,,,,,,,,,,,,,q,1,0.300868034363,None,0,2.0,linegreen.gif,go,,,,,,,,,,,,,,,,,,,,,,,,,2.01,0.513834953308,0.000922918319702,0.300868034363,1,q,397.35227704,,,,,,,,,,,,,,,,,,,,,,,,,,,,,,,,,2015_Jul_06_1123,59.7196767341,LearningTask,1,77,
-200,a,-200,,,,,,,,,,,,,,,,,0,0,0,0,11,1,45,3,,,,,,,,,,,,,,,,,,,,,,,,,,,,,a,1,0.417541027069,None,0,4.0,triangleyellow.gif,go,,,,,,,,,,,,,,,,,,,,,,,,,3.95,0.514322042465,0.00110006332397,0.417541027069,1,a,400.356112957,,,,,,,,,,,,,,,,,,,,,,,,,,,,,,,,,2015_Jul_06_1123,59.7196767341,LearningTask,1,77,
-200,q,200,,,,,,,,,,,,,,,,,0,0,0,0,11,2,46,1,,,,,,,,,,,,,,,,,,,,,,,,,,,,,q,1,0.417676925659,None,0,2.0,linegreen.gif,go,,,,,,,,,,,,,,,,,,,,,,,,,1.83,0.513752937317,0.000919103622437,0.417676925659,1,q,403.359123945,,,,,,,,,,,,,,,,,,,,,,,,,,,,,,,,,2015_Jul_06_1123,59.7196767341,LearningTask,1,77,
200,w,200,,,,,,,,,,,,,,,,,0,0,0,0,11,3,47,0,,,,,,,,,,,,,,,,,,,,,,,,,,,,,w,1,0.317342042923,None,0,4.0,triangleyellow.gif,go,,,,,,,,,,,,,,,,,,,,,,,,,4.13,0.514307022095,0.000931024551392,0.317342042923,1,w,406.362385035,,,,,,,,,,,,,,,,,,,,,,,,,,,,,,,,,2015_Jul_06_1123,59.7196767341,LearningTask,1,77,
200,w,200,,,,,,,,,,,,,,,,,0,0,0,0,12,0,48,0,,,,,,,,,,,,,,,,,,,,,,,,,,,,,w,1,0.316890954971,w,1,1.0,diamondgray.gif,go,,,,,,,,0.591385126114,,,,,,,,,,,,,,,,,1.18,0.514762163162,0.000969171524048,0.316890954971,1,w,409.365794897,,,,,,,,,,,,,,,,,,,,,,,,,,,,,,,,,2015_Jul_06_1123,59.7196767341,LearningTask,1,77,
-200,a,-200,,,,,,,,,,,,,,,,,0,0,0,0,12,1,49,3,,,,,,,,,,,,,,,,,,,,,,,,,,,,,a,1,0.384443044662,None,0,4.0,crossmagenta.gif,stop,,,,,,,,,,,,,,,,,,,,,,,,,3.9,0.514363050461,0.000896215438843,0.384443044662,1,a,412.369126081,,,,,,,,,,,,,,,,,,,,,,,,,,,,,,,,,2015_Jul_06_1123,59.7196767341,LearningTask,1,77,
-200,q,200,,,,,,,,,,,,,,,,,0,0,0,0,12,2,50,1,,,,,,,,,,,,,,,,,,,,,,,,,,,,,q,1,0.384293079376,None,0,0.5,circleorange.gif,go,,,,,,,,,,,,,,,,,,,,,,,,,0.53,0.51428604126,0.000899076461792,0.384293079376,1,q,415.372713089,,,,,,,,,,,,,,,,,,,,,,,,,,,,,,,,,2015_Jul_06_1123,59.7196767341,LearningTask,1,77,
-200,a,-200,,,,,,,,,,,,,,,,,0,0,0,0,12,3,51,3,,,,,,,,,,,,,,,,,,,,,,,,,,,,,a,1,0.417701005936,None,0,2.0,linegreen.gif,go,,,,,,,,,,,,,,,,,,,,,,,,,2.04,0.513653039932,0.000936985015869,0.417701005936,1,a,418.376224041,,,,,,,,,,,,,,,,,,,,,,,,,,,,,,,,,2015_Jul_06_1123,59.7196767341,LearningTask,1,77,
200,s,-200,,,,,,,,,,,,,,,,,0,0,0,0,13,0,52,2,,,,,,,,,,,,,,,,,,,,,,,,,,,,,s,1,0.417928934097,None,0,4.0,crossmagenta.gif,stop,,,,,,,,,,,,,,,,,,,,,,,,,4.14,0.513576030731,0.00109314918518,0.417928934097,1,s,421.379287004,,,,,,,,,,,,,,,,,,,,,,,,,,,,,,,,,2015_Jul_06_1123,59.7196767341,LearningTask,1,77,
-200,q,200,,,,,,,,,,,,,,,,,0,0,0,0,13,1,53,1,,,,,,,,,,,,,,,,,,,,,,,,,,,,,q,1,0.366955041885,None,0,1.0,hexagonwhite.gif,stop,,,,,,,,,,,,,,,,,,,,,,,,,1.06,0.514394044876,0.000903129577637,0.366955041885,1,q,424.383146048,,,,,,,,,,,,,,,,,,,,,,,,,,,,,,,,,2015_Jul_06_1123,59.7196767341,LearningTask,1,77,
200,w,200,,,,,,,,,,,,,,,,,0,0,0,0,13,2,54,0,,,,,,,,,,,,,,,,,,,,,,,,,,,,,w,1,0.300614833832,w,1,2.0,squareblue.gif,stop,,,,,,,,0.541531085968,,,,,,,,,,,,,,,,,1.81,0.513644218445,0.000927209854126,0.300614833832,1,w,427.386179924,,,,,,,,,,,,,,,,,,,,,,,,,,,,,,,,,2015_Jul_06_1123,59.7196767341,LearningTask,1,77,
-200,q,200,,,,,,,,,,,,,,,,,0,0,0,0,13,3,55,1,,,,,,,,,,,,,,,,,,,,,,,,,,,,,q,1,0.317277908325,None,0,0.5,circleorange.gif,go,,,,,,,,,,,,,,,,,,,,,,,,,0.49,0.51420378685,0.000908851623535,0.317277908325,1,q,430.389545918,,,,,,,,,,,,,,,,,,,,,,,,,,,,,,,,,2015_Jul_06_1123,59.7196767341,LearningTask,1,77,
200,w,200,,,,,,,,,,,,,,,,,0,0,0,0,14,0,56,0,,,,,,,,,,,,,,,,,,,,,,,,,,,,,w,1,0.317144155502,None,0,1.0,diamondgray.gif,go,,,,,,,,,,,,,,,,,,,,,,,,,1.09,0.514611005783,0.00102710723877,0.317144155502,1,w,433.393074989,,,,,,,,,,,,,,,,,,,,,,,,,,,,,,,,,2015_Jul_06_1123,59.7196767341,LearningTask,1,77,
200,s,-200,,,,,,,,,,,,,,,,,0,0,0,0,14,1,57,2,,,,,,,,,,,,,,,,,,,,,,,,,,,,,s,1,0.350786924362,None,0,4.0,crossmagenta.gif,stop,,,,,,,,,,,,,,,,,,,,,,,,,0,0.514033794403,0.000911951065063,0.350786924362,1,s,436.396178007,,,,,,,,,,,,,,,,,,,,,,,,,,,,,,,,,2015_Jul_06_1123,59.7196767341,LearningTask,1,77,
200,s,-200,,,,,,,,,,,,,,,,,0,0,0,0,14,2,58,2,,,,,,,,,,,,,,,,,,,,,,,,,,,,,s,1,0.400676012039,None,0,0.5,invertedtrianglecyan.gif,stop,,,,,,,,,,,,,,,,,,,,,,,,,0.41,0.514498949051,0.000910043716431,0.400676012039,1,s,439.399484873,,,,,,,,,,,,,,,,,,,,,,,,,,,,,,,,,2015_Jul_06_1123,59.7196767341,LearningTask,1,77,
-200,a,-200,,,,,,,,,,,,,,,,,0,0,0,0,14,3,59,3,,,,,,,,,,,,,,,,,,,,,,,,,,,,,a,1,0.400486946106,None,0,0.5,circleorange.gif,go,,,,,,,,,,,,,,,,,,,,,,,,,0,0.51459312439,0.000931978225708,0.400486946106,1,a,442.403058052,,,,,,,,,,,,,,,,,,,,,,,,,,,,,,,,,2015_Jul_06_1123,59.7196767341,LearningTask,1,77,
200,w,200,,,,,,,,,,,,,,,,,0,0,0,0,15,0,60,0,,,,,,,,,,,,,,,,,,,,,,,,,,,,,w,1,0.283562898636,None,0,1.0,hexagonwhite.gif,stop,,,,,,,,,,,,,,,,,,,,,,,,,0.9,0.514596939087,0.000907897949219,0.283562898636,1,w,445.406358004,,,,,,,,,,,,,,,,,,,,,,,,,,,,,,,,,2015_Jul_06_1123,59.7196767341,LearningTask,1,77,
-200,q,200,,,,,,,,,,,,,,,,,0,0,0,0,15,1,61,1,,,,,,,,,,,,,,,,,,,,,,,,,,,,,q,1,0.317358016968,None,0,0.5,circleorange.gif,go,,,,,,,,,,,,,,,,,,,,,,,,,0.61,0.51461315155,0.00108408927917,0.317358016968,1,q,448.409967899,,,,,,,,,,,,,,,,,,,,,,,,,,,,,,,,,2015_Jul_06_1123,59.7196767341,LearningTask,1,77,
-200,q,200,,,,,,,,,,,,,,,,,0,0,0,0,15,2,62,1,,,,,,,,,,,,,,,,,,,,,,,,,,,,,q,1,0.417759180069,None,0,2.0,linegreen.gif,go,,,,,,,,,,,,,,,,,,,,,,,,,2.1,0.513685941696,0.00136804580688,0.417759180069,1,q,451.413053036,,,,,,,,,,,,,,,,,,,,,,,,,,,,,,,,,2015_Jul_06_1123,59.7196767341,LearningTask,1,77,
200,w,200,,,,,,,,,,,,,,,,,0,0,0,0,15,3,63,0,,,,,,,,,,,,,,,,,,,,,,,,,,,,,w,1,0.267771959305,None,0,2.0,squareblue.gif,stop,,,,,,,,,,,,,,,,,,,,,,,,,1.84,0.51434803009,0.000894069671631,0.267771959305,1,w,454.416409016,,,,,,,,,,,,,,,,,,,,,,,,,,,,,,,,,2015_Jul_06_1123,59.7196767341,LearningTask,1,77,
200,w,200,,,,,,,,,,,,,,,,,0,0,0,0,16,0,64,0,,,,,,,,,,,,,,,,,,,,,,,,,,,,,w,1,0.334070920944,None,0,1.0,hexagonwhite.gif,stop,,,,,,,,,,,,,,,,,,,,,,,,,0,0.51420712471,0.000959157943726,0.150822877884,0,q,457.419781923,1.04,0.515570163727,0.000982046127319,0.334070920944,1,w,460.423501015,,,,,,,,,,,,,,,,,,,,,,,,,,2015_Jul_06_1123,59.7196767341,LearningTask,1,77,
-200,q,200,,,,,,,,,,,,,,,,,0,0,0,0,16,1,65,1,,,,,,,,,,,,,,,,,,,,,,,,,,,,,q,1,0.384401082993,None,0,0.5,circleorange.gif,go,,,,,,,,,,,,,,,,,,,,,,,,,0,0.513772964478,0.000894069671631,0.384401082993,1,q,463.426621914,,,,,,,,,,,,,,,,,,,,,,,,,,,,,,,,,2015_Jul_06_1123,59.7196767341,LearningTask,1,77,
200,s,-200,,,,,,,,,,,,,,,,,0,0,0,0,16,2,66,2,,,,,,,,,,,,,,,,,,,,,,,,,,,,,s,1,0.367429018021,None,0,0.5,invertedtrianglecyan.gif,stop,,,,,,,,,,,,,,,,,,,,,,,,,0.64,0.51390004158,0.000929117202759,0.367429018021,1,s,466.430155993,,,,,,,,,,,,,,,,,,,,,,,,,,,,,,,,,2015_Jul_06_1123,59.7196767341,LearningTask,1,77,
200,s,-200,,,,,,,,,,,,,,,,,0,0,0,0,16,3,67,2,,,,,,,,,,,,,,,,,,,,,,,,,,,,,s,1,0.351366996765,None,0,1.0,hexagonwhite.gif,stop,,,,,,,,,,,,,,,,,,,,,,,,,0.88,0.514242172241,0.000907182693481,0.351366996765,1,s,469.433218002,,,,,,,,,,,,,,,,,,,,,,,,,,,,,,,,,2015_Jul_06_1123,59.7196767341,LearningTask,1,77,
-200,a,-200,,,,,,,,,,,,,,,,,0,0,0,0,17,0,68,3,,,,,,,,,,,,,,,,,,,,,,,,,,,,,a,1,0.417650938034,None,0,1.0,diamondgray.gif,go,,,,,,,,,,,,,,,,,,,,,,,,,0.91,0.514370918274,0.000890016555786,0.417650938034,1,a,472.437229872,,,,,,,,,,,,,,,,,,,,,,,,,,,,,,,,,2015_Jul_06_1123,59.7196767341,LearningTask,1,77,
-200,q,200,,,,,,,,,,,,,,,,,0,0,0,0,17,1,69,1,,,,,,,,,,,,,,,,,,,,,,,,,,,,,q,1,0.450801134109,None,0,2.0,linegreen.gif,go,,,,,,,,,,,,,,,,,,,,,,,,,1.94,0.513650894165,0.000913858413696,0.450801134109,1,q,475.440128088,,,,,,,,,,,,,,,,,,,,,,,,,,,,,,,,,2015_Jul_06_1123,59.7196767341,LearningTask,1,77,
-200,a,-200,,,,,,,,,,,,,,,,,0,0,0,0,17,2,70,3,,,,,,,,,,,,,,,,,,,,,,,,,,,,,a,1,0.467514038086,None,0,2.0,squareblue.gif,stop,,,,,,,,,,,,,,,,,,,,,,,,,2.04,0.514233112335,0.00088095664978,0.467514038086,1,a,478.443492889,,,,,,,,,,,,,,,,,,,,,,,,,,,,,,,,,2015_Jul_06_1123,59.7196767341,LearningTask,1,77,
-200,a,-200,,,,,,,,,,,,,,,,,0,0,0,0,17,3,71,3,,,,,,,,,,,,,,,,,,,,,,,,,,,,,a,1,0.384382009506,None,0,4.0,crossmagenta.gif,stop,,,,,,,,,,,,,,,,,,,,,,,,,3.9,0.514187812805,0.000939846038818,0.384382009506,1,a,481.447156906,,,,,,,,,,,,,,,,,,,,,,,,,,,,,,,,,2015_Jul_06_1123,59.7196767341,LearningTask,1,77,
-200,a,-200,,,,,,,,,,,,,,,,,0,0,0,0,18,0,72,3,,,,,,,,,,,,,,,,,,,,,,,,,,,,,a,1,0.433661937714,None,0,2.0,linegreen.gif,go,,,,,,,,,,,,,,,,,,,,,,,,,1.95,0.51398396492,0.000887870788574,0.433661937714,1,a,484.450141907,,,,,,,,,,,,,,,,,,,,,,,,,,,,,,,,,2015_Jul_06_1123,59.7196767341,LearningTask,1,77,
200,w,200,,,,,,,,,,,,,,,,,0,0,0,0,18,1,73,0,,,,,,,,,,,,,,,,,,,,,,,,,,,,,w,1,0.384636878967,None,0,0.5,invertedtrianglecyan.gif,stop,,,,,,,,,,,,,,,,,,,,,,,,,0.53,0.514349937439,0.000960111618042,0.384636878967,1,w,487.453361034,,,,,,,,,,,,,,,,,,,,,,,,,,,,,,,,,2015_Jul_06_1123,59.7196767341,LearningTask,1,77,
200,s,-200,,,,,,,,,,,,,,,,,0,0,0,0,18,2,74,2,,,,,,,,,,,,,,,,,,,,,,,,,,,,,s,1,0.400762081146,None,0,4.0,crossmagenta.gif,stop,,,,,,,,,,,,,,,,,,,,,,,,,0,0.514503002167,0.000946044921875,0.400762081146,1,s,490.456844091,,,,,,,,,,,,,,,,,,,,,,,,,,,,,,,,,2015_Jul_06_1123,59.7196767341,LearningTask,1,77,
-200,a,-200,,,,,,,,,,,,,,,,,0,0,0,0,18,3,75,3,,,,,,,,,,,,,,,,,,,,,,,,,,,,,a,1,0.384560108185,None,0,2.0,squareblue.gif,stop,,,,,,,,,,,,,,,,,,,,,,,,,2.11,0.514470100403,0.00088906288147,0.384560108185,1,a,493.460265875,,,,,,,,,,,,,,,,,,,,,,,,,,,,,,,,,2015_Jul_06_1123,59.7196767341,LearningTask,1,77,
-200,a,-200,,,,,,,,,,,,,,,,,0,0,0,0,19,0,76,3,,,,,,,,,,,,,,,,,,,,,,,,,,,,,a,1,0.467333078384,None,0,0.5,invertedtrianglecyan.gif,stop,,,,,,,,,,,,,,,,,,,,,,,,,0.35,0.514394044876,0.000989198684692,0.467333078384,1,a,496.463847876,,,,,,,,,,,,,,,,,,,,,,,,,,,,,,,,,2015_Jul_06_1123,59.7196767341,LearningTask,1,77,
-200,q,200,,,,,,,,,,,,,,,,,0,0,0,0,19,1,77,1,,,,,,,,,,,,,,,,,,,,,,,,,,,,,q,1,0.417059183121,q,1,2.0,linegreen.gif,go,,,,,,,,0.925551891327,,,,,,,,,,,,,,,,,2.13,0.514358997345,0.000888109207153,0.417059183121,1,q,499.467072964,,,,,,,,,,,,,,,,,,,,,,,,,,,,,,,,,2015_Jul_06_1123,59.7196767341,LearningTask,1,77,
200,w,200,,,,,,,,,,,,,,,,,0,0,0,0,19,2,78,0,,,,,,,,,,,,,,,,,,,,,,,,,,,,,w,1,0.367442846298,None,0,2.0,linegreen.gif,go,,,,,,,,,,,,,,,,,,,,,,,,,0,0.514511108398,0.000900983810425,0.4342648983,0,s,502.470571041,1.98,0.515175104141,0.00117897987366,0.367442846298,1,w,505.473886967,,,,,,,,,,,,,,,,,,,,,,,,,,2015_Jul_06_1123,59.7196767341,LearningTask,1,77,
200,s,-200,,,,,,,,,,,,,,,,,0,0,0,0,19,3,79,2,,,,,,,,,,,,,,,,,,,,,,,,,,,,,s,1,0.401084899902,None,0,1.0,diamondgray.gif,go,,,,,,,,,,,,,,,,,,,,,,,,,1.13,0.514193058014,0.00126504898071,0.401084899902,1,s,508.477150917,,,,,,,,,,,,,,,,,,,,,,,,,,,,,,,,,2015_Jul_06_1123,59.7196767341,LearningTask,1,77,
-200,a,-200,,,,,,,,,,,,,,,,,0,0,0,0,20,0,80,3,,,,,,,,,,,,,,,,,,,,,,,,,,,,,a,1,0.434320926666,None,0,4.0,triangleyellow.gif,go,,,,,,,,,,,,,,,,,,,,,,,,,4.2,0.514511108398,0.00134611129761,0.434320926666,1,a,511.480974913,,,,,,,,,,,,,,,,,,,,,,,,,,,,,,,,,2015_Jul_06_1123,59.7196767341,LearningTask,1,77,
-200,a,-200,,,,,,,,,,,,,,,,,0,0,0,0,20,1,81,3,,,,,,,,,,,,,,,,,,,,,,,,,,,,,a,1,0.3841381073,None,0,4.0,crossmagenta.gif,stop,,,,,,,,,,,,,,,,,,,,,,,,,4.15,0.513675928116,0.000906944274902,0.3841381073,1,a,514.484266043,,,,,,,,,,,,,,,,,,,,,,,,,,,,,,,,,2015_Jul_06_1123,59.7196767341,LearningTask,1,77,
-200,a,-200,,,,,,,,,,,,,,,,,0,0,0,0,20,2,82,3,,,,,,,,,,,,,,,,,,,,,,,,,,,,,a,1,0.384531021118,None,0,2.0,linegreen.gif,go,,,,,,,,,,,,,,,,,,,,,,,,,2.11,0.513731002808,0.00106811523438,0.384531021118,1,a,517.487351894,,,,,,,,,,,,,,,,,,,,,,,,,,,,,,,,,2015_Jul_06_1123,59.7196767341,LearningTask,1,77,
200,w,200,,,,,,,,,,,,,,,,,0,0,0,0,20,3,83,0,,,,,,,,,,,,,,,,,,,,,,,,,,,,,w,1,0.400956869125,None,0,4.0,triangleyellow.gif,go,,,,,,,,,,,,,,,,,,,,,,,,,3.95,0.514215946198,0.000893831253052,0.400956869125,1,w,520.491136074,,,,,,,,,,,,,,,,,,,,,,,,,,,,,,,,,2015_Jul_06_1123,59.7196767341,LearningTask,1,77,
200,s,-200,,,,,,,,,,,,,,,,,0,0,0,0,21,0,84,2,,,,,,,,,,,,,,,,,,,,,,,,,,,,,s,1,0.38417506218,None,0,0.5,circleorange.gif,go,,,,,,,,,,,,,,,,,,,,,,,,,0.74,0.513596057892,0.000935077667236,0.38417506218,1,s,523.494076014,,,,,,,,,,,,,,,,,,,,,,,,,,,,,,,,,2015_Jul_06_1123,59.7196767341,LearningTask,1,77,
200,s,-200,,,,,,,,,,,,,,,,,0,0,0,0,21,1,85,2,,,,,,,,,,,,,,,,,,,,,,,,,,,,,s,1,0.368193149567,None,0,0.5,invertedtrianglecyan.gif,stop,,,,,,,,,,,,,,,,,,,,,,,,,0.64,0.514312982559,0.000902891159058,0.368193149567,1,s,526.497396946,,,,,,,,,,,,,,,,,,,,,,,,,,,,,,,,,2015_Jul_06_1123,59.7196767341,LearningTask,1,77,
200,w,200,,,,,,,,,,,,,,,,,0,0,0,0,21,2,86,0,,,,,,,,,,,,,,,,,,,,,,,,,,,,,w,1,0.350651025772,None,0,1.0,diamondgray.gif,go,,,,,,,,,,,,,,,,,,,,,,,,,0.87,0.514588832855,0.00095796585083,0.350651025772,1,w,529.500907898,,,,,,,,,,,,,,,,,,,,,,,,,,,,,,,,,2015_Jul_06_1123,59.7196767341,LearningTask,1,77,
200,s,-200,,,,,,,,,,,,,,,,,0,0,0,0,21,3,87,2,,,,,,,,,,,,,,,,,,,,,,,,,,,,,s,1,0.35107588768,None,0,0.5,circleorange.gif,go,,,,,,,,,,,,,,,,,,,,,,,,,0.4,0.514250993729,0.000900983810425,0.35107588768,1,s,532.504190922,,,,,,,,,,,,,,,,,,,,,,,,,,,,,,,,,2015_Jul_06_1123,59.7196767341,LearningTask,1,77,
200,s,-200,,,,,,,,,,,,,,,,,0,0,0,0,22,0,88,2,,,,,,,,,,,,,,,,,,,,,,,,,,,,,s,1,0.350735902786,q,0,0.5,invertedtrianglecyan.gif,stop,,,,,,,,0.458541870117,,,,,,,,,,,,,,,,,0.68,0.51428103447,0.00106406211853,0.350735902786,1,s,535.507276058,,,,,,,,,,,,,,,,,,,,,,,,,,,,,,,,,2015_Jul_06_1123,59.7196767341,LearningTask,1,77,
200,s,-200,,,,,,,,,,,,,,,,,0,0,0,0,22,1,89,2,,,,,,,,,,,,,,,,,,,,,,,,,,,,,s,1,0.351400136948,None,0,1.0,diamondgray.gif,go,,,,,,,,,,,,,,,,,,,,,,,,,1.22,0.514309883118,0.000942945480347,0.351400136948,1,s,538.510957956,,,,,,,,,,,,,,,,,,,,,,,,,,,,,,,,,2015_Jul_06_1123,59.7196767341,LearningTask,1,77,
-200,q,200,,,,,,,,,,,,,,,,,0,0,0,0,22,2,90,1,,,,,,,,,,,,,,,,,,,,,,,,,,,,,q,1,0.418081998825,None,0,2.0,linegreen.gif,go,,,,,,,,,,,,,,,,,,,,,,,,,1.76,0.514287948608,0.000911951065063,0.418081998825,1,q,541.514275074,,,,,,,,,,,,,,,,,,,,,,,,,,,,,,,,,2015_Jul_06_1123,59.7196767341,LearningTask,1,77,
200,s,-200,,,,,,,,,,,,,,,,,0,0,0,0,22,3,91,2,,,,,,,,,,,,,,,,,,,,,,,,,,,,,s,1,0.351136922836,None,0,4.0,crossmagenta.gif,stop,,,,,,,,,,,,,,,,,,,,,,,,,3.79,0.514029979706,0.000954151153564,0.351136922836,1,s,544.517731905,,,,,,,,,,,,,,,,,,,,,,,,,,,,,,,,,2015_Jul_06_1123,59.7196767341,LearningTask,1,77,
200,w,200,,,,,,,,,,,,,,,,,0,0,0,0,23,0,92,0,,,,,,,,,,,,,,,,,,,,,,,,,,,,,w,1,0.351480007172,None,0,2.0,squareblue.gif,stop,,,,,,,,,,,,,,,,,,,,,,,,,2.0,0.513924121857,0.000893115997314,0.351480007172,1,w,547.520915985,,,,,,,,,,,,,,,,,,,,,,,,,,,,,,,,,2015_Jul_06_1123,59.7196767341,LearningTask,1,77,
200,s,-200,,,,,,,,,,,,,,,,,0,0,0,0,23,1,93,2,,,,,,,,,,,,,,,,,,,,,,,,,,,,,s,1,0.367650032043,None,0,4.0,triangleyellow.gif,go,,,,,,,,,,,,,,,,,,,,,,,,,3.91,0.514397144318,0.000936031341553,0.367650032043,1,s,550.524568081,,,,,,,,,,,,,,,,,,,,,,,,,,,,,,,,,2015_Jul_06_1123,59.7196767341,LearningTask,1,77,
200,w,200,,,,,,,,,,,,,,,,,0,0,0,0,23,2,94,0,,,,,,,,,,,,,,,,,,,,,,,,,,,,,w,1,0.367038965225,None,0,0.5,circleorange.gif,go,,,,,,,,,,,,,,,,,,,,,,,,,0.55,0.514280796051,0.000939846038818,0.367038965225,1,w,553.527819872,,,,,,,,,,,,,,,,,,,,,,,,,,,,,,,,,2015_Jul_06_1123,59.7196767341,LearningTask,1,77,
-200,q,200,,,,,,,,,,,,,,,,,0,0,0,0,23,3,95,1,,,,,,,,,,,,,,,,,,,,,,,,,,,,,q,1,0.384117841721,None,0,4.0,triangleyellow.gif,go,,,,,,,,,,,,,,,,,,,,,,,,,4.24,0.514137029648,0.000898838043213,0.384117841721,1,q,556.531419992,,,,,,,,,,,,,,,,,,,,,,,,,,,,,,,,,2015_Jul_06_1123,59.7196767341,LearningTask,1,77,
200,w,200,,,,,,,,,,,,,,,,,0,0,0,0,24,0,96,0,,,,,,,,,,,,,,,,,,,,,,,,,,,,,w,1,0.3010430336,None,0,0.5,invertedtrianglecyan.gif,stop,,,,,,,,,,,,,,,,,,,,,,,,,0,0.51358795166,0.000951051712036,0.3010430336,1,w,559.534872055,,,,,,,,,,,,,,,,,,,,,,,,,,,,,,,,,2015_Jul_06_1123,59.7196767341,LearningTask,1,77,
-200,a,-200,,,,,,,,,,,,,,,,,0,0,0,0,24,1,97,3,,,,,,,,,,,,,,,,,,,,,,,,,,,,,a,1,0.350641965866,None,0,2.0,squareblue.gif,stop,,,,,,,,,,,,,,,,,,,,,,,,,0,0.513906955719,0.00288701057434,0.367433071136,0,s,562.538019896,2.04,0.515440940857,0.000952005386353,0.350641965866,1,a,565.541347027,,,,,,,,,,,,,,,,,,,,,,,,,,2015_Jul_06_1123,59.7196767341,LearningTask,1,77,
-200,q,200,,,,,,,,,,,,,,,,,0,0,0,0,24,2,98,1,,,,,,,,,,,,,,,,,,,,,,,,,,,,,q,1,0.400532007217,None,0,4.0,triangleyellow.gif,go,,,,,,,,,,,,,,,,,,,,,,,,,4.21,0.514582872391,0.00104904174805,0.400532007217,1,q,568.545001984,,,,,,,,,,,,,,,,,,,,,,,,,,,,,,,,,2015_Jul_06_1123,59.7196767341,LearningTask,1,77,
200,s,-200,,,,,,,,,,,,,,,,,0,0,0,0,24,3,99,2,,,,,,,,,,,,,,,,,,,,,,,,,,,,,s,1,0.367476940155,None,0,2.0,squareblue.gif,stop,,,,,,,,,,,,,,,,,,,,,,,,,2.19,0.513967990875,0.000905990600586,0.367476940155,1,s,571.548017025,,,,,,,,,,,,,,,,,,,,,,,,,,,,,,,,,2015_Jul_06_1123,59.7196767341,LearningTask,1,77,
,,,,,,,,,,,,,,,,,,,0,0,0,0,,,,,,,,,,,,,,,,,,,,,,,,,,,,,,,,,,,,,,,,,,,,,,,,,,,,,,,,,,,,,,,,,,,,,,,,,,,,,,,9,23.4643437862,,,,,,,,,,,,,,,,,,,,,,,,2015_Jul_06_1123,59.7196767341,LearningTask,1,77,
-200,q,200,,,,,,,,,,,,,,,,,1,0,1,0,0,0,0,1,,,,,,,,,,,,,,,,,,,,,,,,,,,,,q,1,0.467876911163,None,0,1.0,hexagonwhite.gif,stop,,,,,,,,,,,,,,,,,,,,,,,,,1.21,0.509400129318,0.000942945480347,0.467876911163,1,q,598.462172985,,,,,,,,,,,,,,,,,,,,,,,,,,,,,,,,,2015_Jul_06_1123,59.7196767341,LearningTask,1,77,
-200,q,200,,,,,,,,,,,,,,,,,1,0,1,0,0,1,1,1,,,,,,,,,,,,,,,,,,,,,,,,,,,,,q,1,0.384423017502,None,0,4.0,crossmagenta.gif,stop,,,,,,,,,,,,,,,,,,,,,,,,,0,0.51368689537,0.000917911529541,0.384423017502,1,q,601.465203047,,,,,,,,,,,,,,,,,,,,,,,,,,,,,,,,,2015_Jul_06_1123,59.7196767341,LearningTask,1,77,
-200,a,-200,,,,,,,,,,,,,,,,,1,0,1,0,0,2,2,3,,,,,,,,,,,,,,,,,,,,,,,,,,,,,a,1,0.417963027954,None,0,1.0,diamondgray.gif,go,,,,,,,,,,,,,,,,,,,,,,,,,1.1,0.514012813568,0.000918865203857,0.417963027954,1,a,604.468379021,,,,,,,,,,,,,,,,,,,,,,,,,,,,,,,,,2015_Jul_06_1123,59.7196767341,LearningTask,1,77,
-200,q,200,,,,,,,,,,,,,,,,,1,0,1,0,0,3,3,1,,,,,,,,,,,,,,,,,,,,,,,,,,,,,q,1,0.384207010269,None,0,0.5,invertedtrianglecyan.gif,stop,,,,,,,,,,,,,,,,,,,,,,,,,0.49,0.514297962189,0.00089693069458,0.384207010269,1,q,607.471674919,,,,,,,,,,,,,,,,,,,,,,,,,,,,,,,,,2015_Jul_06_1123,59.7196767341,LearningTask,1,77,
-200,q,200,,,,,,,,,,,,,,,,,1,0,1,0,1,0,4,1,,,,,,,,,,,,,,,,,,,,,,,,,,,,,q,1,0.384349107742,None,0,0.5,circleorange.gif,go,,,,,,,,,,,,,,,,,,,,,,,,,0.67,0.514345884323,0.00091290473938,0.384349107742,1,q,610.475414991,,,,,,,,,,,,,,,,,,,,,,,,,,,,,,,,,2015_Jul_06_1123,59.7196767341,LearningTask,1,77,
200,s,-200,,,,,,,,,,,,,,,,,1,0,1,0,1,1,5,2,,,,,,,,,,,,,,,,,,,,,,,,,,,,,s,1,0.383982896805,w,0,4.0,crossmagenta.gif,stop,,,,,,,,0.808222055435,,,,,,,,,,,,,,,,,3.89,0.513994932175,0.000895023345947,0.383982896805,1,s,613.478430986,,,,,,,,,,,,,,,,,,,,,,,,,,,,,,,,,2015_Jul_06_1123,59.7196767341,LearningTask,1,77,
-200,q,200,,,,,,,,,,,,,,,,,1,0,1,0,1,2,6,1,,,,,,,,,,,,,,,,,,,,,,,,,,,,,q,1,0.384212017059,None,0,1.0,diamondgray.gif,go,,,,,,,,,,,,,,,,,,,,,,,,,0.75,0.514558076859,0.000927925109863,0.384212017059,1,q,616.481751919,,,,,,,,,,,,,,,,,,,,,,,,,,,,,,,,,2015_Jul_06_1123,59.7196767341,LearningTask,1,77,
200,w,200,,,,,,,,,,,,,,,,,1,0,1,0,1,3,7,0,,,,,,,,,,,,,,,,,,,,,,,,,,,,,w,1,0.334290981293,None,0,0.5,circleorange.gif,go,,,,,,,,,,,,,,,,,,,,,,,,,0.68,0.514773845673,0.000900030136108,0.334290981293,1,w,619.485418081,,,,,,,,,,,,,,,,,,,,,,,,,,,,,,,,,2015_Jul_06_1123,59.7196767341,LearningTask,1,77,
200,w,200,,,,,,,,,,,,,,,,,1,0,1,0,2,0,8,0,,,,,,,,,,,,,,,,,,,,,,,,,,,,,w,1,0.434612035751,None,0,2.0,squareblue.gif,stop,,,,,,,,,,,,,,,,,,,,,,,,,0,0.513987064362,0.000926971435547,0.434612035751,1,w,622.488645077,,,,,,,,,,,,,,,,,,,,,,,,,,,,,,,,,2015_Jul_06_1123,59.7196767341,LearningTask,1,77,
-200,a,-200,,,,,,,,,,,,,,,,,1,0,1,0,2,1,9,3,,,,,,,,,,,,,,,,,,,,,,,,,,,,,a,1,0.400810003281,None,0,1.0,diamondgray.gif,go,,,,,,,,,,,,,,,,,,,,,,,,,1.2,0.514246940613,0.000993013381958,0.400810003281,1,a,625.492000103,,,,,,,,,,,,,,,,,,,,,,,,,,,,,,,,,2015_Jul_06_1123,59.7196767341,LearningTask,1,77,
-200,a,-200,,,,,,,,,,,,,,,,,1,0,1,0,2,2,10,3,,,,,,,,,,,,,,,,,,,,,,,,,,,,,a,1,0.450513839722,None,0,4.0,triangleyellow.gif,go,,,,,,,,,,,,,,,,,,,,,,,,,3.91,0.514485120773,0.000900983810425,0.450513839722,1,a,628.495409012,,,,,,,,,,,,,,,,,,,,,,,,,,,,,,,,,2015_Jul_06_1123,59.7196767341,LearningTask,1,77,
200,s,-200,,,,,,,,,,,,,,,,,1,0,1,0,2,3,11,2,,,,,,,,,,,,,,,,,,,,,,,,,,,,,s,1,0.36788892746,q,0,1.0,diamondgray.gif,go,,,,,,,,0.27419090271,,,,,,,,,,,,,,,,,1.21,0.51429104805,0.000900983810425,0.36788892746,1,s,631.498718977,,,,,,,,,,,,,,,,,,,,,,,,,,,,,,,,,2015_Jul_06_1123,59.7196767341,LearningTask,1,77,
200,w,200,,,,,,,,,,,,,,,,,1,0,1,0,3,0,12,0,,,,,,,,,,,,,,,,,,,,,,,,,,,,,w,1,0.401054143906,None,0,2.0,squareblue.gif,stop,,,,,,,,,,,,,,,,,,,,,,,,,1.93,0.514150857925,0.000938892364502,0.401054143906,1,w,634.502117872,,,,,,,,,,,,,,,,,,,,,,,,,,,,,,,,,2015_Jul_06_1123,59.7196767341,LearningTask,1,77,
200,w,200,,,,,,,,,,,,,,,,,1,0,1,0,3,1,13,0,,,,,,,,,,,,,,,,,,,,,,,,,,,,,w,1,0.351034879684,None,0,1.0,hexagonwhite.gif,stop,,,,,,,,,,,,,,,,,,,,,,,,,1.07,0.514254808426,0.000948905944824,0.351034879684,1,w,637.505892992,,,,,,,,,,,,,,,,,,,,,,,,,,,,,,,,,2015_Jul_06_1123,59.7196767341,LearningTask,1,77,
-200,a,-200,,,,,,,,,,,,,,,,,1,0,1,0,3,2,14,3,,,,,,,,,,,,,,,,,,,,,,,,,,,,,a,1,0.417637825012,None,0,2.0,squareblue.gif,stop,,,,,,,,,,,,,,,,,,,,,,,,,1.79,0.514088153839,0.000892162322998,0.417637825012,1,a,640.50917697,,,,,,,,,,,,,,,,,,,,,,,,,,,,,,,,,2015_Jul_06_1123,59.7196767341,LearningTask,1,77,
200,s,-200,,,,,,,,,,,,,,,,,1,0,1,0,3,3,15,2,,,,,,,,,,,,,,,,,,,,,,,,,,,,,s,1,0.483869075775,None,0,2.0,squareblue.gif,stop,,,,,,,,,,,,,,,,,,,,,,,,,1.95,0.514024019241,0.000972032546997,0.483869075775,1,s,643.512286901,,,,,,,,,,,,,,,,,,,,,,,,,,,,,,,,,2015_Jul_06_1123,59.7196767341,LearningTask,1,77,
200,s,-200,,,,,,,,,,,,,,,,,1,0,1,0,4,0,16,2,,,,,,,,,,,,,,,,,,,,,,,,,,,,,s,1,0.400559902191,q,0,0.5,circleorange.gif,go,,,,,,,,0.809137821198,,,,,,,,,,,,,,,,,0.45,0.51408290863,0.00090479850769,0.400559902191,1,s,646.515564919,,,,,,,,,,,,,,,,,,,,,,,,,,,,,,,,,2015_Jul_06_1123,59.7196767341,LearningTask,1,77,
200,s,-200,,,,,,,,,,,,,,,,,1,0,1,0,4,1,17,2,,,,,,,,,,,,,,,,,,,,,,,,,,,,,s,1,0.400789022446,None,0,4.0,triangleyellow.gif,go,,,,,,,,,,,,,,,,,,,,,,,,,4.2,0.514324188232,0.000879049301147,0.400789022446,1,s,649.519113064,,,,,,,,,,,,,,,,,,,,,,,,,,,,,,,,,2015_Jul_06_1123,59.7196767341,LearningTask,1,77,
200,w,200,,,,,,,,,,,,,,,,,1,0,1,0,4,2,18,0,,,,,,,,,,,,,,,,,,,,,,,,,,,,,w,1,0.33352804184,None,0,4.0,crossmagenta.gif,stop,,,,,,,,,,,,,,,,,,,,,,,,,4.21,0.514069080353,0.000900030136108,0.33352804184,1,w,652.522186041,,,,,,,,,,,,,,,,,,,,,,,,,,,,,,,,,2015_Jul_06_1123,59.7196767341,LearningTask,1,77,
200,w,200,,,,,,,,,,,,,,,,,1,0,1,0,4,3,19,0,,,,,,,,,,,,,,,,,,,,,,,,,,,,,w,1,0.468030929565,None,0,0.5,circleorange.gif,go,,,,,,,,,,,,,,,,,,,,,,,,,0.55,0.514510154724,0.000900030136108,0.468030929565,1,w,655.525762081,,,,,,,,,,,,,,,,,,,,,,,,,,,,,,,,,2015_Jul_06_1123,59.7196767341,LearningTask,1,77,
200,s,-200,,,,,,,,,,,,,,,,,1,0,1,0,5,0,20,2,,,,,,,,,,,,,,,,,,,,,,,,,,,,,s,1,0.317818880081,None,0,1.0,diamondgray.gif,go,,,,,,,,,,,,,,,,,,,,,,,,,1.18,0.514214992523,0.000876188278198,0.317818880081,1,s,658.529478073,,,,,,,,,,,,,,,,,,,,,,,,,,,,,,,,,2015_Jul_06_1123,59.7196767341,LearningTask,1,77,
-200,a,-200,,,,,,,,,,,,,,,,,1,0,1,0,5,1,21,3,,,,,,,,,,,,,,,,,,,,,,,,,,,,,a,1,0.367308855057,None,0,4.0,triangleyellow.gif,go,,,,,,,,,,,,,,,,,,,,,,,,,3.94,0.514132976532,0.000879049301147,0.367308855057,1,a,661.532746077,,,,,,,,,,,,,,,,,,,,,,,,,,,,,,,,,2015_Jul_06_1123,59.7196767341,LearningTask,1,77,
-200,q,200,,,,,,,,,,,,,,,,,1,0,1,0,5,2,22,1,,,,,,,,,,,,,,,,,,,,,,,,,,,,,q,1,0.351405143738,q,1,0.5,invertedtrianglecyan.gif,stop,,,,,,,,0.0730900764465,,,,,,,,,,,,,,,,,0.5,0.513870000839,0.00109195709229,0.351405143738,1,q,664.535657883,,,,,,,,,,,,,,,,,,,,,,,,,,,,,,,,,2015_Jul_06_1123,59.7196767341,LearningTask,1,77,
-200,q,200,,,,,,,,,,,,,,,,,1,0,1,0,5,3,23,1,,,,,,,,,,,,,,,,,,,,,,,,,,,,,q,1,0.367635011673,None,0,4.0,crossmagenta.gif,stop,,,,,,,,,,,,,,,,,,,,,,,,,0,0.514616012573,0.000879049301147,0.367378950119,0,a,667.539232969,0,0.515610933304,0.00092887878418,0.367635011673,1,q,670.542902946,,,,,,,,,,,,,,,,,,,,,,,,,,2015_Jul_06_1123,59.7196767341,LearningTask,1,77,
-200,q,200,,,,,,,,,,,,,,,,,1,0,1,0,6,0,24,1,,,,,,,,,,,,,,,,,,,,,,,,,,,,,q,1,0.384437084198,None,0,4.0,crossmagenta.gif,stop,,,,,,,,,,,,,,,,,,,,,,,,,4.14,0.513917922974,0.00101804733276,0.384437084198,1,q,673.545964003,,,,,,,,,,,,,,,,,,,,,,,,,,,,,,,,,2015_Jul_06_1123,59.7196767341,LearningTask,1,77,
200,w,200,,,,,,,,,,,,,,,,,1,0,1,0,6,1,25,0,,,,,,,,,,,,,,,,,,,,,,,,,,,,,w,1,0.500808954239,None,0,1.0,hexagonwhite.gif,stop,,,,,,,,,,,,,,,,,,,,,,,,,0.94,0.51446890831,0.000938892364502,0.500808954239,1,w,676.549463987,,,,,,,,,,,,,,,,,,,,,,,,,,,,,,,,,2015_Jul_06_1123,59.7196767341,LearningTask,1,77,
-200,q,200,,,,,,,,,,,,,,,,,1,0,1,0,6,2,26,1,,,,,,,,,,,,,,,,,,,,,,,,,,,,,q,1,0.551362991333,None,0,1.0,diamondgray.gif,go,,,,,,,,,,,,,,,,,,,,,,,,,1.14,0.514177083969,0.000876903533936,0.551362991333,1,q,679.552615881,,,,,,,,,,,,,,,,,,,,,,,,,,,,,,,,,2015_Jul_06_1123,59.7196767341,LearningTask,1,77,
200,s,-200,,,,,,,,,,,,,,,,,1,0,1,0,6,3,27,2,,,,,,,,,,,,,,,,,,,,,,,,,,,,,s,1,0.484476089478,None,0,2.0,linegreen.gif,go,,,,,,,,,,,,,,,,,,,,,,,,,0,0.514359951019,0.000927925109863,0.484476089478,1,s,682.556065083,,,,,,,,,,,,,,,,,,,,,,,,,,,,,,,,,2015_Jul_06_1123,59.7196767341,LearningTask,1,77,
-200,a,-200,,,,,,,,,,,,,,,,,1,0,1,0,7,0,28,3,,,,,,,,,,,,,,,,,,,,,,,,,,,,,a,1,0.417681932449,None,0,2.0,linegreen.gif,go,,,,,,,,,,,,,,,,,,,,,,,,,0,0.514309883118,0.000876903533936,0.417681932449,1,a,685.55942297,,,,,,,,,,,,,,,,,,,,,,,,,,,,,,,,,2015_Jul_06_1123,59.7196767341,LearningTask,1,77,
200,w,200,,,,,,,,,,,,,,,,,1,0,1,0,7,1,29,0,,,,,,,,,,,,,,,,,,,,,,,,,,,,,w,1,0.350847005844,None,0,1.0,hexagonwhite.gif,stop,,,,,,,,,,,,,,,,,,,,,,,,,0.82,0.514430999756,0.000903129577637,0.350847005844,1,w,688.563184977,,,,,,,,,,,,,,,,,,,,,,,,,,,,,,,,,2015_Jul_06_1123,59.7196767341,LearningTask,1,77,
200,s,-200,,,,,,,,,,,,,,,,,1,0,1,0,7,2,30,2,,,,,,,,,,,,,,,,,,,,,,,,,,,,,s,1,0.350369930267,None,0,0.5,circleorange.gif,go,,,,,,,,,,,,,,,,,,,,,,,,,0,0.514184951782,0.000913143157959,0.350369930267,1,s,691.566210985,,,,,,,,,,,,,,,,,,,,,,,,,,,,,,,,,2015_Jul_06_1123,59.7196767341,LearningTask,1,77,
200,s,-200,,,,,,,,,,,,,,,,,1,0,1,0,7,3,31,2,,,,,,,,,,,,,,,,,,,,,,,,,,,,,s,1,0.351074934006,None,0,0.5,invertedtrianglecyan.gif,stop,,,,,,,,,,,,,,,,,,,,,,,,,0.35,0.514412164688,0.000885963439941,0.351074934006,1,s,694.569504023,,,,,,,,,,,,,,,,,,,,,,,,,,,,,,,,,2015_Jul_06_1123,59.7196767341,LearningTask,1,77,
-200,q,200,,,,,,,,,,,,,,,,,1,0,1,0,8,0,32,1,,,,,,,,,,,,,,,,,,,,,,,,,,,,,q,1,0.434056997299,None,0,2.0,linegreen.gif,go,,,,,,,,,,,,,,,,,,,,,,,,,1.86,0.514376878738,0.00102400779724,0.434056997299,1,q,697.573153973,,,,,,,,,,,,,,,,,,,,,,,,,,,,,,,,,2015_Jul_06_1123,59.7196767341,LearningTask,1,77,
200,w,200,,,,,,,,,,,,,,,,,1,0,1,0,8,1,33,0,,,,,,,,,,,,,,,,,,,,,,,,,,,,,w,1,0.367880105972,None,0,2.0,linegreen.gif,go,,,,,,,,,,,,,,,,,,,,,,,,,2.2,0.514197826385,0.00091290473938,0.367880105972,1,w,700.576286077,,,,,,,,,,,,,,,,,,,,,,,,,,,,,,,,,2015_Jul_06_1123,59.7196767341,LearningTask,1,77,
-200,q,200,,,,,,,,,,,,,,,,,1,0,1,0,8,2,34,1,,,,,,,,,,,,,,,,,,,,,,,,,,,,,q,1,0.384300947189,None,0,1.0,diamondgray.gif,go,,,,,,,,,,,,,,,,,,,,,,,,,0,0.514430046082,0.000874042510986,0.384300947189,1,q,703.579698086,,,,,,,,,,,,,,,,,,,,,,,,,,,,,,,,,2015_Jul_06_1123,59.7196767341,LearningTask,1,77,
200,s,-200,,,,,,,,,,,,,,,,,1,0,1,0,8,3,35,2,,,,,,,,,,,,,,,,,,,,,,,,,,,,,s,1,0.50127196312,None,0,2.0,linegreen.gif,go,,,,,,,,,,,,,,,,,,,,,,,,,1.94,0.514380216599,0.000876188278198,0.50127196312,1,s,706.583553076,,,,,,,,,,,,,,,,,,,,,,,,,,,,,,,,,2015_Jul_06_1123,59.7196767341,LearningTask,1,77,
200,w,200,,,,,,,,,,,,,,,,,1,0,1,0,9,0,36,0,,,,,,,,,,,,,,,,,,,,,,,,,,,,,w,1,0.350681066513,None,0,4.0,triangleyellow.gif,go,,,,,,,,,,,,,,,,,,,,,,,,,4.04,0.513839006424,0.000883102416992,0.350681066513,1,w,709.586481094,,,,,,,,,,,,,,,,,,,,,,,,,,,,,,,,,2015_Jul_06_1123,59.7196767341,LearningTask,1,77,
-200,a,-200,,,,,,,,,,,,,,,,,1,0,1,0,9,1,37,3,,,,,,,,,,,,,,,,,,,,,,,,,,,,,a,1,0.484110116959,None,0,0.5,invertedtrianglecyan.gif,stop,,,,,,,,,,,,,,,,,,,,,,,,,0.71,0.514240980148,0.000956058502197,0.484110116959,1,a,712.590125084,,,,,,,,,,,,,,,,,,,,,,,,,,,,,,,,,2015_Jul_06_1123,59.7196767341,LearningTask,1,77,
-200,q,200,,,,,,,,,,,,,,,,,1,0,1,0,9,2,38,1,,,,,,,,,,,,,,,,,,,,,,,,,,,,,q,1,0.384273052216,None,0,1.0,hexagonwhite.gif,stop,,,,,,,,,,,,,,,,,,,,,,,,,1.11,0.51406288147,0.000881910324097,0.384273052216,1,q,715.593281031,,,,,,,,,,,,,,,,,,,,,,,,,,,,,,,,,2015_Jul_06_1123,59.7196767341,LearningTask,1,77,
200,s,-200,,,,,,,,,,,,,,,,,1,0,1,0,9,3,39,2,,,,,,,,,,,,,,,,,,,,,,,,,,,,,s,1,0.401453971863,None,0,2.0,squareblue.gif,stop,,,,,,,,,,,,,,,,,,,,,,,,,2.16,0.514137983322,0.000864028930664,0.401453971863,1,s,718.596584082,,,,,,,,,,,,,,,,,,,,,,,,,,,,,,,,,2015_Jul_06_1123,59.7196767341,LearningTask,1,77,
200,s,-200,,,,,,,,,,,,,,,,,1,0,1,0,10,0,40,2,,,,,,,,,,,,,,,,,,,,,,,,,,,,,s,1,0.434492111206,None,0,0.5,circleorange.gif,go,,,,,,,,,,,,,,,,,,,,,,,,,0.29,0.514281988144,0.000972986221313,0.434492111206,1,s,721.600277901,,,,,,,,,,,,,,,,,,,,,,,,,,,,,,,,,2015_Jul_06_1123,59.7196767341,LearningTask,1,77,
-200,a,-200,,,,,,,,,,,,,,,,,1,0,1,0,10,1,41,3,,,,,,,,,,,,,,,,,,,,,,,,,,,,,a,1,0.434924125671,None,0,2.0,linegreen.gif,go,,,,,,,,,,,,,,,,,,,,,,,,,2.02,0.514036893845,0.000881910324097,0.434924125671,1,a,724.603296995,,,,,,,,,,,,,,,,,,,,,,,,,,,,,,,,,2015_Jul_06_1123,59.7196767341,LearningTask,1,77,
200,s,-200,,,,,,,,,,,,,,,,,1,0,1,0,10,2,42,2,,,,,,,,,,,,,,,,,,,,,,,,,,,,,s,1,0.401135921478,None,0,4.0,crossmagenta.gif,stop,,,,,,,,,,,,,,,,,,,,,,,,,0,0.514168977737,0.000885009765625,0.401135921478,1,s,727.607009888,,,,,,,,,,,,,,,,,,,,,,,,,,,,,,,,,2015_Jul_06_1123,59.7196767341,LearningTask,1,77,
200,w,200,,,,,,,,,,,,,,,,,1,0,1,0,10,3,43,0,,,,,,,,,,,,,,,,,,,,,,,,,,,,,w,1,0.333549976349,None,0,2.0,linegreen.gif,go,,,,,,,,,,,,,,,,,,,,,,,,,2.12,0.514286994934,0.000909090042114,0.333549976349,1,w,730.610198975,,,,,,,,,,,,,,,,,,,,,,,,,,,,,,,,,2015_Jul_06_1123,59.7196767341,LearningTask,1,77,
-200,a,-200,,,,,,,,,,,,,,,,,1,0,1,0,11,0,44,3,,,,,,,,,,,,,,,,,,,,,,,,,,,,,a,1,0.384164810181,None,0,4.0,triangleyellow.gif,go,,,,,,,,,,,,,,,,,,,,,,,,,4.03,0.514394044876,0.000874042510986,0.384164810181,1,a,733.613534927,,,,,,,,,,,,,,,,,,,,,,,,,,,,,,,,,2015_Jul_06_1123,59.7196767341,LearningTask,1,77,
200,w,200,,,,,,,,,,,,,,,,,1,0,1,0,11,1,45,0,,,,,,,,,,,,,,,,,,,,,,,,,,,,,w,1,0.434287071228,None,0,4.0,crossmagenta.gif,stop,,,,,,,,,,,,,,,,,,,,,,,,,3.85,0.514322042465,0.00115704536438,0.434287071228,1,w,736.616892099,,,,,,,,,,,,,,,,,,,,,,,,,,,,,,,,,2015_Jul_06_1123,59.7196767341,LearningTask,1,77,
-200,q,200,,,,,,,,,,,,,,,,,1,0,1,0,11,2,46,1,,,,,,,,,,,,,,,,,,,,,,,,,,,,,q,1,0.350641012192,None,0,2.0,squareblue.gif,stop,,,,,,,,,,,,,,,,,,,,,,,,,2.08,0.514079093933,0.000911951065063,0.350641012192,1,q,739.620203972,,,,,,,,,,,,,,,,,,,,,,,,,,,,,,,,,2015_Jul_06_1123,59.7196767341,LearningTask,1,77,
-200,a,-200,,,,,,,,,,,,,,,,,1,0,1,0,11,3,47,3,,,,,,,,,,,,,,,,,,,,,,,,,,,,,a,1,0.417569875717,None,0,4.0,triangleyellow.gif,go,,,,,,,,,,,,,,,,,,,,,,,,,3.92,0.514248132706,0.000874042510986,0.417569875717,1,a,742.623635054,,,,,,,,,,,,,,,,,,,,,,,,,,,,,,,,,2015_Jul_06_1123,59.7196767341,LearningTask,1,77,
-200,a,-200,,,,,,,,,,,,,,,,,1,0,1,0,12,0,48,3,,,,,,,,,,,,,,,,,,,,,,,,,,,,,a,1,0.51754283905,None,0,4.0,triangleyellow.gif,go,,,,,,,,,,,,,,,,,,,,,,,,,3.79,0.514418840408,0.000871896743774,0.51754283905,1,a,745.627321005,,,,,,,,,,,,,,,,,,,,,,,,,,,,,,,,,2015_Jul_06_1123,59.7196767341,LearningTask,1,77,
200,w,200,,,,,,,,,,,,,,,,,1,0,1,0,12,1,49,0,,,,,,,,,,,,,,,,,,,,,,,,,,,,,w,1,0.617561817169,None,0,0.5,invertedtrianglecyan.gif,stop,,,,,,,,,,,,,,,,,,,,,,,,,0.52,0.514074087143,0.000888109207153,0.617561817169,1,w,748.630323887,,,,,,,,,,,,,,,,,,,,,,,,,,,,,,,,,2015_Jul_06_1123,59.7196767341,LearningTask,1,77,
200,w,200,,,,,,,,,,,,,,,,,1,0,1,0,12,2,50,0,,,,,,,,,,,,,,,,,,,,,,,,,,,,,w,1,0.417602062225,None,0,1.0,hexagonwhite.gif,stop,,,,,,,,,,,,,,,,,,,,,,,,,1.2,0.514348983765,0.00142097473145,0.417602062225,1,w,751.63359189,,,,,,,,,,,,,,,,,,,,,,,,,,,,,,,,,2015_Jul_06_1123,59.7196767341,LearningTask,1,77,
200,w,200,,,,,,,,,,,,,,,,,1,0,1,0,12,3,51,0,,,,,,,,,,,,,,,,,,,,,,,,,,,,,w,1,0.334075927734,None,0,0.5,invertedtrianglecyan.gif,stop,,,,,,,,,,,,,,,,,,,,,,,,,0,0.514517068863,0.00088095664978,0.334075927734,1,w,754.637207031,,,,,,,,,,,,,,,,,,,,,,,,,,,,,,,,,2015_Jul_06_1123,59.7196767341,LearningTask,1,77,
-200,a,-200,,,,,,,,,,,,,,,,,1,0,1,0,13,0,52,3,,,,,,,,,,,,,,,,,,,,,,,,,,,,,a,1,0.384046077728,None,0,4.0,crossmagenta.gif,stop,,,,,,,,,,,,,,,,,,,,,,,,,3.8,0.514226913452,0.00116276741028,0.384046077728,1,a,757.640592098,,,,,,,,,,,,,,,,,,,,,,,,,,,,,,,,,2015_Jul_06_1123,59.7196767341,LearningTask,1,77,
200,s,-200,,,,,,,,,,,,,,,,,1,0,1,0,13,1,53,2,,,,,,,,,,,,,,,,,,,,,,,,,,,,,s,1,0.384105920792,q,0,4.0,triangleyellow.gif,go,,,,,,,,0.292078018188,,,,,,,,,,,,,,,,,4.09,0.51410984993,0.000926971435547,0.384105920792,1,s,760.643693924,,,,,,,,,,,,,,,,,,,,,,,,,,,,,,,,,2015_Jul_06_1123,59.7196767341,LearningTask,1,77,
-200,q,200,,,,,,,,,,,,,,,,,1,0,1,0,13,2,54,1,,,,,,,,,,,,,,,,,,,,,,,,,,,,,q,1,0.367358922958,None,0,4.0,triangleyellow.gif,go,,,,,,,,,,,,,,,,,,,,,,,,,3.96,0.514531135559,0.000880002975464,0.367358922958,1,q,763.647264957,,,,,,,,,,,,,,,,,,,,,,,,,,,,,,,,,2015_Jul_06_1123,59.7196767341,LearningTask,1,77,
-200,a,-200,,,,,,,,,,,,,,,,,1,0,1,0,13,3,55,3,,,,,,,,,,,,,,,,,,,,,,,,,,,,,a,1,0.384312868118,q,0,4.0,triangleyellow.gif,go,,,,,,,,0.758563995361,,,,,,,,,,,,,,,,,4.1,0.514106035233,0.000885963439941,0.384312868118,1,a,766.650605917,,,,,,,,,,,,,,,,,,,,,,,,,,,,,,,,,2015_Jul_06_1123,59.7196767341,LearningTask,1,77,
200,w,200,,,,,,,,,,,,,,,,,1,0,1,0,14,0,56,0,,,,,,,,,,,,,,,,,,,,,,,,,,,,,w,1,0.40016579628,None,0,2.0,squareblue.gif,stop,,,,,,,,,,,,,,,,,,,,,,,,,1.79,0.514303922653,0.00102496147156,0.40016579628,1,w,769.653894901,,,,,,,,,,,,,,,,,,,,,,,,,,,,,,,,,2015_Jul_06_1123,59.7196767341,LearningTask,1,77,
200,s,-200,,,,,,,,,,,,,,,,,1,0,1,0,14,1,57,2,,,,,,,,,,,,,,,,,,,,,,,,,,,,,s,1,0.400385141373,None,0,0.5,circleorange.gif,go,,,,,,,,,,,,,,,,,,,,,,,,,0.48,0.514425992966,0.000885009765625,0.400385141373,1,s,772.657295942,,,,,,,,,,,,,,,,,,,,,,,,,,,,,,,,,2015_Jul_06_1123,59.7196767341,LearningTask,1,77,
-200,q,200,,,,,,,,,,,,,,,,,1,0,1,0,14,2,58,1,,,,,,,,,,,,,,,,,,,,,,,,,,,,,q,1,0.384014844894,None,0,0.5,invertedtrianglecyan.gif,stop,,,,,,,,,,,,,,,,,,,,,,,,,0.29,0.514537096024,0.000874996185303,0.384014844894,1,q,775.660815954,,,,,,,,,,,,,,,,,,,,,,,,,,,,,,,,,2015_Jul_06_1123,59.7196767341,LearningTask,1,77,
200,w,200,,,,,,,,,,,,,,,,,1,0,1,0,14,3,59,0,,,,,,,,,,,,,,,,,,,,,,,,,,,,,w,1,0.317597150803,None,0,0.5,invertedtrianglecyan.gif,stop,,,,,,,,,,,,,,,,,,,,,,,,,0,0.513653039932,0.00119709968567,0.317597150803,1,w,778.66407609,,,,,,,,,,,,,,,,,,,,,,,,,,,,,,,,,2015_Jul_06_1123,59.7196767341,LearningTask,1,77,
-200,a,-200,,,,,,,,,,,,,,,,,1,0,1,0,15,0,60,3,,,,,,,,,,,,,,,,,,,,,,,,,,,,,a,1,0.434049844742,None,0,1.0,hexagonwhite.gif,stop,,,,,,,,,,,,,,,,,,,,,,,,,1.12,0.514602184296,0.000877141952515,0.434049844742,1,a,781.667625904,,,,,,,,,,,,,,,,,,,,,,,,,,,,,,,,,2015_Jul_06_1123,59.7196767341,LearningTask,1,77,
-200,a,-200,,,,,,,,,,,,,,,,,1,0,1,0,15,1,61,3,,,,,,,,,,,,,,,,,,,,,,,,,,,,,a,1,0.417490005493,None,0,0.5,invertedtrianglecyan.gif,stop,,,,,,,,,,,,,,,,,,,,,,,,,0,0.5141248703,0.000886917114258,0.417490005493,1,a,784.670952082,,,,,,,,,,,,,,,,,,,,,,,,,,,,,,,,,2015_Jul_06_1123,59.7196767341,LearningTask,1,77,
-200,a,-200,,,,,,,,,,,,,,,,,1,0,1,0,15,2,62,3,,,,,,,,,,,,,,,,,,,,,,,,,,,,,a,1,0.400629997253,None,0,1.0,hexagonwhite.gif,stop,,,,,,,,,,,,,,,,,,,,,,,,,1.05,0.514206886292,0.000870943069458,0.400629997253,1,a,787.674258947,,,,,,,,,,,,,,,,,,,,,,,,,,,,,,,,,2015_Jul_06_1123,59.7196767341,LearningTask,1,77,
200,s,-200,,,,,,,,,,,,,,,,,1,0,1,0,15,3,63,2,,,,,,,,,,,,,,,,,,,,,,,,,,,,,s,1,0.367835044861,None,0,2.0,squareblue.gif,stop,,,,,,,,,,,,,,,,,,,,,,,,,1.83,0.51432800293,0.000862121582031,0.367835044861,1,s,790.677599907,,,,,,,,,,,,,,,,,,,,,,,,,,,,,,,,,2015_Jul_06_1123,59.7196767341,LearningTask,1,77,
200,s,-200,,,,,,,,,,,,,,,,,1,0,1,0,16,0,64,2,,,,,,,,,,,,,,,,,,,,,,,,,,,,,s,1,0.334308862686,None,0,1.0,diamondgray.gif,go,,,,,,,,,,,,,,,,,,,,,,,,,1.11,0.514257907867,0.000886917114258,0.334308862686,1,s,793.681292057,,,,,,,,,,,,,,,,,,,,,,,,,,,,,,,,,2015_Jul_06_1123,59.7196767341,LearningTask,1,77,
200,s,-200,,,,,,,,,,,,,,,,,1,0,1,0,16,1,65,2,,,,,,,,,,,,,,,,,,,,,,,,,,,,,s,1,0.36750793457,None,0,0.5,invertedtrianglecyan.gif,stop,,,,,,,,,,,,,,,,,,,,,,,,,0.74,0.513881206512,0.000886201858521,0.36750793457,1,s,796.684360027,,,,,,,,,,,,,,,,,,,,,,,,,,,,,,,,,2015_Jul_06_1123,59.7196767341,LearningTask,1,77,
200,w,200,,,,,,,,,,,,,,,,,1,0,1,0,16,2,66,0,,,,,,,,,,,,,,,,,,,,,,,,,,,,,w,1,0.400926828384,None,0,4.0,triangleyellow.gif,go,,,,,,,,,,,,,,,,,,,,,,,,,3.86,0.514189958572,0.000904083251953,0.400926828384,1,w,799.687542915,,,,,,,,,,,,,,,,,,,,,,,,,,,,,,,,,2015_Jul_06_1123,59.7196767341,LearningTask,1,77,
200,w,200,,,,,,,,,,,,,,,,,1,0,1,0,16,3,67,0,,,,,,,,,,,,,,,,,,,,,,,,,,,,,w,1,0.384077072144,None,0,2.0,squareblue.gif,stop,,,,,,,,,,,,,,,,,,,,,,,,,1.91,0.514522075653,0.000890970230103,0.384077072144,1,w,802.691127062,,,,,,,,,,,,,,,,,,,,,,,,,,,,,,,,,2015_Jul_06_1123,59.7196767341,LearningTask,1,77,
-200,q,200,,,,,,,,,,,,,,,,,1,0,1,0,17,0,68,1,,,,,,,,,,,,,,,,,,,,,,,,,,,,,q,1,0.48447394371,q,1,1.0,diamondgray.gif,go,,,,,,,,0.791882991791,,,,,,,,,,,,,,,,,0.84,0.514573097229,0.000870943069458,0.48447394371,1,q,805.694586992,,,,,,,,,,,,,,,,,,,,,,,,,,,,,,,,,2015_Jul_06_1123,59.7196767341,LearningTask,1,77,
-200,q,200,,,,,,,,,,,,,,,,,1,0,1,0,17,1,69,1,,,,,,,,,,,,,,,,,,,,,,,,,,,,,q,1,0.451297044754,None,0,1.0,hexagonwhite.gif,stop,,,,,,,,,,,,,,,,,,,,,,,,,1.2,0.514158964157,0.000967979431152,0.451297044754,1,q,808.698215961,,,,,,,,,,,,,,,,,,,,,,,,,,,,,,,,,2015_Jul_06_1123,59.7196767341,LearningTask,1,77,
-200,a,-200,,,,,,,,,,,,,,,,,1,0,1,0,17,2,70,3,,,,,,,,,,,,,,,,,,,,,,,,,,,,,a,1,0.484738111496,None,0,4.0,triangleyellow.gif,go,,,,,,,,,,,,,,,,,,,,,,,,,4.14,0.513993024826,0.00115609169006,0.484738111496,1,a,811.701210022,,,,,,,,,,,,,,,,,,,,,,,,,,,,,,,,,2015_Jul_06_1123,59.7196767341,LearningTask,1,77,
-200,q,200,,,,,,,,,,,,,,,,,1,0,1,0,17,3,71,1,,,,,,,,,,,,,,,,,,,,,,,,,,,,,q,1,0.451308012009,None,0,2.0,linegreen.gif,go,,,,,,,,,,,,,,,,,,,,,,,,,2.07,0.514322042465,0.000879049301147,0.451308012009,1,q,814.704592943,,,,,,,,,,,,,,,,,,,,,,,,,,,,,,,,,2015_Jul_06_1123,59.7196767341,LearningTask,1,77,
-200,q,200,,,,,,,,,,,,,,,,,1,0,1,0,18,0,72,1,,,,,,,,,,,,,,,,,,,,,,,,,,,,,q,1,0.484449863434,None,0,2.0,linegreen.gif,go,,,,,,,,,,,,,,,,,,,,,,,,,2.11,0.513978004456,0.00100898742676,0.484449863434,1,q,817.707931995,,,,,,,,,,,,,,,,,,,,,,,,,,,,,,,,,2015_Jul_06_1123,59.7196767341,LearningTask,1,77,
-200,q,200,,,,,,,,,,,,,,,,,1,0,1,0,18,1,73,1,,,,,,,,,,,,,,,,,,,,,,,,,,,,,q,1,0.417520999908,None,0,0.5,invertedtrianglecyan.gif,stop,,,,,,,,,,,,,,,,,,,,,,,,,0.72,0.514305830002,0.000888824462891,0.417520999908,1,q,820.711345911,,,,,,,,,,,,,,,,,,,,,,,,,,,,,,,,,2015_Jul_06_1123,59.7196767341,LearningTask,1,77,
200,s,-200,,,,,,,,,,,,,,,,,1,0,1,0,18,2,74,2,,,,,,,,,,,,,,,,,,,,,,,,,,,,,s,1,0.601129055023,None,0,4.0,triangleyellow.gif,go,,,,,,,,,,,,,,,,,,,,,,,,,4.16,0.514359951019,0.000894069671631,0.601129055023,1,s,823.714926004,,,,,,,,,,,,,,,,,,,,,,,,,,,,,,,,,2015_Jul_06_1123,59.7196767341,LearningTask,1,77,
-200,a,-200,,,,,,,,,,,,,,,,,1,0,1,0,18,3,75,3,,,,,,,,,,,,,,,,,,,,,,,,,,,,,a,1,0.384481906891,None,0,0.5,invertedtrianglecyan.gif,stop,,,,,,,,,,,,,,,,,,,,,,,,,0.35,0.514089107513,0.000916957855225,0.384481906891,1,a,826.718200922,,,,,,,,,,,,,,,,,,,,,,,,,,,,,,,,,2015_Jul_06_1123,59.7196767341,LearningTask,1,77,
-200,q,200,,,,,,,,,,,,,,,,,1,0,1,0,19,0,76,1,,,,,,,,,,,,,,,,,,,,,,,,,,,,,q,1,0.668022871017,None,0,0.5,circleorange.gif,go,,,,,,,,,,,,,,,,,,,,,,,,,0.71,0.514237165451,0.000900030136108,0.668022871017,1,q,829.721504927,,,,,,,,,,,,,,,,,,,,,,,,,,,,,,,,,2015_Jul_06_1123,59.7196767341,LearningTask,1,77,
200,w,200,,,,,,,,,,,,,,,,,1,0,1,0,19,1,77,0,,,,,,,,,,,,,,,,,,,,,,,,,,,,,w,1,0.484664201736,None,0,2.0,squareblue.gif,stop,,,,,,,,,,,,,,,,,,,,,,,,,0,0.513997077942,0.000872135162354,0.250921964645,0,q,832.724759102,0,0.515579938889,0.000942945480347,0.484664201736,1,w,835.728174925,,,,,,,,,,,,,,,,,,,,,,,,,,2015_Jul_06_1123,59.7196767341,LearningTask,1,77,
200,s,-200,,,,,,,,,,,,,,,,,1,0,1,0,19,2,78,2,,,,,,,,,,,,,,,,,,,,,,,,,,,,,s,1,0.384387969971,None,0,1.0,diamondgray.gif,go,,,,,,,,,,,,,,,,,,,,,,,,,0,0.514394044876,0.000880002975464,[],0,None,838.731561899,0.75,0.515781164169,0.00094199180603,0.384387969971,1,s,841.735249996,,,,,,,,,,,,,,,,,,,,,,,,,,2015_Jul_06_1123,59.7196767341,LearningTask,1,77,
200,s,-200,,,,,,,,,,,,,,,,,1,0,1,0,19,3,79,2,,,,,,,,,,,,,,,,,,,,,,,,,,,,,s,1,0.417880058289,q,0,0.5,invertedtrianglecyan.gif,stop,,,,,,,,0.258496046066,,,,,,,,,,,,,,,,,0,0.514078855515,0.000883817672729,0.417880058289,1,s,844.738301992,,,,,,,,,,,,,,,,,,,,,,,,,,,,,,,,,2015_Jul_06_1123,59.7196767341,LearningTask,1,77,
-200,a,-200,,,,,,,,,,,,,,,,,1,0,1,0,20,0,80,3,,,,,,,,,,,,,,,,,,,,,,,,,,,,,a,1,0.367829084396,None,0,0.5,invertedtrianglecyan.gif,stop,,,,,,,,,,,,,,,,,,,,,,,,,0.39,0.514366149902,0.00101017951965,0.367829084396,1,a,847.741935015,,,,,,,,,,,,,,,,,,,,,,,,,,,,,,,,,2015_Jul_06_1123,59.7196767341,LearningTask,1,77,
200,s,-200,,,,,,,,,,,,,,,,,1,0,1,0,20,1,81,2,,,,,,,,,,,,,,,,,,,,,,,,,,,,,s,1,0.384183883667,None,0,2.0,linegreen.gif,go,,,,,,,,,,,,,,,,,,,,,,,,,2.15,0.513992071152,0.000879049301147,0.384183883667,1,s,850.745131016,,,,,,,,,,,,,,,,,,,,,,,,,,,,,,,,,2015_Jul_06_1123,59.7196767341,LearningTask,1,77,
-200,q,200,,,,,,,,,,,,,,,,,1,0,1,0,20,2,82,1,,,,,,,,,,,,,,,,,,,,,,,,,,,,,q,1,0.417437791824,None,0,1.0,diamondgray.gif,go,,,,,,,,,,,,,,,,,,,,,,,,,1.0,0.514086008072,0.000879049301147,0.417437791824,1,q,853.748517036,,,,,,,,,,,,,,,,,,,,,,,,,,,,,,,,,2015_Jul_06_1123,59.7196767341,LearningTask,1,77,
-200,q,200,,,,,,,,,,,,,,,,,1,0,1,0,20,3,83,1,,,,,,,,,,,,,,,,,,,,,,,,,,,,,q,1,0.484342098236,w,0,4.0,crossmagenta.gif,stop,,,,,,,,0.592191934586,,,,,,,,,,,,,,,,,4.07,0.514153003693,0.00103402137756,0.484342098236,1,q,856.751983881,,,,,,,,,,,,,,,,,,,,,,,,,,,,,,,,,2015_Jul_06_1123,59.7196767341,LearningTask,1,77,
200,s,-200,,,,,,,,,,,,,,,,,1,0,1,0,21,0,84,2,,,,,,,,,,,,,,,,,,,,,,,,,,,,,s,1,0.450934886932,None,0,4.0,triangleyellow.gif,go,,,,,,,,,,,,,,,,,,,,,,,,,3.86,0.514177083969,0.000879049301147,0.450934886932,1,s,859.755243063,,,,,,,,,,,,,,,,,,,,,,,,,,,,,,,,,2015_Jul_06_1123,59.7196767341,LearningTask,1,77,
-200,a,-200,,,,,,,,,,,,,,,,,1,0,1,0,21,1,85,3,,,,,,,,,,,,,,,,,,,,,,,,,,,,,a,1,0.468273878098,None,0,1.0,hexagonwhite.gif,stop,,,,,,,,,,,,,,,,,,,,,,,,,1.13,0.514213085175,0.000883102416992,0.468273878098,1,a,862.758518934,,,,,,,,,,,,,,,,,,,,,,,,,,,,,,,,,2015_Jul_06_1123,59.7196767341,LearningTask,1,77,
200,w,200,,,,,,,,,,,,,,,,,1,0,1,0,21,2,86,0,,,,,,,,,,,,,,,,,,,,,,,,,,,,,w,1,0.484304189682,None,0,0.5,invertedtrianglecyan.gif,stop,,,,,,,,,,,,,,,,,,,,,,,,,0.59,0.514350891113,0.00123190879822,0.484304189682,1,w,865.761844873,,,,,,,,,,,,,,,,,,,,,,,,,,,,,,,,,2015_Jul_06_1123,59.7196767341,LearningTask,1,77,
200,s,-200,,,,,,,,,,,,,,,,,1,0,1,0,21,3,87,2,,,,,,,,,,,,,,,,,,,,,,,,,,,,,s,1,0.434279918671,None,0,1.0,hexagonwhite.gif,stop,,,,,,,,,,,,,,,,,,,,,,,,,1.04,0.514619827271,0.000883817672729,0.434279918671,1,s,868.76531601,,,,,,,,,,,,,,,,,,,,,,,,,,,,,,,,,2015_Jul_06_1123,59.7196767341,LearningTask,1,77,
-200,a,-200,,,,,,,,,,,,,,,,,1,0,1,0,22,0,88,3,,,,,,,,,,,,,,,,,,,,,,,,,,,,,a,1,0.551453828812,None,0,2.0,linegreen.gif,go,,,,,,,,,,,,,,,,,,,,,,,,,0,0.514314889908,0.000875949859619,0.551453828812,1,a,871.769016981,,,,,,,,,,,,,,,,,,,,,,,,,,,,,,,,,2015_Jul_06_1123,59.7196767341,LearningTask,1,77,
200,w,200,,,,,,,,,,,,,,,,,1,0,1,0,22,1,89,0,,,,,,,,,,,,,,,,,,,,,,,,,,,,,w,1,0.450489044189,None,0,1.0,hexagonwhite.gif,stop,,,,,,,,,,,,,,,,,,,,,,,,,0,0.513969898224,0.000923871994019,0.450489044189,1,w,874.772119999,,,,,,,,,,,,,,,,,,,,,,,,,,,,,,,,,2015_Jul_06_1123,59.7196767341,LearningTask,1,77,
200,w,200,,,,,,,,,,,,,,,,,1,0,1,0,22,2,90,0,,,,,,,,,,,,,,,,,,,,,,,,,,,,,w,1,0.451244115829,None,0,0.5,circleorange.gif,go,,,,,,,,,,,,,,,,,,,,,,,,,0.33,0.514142990112,0.000880002975464,0.451244115829,1,w,877.775479078,,,,,,,,,,,,,,,,,,,,,,,,,,,,,,,,,2015_Jul_06_1123,59.7196767341,LearningTask,1,77,
200,w,200,,,,,,,,,,,,,,,,,1,0,1,0,22,3,91,0,,,,,,,,,,,,,,,,,,,,,,,,,,,,,w,1,0.451297044754,None,0,1.0,hexagonwhite.gif,stop,,,,,,,,,,,,,,,,,,,,,,,,,0.8,0.514315128326,0.000878095626831,0.451297044754,1,w,880.779093981,,,,,,,,,,,,,,,,,,,,,,,,,,,,,,,,,2015_Jul_06_1123,59.7196767341,LearningTask,1,77,
-200,a,-200,,,,,,,,,,,,,,,,,1,0,1,0,23,0,92,3,,,,,,,,,,,,,,,,,,,,,,,,,,,,,a,1,0.567008972168,w,0,4.0,crossmagenta.gif,stop,,,,,,,,0.0589878559113,,,,,,,,,,,,,,,,,0,0.514196872711,0.00089693069458,0.567008972168,1,a,883.782197952,,,,,,,,,,,,,,,,,,,,,,,,,,,,,,,,,2015_Jul_06_1123,59.7196767341,LearningTask,1,77,
-200,q,200,,,,,,,,,,,,,,,,,1,0,1,0,23,1,93,1,,,,,,,,,,,,,,,,,,,,,,,,,,,,,q,1,0.534533977509,None,0,0.5,circleorange.gif,go,,,,,,,,,,,,,,,,,,,,,,,,,0.52,0.514369010925,0.000890016555786,0.534533977509,1,q,886.785476923,,,,,,,,,,,,,,,,,,,,,,,,,,,,,,,,,2015_Jul_06_1123,59.7196767341,LearningTask,1,77,
-200,a,-200,,,,,,,,,,,,,,,,,1,0,1,0,23,2,94,3,,,,,,,,,,,,,,,,,,,,,,,,,,,,,a,1,0.517810106277,None,0,0.5,invertedtrianglecyan.gif,stop,,,,,,,,,,,,,,,,,,,,,,,,,0.49,0.514504909515,0.000880002975464,0.517810106277,1,a,889.78923893,,,,,,,,,,,,,,,,,,,,,,,,,,,,,,,,,2015_Jul_06_1123,59.7196767341,LearningTask,1,77,
-200,a,-200,,,,,,,,,,,,,,,,,1,0,1,0,23,3,95,3,,,,,,,,,,,,,,,,,,,,,,,,,,,,,a,1,0.634575128555,None,0,1.0,hexagonwhite.gif,stop,,,,,,,,,,,,,,,,,,,,,,,,,0,0.514050006866,0.000901937484741,0.634575128555,1,a,892.792185068,,,,,,,,,,,,,,,,,,,,,,,,,,,,,,,,,2015_Jul_06_1123,59.7196767341,LearningTask,1,77,
-200,a,-200,,,,,,,,,,,,,,,,,1,0,1,0,24,0,96,3,,,,,,,,,,,,,,,,,,,,,,,,,,,,,a,1,0.433819055557,None,0,4.0,crossmagenta.gif,stop,,,,,,,,,,,,,,,,,,,,,,,,,4.0,0.514540910721,0.00103092193604,0.433819055557,1,a,895.795537949,,,,,,,,,,,,,,,,,,,,,,,,,,,,,,,,,2015_Jul_06_1123,59.7196767341,LearningTask,1,77,
-200,q,200,,,,,,,,,,,,,,,,,1,0,1,0,24,1,97,1,,,,,,,,,,,,,,,,,,,,,,,,,,,,,q,1,0.48433804512,q,1,2.0,squareblue.gif,stop,,,,,,,,0.77504992485,,,,,,,,,,,,,,,,,2.01,0.514340877533,0.00119876861572,0.48433804512,1,q,898.799278021,,,,,,,,,,,,,,,,,,,,,,,,,,,,,,,,,2015_Jul_06_1123,59.7196767341,LearningTask,1,77,
200,w,200,,,,,,,,,,,,,,,,,1,0,1,0,24,2,98,0,,,,,,,,,,,,,,,,,,,,,,,,,,,,,w,1,0.418060064316,None,0,0.5,invertedtrianglecyan.gif,stop,,,,,,,,,,,,,,,,,,,,,,,,,0.41,0.514158964157,0.00089693069458,0.418060064316,1,w,901.802316904,,,,,,,,,,,,,,,,,,,,,,,,,,,,,,,,,2015_Jul_06_1123,59.7196767341,LearningTask,1,77,
200,s,-200,,,,,,,,,,,,,,,,,1,0,1,0,24,3,99,2,,,,,,,,,,,,,,,,,,,,,,,,,,,,,s,1,0.467824935913,None,0,0.5,circleorange.gif,go,,,,,,,,,,,,,,,,,,,,,,,,,0.72,0.51441693306,0.00102591514587,0.467824935913,1,s,904.805902004,,,,,,,,,,,,,,,,,,,,,,,,,,,,,,,,,2015_Jul_06_1123,59.7196767341,LearningTask,1,77,
,,,,,,,,,,,,,,,,,,,1,0,1,0,,,,,,,,,,,,,,,,,,,,,,,,,,,,,,,,,,,,,,,,,,,,,,,,,,,,,,,,,,,,,,,,,,,,,,,,,,,,,,,9,36.267991066,,,,,,,,,,,,,,,,,,,,,,,,2015_Jul_06_1123,59.7196767341,LearningTask,1,77,
200,w,200,,,,,,,,,,,,,,,,,2,0,2,0,0,0,0,0,,,,,,,,,,,,,,,,,,,,,,,,,,,,,w,1,0.384213924408,None,0,4.0,crossmagenta.gif,stop,,,,,,,,,,,,,,,,,,,,,,,,,3.89,0.510360002518,0.000911951065063,0.384213924408,1,w,944.751540899,,,,,,,,,,,,,,,,,,,,,,,,,,,,,,,,,2015_Jul_06_1123,59.7196767341,LearningTask,1,77,
200,s,-200,,,,,,,,,,,,,,,,,2,0,2,0,0,1,1,2,,,,,,,,,,,,,,,,,,,,,,,,,,,,,s,1,0.500877857208,None,0,4.0,crossmagenta.gif,stop,,,,,,,,,,,,,,,,,,,,,,,,,0,0.513517141342,0.00088095664978,0.500877857208,1,s,947.754221916,,,,,,,,,,,,,,,,,,,,,,,,,,,,,,,,,2015_Jul_06_1123,59.7196767341,LearningTask,1,77,
-200,a,-200,,,,,,,,,,,,,,,,,2,0,2,0,0,2,2,3,,,,,,,,,,,,,,,,,,,,,,,,,,,,,a,1,0.451017141342,None,0,1.0,hexagonwhite.gif,stop,,,,,,,,,,,,,,,,,,,,,,,,,1.24,0.514199018478,0.000937938690186,0.451017141342,1,a,950.757456064,,,,,,,,,,,,,,,,,,,,,,,,,,,,,,,,,2015_Jul_06_1123,59.7196767341,LearningTask,1,77,
-200,a,-200,,,,,,,,,,,,,,,,,2,0,2,0,0,3,3,3,,,,,,,,,,,,,,,,,,,,,,,,,,,,,a,1,0.500866174698,None,0,4.0,triangleyellow.gif,go,,,,,,,,,,,,,,,,,,,,,,,,,3.79,0.514101982117,0.000958204269409,0.500866174698,1,a,953.760854006,,,,,,,,,,,,,,,,,,,,,,,,,,,,,,,,,2015_Jul_06_1123,59.7196767341,LearningTask,1,77,
-200,a,-200,,,,,,,,,,,,,,,,,2,0,2,0,1,0,4,3,,,,,,,,,,,,,,,,,,,,,,,,,,,,,a,1,0.450981140137,None,0,2.0,linegreen.gif,go,,,,,,,,,,,,,,,,,,,,,,,,,1.85,0.514369010925,0.000881195068359,0.450981140137,1,a,956.764139891,,,,,,,,,,,,,,,,,,,,,,,,,,,,,,,,,2015_Jul_06_1123,59.7196767341,LearningTask,1,77,
-200,a,-200,,,,,,,,,,,,,,,,,2,0,2,0,1,1,5,3,,,,,,,,,,,,,,,,,,,,,,,,,,,,,a,1,0.417915821075,q,0,4.0,triangleyellow.gif,go,,,,,,,,0.842299938202,,,,,,,,,,,,,,,,,0,0.514039993286,0.000882148742676,0.417915821075,1,a,959.767431974,,,,,,,,,,,,,,,,,,,,,,,,,,,,,,,,,2015_Jul_06_1123,59.7196767341,LearningTask,1,77,
200,s,-200,,,,,,,,,,,,,,,,,2,0,2,0,1,2,6,2,,,,,,,,,,,,,,,,,,,,,,,,,,,,,s,1,0.434221982956,None,0,1.0,diamondgray.gif,go,,,,,,,,,,,,,,,,,,,,,,,,,0.82,0.514467954636,0.000900030136108,0.434221982956,1,s,962.77088809,,,,,,,,,,,,,,,,,,,,,,,,,,,,,,,,,2015_Jul_06_1123,59.7196767341,LearningTask,1,77,
200,s,-200,,,,,,,,,,,,,,,,,2,0,2,0,1,3,7,2,,,,,,,,,,,,,,,,,,,,,,,,,,,,,s,1,0.501331806183,None,0,2.0,squareblue.gif,stop,,,,,,,,,,,,,,,,,,,,,,,,,2.09,0.514400959015,0.000872135162354,0.501331806183,1,s,965.774487019,,,,,,,,,,,,,,,,,,,,,,,,,,,,,,,,,2015_Jul_06_1123,59.7196767341,LearningTask,1,77,
-200,q,200,,,,,,,,,,,,,,,,,2,0,2,0,2,0,8,1,,,,,,,,,,,,,,,,,,,,,,,,,,,,,q,1,0.450935125351,None,0,0.5,circleorange.gif,go,,,,,,,,,,,,,,,,,,,,,,,,,0,0.514060020447,0.000895977020264,0.450935125351,1,q,968.778189898,,,,,,,,,,,,,,,,,,,,,,,,,,,,,,,,,2015_Jul_06_1123,59.7196767341,LearningTask,1,77,
-200,a,-200,,,,,,,,,,,,,,,,,2,0,2,0,2,1,9,3,,,,,,,,,,,,,,,,,,,,,,,,,,,,,a,1,0.38484787941,None,0,4.0,crossmagenta.gif,stop,,,,,,,,,,,,,,,,,,,,,,,,,3.99,0.513672828674,0.00088095664978,0.38484787941,1,a,971.781233072,,,,,,,,,,,,,,,,,,,,,,,,,,,,,,,,,2015_Jul_06_1123,59.7196767341,LearningTask,1,77,
200,s,-200,,,,,,,,,,,,,,,,,2,0,2,0,2,2,10,2,,,,,,,,,,,,,,,,,,,,,,,,,,,,,s,1,0.31768488884,None,0,1.0,hexagonwhite.gif,stop,,,,,,,,,,,,,,,,,,,,,,,,,1.11,0.513842821121,0.00112295150757,0.31768488884,1,s,974.784692049,,,,,,,,,,,,,,,,,,,,,,,,,,,,,,,,,2015_Jul_06_1123,59.7196767341,LearningTask,1,77,
200,s,-200,,,,,,,,,,,,,,,,,2,0,2,0,2,3,11,2,,,,,,,,,,,,,,,,,,,,,,,,,,,,,s,1,0.317408084869,None,0,1.0,diamondgray.gif,go,,,,,,,,,,,,,,,,,,,,,,,,,0,0.514323949814,0.000878095626831,0.133686065674,0,q,977.787941933,0,0.515533924103,0.000941038131714,0.317408084869,1,s,980.791352034,,,,,,,,,,,,,,,,,,,,,,,,,,2015_Jul_06_1123,59.7196767341,LearningTask,1,77,
200,s,-200,,,,,,,,,,,,,,,,,2,0,2,0,3,0,12,2,,,,,,,,,,,,,,,,,,,,,,,,,,,,,s,1,0.434632062912,None,0,4.0,triangleyellow.gif,go,,,,,,,,,,,,,,,,,,,,,,,,,3.88,0.513995885849,0.00095009803772,0.434632062912,1,s,983.794651031,,,,,,,,,,,,,,,,,,,,,,,,,,,,,,,,,2015_Jul_06_1123,59.7196767341,LearningTask,1,77,
-200,q,200,,,,,,,,,,,,,,,,,2,0,2,0,3,1,13,1,,,,,,,,,,,,,,,,,,,,,,,,,,,,,q,1,0.401444911957,None,0,0.5,invertedtrianglecyan.gif,stop,,,,,,,,,,,,,,,,,,,,,,,,,0.32,0.514302015305,0.000888824462891,0.401444911957,1,q,986.798016071,,,,,,,,,,,,,,,,,,,,,,,,,,,,,,,,,2015_Jul_06_1123,59.7196767341,LearningTask,1,77,
-200,a,-200,,,,,,,,,,,,,,,,,2,0,2,0,3,2,14,3,,,,,,,,,,,,,,,,,,,,,,,,,,,,,a,1,0.467764854431,None,0,0.5,invertedtrianglecyan.gif,stop,,,,,,,,,,,,,,,,,,,,,,,,,0.27,0.514295816422,0.000914812088013,0.467764854431,1,a,989.801481009,,,,,,,,,,,,,,,,,,,,,,,,,,,,,,,,,2015_Jul_06_1123,59.7196767341,LearningTask,1,77,
200,w,200,,,,,,,,,,,,,,,,,2,0,2,0,3,3,15,0,,,,,,,,,,,,,,,,,,,,,,,,,,,,,w,1,0.451252222061,None,0,2.0,squareblue.gif,stop,,,,,,,,,,,,,,,,,,,,,,,,,0,0.514037132263,0.000941038131714,0.451252222061,1,w,992.804704905,,,,,,,,,,,,,,,,,,,,,,,,,,,,,,,,,2015_Jul_06_1123,59.7196767341,LearningTask,1,77,
-200,a,-200,,,,,,,,,,,,,,,,,2,0,2,0,4,0,16,3,,,,,,,,,,,,,,,,,,,,,,,,,,,,,a,1,0.383554935455,None,0,1.0,hexagonwhite.gif,stop,,,,,,,,,,,,,,,,,,,,,,,,,1.16,0.514451980591,0.000880002975464,0.383554935455,1,a,995.808197975,,,,,,,,,,,,,,,,,,,,,,,,,,,,,,,,,2015_Jul_06_1123,59.7196767341,LearningTask,1,77,
200,w,200,,,,,,,,,,,,,,,,,2,0,2,0,4,1,17,0,,,,,,,,,,,,,,,,,,,,,,,,,,,,,w,1,0.451102018356,None,0,0.5,circleorange.gif,go,,,,,,,,,,,,,,,,,,,,,,,,,0,0.513989925385,0.000937938690186,0.451102018356,1,w,998.811517954,,,,,,,,,,,,,,,,,,,,,,,,,,,,,,,,,2015_Jul_06_1123,59.7196767341,LearningTask,1,77,
-200,q,200,,,,,,,,,,,,,,,,,2,0,2,0,4,2,18,1,,,,,,,,,,,,,,,,,,,,,,,,,,,,,q,1,0.351413965225,None,0,1.0,diamondgray.gif,go,,,,,,,,,,,,,,,,,,,,,,,,,0.86,0.513900995255,0.000895023345947,0.351413965225,1,q,1001.81483388,,,,,,,,,,,,,,,,,,,,,,,,,,,,,,,,,2015_Jul_06_1123,59.7196767341,LearningTask,1,77,
200,w,200,,,,,,,,,,,,,,,,,2,0,2,0,4,3,19,0,,,,,,,,,,,,,,,,,,,,,,,,,,,,,w,1,0.317361116409,None,0,0.5,circleorange.gif,go,,,,,,,,,,,,,,,,,,,,,,,,,0.6,0.514158964157,0.000879049301147,0.317361116409,1,w,1004.81868196,,,,,,,,,,,,,,,,,,,,,,,,,,,,,,,,,2015_Jul_06_1123,59.7196767341,LearningTask,1,77,
-200,a,-200,,,,,,,,,,,,,,,,,2,0,2,0,5,0,20,3,,,,,,,,,,,,,,,,,,,,,,,,,,,,,a,1,0.350883960724,None,0,1.0,hexagonwhite.gif,stop,,,,,,,,,,,,,,,,,,,,,,,,,0,0.514005899429,0.000961780548096,0.350883960724,1,a,1007.82192588,,,,,,,,,,,,,,,,,,,,,,,,,,,,,,,,,2015_Jul_06_1123,59.7196767341,LearningTask,1,77,
-200,q,200,,,,,,,,,,,,,,,,,2,0,2,0,5,1,21,1,,,,,,,,,,,,,,,,,,,,,,,,,,,,,q,1,0.384001016617,None,0,1.0,diamondgray.gif,go,,,,,,,,,,,,,,,,,,,,,,,,,0,0.513808965683,0.000873804092407,0.384001016617,1,q,1010.82501101,,,,,,,,,,,,,,,,,,,,,,,,,,,,,,,,,2015_Jul_06_1123,59.7196767341,LearningTask,1,77,
200,s,-200,,,,,,,,,,,,,,,,,2,0,2,0,5,2,22,2,,,,,,,,,,,,,,,,,,,,,,,,,,,,,s,1,0.384293079376,None,0,0.5,invertedtrianglecyan.gif,stop,,,,,,,,,,,,,,,,,,,,,,,,,0.53,0.514298915863,0.000868082046509,0.384293079376,1,s,1013.82890391,,,,,,,,,,,,,,,,,,,,,,,,,,,,,,,,,2015_Jul_06_1123,59.7196767341,LearningTask,1,77,
-200,q,200,,,,,,,,,,,,,,,,,2,0,2,0,5,3,23,1,,,,,,,,,,,,,,,,,,,,,,,,,,,,,q,1,0.317538022995,None,0,4.0,crossmagenta.gif,stop,,,,,,,,,,,,,,,,,,,,,,,,,4.17,0.513753890991,0.000890016555786,0.317538022995,1,q,1016.83251309,,,,,,,,,,,,,,,,,,,,,,,,,,,,,,,,,2015_Jul_06_1123,59.7196767341,LearningTask,1,77,
200,w,200,,,,,,,,,,,,,,,,,2,0,2,0,6,0,24,0,,,,,,,,,,,,,,,,,,,,,,,,,,,,,w,1,0.367116928101,None,0,4.0,crossmagenta.gif,stop,,,,,,,,,,,,,,,,,,,,,,,,,3.88,0.513757944107,0.000900983810425,0.367116928101,1,w,1019.83519292,,,,,,,,,,,,,,,,,,,,,,,,,,,,,,,,,2015_Jul_06_1123,59.7196767341,LearningTask,1,77,
-200,q,200,,,,,,,,,,,,,,,,,2,0,2,0,6,1,25,1,,,,,,,,,,,,,,,,,,,,,,,,,,,,,q,1,0.417619943619,q,1,0.5,circleorange.gif,go,,,,,,,,0.591793060303,,,,,,,,,,,,,,,,,0.26,0.514446020126,0.00088095664978,0.417619943619,1,q,1022.83867693,,,,,,,,,,,,,,,,,,,,,,,,,,,,,,,,,2015_Jul_06_1123,59.7196767341,LearningTask,1,77,
-200,a,-200,,,,,,,,,,,,,,,,,2,0,2,0,6,2,26,3,,,,,,,,,,,,,,,,,,,,,,,,,,,,,a,1,0.384295940399,None,0,1.0,diamondgray.gif,go,,,,,,,,,,,,,,,,,,,,,,,,,0.95,0.514139890671,0.000870943069458,0.384295940399,1,a,1025.84199309,,,,,,,,,,,,,,,,,,,,,,,,,,,,,,,,,2015_Jul_06_1123,59.7196767341,LearningTask,1,77,
-200,a,-200,,,,,,,,,,,,,,,,,2,0,2,0,6,3,27,3,,,,,,,,,,,,,,,,,,,,,,,,,,,,,a,1,0.401145935059,None,0,1.0,diamondgray.gif,go,,,,,,,,,,,,,,,,,,,,,,,,,0,0.514311075211,0.000881195068359,0.401145935059,1,a,1028.84505105,,,,,,,,,,,,,,,,,,,,,,,,,,,,,,,,,2015_Jul_06_1123,59.7196767341,LearningTask,1,77,
-200,q,200,,,,,,,,,,,,,,,,,2,0,2,0,7,0,28,1,,,,,,,,,,,,,,,,,,,,,,,,,,,,,q,1,0.401266098022,None,0,2.0,linegreen.gif,go,,,,,,,,,,,,,,,,,,,,,,,,,0,0.514547109604,0.00088906288147,0.401266098022,1,q,1031.84928703,,,,,,,,,,,,,,,,,,,,,,,,,,,,,,,,,2015_Jul_06_1123,59.7196767341,LearningTask,1,77,
200,s,-200,,,,,,,,,,,,,,,,,2,0,2,0,7,1,29,2,,,,,,,,,,,,,,,,,,,,,,,,,,,,,s,1,0.350862979889,None,0,0.5,invertedtrianglecyan.gif,stop,,,,,,,,,,,,,,,,,,,,,,,,,0.75,0.513783931732,0.000877857208252,0.350862979889,1,s,1034.85209703,,,,,,,,,,,,,,,,,,,,,,,,,,,,,,,,,2015_Jul_06_1123,59.7196767341,LearningTask,1,77,
200,w,200,,,,,,,,,,,,,,,,,2,0,2,0,7,2,30,0,,,,,,,,,,,,,,,,,,,,,,,,,,,,,w,1,0.317717075348,None,0,4.0,triangleyellow.gif,go,,,,,,,,,,,,,,,,,,,,,,,,,0,0.514304876328,0.000923871994019,0.317717075348,1,w,1037.85535693,,,,,,,,,,,,,,,,,,,,,,,,,,,,,,,,,2015_Jul_06_1123,59.7196767341,LearningTask,1,77,
200,w,200,,,,,,,,,,,,,,,,,2,0,2,0,7,3,31,0,,,,,,,,,,,,,,,,,,,,,,,,,,,,,w,1,0.334150075912,None,0,2.0,squareblue.gif,stop,,,,,,,,,,,,,,,,,,,,,,,,,0,0.51419210434,0.00093412399292,0.334150075912,1,w,1040.85872507,,,,,,,,,,,,,,,,,,,,,,,,,,,,,,,,,2015_Jul_06_1123,59.7196767341,LearningTask,1,77,
200,w,200,,,,,,,,,,,,,,,,,2,0,2,0,8,0,32,0,,,,,,,,,,,,,,,,,,,,,,,,,,,,,w,1,0.434634923935,None,0,1.0,diamondgray.gif,go,,,,,,,,,,,,,,,,,,,,,,,,,1.22,0.514355897903,0.000875949859619,0.434634923935,1,w,1043.86210799,,,,,,,,,,,,,,,,,,,,,,,,,,,,,,,,,2015_Jul_06_1123,59.7196767341,LearningTask,1,77,
200,s,-200,,,,,,,,,,,,,,,,,2,0,2,0,8,1,33,2,,,,,,,,,,,,,,,,,,,,,,,,,,,,,s,1,0.401130914688,None,0,4.0,triangleyellow.gif,go,,,,,,,,,,,,,,,,,,,,,,,,,0,0.514129161835,0.000900983810425,0.401130914688,1,s,1046.86571693,,,,,,,,,,,,,,,,,,,,,,,,,,,,,,,,,2015_Jul_06_1123,59.7196767341,LearningTask,1,77,
200,w,200,,,,,,,,,,,,,,,,,2,0,2,0,8,2,34,0,,,,,,,,,,,,,,,,,,,,,,,,,,,,,w,1,0.334231853485,None,0,4.0,crossmagenta.gif,stop,,,,,,,,,,,,,,,,,,,,,,,,,4.02,0.514091014862,0.000928163528442,0.334231853485,1,w,1049.86893296,,,,,,,,,,,,,,,,,,,,,,,,,,,,,,,,,2015_Jul_06_1123,59.7196767341,LearningTask,1,77,
200,s,-200,,,,,,,,,,,,,,,,,2,0,2,0,8,3,35,2,,,,,,,,,,,,,,,,,,,,,,,,,,,,,s,1,0.350625991821,None,0,2.0,squareblue.gif,stop,,,,,,,,,,,,,,,,,,,,,,,,,2.13,0.514547109604,0.000878095626831,0.350625991821,1,s,1052.87224793,,,,,,,,,,,,,,,,,,,,,,,,,,,,,,,,,2015_Jul_06_1123,59.7196767341,LearningTask,1,77,
-200,a,-200,,,,,,,,,,,,,,,,,2,0,2,0,9,0,36,3,,,,,,,,,,,,,,,,,,,,,,,,,,,,,a,1,0.534323215485,None,0,1.0,hexagonwhite.gif,stop,,,,,,,,,,,,,,,,,,,,,,,,,0.76,0.514387845993,0.000885963439941,0.534323215485,1,a,1055.8759861,,,,,,,,,,,,,,,,,,,,,,,,,,,,,,,,,2015_Jul_06_1123,59.7196767341,LearningTask,1,77,
200,s,-200,,,,,,,,,,,,,,,,,2,0,2,0,9,1,37,2,,,,,,,,,,,,,,,,,,,,,,,,,,,,,s,1,0.350739002228,None,0,0.5,invertedtrianglecyan.gif,stop,,,,,,,,,,,,,,,,,,,,,,,,,0.7,0.513835906982,0.000886917114258,0.350739002228,1,s,1058.87921596,,,,,,,,,,,,,,,,,,,,,,,,,,,,,,,,,2015_Jul_06_1123,59.7196767341,LearningTask,1,77,
-200,q,200,,,,,,,,,,,,,,,,,2,0,2,0,9,2,38,1,,,,,,,,,,,,,,,,,,,,,,,,,,,,,q,1,0.38406586647,None,0,2.0,linegreen.gif,go,,,,,,,,,,,,,,,,,,,,,,,,,1.91,0.514055967331,0.00117492675781,0.38406586647,1,q,1061.8827579,,,,,,,,,,,,,,,,,,,,,,,,,,,,,,,,,2015_Jul_06_1123,59.7196767341,LearningTask,1,77,
200,w,200,,,,,,,,,,,,,,,,,2,0,2,0,9,3,39,0,,,,,,,,,,,,,,,,,,,,,,,,,,,,,w,1,0.318469047546,None,0,1.0,hexagonwhite.gif,stop,,,,,,,,,,,,,,,,,,,,,,,,,0,0.513715982437,0.000879049301147,0.318469047546,1,w,1064.88649797,,,,,,,,,,,,,,,,,,,,,,,,,,,,,,,,,2015_Jul_06_1123,59.7196767341,LearningTask,1,77,
-200,a,-200,,,,,,,,,,,,,,,,,2,0,2,0,10,0,40,3,,,,,,,,,,,,,,,,,,,,,,,,,,,,,a,1,0.384036064148,None,0,0.5,invertedtrianglecyan.gif,stop,,,,,,,,,,,,,,,,,,,,,,,,,0.64,0.513540029526,0.000916957855225,0.384036064148,1,a,1067.88917208,,,,,,,,,,,,,,,,,,,,,,,,,,,,,,,,,2015_Jul_06_1123,59.7196767341,LearningTask,1,77,
200,s,-200,,,,,,,,,,,,,,,,,2,0,2,0,10,1,41,2,,,,,,,,,,,,,,,,,,,,,,,,,,,,,s,1,0.384824991226,None,0,2.0,squareblue.gif,stop,,,,,,,,,,,,,,,,,,,,,,,,,1.91,0.514337062836,0.000949144363403,0.384824991226,1,s,1070.89254093,,,,,,,,,,,,,,,,,,,,,,,,,,,,,,,,,2015_Jul_06_1123,59.7196767341,LearningTask,1,77,
200,w,200,,,,,,,,,,,,,,,,,2,0,2,0,10,2,42,0,,,,,,,,,,,,,,,,,,,,,,,,,,,,,w,1,0.334599971771,None,0,2.0,squareblue.gif,stop,,,,,,,,,,,,,,,,,,,,,,,,,0,0.514368057251,0.000879049301147,0.334599971771,1,w,1073.89610195,,,,,,,,,,,,,,,,,,,,,,,,,,,,,,,,,2015_Jul_06_1123,59.7196767341,LearningTask,1,77,
200,s,-200,,,,,,,,,,,,,,,,,2,0,2,0,10,3,43,2,,,,,,,,,,,,,,,,,,,,,,,,,,,,,s,1,0.417697191238,None,0,0.5,invertedtrianglecyan.gif,stop,,,,,,,,,,,,,,,,,,,,,,,,,0.38,0.514088869095,0.000946044921875,0.417697191238,1,s,1076.89932394,,,,,,,,,,,,,,,,,,,,,,,,,,,,,,,,,2015_Jul_06_1123,59.7196767341,LearningTask,1,77,
-200,q,200,,,,,,,,,,,,,,,,,2,0,2,0,11,0,44,1,,,,,,,,,,,,,,,,,,,,,,,,,,,,,q,1,0.384197950363,None,0,1.0,diamondgray.gif,go,,,,,,,,,,,,,,,,,,,,,,,,,0.82,0.514091968536,0.00109004974365,0.384197950363,1,q,1079.90271091,,,,,,,,,,,,,,,,,,,,,,,,,,,,,,,,,2015_Jul_06_1123,59.7196767341,LearningTask,1,77,
200,s,-200,,,,,,,,,,,,,,,,,2,0,2,0,11,1,45,2,,,,,,,,,,,,,,,,,,,,,,,,,,,,,s,1,0.367442131042,None,0,0.5,invertedtrianglecyan.gif,stop,,,,,,,,,,,,,,,,,,,,,,,,,0.43,0.514374017715,0.000874042510986,0.367442131042,1,s,1082.90606809,,,,,,,,,,,,,,,,,,,,,,,,,,,,,,,,,2015_Jul_06_1123,59.7196767341,LearningTask,1,77,
200,w,200,,,,,,,,,,,,,,,,,2,0,2,0,11,2,46,0,,,,,,,,,,,,,,,,,,,,,,,,,,,,,w,1,0.434503078461,w,1,0.5,invertedtrianglecyan.gif,stop,,,,,,,,0.641910076141,,,,,,,,,,,,,,,,,0.6,0.514164924622,0.000927925109863,0.434503078461,1,w,1085.90926409,,,,,,,,,,,,,,,,,,,,,,,,,,,,,,,,,2015_Jul_06_1123,59.7196767341,LearningTask,1,77,
200,w,200,,,,,,,,,,,,,,,,,2,0,2,0,11,3,47,0,,,,,,,,,,,,,,,,,,,,,,,,,,,,,w,1,0.484636068344,None,0,0.5,circleorange.gif,go,,,,,,,,,,,,,,,,,,,,,,,,,0.51,0.514019966125,0.000956058502197,0.484636068344,1,w,1088.91275692,,,,,,,,,,,,,,,,,,,,,,,,,,,,,,,,,2015_Jul_06_1123,59.7196767341,LearningTask,1,77,
-200,q,200,,,,,,,,,,,,,,,,,2,0,2,0,12,0,48,1,,,,,,,,,,,,,,,,,,,,,,,,,,,,,q,1,0.484322071075,q,1,4.0,triangleyellow.gif,go,,,,,,,,0.774746894836,,,,,,,,,,,,,,,,,3.94,0.514392137527,0.000879049301147,0.484322071075,1,q,1091.9158771,,,,,,,,,,,,,,,,,,,,,,,,,,,,,,,,,2015_Jul_06_1123,59.7196767341,LearningTask,1,77,
-200,a,-200,,,,,,,,,,,,,,,,,2,0,2,0,12,1,49,3,,,,,,,,,,,,,,,,,,,,,,,,,,,,,a,1,0.384490013123,None,0,1.0,hexagonwhite.gif,stop,,,,,,,,,,,,,,,,,,,,,,,,,0,0.514232873917,0.000892877578735,0.384490013123,1,a,1094.91957307,,,,,,,,,,,,,,,,,,,,,,,,,,,,,,,,,2015_Jul_06_1123,59.7196767341,LearningTask,1,77,
200,s,-200,,,,,,,,,,,,,,,,,2,0,2,0,12,2,50,2,,,,,,,,,,,,,,,,,,,,,,,,,,,,,s,1,0.417438030243,None,0,1.0,hexagonwhite.gif,stop,,,,,,,,,,,,,,,,,,,,,,,,,0.79,0.514103889465,0.00089693069458,0.417438030243,1,s,1097.92293596,,,,,,,,,,,,,,,,,,,,,,,,,,,,,,,,,2015_Jul_06_1123,59.7196767341,LearningTask,1,77,
-200,a,-200,,,,,,,,,,,,,,,,,2,0,2,0,12,3,51,3,,,,,,,,,,,,,,,,,,,,,,,,,,,,,a,1,0.4180560112,q,0,2.0,linegreen.gif,go,,,,,,,,0.291823148727,,,,,,,,,,,,,,,,,1.85,0.514183044434,0.00091814994812,0.4180560112,1,a,1100.9263761,,,,,,,,,,,,,,,,,,,,,,,,,,,,,,,,,2015_Jul_06_1123,59.7196767341,LearningTask,1,77,
200,w,200,,,,,,,,,,,,,,,,,2,0,2,0,13,0,52,0,,,,,,,,,,,,,,,,,,,,,,,,,,,,,w,1,0.43422293663,None,0,0.5,circleorange.gif,go,,,,,,,,,,,,,,,,,,,,,,,,,0.64,0.514135122299,0.000881195068359,0.43422293663,1,w,1103.9299891,,,,,,,,,,,,,,,,,,,,,,,,,,,,,,,,,2015_Jul_06_1123,59.7196767341,LearningTask,1,77,
-200,q,200,,,,,,,,,,,,,,,,,2,0,2,0,13,1,53,1,,,,,,,,,,,,,,,,,,,,,,,,,,,,,q,1,0.434016942978,w,0,0.5,circleorange.gif,go,,,,,,,,0.374201059341,,,,,,,,,,,,,,,,,0.49,0.513725042343,0.000895023345947,0.434016942978,1,q,1106.93316793,,,,,,,,,,,,,,,,,,,,,,,,,,,,,,,,,2015_Jul_06_1123,59.7196767341,LearningTask,1,77,
-200,q,200,,,,,,,,,,,,,,,,,2,0,2,0,13,2,54,1,,,,,,,,,,,,,,,,,,,,,,,,,,,,,q,1,0.501309156418,q,1,2.0,linegreen.gif,go,,,,,,,,0.891902923584,,,,,,,,,,,,,,,,,1.77,0.514189958572,0.000874996185303,0.501309156418,1,q,1109.93666196,,,,,,,,,,,,,,,,,,,,,,,,,,,,,,,,,2015_Jul_06_1123,59.7196767341,LearningTask,1,77,
200,s,-200,,,,,,,,,,,,,,,,,2,0,2,0,13,3,55,2,,,,,,,,,,,,,,,,,,,,,,,,,,,,,s,1,0.550626993179,None,0,2.0,squareblue.gif,stop,,,,,,,,,,,,,,,,,,,,,,,,,2.23,0.514273166656,0.000869035720825,0.550626993179,1,s,1112.93993092,,,,,,,,,,,,,,,,,,,,,,,,,,,,,,,,,2015_Jul_06_1123,59.7196767341,LearningTask,1,77,
200,s,-200,,,,,,,,,,,,,,,,,2,0,2,0,14,0,56,2,,,,,,,,,,,,,,,,,,,,,,,,,,,,,s,1,0.383801937103,q,0,1.0,hexagonwhite.gif,stop,,,,,,,,0.7249751091,,,,,,,,,,,,,,,,,0.98,0.514445781708,0.000886917114258,0.383801937103,1,s,1115.94300199,,,,,,,,,,,,,,,,,,,,,,,,,,,,,,,,,2015_Jul_06_1123,59.7196767341,LearningTask,1,77,
-200,q,200,,,,,,,,,,,,,,,,,2,0,2,0,14,1,57,1,,,,,,,,,,,,,,,,,,,,,,,,,,,,,q,1,0.334553956985,None,0,1.0,hexagonwhite.gif,stop,,,,,,,,,,,,,,,,,,,,,,,,,0.75,0.514472961426,0.000887155532837,0.334553956985,1,q,1118.94744587,,,,,,,,,,,,,,,,,,,,,,,,,,,,,,,,,2015_Jul_06_1123,59.7196767341,LearningTask,1,77,
200,w,200,,,,,,,,,,,,,,,,,2,0,2,0,14,2,58,0,,,,,,,,,,,,,,,,,,,,,,,,,,,,,w,1,0.317548036575,None,0,0.5,circleorange.gif,go,,,,,,,,,,,,,,,,,,,,,,,,,0.51,0.513150930405,0.00101804733276,0.317548036575,1,w,1121.94995594,,,,,,,,,,,,,,,,,,,,,,,,,,,,,,,,,2015_Jul_06_1123,59.7196767341,LearningTask,1,77,
-200,a,-200,,,,,,,,,,,,,,,,,2,0,2,0,14,3,59,3,,,,,,,,,,,,,,,,,,,,,,,,,,,,,a,1,0.400989055634,None,0,0.5,circleorange.gif,go,,,,,,,,,,,,,,,,,,,,,,,,,0.5,0.514456987381,0.000939130783081,0.400989055634,1,a,1124.95344305,,,,,,,,,,,,,,,,,,,,,,,,,,,,,,,,,2015_Jul_06_1123,59.7196767341,LearningTask,1,77,
200,s,-200,,,,,,,,,,,,,,,,,2,0,2,0,15,0,60,2,,,,,,,,,,,,,,,,,,,,,,,,,,,,,s,1,0.350703954697,None,0,1.0,diamondgray.gif,go,,,,,,,,,,,,,,,,,,,,,,,,,1.18,0.513864994049,0.000930786132812,0.350703954697,1,s,1127.95669198,,,,,,,,,,,,,,,,,,,,,,,,,,,,,,,,,2015_Jul_06_1123,59.7196767341,LearningTask,1,77,
-200,q,200,,,,,,,,,,,,,,,,,2,0,2,0,15,1,61,1,,,,,,,,,,,,,,,,,,,,,,,,,,,,,q,1,0.367492198944,None,0,2.0,linegreen.gif,go,,,,,,,,,,,,,,,,,,,,,,,,,2.25,0.514316082001,0.000881195068359,0.367492198944,1,q,1130.95987487,,,,,,,,,,,,,,,,,,,,,,,,,,,,,,,,,2015_Jul_06_1123,59.7196767341,LearningTask,1,77,
200,s,-200,,,,,,,,,,,,,,,,,2,0,2,0,15,2,62,2,,,,,,,,,,,,,,,,,,,,,,,,,,,,,s,1,0.400943040848,None,0,4.0,crossmagenta.gif,stop,,,,,,,,,,,,,,,,,,,,,,,,,4.18,0.514076948166,0.000916004180908,0.400943040848,1,s,1133.96336198,,,,,,,,,,,,,,,,,,,,,,,,,,,,,,,,,2015_Jul_06_1123,59.7196767341,LearningTask,1,77,
-200,a,-200,,,,,,,,,,,,,,,,,2,0,2,0,15,3,63,3,,,,,,,,,,,,,,,,,,,,,,,,,,,,,a,1,0.367707967758,None,0,2.0,linegreen.gif,go,,,,,,,,,,,,,,,,,,,,,,,,,2.13,0.513865947723,0.000897884368896,0.367707967758,1,a,1136.96674991,,,,,,,,,,,,,,,,,,,,,,,,,,,,,,,,,2015_Jul_06_1123,59.7196767341,LearningTask,1,77,
-200,q,200,,,,,,,,,,,,,,,,,2,0,2,0,16,0,64,1,,,,,,,,,,,,,,,,,,,,,,,,,,,,,q,1,0.400671958923,None,0,4.0,crossmagenta.gif,stop,,,,,,,,,,,,,,,,,,,,,,,,,4.18,0.514418125153,0.00088095664978,0.400671958923,1,q,1139.97027802,,,,,,,,,,,,,,,,,,,,,,,,,,,,,,,,,2015_Jul_06_1123,59.7196767341,LearningTask,1,77,
200,w,200,,,,,,,,,,,,,,,,,2,0,2,0,16,1,65,0,,,,,,,,,,,,,,,,,,,,,,,,,,,,,w,1,0.417950868607,None,0,4.0,crossmagenta.gif,stop,,,,,,,,,,,,,,,,,,,,,,,,,4.25,0.513979196548,0.000877141952515,0.417950868607,1,w,1142.9734261,,,,,,,,,,,,,,,,,,,,,,,,,,,,,,,,,2015_Jul_06_1123,59.7196767341,LearningTask,1,77,
-200,q,200,,,,,,,,,,,,,,,,,2,0,2,0,16,2,66,1,,,,,,,,,,,,,,,,,,,,,,,,,,,,,q,1,0.3843729496,None,0,1.0,hexagonwhite.gif,stop,,,,,,,,,,,,,,,,,,,,,,,,,0.94,0.513929128647,0.000899076461792,0.3843729496,1,q,1145.97690392,,,,,,,,,,,,,,,,,,,,,,,,,,,,,,,,,2015_Jul_06_1123,59.7196767341,LearningTask,1,77,
200,w,200,,,,,,,,,,,,,,,,,2,0,2,0,16,3,67,0,,,,,,,,,,,,,,,,,,,,,,,,,,,,,w,1,0.284502029419,q,0,1.0,hexagonwhite.gif,stop,,,,,,,,0.458247184753,,,,,,,,,,,,,,,,,1.23,0.514163970947,0.000885963439941,0.284502029419,1,w,1148.98067307,,,,,,,,,,,,,,,,,,,,,,,,,,,,,,,,,2015_Jul_06_1123,59.7196767341,LearningTask,1,77,
-200,a,-200,,,,,,,,,,,,,,,,,2,0,2,0,17,0,68,3,,,,,,,,,,,,,,,,,,,,,,,,,,,,,a,1,0.467749834061,None,0,4.0,crossmagenta.gif,stop,,,,,,,,,,,,,,,,,,,,,,,,,3.83,0.513906955719,0.000875949859619,0.467749834061,1,a,1151.984236,,,,,,,,,,,,,,,,,,,,,,,,,,,,,,,,,2015_Jul_06_1123,59.7196767341,LearningTask,1,77,
200,w,200,,,,,,,,,,,,,,,,,2,0,2,0,17,1,69,0,,,,,,,,,,,,,,,,,,,,,,,,,,,,,w,1,0.467791080475,None,0,1.0,diamondgray.gif,go,,,,,,,,,,,,,,,,,,,,,,,,,1.19,0.513873100281,0.000898122787476,0.467791080475,1,w,1154.98703909,,,,,,,,,,,,,,,,,,,,,,,,,,,,,,,,,2015_Jul_06_1123,59.7196767341,LearningTask,1,77,
-200,q,200,,,,,,,,,,,,,,,,,2,0,2,0,17,2,70,1,,,,,,,,,,,,,,,,,,,,,,,,,,,,,q,1,0.350728988647,None,0,0.5,circleorange.gif,go,,,,,,,,,,,,,,,,,,,,,,,,,0.38,0.51432800293,0.000914096832275,0.350728988647,1,q,1157.99054503,,,,,,,,,,,,,,,,,,,,,,,,,,,,,,,,,2015_Jul_06_1123,59.7196767341,LearningTask,1,77,
200,w,200,,,,,,,,,,,,,,,,,2,0,2,0,17,3,71,0,,,,,,,,,,,,,,,,,,,,,,,,,,,,,w,1,0.367697000504,None,0,2.0,squareblue.gif,stop,,,,,,,,,,,,,,,,,,,,,,,,,2.07,0.51424407959,0.000869989395142,0.367697000504,1,w,1160.9939239,,,,,,,,,,,,,,,,,,,,,,,,,,,,,,,,,2015_Jul_06_1123,59.7196767341,LearningTask,1,77,
200,w,200,,,,,,,,,,,,,,,,,2,0,2,0,18,0,72,0,,,,,,,,,,,,,,,,,,,,,,,,,,,,,w,1,0.400954961777,None,0,2.0,squareblue.gif,stop,,,,,,,,,,,,,,,,,,,,,,,,,1.75,0.514010906219,0.000901937484741,0.400954961777,1,w,1163.99773288,,,,,,,,,,,,,,,,,,,,,,,,,,,,,,,,,2015_Jul_06_1123,59.7196767341,LearningTask,1,77,
-200,q,200,,,,,,,,,,,,,,,,,2,0,2,0,18,1,73,1,,,,,,,,,,,,,,,,,,,,,,,,,,,,,q,1,0.500868082047,None,0,1.0,hexagonwhite.gif,stop,,,,,,,,,,,,,,,,,,,,,,,,,0.96,0.513504981995,0.000936985015869,0.500868082047,1,q,1167.0009141,,,,,,,,,,,,,,,,,,,,,,,,,,,,,,,,,2015_Jul_06_1123,59.7196767341,LearningTask,1,77,
-200,q,200,,,,,,,,,,,,,,,,,2,0,2,0,18,2,74,1,,,,,,,,,,,,,,,,,,,,,,,,,,,,,q,1,0.484611988068,None,0,0.5,circleorange.gif,go,,,,,,,,,,,,,,,,,,,,,,,,,0,0.513946056366,0.000900030136108,0.484611988068,1,q,1170.00399303,,,,,,,,,,,,,,,,,,,,,,,,,,,,,,,,,2015_Jul_06_1123,59.7196767341,LearningTask,1,77,
-200,q,200,,,,,,,,,,,,,,,,,2,0,2,0,18,3,75,1,,,,,,,,,,,,,,,,,,,,,,,,,,,,,q,1,0.43465089798,None,0,1.0,hexagonwhite.gif,stop,,,,,,,,,,,,,,,,,,,,,,,,,0,0.514317035675,0.000910043716431,0.43465089798,1,q,1173.007267,,,,,,,,,,,,,,,,,,,,,,,,,,,,,,,,,2015_Jul_06_1123,59.7196767341,LearningTask,1,77,
200,s,-200,,,,,,,,,,,,,,,,,2,0,2,0,19,0,76,2,,,,,,,,,,,,,,,,,,,,,,,,,,,,,s,1,0.484647035599,None,0,2.0,squareblue.gif,stop,,,,,,,,,,,,,,,,,,,,,,,,,0,0.513998031616,0.00107908248901,0.484647035599,1,s,1176.01076007,,,,,,,,,,,,,,,,,,,,,,,,,,,,,,,,,2015_Jul_06_1123,59.7196767341,LearningTask,1,77,
-200,a,-200,,,,,,,,,,,,,,,,,2,0,2,0,19,1,77,3,,,,,,,,,,,,,,,,,,,,,,,,,,,,,a,1,0.417166948318,None,0,1.0,diamondgray.gif,go,,,,,,,,,,,,,,,,,,,,,,,,,0.91,0.514206171036,0.000880002975464,0.417166948318,1,a,1179.01440501,,,,,,,,,,,,,,,,,,,,,,,,,,,,,,,,,2015_Jul_06_1123,59.7196767341,LearningTask,1,77,
-200,q,200,,,,,,,,,,,,,,,,,2,0,2,0,19,2,78,1,,,,,,,,,,,,,,,,,,,,,,,,,,,,,q,1,0.484622001648,None,0,0.5,circleorange.gif,go,,,,,,,,,,,,,,,,,,,,,,,,,0.69,0.513602972031,0.000904083251953,0.484622001648,1,q,1182.01771998,,,,,,,,,,,,,,,,,,,,,,,,,,,,,,,,,2015_Jul_06_1123,59.7196767341,LearningTask,1,77,
200,w,200,,,,,,,,,,,,,,,,,2,0,2,0,19,3,79,0,,,,,,,,,,,,,,,,,,,,,,,,,,,,,w,1,0.350198030472,q,0,2.0,linegreen.gif,go,,,,,,,,0.358965158463,,,,,,,,,,,,,,,,,1.79,0.513967990875,0.000913858413696,0.350198030472,1,w,1185.02083087,,,,,,,,,,,,,,,,,,,,,,,,,,,,,,,,,2015_Jul_06_1123,59.7196767341,LearningTask,1,77,
-200,a,-200,,,,,,,,,,,,,,,,,2,0,2,0,20,0,80,3,,,,,,,,,,,,,,,,,,,,,,,,,,,,,a,1,0.417789936066,None,0,1.0,hexagonwhite.gif,stop,,,,,,,,,,,,,,,,,,,,,,,,,1.03,0.51424908638,0.000882148742676,0.417789936066,1,a,1188.02417803,,,,,,,,,,,,,,,,,,,,,,,,,,,,,,,,,2015_Jul_06_1123,59.7196767341,LearningTask,1,77,
200,s,-200,,,,,,,,,,,,,,,,,2,0,2,0,20,1,81,2,,,,,,,,,,,,,,,,,,,,,,,,,,,,,s,1,0.468122959137,None,0,4.0,triangleyellow.gif,go,,,,,,,,,,,,,,,,,,,,,,,,,4.21,0.514320850372,0.000903844833374,0.468122959137,1,s,1191.02814603,,,,,,,,,,,,,,,,,,,,,,,,,,,,,,,,,2015_Jul_06_1123,59.7196767341,LearningTask,1,77,
-200,a,-200,,,,,,,,,,,,,,,,,2,0,2,0,20,2,82,3,,,,,,,,,,,,,,,,,,,,,,,,,,,,,a,1,0.384016990662,None,0,1.0,diamondgray.gif,go,,,,,,,,,,,,,,,,,,,,,,,,,1.07,0.513727903366,0.00088095664978,0.384016990662,1,a,1194.03105998,,,,,,,,,,,,,,,,,,,,,,,,,,,,,,,,,2015_Jul_06_1123,59.7196767341,LearningTask,1,77,
-200,a,-200,,,,,,,,,,,,,,,,,2,0,2,0,20,3,83,3,,,,,,,,,,,,,,,,,,,,,,,,,,,,,a,1,0.384241104126,None,0,4.0,crossmagenta.gif,stop,,,,,,,,,,,,,,,,,,,,,,,,,4.0,0.514516830444,0.000878810882568,0.384241104126,1,a,1197.03448391,,,,,,,,,,,,,,,,,,,,,,,,,,,,,,,,,2015_Jul_06_1123,59.7196767341,LearningTask,1,77,
200,w,200,,,,,,,,,,,,,,,,,2,0,2,0,21,0,84,0,,,,,,,,,,,,,,,,,,,,,,,,,,,,,w,1,0.367327213287,None,0,1.0,hexagonwhite.gif,stop,,,,,,,,,,,,,,,,,,,,,,,,,0,0.514286994934,0.000887155532837,0.367327213287,1,w,1200.03793907,,,,,,,,,,,,,,,,,,,,,,,,,,,,,,,,,2015_Jul_06_1123,59.7196767341,LearningTask,1,77,
200,w,200,,,,,,,,,,,,,,,,,2,0,2,0,21,1,85,0,,,,,,,,,,,,,,,,,,,,,,,,,,,,,w,1,0.317496776581,None,0,2.0,squareblue.gif,stop,,,,,,,,,,,,,,,,,,,,,,,,,2.01,0.514037847519,0.000870943069458,0.317496776581,1,w,1203.04099202,,,,,,,,,,,,,,,,,,,,,,,,,,,,,,,,,2015_Jul_06_1123,59.7196767341,LearningTask,1,77,
-200,a,-200,,,,,,,,,,,,,,,,,2,0,2,0,21,2,86,3,,,,,,,,,,,,,,,,,,,,,,,,,,,,,a,1,0.417751073837,None,0,2.0,squareblue.gif,stop,,,,,,,,,,,,,,,,,,,,,,,,,1.82,0.514326095581,0.000869035720825,0.417751073837,1,a,1206.04457092,,,,,,,,,,,,,,,,,,,,,,,,,,,,,,,,,2015_Jul_06_1123,59.7196767341,LearningTask,1,77,
-200,q,200,,,,,,,,,,,,,,,,,2,0,2,0,21,3,87,1,,,,,,,,,,,,,,,,,,,,,,,,,,,,,q,1,0.500946044922,None,0,0.5,circleorange.gif,go,,,,,,,,,,,,,,,,,,,,,,,,,0.46,0.51407790184,0.000881910324097,0.500946044922,1,q,1209.04803991,,,,,,,,,,,,,,,,,,,,,,,,,,,,,,,,,2015_Jul_06_1123,59.7196767341,LearningTask,1,77,
-200,q,200,,,,,,,,,,,,,,,,,2,0,2,0,22,0,88,1,,,,,,,,,,,,,,,,,,,,,,,,,,,,,q,1,0.300503969193,q,1,4.0,crossmagenta.gif,stop,,,,,,,,0.941221952438,,,,,,,,,,,,,,,,,3.95,0.514646053314,0.000936985015869,0.300503969193,1,q,1212.05139804,,,,,,,,,,,,,,,,,,,,,,,,,,,,,,,,,2015_Jul_06_1123,59.7196767341,LearningTask,1,77,
-200,a,-200,,,,,,,,,,,,,,,,,2,0,2,0,22,1,89,3,,,,,,,,,,,,,,,,,,,,,,,,,,,,,a,1,0.451051235199,None,0,0.5,invertedtrianglecyan.gif,stop,,,,,,,,,,,,,,,,,,,,,,,,,0.59,0.514029979706,0.000944137573242,0.451051235199,1,a,1215.05443001,,,,,,,,,,,,,,,,,,,,,,,,,,,,,,,,,2015_Jul_06_1123,59.7196767341,LearningTask,1,77,
200,s,-200,,,,,,,,,,,,,,,,,2,0,2,0,22,2,90,2,,,,,,,,,,,,,,,,,,,,,,,,,,,,,s,1,0.400661945343,None,0,4.0,crossmagenta.gif,stop,,,,,,,,,,,,,,,,,,,,,,,,,0,0.514600992203,0.000886917114258,0.400661945343,1,s,1218.05795002,,,,,,,,,,,,,,,,,,,,,,,,,,,,,,,,,2015_Jul_06_1123,59.7196767341,LearningTask,1,77,
-200,q,200,,,,,,,,,,,,,,,,,2,0,2,0,22,3,91,1,,,,,,,,,,,,,,,,,,,,,,,,,,,,,q,1,0.367501974106,w,0,4.0,triangleyellow.gif,go,,,,,,,,0.775286912918,,,,,,,,,,,,,,,,,4.13,0.514161109924,0.00092601776123,0.367501974106,1,q,1221.06108499,,,,,,,,,,,,,,,,,,,,,,,,,,,,,,,,,2015_Jul_06_1123,59.7196767341,LearningTask,1,77,
-200,q,200,,,,,,,,,,,,,,,,,2,0,2,0,23,0,92,1,,,,,,,,,,,,,,,,,,,,,,,,,,,,,q,1,0.501262903214,w,0,0.5,invertedtrianglecyan.gif,stop,,,,,,,,0.258901834488,,,,,,,,,,,,,,,,,0,0.51417016983,0.000946998596191,0.501262903214,1,q,1224.06466889,,,,,,,,,,,,,,,,,,,,,,,,,,,,,,,,,2015_Jul_06_1123,59.7196767341,LearningTask,1,77,
200,w,200,,,,,,,,,,,,,,,,,2,0,2,0,23,1,93,0,,,,,,,,,,,,,,,,,,,,,,,,,,,,,w,1,0.434376955032,q,0,0.5,circleorange.gif,go,,,,,,,,0.741254091263,,,,,,,,,,,,,,,,,0.46,0.514474153519,0.000926971435547,0.434376955032,1,w,1227.06808496,,,,,,,,,,,,,,,,,,,,,,,,,,,,,,,,,2015_Jul_06_1123,59.7196767341,LearningTask,1,77,
200,s,-200,,,,,,,,,,,,,,,,,2,0,2,0,23,2,94,2,,,,,,,,,,,,,,,,,,,,,,,,,,,,,s,1,0.501123905182,None,0,1.0,hexagonwhite.gif,stop,,,,,,,,,,,,,,,,,,,,,,,,,1.15,0.514440059662,0.000882863998413,0.501123905182,1,s,1230.07149005,,,,,,,,,,,,,,,,,,,,,,,,,,,,,,,,,2015_Jul_06_1123,59.7196767341,LearningTask,1,77,
200,w,200,,,,,,,,,,,,,,,,,2,0,2,0,23,3,95,0,,,,,,,,,,,,,,,,,,,,,,,,,,,,,w,1,0.400923013687,None,0,1.0,hexagonwhite.gif,stop,,,,,,,,,,,,,,,,,,,,,,,,,0,0.513733148575,0.000929117202759,0.400923013687,1,w,1233.07486296,,,,,,,,,,,,,,,,,,,,,,,,,,,,,,,,,2015_Jul_06_1123,59.7196767341,LearningTask,1,77,
200,s,-200,,,,,,,,,,,,,,,,,2,0,2,0,24,0,96,2,,,,,,,,,,,,,,,,,,,,,,,,,,,,,s,1,0.41787481308,None,0,0.5,invertedtrianglecyan.gif,stop,,,,,,,,,,,,,,,,,,,,,,,,,0.56,0.514209985733,0.000900030136108,0.41787481308,1,s,1236.0782249,,,,,,,,,,,,,,,,,,,,,,,,,,,,,,,,,2015_Jul_06_1123,59.7196767341,LearningTask,1,77,
-200,a,-200,,,,,,,,,,,,,,,,,2,0,2,0,24,1,97,3,,,,,,,,,,,,,,,,,,,,,,,,,,,,,a,1,0.584326028824,None,0,1.0,hexagonwhite.gif,stop,,,,,,,,,,,,,,,,,,,,,,,,,1.19,0.514116048813,0.000944137573242,0.584326028824,1,a,1239.082057,,,,,,,,,,,,,,,,,,,,,,,,,,,,,,,,,2015_Jul_06_1123,59.7196767341,LearningTask,1,77,
-200,a,-200,,,,,,,,,,,,,,,,,2,0,2,0,24,2,98,3,,,,,,,,,,,,,,,,,,,,,,,,,,,,,a,1,0.567718982697,None,0,2.0,linegreen.gif,go,,,,,,,,,,,,,,,,,,,,,,,,,0,0.513695001602,0.000883102416992,0.567718982697,1,a,1242.08509088,,,,,,,,,,,,,,,,,,,,,,,,,,,,,,,,,2015_Jul_06_1123,59.7196767341,LearningTask,1,77,
200,s,-200,,,,,,,,,,,,,,,,,2,0,2,0,24,3,99,2,,,,,,,,,,,,,,,,,,,,,,,,,,,,,s,1,0.500704050064,None,0,0.5,invertedtrianglecyan.gif,stop,,,,,,,,,,,,,,,,,,,,,,,,,0,0.514372825623,0.000924825668335,0.500704050064,1,s,1245.08850288,,,,,,,,,,,,,,,,,,,,,,,,,,,,,,,,,2015_Jul_06_1123,59.7196767341,LearningTask,1,77,
