xPos,corrAns,yPos,corrGoResp,yPosGoStim,xPosGoStim,pracTrials.thisRepN,pracTrials.thisTrialN,pracTrials.thisN,pracTrials.thisIndex,ReDoLoopPrac.thisRepN,ReDoLoopPrac.thisTrialN,ReDoLoopPrac.thisN,ReDoLoopPrac.thisIndex,ReDoLoopPrac.thisTrial,pracStopTrials.thisRepN,pracStopTrials.thisTrialN,pracStopTrials.thisN,pracStopTrials.thisIndex,Blocks.thisRepN,Blocks.thisTrialN,Blocks.thisN,Blocks.thisIndex,trials.thisRepN,trials.thisTrialN,trials.thisN,trials.thisIndex,ReDoLoopMain.thisRepN,ReDoLoopMain.thisTrialN,ReDoLoopMain.thisN,ReDoLoopMain.thisIndex,ReDoLoopMain.thisTrial,StopBlocks.thisRepN,StopBlocks.thisTrialN,StopBlocks.thisN,StopBlocks.thisIndex,StopTrials.thisRepN,StopTrials.thisTrialN,StopTrials.thisN,StopTrials.thisIndex,auctionBlocks.thisRepN,auctionBlocks.thisTrialN,auctionBlocks.thisN,auctionBlocks.thisIndex,auctionTrials.thisRepN,auctionTrials.thisTrialN,auctionTrials.thisN,auctionTrials.thisIndex,learningTrialList,learningPracTrialList,stopTrialList,stopPracTrialList,auctionTrialList,ok1.keys,ok1.rt,resp.keys,resp.corr,resp.rt,feedbackResp.keys,feedbackResp.corr,currentReward,currentStimulus,currentStimType,firstPracComputedRewardOutput,firstPracLearningStimOnset,firstPracLearningFixOnset,firstPracPresentationRT,firstPracPresentationAcc,firstPracPresentationResp,firstPracEndTrialTimeStamp,StartTrialTimeStamp,trialType,goStim,stimType,stopStimValue,goResp.keys,goResp.corr,goResp.rt,key_resp_9.keys,key_resp_9.corr,fixStopOnset,goStimOnset,EndTrialTimeStamp,stopSignalOnset,key_resp_3.keys,key_resp_3.rt,firstComputedRewardOutput,firstLearningStimOnset,firstLearningFixOnset,firstPresentationRT,firstPresentationAcc,firstPresentationResp,firstEndTrialTimeStamp,secondComputedRewardOutput,secondLearningStimOnset,secondLearningFixOnset,secondPresentationRT,secondPresentationAcc,secondPresentationResp,secondEndTrialTimeStamp,key_resp_7.keys,key_resp_7.rt,beginningSSD,EndingSSD,key_resp_4.keys,key_resp_4.rt,auctionResponse.keys,auctionStimDuration,auctionStim,auctionAmounts,auctionStimValue,auctionCondition,chosenAuctionAmount,auctionResponse.rt,key_resp_5.keys,key_resp_5.rt,shuffledRewardList,chosenReward1,chosenReward2,chosenReward3,chosenReward4,chosenReward5,key_resp_6.keys,key_resp_6.rt,date,frameRate,expName,session,participant,
,,,,,,,,,,,,,,,,,,,,,,,,,,,,,,,,,,,,,,,,,,,,,,,,[],[],[],[],[],9,63.6764640808,,,,,,,,,,,,,,,,,,,,,,,,,,,,,,,,,,,,,,,,,,,,,,,,,,,,,,,,,,,,,,,,,,,,,,2015_Jul_06_1256,59.9004017349,LearningTask,1,79,
-200,a,-200,,,,0,0,0,3,,,,,,,,,,,,,,,,,,,,,,,,,,,,,,,,,,,,,,,,,,,,,,a,1,0.635009050369,None,0,1.0,squarecyan.gif,go,0,0.50804901123,0.0156421661377,0.635009050369,1,a,76.7444519997,,,,,,,,,,,,,,,,,,,,,,,,,,,,,,,,,,,,,,,,,,,,,,,,,,,,,,,2015_Jul_06_1256,59.9004017349,LearningTask,1,79,
-200,q,200,,,,0,1,1,1,,,,,,,,,,,,,,,,,,,,,,,,,,,,,,,,,,,,,,,,,,,,,,q,1,0.401041984558,None,0,2.0,invertedtriangleorange.gif,go,1.91,0.514476060867,0.00138306617737,0.401041984558,1,q,79.7471699715,,,,,,,,,,,,,,,,,,,,,,,,,,,,,,,,,,,,,,,,,,,,,,,,,,,,,,,2015_Jul_06_1256,59.9004017349,LearningTask,1,79,
-200,q,200,,,,0,2,2,5,,,,,,,,,,,,,,,,,,,,,,,,,,,,,,,,,,,,,,,,,,,,,,q,1,0.400820016861,None,0,0.5,trianglegreen.gif,go,0.51,0.515455007553,0.0368490219116,0.400820016861,1,q,82.7507648468,,,,,,,,,,,,,,,,,,,,,,,,,,,,,,,,,,,,,,,,,,,,,,,,,,,,,,,2015_Jul_06_1256,59.9004017349,LearningTask,1,79,
200,s,-200,,,,0,3,3,2,,,,,,,,,,,,,,,,,,,,,,,,,,,,,,,,,,,,,,,,,,,,,,s,1,0.400903940201,None,0,0.5,trianglegreen.gif,go,0.66,0.514840126038,0.00105810165405,0.400903940201,1,s,85.7540359497,,,,,,,,,,,,,,,,,,,,,,,,,,,,,,,,,,,,,,,,,,,,,,,,,,,,,,,2015_Jul_06_1256,59.9004017349,LearningTask,1,79,
-200,q,200,,,,0,4,4,9,,,,,,,,,,,,,,,,,,,,,,,,,,,,,,,,,,,,,,,,,,,,,,q,1,0.417580127716,None,0,4.0,crosswhite.gif,go,3.82,0.514964818954,0.00169897079468,0.417580127716,1,q,88.7572648525,,,,,,,,,,,,,,,,,,,,,,,,,,,,,,,,,,,,,,,,,,,,,,,,,,,,,,,2015_Jul_06_1256,59.9004017349,LearningTask,1,79,
200,w,200,,,,0,5,5,0,,,,,,,,,,,,,,,,,,,,,,,,,,,,,,,,,,,,,,,,,,,,,,w,1,0.30122590065,None,0,0.5,circlegray.gif,stop,0.64,0.515127897263,0.035717010498,0.30122590065,1,w,91.7605438232,,,,,,,,,,,,,,,,,,,,,,,,,,,,,,,,,,,,,,,,,,,,,,,,,,,,,,,2015_Jul_06_1256,59.9004017349,LearningTask,1,79,
200,s,-200,,,,0,6,6,6,,,,,,,,,,,,,,,,,,,,,,,,,,,,,,,,,,,,,,,,,,,,,,s,1,0.334376811981,None,0,1.0,hexagonmagenta.gif,stop,1.21,0.51508307457,0.000937938690186,0.334376811981,1,s,94.7640049458,,,,,,,,,,,,,,,,,,,,,,,,,,,,,,,,,,,,,,,,,,,,,,,,,,,,,,,2015_Jul_06_1256,59.9004017349,LearningTask,1,79,
-200,a,-200,,,,0,7,7,7,,,,,,,,,,,,,,,,,,,,,,,,,,,,,,,,,,,,,,,,,,,,,,a,1,0.384059906006,None,0,4.0,diamondblue.gif,stop,4.2,0.515211105347,0.0354189872742,0.384059906006,1,a,97.7674539089,,,,,,,,,,,,,,,,,,,,,,,,,,,,,,,,,,,,,,,,,,,,,,,,,,,,,,,2015_Jul_06_1256,59.9004017349,LearningTask,1,79,
200,w,200,,,,0,8,8,8,,,,,,,,,,,,,,,,,,,,,,,,,,,,,,,,,,,,,,,,,,,,,,w,1,0.334076881409,None,0,2.0,invertedtriangleorange.gif,go,1.98,0.515204191208,0.000938177108765,0.334076881409,1,w,100.770994902,,,,,,,,,,,,,,,,,,,,,,,,,,,,,,,,,,,,,,,,,,,,,,,,,,,,,,,2015_Jul_06_1256,59.9004017349,LearningTask,1,79,
200,w,200,,,,0,9,9,4,,,,,,,,,,,,,,,,,,,,,,,,,,,,,,,,,,,,,,,,,,,,,,w,1,0.434761047363,None,0,2.0,lineyellow.gif,stop,1.99,0.514888048172,0.0362141132355,0.434761047363,1,w,103.773972988,,,,,,,,,,,,,,,,,,,,,,,,,,,,,,,,,,,,,,,,,,,,,,,,,,,,,,,2015_Jul_06_1256,59.9004017349,LearningTask,1,79,
,,,z,0,-200,,,,,,,,,,0,0,0,0,,,,,,,,,,,,,,,,,,,,,,,,,,,,,,,,,,,,,,,,,,,,,,,,,,,,136.849189997,go,invertedtriangleorange.gif,go,2.0,z,1,0.400887012482,None,0,0.00132203102112,0.510844945908,139.847417831,,,,,,,,,,,,,,,,,,,,,,,,,,,,,,,,,,,,,,,,,,2015_Jul_06_1256,59.9004017349,LearningTask,1,79,
,,,m,0,200,,,,,,,,,,0,1,1,1,,,,,,,,,,,,,,,,,,,,,,,,,,,,,,,,,,,,,,,,,,,,,,,,,,,,139.847835779,stop,lineyellow.gif,stop,2.0,m,1,0.334192991257,None,0,0.000957012176514,0.515912055969,142.850907803,0.766113996506,,,,,,,,,,,,,,,,,,,,,,,,,,,,,,,,,,,,,,,,,2015_Jul_06_1256,59.9004017349,LearningTask,1,79,
,,,z,0,-200,,,,,,,,,,1,0,2,0,,,,,,,,,,,,,,,,,,,,,,,,,,,,,,,,,,,,,,,,,,,,,,,,,,,,142.851397991,go,squarecyan.gif,go,1.0,z,1,0.317851066589,None,0,0.000976800918579,0.515522003174,145.854204893,,,,,,,,,,,,,,,,,,,,,,,,,,,,,,,,,,,,,,,,,,2015_Jul_06_1256,59.9004017349,LearningTask,1,79,
,,,m,0,200,,,,,,,,,,1,1,3,1,,,,,,,,,,,,,,,,,,,,,,,,,,,,,,,,,,,,,,,,,,,,,,,,,,,,145.854565859,go,squarecyan.gif,go,1.0,m,1,0.417688846588,None,0,0.00120806694031,0.515650033951,148.857598782,,,,,,,,,,,,,,,,,,,,,,,,,,,,,,,,,,,,,,,,,,2015_Jul_06_1256,59.9004017349,LearningTask,1,79,
,,,z,0,-200,,,,,,,,,,2,0,4,0,,,,,,,,,,,,,,,,,,,,,,,,,,,,,,,,,,,,,,,,,,,,,,,,,,,,148.857960939,go,squarecyan.gif,go,1.0,z,1,0.416861057281,None,0,0.00106310844421,0.516002178192,151.861096859,,,,,,,,,,,,,,,,,,,,,,,,,,,,,,,,,,,,,,,,,,2015_Jul_06_1256,59.9004017349,LearningTask,1,79,
,,,z,0,-200,,,,,,,,,,2,1,5,0,,,,,,,,,,,,,,,,,,,,,,,,,,,,,,,,,,,,,,,,,,,,,,,,,,,,151.861512899,stop,diamondblue.gif,stop,4.0,None,0,,None,0,0.000972986221313,0.515607118607,154.864240885,0.765752077103,,,,,,,,,,,,,,,,,,,,,,,,,,,,,,,,,,,,,,,,,2015_Jul_06_1256,59.9004017349,LearningTask,1,79,
,,,m,0,200,,,,,,,,,,3,0,6,1,,,,,,,,,,,,,,,,,,,,,,,,,,,,,,,,,,,,,,,,,,,,,,,,,,,,154.864602804,go,crosswhite.gif,go,4.0,m,1,0.400965929031,None,0,0.000954866409302,0.51593708992,157.867498875,,,,,,,,,,,,,,,,,,,,,,,,,,,,,,,,,,,,,,,,,,2015_Jul_06_1256,59.9004017349,LearningTask,1,79,
,,,m,0,200,,,,,,,,,,3,1,7,1,,,,,,,,,,,,,,,,,,,,,,,,,,,,,,,,,,,,,,,,,,,,,,,,,,,,157.867857933,go,trianglegreen.gif,go,0.5,m,1,0.45118188858,None,0,0.00104904174805,0.515712976456,160.870720863,,,,,,,,,,,,,,,,,,,,,,,,,,,,,,,,,,,,,,,,,,2015_Jul_06_1256,59.9004017349,LearningTask,1,79,
,,,z,0,-200,,,,,,,,,,4,0,8,0,,,,,,,,,,,,,,,,,,,,,,,,,,,,,,,,,,,,,,,,,,,,,,,,,,,,160.871145964,go,squarecyan.gif,go,1.0,z,1,0.601633071899,None,0,0.000992059707642,0.515990018845,163.874326944,,,,,,,,,,,,,,,,,,,,,,,,,,,,,,,,,,,,,,,,,,2015_Jul_06_1256,59.9004017349,LearningTask,1,79,
,,,m,0,200,,,,,,,,,,4,1,9,1,,,,,,,,,,,,,,,,,,,,,,,,,,,,,,,,,,,,,,,,,,,,,,,,,,,,163.87468791,go,crosswhite.gif,go,4.0,m,1,0.417679071426,None,0,0.000971078872681,0.515949964523,166.87771678,,,,,,,,,,,,,,,,,,,,,,,,,,,,,,,,,,,,,,,,,,2015_Jul_06_1256,59.9004017349,LearningTask,1,79,
,,,,,,,,,,,,,,,,,,,,,,,,,,,,,,,,,,,,,,,,,,,,,,,,,,,,,,,,,,,,,,,,,,,,,,,,,,,,,,,,,,,,9,37.0523080826,,,,,,,,,,,,,,,,,,,,,,,,,,,,,,,,,,,,,,,2015_Jul_06_1256,59.9004017349,LearningTask,1,79,
,,,,,,,,,,,,,,,,,,,,,,,,,,,,,,,,,,,,,,,,,,,,,,,,,,,,,9,3.08630299568,,,,,,,,,,,,,,,,,,,,,,,,,,,,,,,,,,,,,,,,,,,,,,,,,,,,,,,,,,,,,,,,,,,,,,2015_Jul_06_1256,59.9004017349,LearningTask,1,79,
200,s,-200,,,,,,,,,,,,,,,,,0,0,0,0,0,0,0,2,,,,,,,,,,,,,,,,,,,,,,,,,,,,,s,1,0.450604915619,None,0,4.0,crosswhite.gif,go,,,,,,,,,,,,,,,,,,,,,,,,3.84,0.509700059891,0.000916004180908,0.450604915619,1,s,210.160518885,,,,,,,,,,,,,,,,,,,,,,,,,,,,,,,,2015_Jul_06_1256,59.9004017349,LearningTask,1,79,
-200,a,-200,,,,,,,,,,,,,,,,,0,0,0,0,0,1,1,3,,,,,,,,,,,,,,,,,,,,,,,,,,,,,a,1,0.384249925613,None,0,0.5,circlegray.gif,stop,,,,,,,,,,,,,,,,,,,,,,,,0.49,0.513847112656,0.000904083251953,0.384249925613,1,a,213.163512945,,,,,,,,,,,,,,,,,,,,,,,,,,,,,,,,2015_Jul_06_1256,59.9004017349,LearningTask,1,79,
200,w,200,,,,,,,,,,,,,,,,,0,0,0,0,0,2,2,0,,,,,,,,,,,,,,,,,,,,,,,,,,,,,w,1,0.351164102554,None,0,1.0,squarecyan.gif,go,,,,,,,,,,,,,,,,,,,,,,,,1.0,0.514246940613,0.000881910324097,0.351164102554,1,w,216.16702795,,,,,,,,,,,,,,,,,,,,,,,,,,,,,,,,2015_Jul_06_1256,59.9004017349,LearningTask,1,79,
200,s,-200,,,,,,,,,,,,,,,,,0,0,0,0,0,3,3,2,,,,,,,,,,,,,,,,,,,,,,,,,,,,,s,1,0.351163864136,None,0,0.5,circlegray.gif,stop,,,,,,,,,,,,,,,,,,,,,,,,0,0.514199018478,0.000961065292358,0.351163864136,1,s,219.170382977,,,,,,,,,,,,,,,,,,,,,,,,,,,,,,,,2015_Jul_06_1256,59.9004017349,LearningTask,1,79,
200,w,200,,,,,,,,,,,,,,,,,0,0,0,0,1,0,4,0,,,,,,,,,,,,,,,,,,,,,,,,,,,,,w,1,0.384135961533,None,0,0.5,trianglegreen.gif,go,,,,,,,,,,,,,,,,,,,,,,,,0.68,0.51381111145,0.000898122787476,0.384135961533,1,w,222.173584938,,,,,,,,,,,,,,,,,,,,,,,,,,,,,,,,2015_Jul_06_1256,59.9004017349,LearningTask,1,79,
-200,q,200,,,,,,,,,,,,,,,,,0,0,0,0,1,1,5,1,,,,,,,,,,,,,,,,,,,,,,,,,,,,,q,1,0.284343957901,None,0,1.0,squarecyan.gif,go,,,,,,,,,,,,,,,,,,,,,,,,1.25,0.514351129532,0.000894069671631,0.284343957901,1,q,225.176959991,,,,,,,,,,,,,,,,,,,,,,,,,,,,,,,,2015_Jul_06_1256,59.9004017349,LearningTask,1,79,
200,w,200,,,,,,,,,,,,,,,,,0,0,0,0,1,2,6,0,,,,,,,,,,,,,,,,,,,,,,,,,,,,,w,1,0.317126989365,None,0,4.0,diamondblue.gif,stop,,,,,,,,,,,,,,,,,,,,,,,,3.98,0.514733076096,0.000895023345947,0.317126989365,1,w,228.18035984,,,,,,,,,,,,,,,,,,,,,,,,,,,,,,,,2015_Jul_06_1256,59.9004017349,LearningTask,1,79,
-200,a,-200,,,,,,,,,,,,,,,,,0,0,0,0,1,3,7,3,,,,,,,,,,,,,,,,,,,,,,,,,,,,,a,1,0.367486953735,None,0,0.5,trianglegreen.gif,go,,,,,,,,,,,,,,,,,,,,,,,,0,0.514358997345,0.000897884368896,0.367486953735,1,a,231.183512926,,,,,,,,,,,,,,,,,,,,,,,,,,,,,,,,2015_Jul_06_1256,59.9004017349,LearningTask,1,79,
200,s,-200,,,,,,,,,,,,,,,,,0,0,0,0,2,0,8,2,,,,,,,,,,,,,,,,,,,,,,,,,,,,,s,1,0.367340803146,None,0,0.5,trianglegreen.gif,go,,,,,,,,,,,,,,,,,,,,,,,,0.34,0.51455783844,0.000906944274902,0.367340803146,1,s,234.186675787,,,,,,,,,,,,,,,,,,,,,,,,,,,,,,,,2015_Jul_06_1256,59.9004017349,LearningTask,1,79,
-200,q,200,,,,,,,,,,,,,,,,,0,0,0,0,2,1,9,1,,,,,,,,,,,,,,,,,,,,,,,,,,,,,q,1,0.333899974823,None,0,0.5,circlegray.gif,stop,,,,,,,,,,,,,,,,,,,,,,,,0.34,0.51463508606,0.000921010971069,0.333899974823,1,q,237.190486908,,,,,,,,,,,,,,,,,,,,,,,,,,,,,,,,2015_Jul_06_1256,59.9004017349,LearningTask,1,79,
200,w,200,,,,,,,,,,,,,,,,,0,0,0,0,2,2,10,0,,,,,,,,,,,,,,,,,,,,,,,,,,,,,w,1,0.400900125504,None,0,2.0,lineyellow.gif,stop,,,,,,,,,,,,,,,,,,,,,,,,1.98,0.514549970627,0.000891923904419,0.400900125504,1,w,240.194102764,,,,,,,,,,,,,,,,,,,,,,,,,,,,,,,,2015_Jul_06_1256,59.9004017349,LearningTask,1,79,
200,w,200,,,,,,,,,,,,,,,,,0,0,0,0,2,3,11,0,,,,,,,,,,,,,,,,,,,,,,,,,,,,,w,1,0.367649078369,None,0,2.0,invertedtriangleorange.gif,go,,,,,,,,,,,,,,,,,,,,,,,,1.78,0.513983011246,0.000971078872681,0.367649078369,1,w,243.197336912,,,,,,,,,,,,,,,,,,,,,,,,,,,,,,,,2015_Jul_06_1256,59.9004017349,LearningTask,1,79,
200,s,-200,,,,,,,,,,,,,,,,,0,0,0,0,3,0,12,2,,,,,,,,,,,,,,,,,,,,,,,,,,,,,s,1,0.367457866669,None,0,1.0,hexagonmagenta.gif,stop,,,,,,,,,,,,,,,,,,,,,,,,0.98,0.514008998871,0.000900030136108,0.367457866669,1,s,246.200562,,,,,,,,,,,,,,,,,,,,,,,,,,,,,,,,2015_Jul_06_1256,59.9004017349,LearningTask,1,79,
200,s,-200,,,,,,,,,,,,,,,,,0,0,0,0,3,1,13,2,,,,,,,,,,,,,,,,,,,,,,,,,,,,,s,1,0.384468078613,None,0,1.0,hexagonmagenta.gif,stop,,,,,,,,,,,,,,,,,,,,,,,,0,0.514369010925,0.000909090042114,0.384468078613,1,s,249.203671932,,,,,,,,,,,,,,,,,,,,,,,,,,,,,,,,2015_Jul_06_1256,59.9004017349,LearningTask,1,79,
200,s,-200,,,,,,,,,,,,,,,,,0,0,0,0,3,2,14,2,,,,,,,,,,,,,,,,,,,,,,,,,,,,,s,1,0.367479085922,None,0,0.5,trianglegreen.gif,go,,,,,,,,,,,,,,,,,,,,,,,,0.5,0.513974905014,0.000958919525146,0.367479085922,1,s,252.207227945,,,,,,,,,,,,,,,,,,,,,,,,,,,,,,,,2015_Jul_06_1256,59.9004017349,LearningTask,1,79,
-200,a,-200,,,,,,,,,,,,,,,,,0,0,0,0,3,3,15,3,,,,,,,,,,,,,,,,,,,,,,,,,,,,,a,1,0.333972930908,None,0,1.0,squarecyan.gif,go,,,,,,,,,,,,,,,,,,,,,,,,0.91,0.51426410675,0.000890970230103,0.333972930908,1,a,255.210625887,,,,,,,,,,,,,,,,,,,,,,,,,,,,,,,,2015_Jul_06_1256,59.9004017349,LearningTask,1,79,
200,s,-200,,,,,,,,,,,,,,,,,0,0,0,0,4,0,16,2,,,,,,,,,,,,,,,,,,,,,,,,,,,,,s,1,0.334361076355,None,0,1.0,hexagonmagenta.gif,stop,,,,,,,,,,,,,,,,,,,,,,,,1.22,0.514118909836,0.00110697746277,0.334361076355,1,s,258.214489937,,,,,,,,,,,,,,,,,,,,,,,,,,,,,,,,2015_Jul_06_1256,59.9004017349,LearningTask,1,79,
-200,q,200,,,,,,,,,,,,,,,,,0,0,0,0,4,1,17,1,,,,,,,,,,,,,,,,,,,,,,,,,,,,,q,1,0.35051202774,None,0,1.0,hexagonmagenta.gif,stop,,,,,,,,,,,,,,,,,,,,,,,,0.95,0.513841867447,0.000898838043213,0.35051202774,1,q,261.217570782,,,,,,,,,,,,,,,,,,,,,,,,,,,,,,,,2015_Jul_06_1256,59.9004017349,LearningTask,1,79,
-200,a,-200,,,,,,,,,,,,,,,,,0,0,0,0,4,2,18,3,,,,,,,,,,,,,,,,,,,,,,,,,,,,,a,1,0.417480945587,None,0,2.0,lineyellow.gif,stop,,,,,,,,,,,,,,,,,,,,,,,,2.06,0.514033079147,0.000916004180908,0.417480945587,1,a,264.220558882,,,,,,,,,,,,,,,,,,,,,,,,,,,,,,,,2015_Jul_06_1256,59.9004017349,LearningTask,1,79,
-200,q,200,,,,,,,,,,,,,,,,,0,0,0,0,4,3,19,1,,,,,,,,,,,,,,,,,,,,,,,,,,,,,q,1,0.334082126617,None,0,1.0,squarecyan.gif,go,,,,,,,,,,,,,,,,,,,,,,,,0.92,0.514276981354,0.000946044921875,0.334082126617,1,q,267.224339962,,,,,,,,,,,,,,,,,,,,,,,,,,,,,,,,2015_Jul_06_1256,59.9004017349,LearningTask,1,79,
-200,q,200,,,,,,,,,,,,,,,,,0,0,0,0,5,0,20,1,,,,,,,,,,,,,,,,,,,,,,,,,,,,,q,1,0.384625196457,None,0,4.0,crosswhite.gif,go,,,,,,,,,,,,,,,,,,,,,,,,3.86,0.513695955276,0.00123190879822,0.384625196457,1,q,270.227208853,,,,,,,,,,,,,,,,,,,,,,,,,,,,,,,,2015_Jul_06_1256,59.9004017349,LearningTask,1,79,
200,s,-200,,,,,,,,,,,,,,,,,0,0,0,0,5,1,21,2,,,,,,,,,,,,,,,,,,,,,,,,,,,,,s,1,0.35066485405,None,0,2.0,invertedtriangleorange.gif,go,,,,,,,,,,,,,,,,,,,,,,,,1.83,0.514508008957,0.000892877578735,0.35066485405,1,s,273.230724812,,,,,,,,,,,,,,,,,,,,,,,,,,,,,,,,2015_Jul_06_1256,59.9004017349,LearningTask,1,79,
200,s,-200,,,,,,,,,,,,,,,,,0,0,0,0,5,2,22,2,,,,,,,,,,,,,,,,,,,,,,,,,,,,,s,1,0.350263834,None,0,1.0,hexagonmagenta.gif,stop,,,,,,,,,,,,,,,,,,,,,,,,1.17,0.514871835709,0.000898838043213,0.350263834,1,s,276.234412909,,,,,,,,,,,,,,,,,,,,,,,,,,,,,,,,2015_Jul_06_1256,59.9004017349,LearningTask,1,79,
-200,a,-200,,,,,,,,,,,,,,,,,0,0,0,0,5,3,23,3,,,,,,,,,,,,,,,,,,,,,,,,,,,,,a,1,0.350789070129,None,0,1.0,squarecyan.gif,go,,,,,,,,,,,,,,,,,,,,,,,,0,0.513932943344,0.000900983810425,0.350789070129,1,a,279.237339973,,,,,,,,,,,,,,,,,,,,,,,,,,,,,,,,2015_Jul_06_1256,59.9004017349,LearningTask,1,79,
-200,a,-200,,,,,,,,,,,,,,,,,0,0,0,0,6,0,24,3,,,,,,,,,,,,,,,,,,,,,,,,,,,,,a,1,0.384232997894,None,0,4.0,crosswhite.gif,go,,,,,,,,,,,,,,,,,,,,,,,,0,0.514390945435,0.000916004180908,0.384232997894,1,a,282.240660906,,,,,,,,,,,,,,,,,,,,,,,,,,,,,,,,2015_Jul_06_1256,59.9004017349,LearningTask,1,79,
-200,a,-200,,,,,,,,,,,,,,,,,0,0,0,0,6,1,25,3,,,,,,,,,,,,,,,,,,,,,,,,,,,,,a,1,0.367494106293,None,0,1.0,squarecyan.gif,go,,,,,,,,,,,,,,,,,,,,,,,,0,0.514271020889,0.000888109207153,0.367494106293,1,a,285.243888855,,,,,,,,,,,,,,,,,,,,,,,,,,,,,,,,2015_Jul_06_1256,59.9004017349,LearningTask,1,79,
-200,a,-200,,,,,,,,,,,,,,,,,0,0,0,0,6,2,26,3,,,,,,,,,,,,,,,,,,,,,,,,,,,,,a,1,0.367917776108,None,0,1.0,hexagonmagenta.gif,stop,,,,,,,,,,,,,,,,,,,,,,,,0.97,0.514457941055,0.000913143157959,0.367917776108,1,a,288.247635841,,,,,,,,,,,,,,,,,,,,,,,,,,,,,,,,2015_Jul_06_1256,59.9004017349,LearningTask,1,79,
-200,a,-200,,,,,,,,,,,,,,,,,0,0,0,0,6,3,27,3,,,,,,,,,,,,,,,,,,,,,,,,,,,,,a,1,0.384057998657,None,0,2.0,lineyellow.gif,stop,,,,,,,,,,,,,,,,,,,,,,,,2.17,0.513859033585,0.000930070877075,0.384057998657,1,a,291.25097394,,,,,,,,,,,,,,,,,,,,,,,,,,,,,,,,2015_Jul_06_1256,59.9004017349,LearningTask,1,79,
-200,a,-200,,,,,,,,,,,,,,,,,0,0,0,0,7,0,28,3,,,,,,,,,,,,,,,,,,,,,,,,,,,,,a,1,0.400815010071,None,0,1.0,squarecyan.gif,go,,,,,,,,,,,,,,,,,,,,,,,,1.05,0.514163017273,0.000895023345947,0.400815010071,1,a,294.254082918,,,,,,,,,,,,,,,,,,,,,,,,,,,,,,,,2015_Jul_06_1256,59.9004017349,LearningTask,1,79,
200,w,200,,,,,,,,,,,,,,,,,0,0,0,0,7,1,29,0,,,,,,,,,,,,,,,,,,,,,,,,,,,,,w,1,0.333928108215,None,0,1.0,hexagonmagenta.gif,stop,,,,,,,,,,,,,,,,,,,,,,,,0.81,0.514486074448,0.000923871994019,0.333928108215,1,w,297.257445812,,,,,,,,,,,,,,,,,,,,,,,,,,,,,,,,2015_Jul_06_1256,59.9004017349,LearningTask,1,79,
-200,q,200,,,,,,,,,,,,,,,,,0,0,0,0,7,2,30,1,,,,,,,,,,,,,,,,,,,,,,,,,,,,,q,1,0.300654888153,None,0,2.0,invertedtriangleorange.gif,go,,,,,,,,,,,,,,,,,,,,,,,,0,0.514095067978,0.000947952270508,0.300654888153,1,q,300.260942936,,,,,,,,,,,,,,,,,,,,,,,,,,,,,,,,2015_Jul_06_1256,59.9004017349,LearningTask,1,79,
-200,a,-200,,,,,,,,,,,,,,,,,0,0,0,0,7,3,31,3,,,,,,,,,,,,,,,,,,,,,,,,,,,,,a,1,0.334176063538,None,0,2.0,lineyellow.gif,stop,,,,,,,,,,,,,,,,,,,,,,,,2.24,0.51433801651,0.000900030136108,0.334176063538,1,a,303.264287949,,,,,,,,,,,,,,,,,,,,,,,,,,,,,,,,2015_Jul_06_1256,59.9004017349,LearningTask,1,79,
200,w,200,,,,,,,,,,,,,,,,,0,0,0,0,8,0,32,0,,,,,,,,,,,,,,,,,,,,,,,,,,,,,w,1,0.383635997772,None,0,2.0,invertedtriangleorange.gif,go,,,,,,,,,,,,,,,,,,,,,,,,1.86,0.514661073685,0.00108289718628,0.383635997772,1,w,306.267650843,,,,,,,,,,,,,,,,,,,,,,,,,,,,,,,,2015_Jul_06_1256,59.9004017349,LearningTask,1,79,
200,s,-200,,,,,,,,,,,,,,,,,0,0,0,0,8,1,33,2,,,,,,,,,,,,,,,,,,,,,,,,,,,,,s,1,0.367703914642,None,0,1.0,squarecyan.gif,go,,,,,,,,,,,,,,,,,,,,,,,,0.75,0.51401591301,0.000930070877075,0.367703914642,1,s,309.270969868,,,,,,,,,,,,,,,,,,,,,,,,,,,,,,,,2015_Jul_06_1256,59.9004017349,LearningTask,1,79,
-200,a,-200,,,,,,,,,,,,,,,,,0,0,0,0,8,2,34,3,,,,,,,,,,,,,,,,,,,,,,,,,,,,,a,1,0.40083694458,None,0,2.0,lineyellow.gif,stop,,,,,,,,,,,,,,,,,,,,,,,,1.87,0.514209985733,0.000898838043213,0.40083694458,1,a,312.274443865,,,,,,,,,,,,,,,,,,,,,,,,,,,,,,,,2015_Jul_06_1256,59.9004017349,LearningTask,1,79,
200,s,-200,,,,,,,,,,,,,,,,,0,0,0,0,8,3,35,2,,,,,,,,,,,,,,,,,,,,,,,,,,,,,s,1,0.384272813797,None,0,4.0,crosswhite.gif,go,,,,,,,,,,,,,,,,,,,,,,,,4.15,0.51411986351,0.00094199180603,0.384272813797,1,s,315.278137922,,,,,,,,,,,,,,,,,,,,,,,,,,,,,,,,2015_Jul_06_1256,59.9004017349,LearningTask,1,79,
200,w,200,,,,,,,,,,,,,,,,,0,0,0,0,9,0,36,0,,,,,,,,,,,,,,,,,,,,,,,,,,,,,w,1,0.334347009659,None,0,4.0,diamondblue.gif,stop,,,,,,,,,,,,,,,,,,,,,,,,3.94,0.513715028763,0.000910997390747,0.334347009659,1,w,318.281132936,,,,,,,,,,,,,,,,,,,,,,,,,,,,,,,,2015_Jul_06_1256,59.9004017349,LearningTask,1,79,
200,w,200,,,,,,,,,,,,,,,,,0,0,0,0,9,1,37,0,,,,,,,,,,,,,,,,,,,,,,,,,,,,,w,1,0.400862216949,None,0,4.0,crosswhite.gif,go,,,,,,,,,,,,,,,,,,,,,,,,4.02,0.51435303688,0.000904083251953,0.400862216949,1,w,321.284701824,,,,,,,,,,,,,,,,,,,,,,,,,,,,,,,,2015_Jul_06_1256,59.9004017349,LearningTask,1,79,
-200,a,-200,,,,,,,,,,,,,,,,,0,0,0,0,9,2,38,3,,,,,,,,,,,,,,,,,,,,,,,,,,,,,a,1,0.384666919708,None,0,1.0,hexagonmagenta.gif,stop,,,,,,,,,,,,,,,,,,,,,,,,1.05,0.51345205307,0.000909090042114,0.384666919708,1,a,324.287897825,,,,,,,,,,,,,,,,,,,,,,,,,,,,,,,,2015_Jul_06_1256,59.9004017349,LearningTask,1,79,
-200,a,-200,,,,,,,,,,,,,,,,,0,0,0,0,9,3,39,3,,,,,,,,,,,,,,,,,,,,,,,,,,,,,a,1,0.350799798965,None,0,4.0,diamondblue.gif,stop,,,,,,,,,,,,,,,,,,,,,,,,4.08,0.514019012451,0.000901222229004,0.350799798965,1,a,327.291099787,,,,,,,,,,,,,,,,,,,,,,,,,,,,,,,,2015_Jul_06_1256,59.9004017349,LearningTask,1,79,
200,w,200,,,,,,,,,,,,,,,,,0,0,0,0,10,0,40,0,,,,,,,,,,,,,,,,,,,,,,,,,,,,,w,1,0.333975076675,None,0,4.0,diamondblue.gif,stop,,,,,,,,,,,,,,,,,,,,,,,,3.94,0.514399051666,0.00100708007812,0.333975076675,1,w,330.294424772,,,,,,,,,,,,,,,,,,,,,,,,,,,,,,,,2015_Jul_06_1256,59.9004017349,LearningTask,1,79,
-200,q,200,,,,,,,,,,,,,,,,,0,0,0,0,10,1,41,1,,,,,,,,,,,,,,,,,,,,,,,,,,,,,q,1,0.367453098297,None,0,0.5,circlegray.gif,stop,,,,,,,,,,,,,,,,,,,,,,,,0,0.51398396492,0.00115418434143,0.367453098297,1,q,333.297892809,,,,,,,,,,,,,,,,,,,,,,,,,,,,,,,,2015_Jul_06_1256,59.9004017349,LearningTask,1,79,
-200,a,-200,,,,,,,,,,,,,,,,,0,0,0,0,10,2,42,3,,,,,,,,,,,,,,,,,,,,,,,,,,,,,a,1,0.367577791214,None,0,4.0,diamondblue.gif,stop,,,,,,,,,,,,,,,,,,,,,,,,0,0.514318943024,0.000891923904419,0.367577791214,1,a,336.301117897,,,,,,,,,,,,,,,,,,,,,,,,,,,,,,,,2015_Jul_06_1256,59.9004017349,LearningTask,1,79,
200,s,-200,,,,,,,,,,,,,,,,,0,0,0,0,10,3,43,2,,,,,,,,,,,,,,,,,,,,,,,,,,,,,s,1,0.366967916489,None,0,2.0,lineyellow.gif,stop,,,,,,,,,,,,,,,,,,,,,,,,2.06,0.514648199081,0.00115919113159,0.366967916489,1,s,339.304775953,,,,,,,,,,,,,,,,,,,,,,,,,,,,,,,,2015_Jul_06_1256,59.9004017349,LearningTask,1,79,
-200,a,-200,,,,,,,,,,,,,,,,,0,0,0,0,11,0,44,3,,,,,,,,,,,,,,,,,,,,,,,,,,,,,a,1,0.367765188217,None,0,2.0,invertedtriangleorange.gif,go,,,,,,,,,,,,,,,,,,,,,,,,1.77,0.514037847519,0.000914812088013,0.367765188217,1,a,342.308042765,,,,,,,,,,,,,,,,,,,,,,,,,,,,,,,,2015_Jul_06_1256,59.9004017349,LearningTask,1,79,
200,s,-200,,,,,,,,,,,,,,,,,0,0,0,0,11,1,45,2,,,,,,,,,,,,,,,,,,,,,,,,,,,,,s,1,0.350517988205,None,0,4.0,diamondblue.gif,stop,,,,,,,,,,,,,,,,,,,,,,,,3.81,0.514271020889,0.000907897949219,0.350517988205,1,s,345.311098814,,,,,,,,,,,,,,,,,,,,,,,,,,,,,,,,2015_Jul_06_1256,59.9004017349,LearningTask,1,79,
200,s,-200,,,,,,,,,,,,,,,,,0,0,0,0,11,2,46,2,,,,,,,,,,,,,,,,,,,,,,,,,,,,,s,1,0.334110975266,None,0,1.0,hexagonmagenta.gif,stop,,,,,,,,,,,,,,,,,,,,,,,,0,0.514331102371,0.000964164733887,0.334110975266,1,s,348.314713955,,,,,,,,,,,,,,,,,,,,,,,,,,,,,,,,2015_Jul_06_1256,59.9004017349,LearningTask,1,79,
200,w,200,,,,,,,,,,,,,,,,,0,0,0,0,11,3,47,0,,,,,,,,,,,,,,,,,,,,,,,,,,,,,w,1,0.317321062088,None,0,4.0,crosswhite.gif,go,,,,,,,,,,,,,,,,,,,,,,,,4.2,0.514199972153,0.000902891159058,0.317321062088,1,w,351.318030834,,,,,,,,,,,,,,,,,,,,,,,,,,,,,,,,2015_Jul_06_1256,59.9004017349,LearningTask,1,79,
-200,a,-200,,,,,,,,,,,,,,,,,0,0,0,0,12,0,48,3,,,,,,,,,,,,,,,,,,,,,,,,,,,,,a,1,0.350939035416,None,0,0.5,circlegray.gif,stop,,,,,,,,,,,,,,,,,,,,,,,,0.38,0.513857841492,0.000984907150269,0.350939035416,1,a,354.321115971,,,,,,,,,,,,,,,,,,,,,,,,,,,,,,,,2015_Jul_06_1256,59.9004017349,LearningTask,1,79,
200,s,-200,,,,,,,,,,,,,,,,,0,0,0,0,12,1,49,2,,,,,,,,,,,,,,,,,,,,,,,,,,,,,s,1,0.333378076553,None,0,1.0,hexagonmagenta.gif,stop,,,,,,,,,,,,,,,,,,,,,,,,1.14,0.514519929886,0.000902891159058,0.333378076553,1,s,357.324658871,,,,,,,,,,,,,,,,,,,,,,,,,,,,,,,,2015_Jul_06_1256,59.9004017349,LearningTask,1,79,
200,s,-200,,,,,,,,,,,,,,,,,0,0,0,0,12,2,50,2,,,,,,,,,,,,,,,,,,,,,,,,,,,,,s,1,0.367458105087,None,0,2.0,lineyellow.gif,stop,,,,,,,,,,,,,,,,,,,,,,,,2.13,0.514351844788,0.000899791717529,0.367458105087,1,s,360.327967882,,,,,,,,,,,,,,,,,,,,,,,,,,,,,,,,2015_Jul_06_1256,59.9004017349,LearningTask,1,79,
200,s,-200,,,,,,,,,,,,,,,,,0,0,0,0,12,3,51,2,,,,,,,,,,,,,,,,,,,,,,,,,,,,,s,1,0.334333896637,None,0,2.0,invertedtriangleorange.gif,go,,,,,,,,,,,,,,,,,,,,,,,,1.75,0.514194011688,0.000962972640991,0.334333896637,1,s,363.331702948,,,,,,,,,,,,,,,,,,,,,,,,,,,,,,,,2015_Jul_06_1256,59.9004017349,LearningTask,1,79,
-200,a,-200,,,,,,,,,,,,,,,,,0,0,0,0,13,0,52,3,,,,,,,,,,,,,,,,,,,,,,,,,,,,,a,1,0.350815057755,None,0,1.0,hexagonmagenta.gif,stop,,,,,,,,,,,,,,,,,,,,,,,,0.96,0.513862848282,0.000929832458496,0.350815057755,1,a,366.334844828,,,,,,,,,,,,,,,,,,,,,,,,,,,,,,,,2015_Jul_06_1256,59.9004017349,LearningTask,1,79,
200,w,200,,,,,,,,,,,,,,,,,0,0,0,0,13,1,53,0,,,,,,,,,,,,,,,,,,,,,,,,,,,,,w,1,0.334175825119,None,0,2.0,invertedtriangleorange.gif,go,,,,,,,,,,,,,,,,,,,,,,,,1.96,0.514318943024,0.000908136367798,0.334175825119,1,w,369.338190794,,,,,,,,,,,,,,,,,,,,,,,,,,,,,,,,2015_Jul_06_1256,59.9004017349,LearningTask,1,79,
-200,q,200,,,,,,,,,,,,,,,,,0,0,0,0,13,2,54,1,,,,,,,,,,,,,,,,,,,,,,,,,,,,,q,1,0.317622184753,None,0,1.0,hexagonmagenta.gif,stop,,,,,,,,,,,,,,,,,,,,,,,,1.17,0.513844013214,0.000949144363403,0.317622184753,1,q,372.341672897,,,,,,,,,,,,,,,,,,,,,,,,,,,,,,,,2015_Jul_06_1256,59.9004017349,LearningTask,1,79,
-200,q,200,,,,,,,,,,,,,,,,,0,0,0,0,13,3,55,1,,,,,,,,,,,,,,,,,,,,,,,,,,,,,q,1,0.334001064301,None,0,1.0,squarecyan.gif,go,,,,,,,,,,,,,,,,,,,,,,,,0.77,0.514113903046,0.00090479850769,0.334001064301,1,q,375.344939947,,,,,,,,,,,,,,,,,,,,,,,,,,,,,,,,2015_Jul_06_1256,59.9004017349,LearningTask,1,79,
-200,a,-200,,,,,,,,,,,,,,,,,0,0,0,0,14,0,56,3,,,,,,,,,,,,,,,,,,,,,,,,,,,,,a,1,0.550937891006,None,0,2.0,invertedtriangleorange.gif,go,,,,,,,,,,,,,,,,,,,,,,,,0,0.514224052429,0.000982999801636,0.550937891006,1,a,378.348205805,,,,,,,,,,,,,,,,,,,,,,,,,,,,,,,,2015_Jul_06_1256,59.9004017349,LearningTask,1,79,
200,w,200,,,,,,,,,,,,,,,,,0,0,0,0,14,1,57,0,,,,,,,,,,,,,,,,,,,,,,,,,,,,,w,1,0.351197957993,None,0,4.0,crosswhite.gif,go,,,,,,,,,,,,,,,,,,,,,,,,3.77,0.514161109924,0.000904083251953,0.351197957993,1,w,381.351440907,,,,,,,,,,,,,,,,,,,,,,,,,,,,,,,,2015_Jul_06_1256,59.9004017349,LearningTask,1,79,
-200,a,-200,,,,,,,,,,,,,,,,,0,0,0,0,14,2,58,3,,,,,,,,,,,,,,,,,,,,,,,,,,,,,a,1,0.334037065506,None,0,2.0,invertedtriangleorange.gif,go,,,,,,,,,,,,,,,,,,,,,,,,1.75,0.514412164688,0.000957012176514,0.334037065506,1,a,384.354988813,,,,,,,,,,,,,,,,,,,,,,,,,,,,,,,,2015_Jul_06_1256,59.9004017349,LearningTask,1,79,
-200,q,200,,,,,,,,,,,,,,,,,0,0,0,0,14,3,59,1,,,,,,,,,,,,,,,,,,,,,,,,,,,,,q,1,0.351128101349,None,0,0.5,circlegray.gif,stop,,,,,,,,,,,,,,,,,,,,,,,,0.73,0.513664960861,0.000975847244263,0.351128101349,1,q,387.358410835,,,,,,,,,,,,,,,,,,,,,,,,,,,,,,,,2015_Jul_06_1256,59.9004017349,LearningTask,1,79,
-200,q,200,,,,,,,,,,,,,,,,,0,0,0,0,15,0,60,1,,,,,,,,,,,,,,,,,,,,,,,,,,,,,q,1,0.284075021744,None,0,4.0,diamondblue.gif,stop,,,,,,,,,,,,,,,,,,,,,,,,4.0,0.514045953751,0.00109887123108,0.284075021744,1,q,390.361643791,,,,,,,,,,,,,,,,,,,,,,,,,,,,,,,,2015_Jul_06_1256,59.9004017349,LearningTask,1,79,
-200,q,200,,,,,,,,,,,,,,,,,0,0,0,0,15,1,61,1,,,,,,,,,,,,,,,,,,,,,,,,,,,,,q,1,0.350538015366,None,0,0.5,circlegray.gif,stop,,,,,,,,,,,,,,,,,,,,,,,,0,0.51442694664,0.00092887878418,0.350538015366,1,q,393.364834785,,,,,,,,,,,,,,,,,,,,,,,,,,,,,,,,2015_Jul_06_1256,59.9004017349,LearningTask,1,79,
-200,q,200,,,,,,,,,,,,,,,,,0,0,0,0,15,2,62,1,,,,,,,,,,,,,,,,,,,,,,,,,,,,,q,1,0.283895015717,None,0,1.0,hexagonmagenta.gif,stop,,,,,,,,,,,,,,,,,,,,,,,,0,0.51448392868,0.00099515914917,0.283895015717,1,q,396.368336916,,,,,,,,,,,,,,,,,,,,,,,,,,,,,,,,2015_Jul_06_1256,59.9004017349,LearningTask,1,79,
-200,q,200,,,,,,,,,,,,,,,,,0,0,0,0,15,3,63,1,,,,,,,,,,,,,,,,,,,,,,,,,,,,,q,1,0.284417152405,None,0,2.0,invertedtriangleorange.gif,go,,,,,,,,,,,,,,,,,,,,,,,,2.02,0.514117956161,0.000902891159058,0.284417152405,1,q,399.371650934,,,,,,,,,,,,,,,,,,,,,,,,,,,,,,,,2015_Jul_06_1256,59.9004017349,LearningTask,1,79,
200,w,200,,,,,,,,,,,,,,,,,0,0,0,0,16,0,64,0,,,,,,,,,,,,,,,,,,,,,,,,,,,,,w,1,0.317695140839,None,0,1.0,hexagonmagenta.gif,stop,,,,,,,,,,,,,,,,,,,,,,,,0,0.514273881912,0.000938892364502,0.317695140839,1,w,402.376027822,,,,,,,,,,,,,,,,,,,,,,,,,,,,,,,,2015_Jul_06_1256,59.9004017349,LearningTask,1,79,
-200,q,200,,,,,,,,,,,,,,,,,0,0,0,0,16,1,65,1,,,,,,,,,,,,,,,,,,,,,,,,,,,,,q,1,0.283751010895,None,0,0.5,circlegray.gif,stop,,,,,,,,,,,,,,,,,,,,,,,,0,0.513309955597,0.000895977020264,0.283751010895,1,q,405.378832817,,,,,,,,,,,,,,,,,,,,,,,,,,,,,,,,2015_Jul_06_1256,59.9004017349,LearningTask,1,79,
-200,a,-200,,,,,,,,,,,,,,,,,0,0,0,0,16,2,66,3,,,,,,,,,,,,,,,,,,,,,,,,,,,,,a,1,0.434199094772,None,0,0.5,trianglegreen.gif,go,,,,,,,,,,,,,,,,,,,,,,,,0.63,0.513556957245,0.00109314918518,0.434199094772,1,a,408.381722927,,,,,,,,,,,,,,,,,,,,,,,,,,,,,,,,2015_Jul_06_1256,59.9004017349,LearningTask,1,79,
200,s,-200,,,,,,,,,,,,,,,,,0,0,0,0,16,3,67,2,,,,,,,,,,,,,,,,,,,,,,,,,,,,,s,1,0.334143161774,None,0,2.0,lineyellow.gif,stop,,,,,,,,,,,,,,,,,,,,,,,,0,0.514266014099,0.000962018966675,0.334143161774,1,s,411.385629892,,,,,,,,,,,,,,,,,,,,,,,,,,,,,,,,2015_Jul_06_1256,59.9004017349,LearningTask,1,79,
200,s,-200,,,,,,,,,,,,,,,,,0,0,0,0,17,0,68,2,,,,,,,,,,,,,,,,,,,,,,,,,,,,,s,1,0.367434978485,None,0,4.0,crosswhite.gif,go,,,,,,,,,,,,,,,,,,,,,,,,4.02,0.513677835464,0.000927925109863,0.367434978485,1,s,414.388489962,,,,,,,,,,,,,,,,,,,,,,,,,,,,,,,,2015_Jul_06_1256,59.9004017349,LearningTask,1,79,
200,w,200,,,,,,,,,,,,,,,,,0,0,0,0,17,1,69,0,,,,,,,,,,,,,,,,,,,,,,,,,,,,,w,1,0.334837913513,None,0,1.0,hexagonmagenta.gif,stop,,,,,,,,,,,,,,,,,,,,,,,,0,0.514302968979,0.000940799713135,0.351516962051,0,q,417.391958952,1.22,0.514981031418,0.000988006591797,0.334837913513,1,w,420.39546299,,,,,,,,,,,,,,,,,,,,,,,,,2015_Jul_06_1256,59.9004017349,LearningTask,1,79,
200,s,-200,,,,,,,,,,,,,,,,,0,0,0,0,17,2,70,2,,,,,,,,,,,,,,,,,,,,,,,,,,,,,s,1,0.38480091095,None,0,2.0,lineyellow.gif,stop,,,,,,,,,,,,,,,,,,,,,,,,1.83,0.513952970505,0.000921964645386,0.38480091095,1,s,423.398499966,,,,,,,,,,,,,,,,,,,,,,,,,,,,,,,,2015_Jul_06_1256,59.9004017349,LearningTask,1,79,
-200,q,200,,,,,,,,,,,,,,,,,0,0,0,0,17,3,71,1,,,,,,,,,,,,,,,,,,,,,,,,,,,,,q,1,0.334167003632,None,0,1.0,squarecyan.gif,go,,,,,,,,,,,,,,,,,,,,,,,,1.22,0.514342069626,0.000904083251953,0.334167003632,1,q,426.401659966,,,,,,,,,,,,,,,,,,,,,,,,,,,,,,,,2015_Jul_06_1256,59.9004017349,LearningTask,1,79,
200,w,200,,,,,,,,,,,,,,,,,0,0,0,0,18,0,72,0,,,,,,,,,,,,,,,,,,,,,,,,,,,,,w,1,0.284546852112,None,0,4.0,diamondblue.gif,stop,,,,,,,,,,,,,,,,,,,,,,,,4.17,0.514555215836,0.000917196273804,0.284546852112,1,w,429.405168772,,,,,,,,,,,,,,,,,,,,,,,,,,,,,,,,2015_Jul_06_1256,59.9004017349,LearningTask,1,79,
200,w,200,,,,,,,,,,,,,,,,,0,0,0,0,18,1,73,0,,,,,,,,,,,,,,,,,,,,,,,,,,,,,w,1,0.333899974823,None,0,1.0,hexagonmagenta.gif,stop,,,,,,,,,,,,,,,,,,,,,,,,1.08,0.514482021332,0.00089693069458,0.333899974823,1,w,432.408712864,,,,,,,,,,,,,,,,,,,,,,,,,,,,,,,,2015_Jul_06_1256,59.9004017349,LearningTask,1,79,
200,s,-200,,,,,,,,,,,,,,,,,0,0,0,0,18,2,74,2,,,,,,,,,,,,,,,,,,,,,,,,,,,,,s,1,0.384750843048,None,0,0.5,trianglegreen.gif,go,,,,,,,,,,,,,,,,,,,,,,,,0,0.513803958893,0.000952959060669,0.384750843048,1,s,435.411930799,,,,,,,,,,,,,,,,,,,,,,,,,,,,,,,,2015_Jul_06_1256,59.9004017349,LearningTask,1,79,
200,s,-200,,,,,,,,,,,,,,,,,0,0,0,0,18,3,75,2,,,,,,,,,,,,,,,,,,,,,,,,,,,,,s,1,0.367323160172,None,0,4.0,crosswhite.gif,go,,,,,,,,,,,,,,,,,,,,,,,,4.2,0.514409065247,0.000911951065063,0.367323160172,1,s,438.415288925,,,,,,,,,,,,,,,,,,,,,,,,,,,,,,,,2015_Jul_06_1256,59.9004017349,LearningTask,1,79,
200,w,200,,,,,,,,,,,,,,,,,0,0,0,0,19,0,76,0,,,,,,,,,,,,,,,,,,,,,,,,,,,,,w,1,0.350742101669,None,0,1.0,hexagonmagenta.gif,stop,,,,,,,,,,,,,,,,,,,,,,,,1.06,0.514406919479,0.000910997390747,0.350742101669,1,w,441.418653965,,,,,,,,,,,,,,,,,,,,,,,,,,,,,,,,2015_Jul_06_1256,59.9004017349,LearningTask,1,79,
-200,a,-200,,,,,,,,,,,,,,,,,0,0,0,0,19,1,77,3,,,,,,,,,,,,,,,,,,,,,,,,,,,,,a,1,0.417855024338,None,0,2.0,invertedtriangleorange.gif,go,,,,,,,,,,,,,,,,,,,,,,,,2.21,0.514094829559,0.000933885574341,0.417855024338,1,a,444.422187805,,,,,,,,,,,,,,,,,,,,,,,,,,,,,,,,2015_Jul_06_1256,59.9004017349,LearningTask,1,79,
200,w,200,,,,,,,,,,,,,,,,,0,0,0,0,19,2,78,0,,,,,,,,,,,,,,,,,,,,,,,,,,,,,w,1,0.333895921707,None,0,1.0,squarecyan.gif,go,,,,,,,,,,,,,,,,,,,,,,,,0.97,0.514532089233,0.000897169113159,0.333895921707,1,w,447.426045895,,,,,,,,,,,,,,,,,,,,,,,,,,,,,,,,2015_Jul_06_1256,59.9004017349,LearningTask,1,79,
-200,q,200,,,,,,,,,,,,,,,,,0,0,0,0,19,3,79,1,,,,,,,,,,,,,,,,,,,,,,,,,,,,,q,1,0.417781114578,None,0,0.5,circlegray.gif,stop,,,,,,,,,,,,,,,,,,,,,,,,0,0.513465881348,0.00095796585083,0.417781114578,1,q,450.429242849,,,,,,,,,,,,,,,,,,,,,,,,,,,,,,,,2015_Jul_06_1256,59.9004017349,LearningTask,1,79,
200,w,200,,,,,,,,,,,,,,,,,0,0,0,0,20,0,80,0,,,,,,,,,,,,,,,,,,,,,,,,,,,,,w,1,0.333984851837,None,0,1.0,hexagonmagenta.gif,stop,,,,,,,,,,,,,,,,,,,,,,,,1.19,0.513496875763,0.000964879989624,0.333984851837,1,w,453.432390928,,,,,,,,,,,,,,,,,,,,,,,,,,,,,,,,2015_Jul_06_1256,59.9004017349,LearningTask,1,79,
-200,q,200,,,,,,,,,,,,,,,,,0,0,0,0,20,1,81,1,,,,,,,,,,,,,,,,,,,,,,,,,,,,,q,1,0.350963830948,None,0,1.0,squarecyan.gif,go,,,,,,,,,,,,,,,,,,,,,,,,0.94,0.514034986496,0.000892877578735,0.350963830948,1,q,456.435377836,,,,,,,,,,,,,,,,,,,,,,,,,,,,,,,,2015_Jul_06_1256,59.9004017349,LearningTask,1,79,
200,s,-200,,,,,,,,,,,,,,,,,0,0,0,0,20,2,82,2,,,,,,,,,,,,,,,,,,,,,,,,,,,,,s,1,0.350891113281,None,0,0.5,circlegray.gif,stop,,,,,,,,,,,,,,,,,,,,,,,,0.59,0.51429605484,0.000965118408203,0.350891113281,1,s,459.43948698,,,,,,,,,,,,,,,,,,,,,,,,,,,,,,,,2015_Jul_06_1256,59.9004017349,LearningTask,1,79,
-200,q,200,,,,,,,,,,,,,,,,,0,0,0,0,20,3,83,1,,,,,,,,,,,,,,,,,,,,,,,,,,,,,q,1,0.3505859375,None,0,2.0,invertedtriangleorange.gif,go,,,,,,,,,,,,,,,,,,,,,,,,2.11,0.513662099838,0.00092601776123,0.3505859375,1,q,462.442194939,,,,,,,,,,,,,,,,,,,,,,,,,,,,,,,,2015_Jul_06_1256,59.9004017349,LearningTask,1,79,
-200,q,200,,,,,,,,,,,,,,,,,0,0,0,0,21,0,84,1,,,,,,,,,,,,,,,,,,,,,,,,,,,,,q,1,0.350878000259,None,0,4.0,crosswhite.gif,go,,,,,,,,,,,,,,,,,,,,,,,,3.98,0.514055967331,0.000913858413696,0.350878000259,1,q,465.445658922,,,,,,,,,,,,,,,,,,,,,,,,,,,,,,,,2015_Jul_06_1256,59.9004017349,LearningTask,1,79,
200,w,200,,,,,,,,,,,,,,,,,0,0,0,0,21,1,85,0,,,,,,,,,,,,,,,,,,,,,,,,,,,,,w,1,0.350326061249,None,0,0.5,trianglegreen.gif,go,,,,,,,,,,,,,,,,,,,,,,,,0.63,0.514494895935,0.000898838043213,0.350326061249,1,w,468.449004889,,,,,,,,,,,,,,,,,,,,,,,,,,,,,,,,2015_Jul_06_1256,59.9004017349,LearningTask,1,79,
-200,q,200,,,,,,,,,,,,,,,,,0,0,0,0,21,2,86,1,,,,,,,,,,,,,,,,,,,,,,,,,,,,,q,1,0.367774963379,None,0,1.0,hexagonmagenta.gif,stop,,,,,,,,,,,,,,,,,,,,,,,,1.04,0.514011859894,0.000903844833374,0.367774963379,1,q,471.452041864,,,,,,,,,,,,,,,,,,,,,,,,,,,,,,,,2015_Jul_06_1256,59.9004017349,LearningTask,1,79,
-200,a,-200,,,,,,,,,,,,,,,,,0,0,0,0,21,3,87,3,,,,,,,,,,,,,,,,,,,,,,,,,,,,,a,1,0.384058952332,None,0,1.0,squarecyan.gif,go,,,,,,,,,,,,,,,,,,,,,,,,0,0.514513015747,0.000931024551392,0.384058952332,1,a,474.455552816,,,,,,,,,,,,,,,,,,,,,,,,,,,,,,,,2015_Jul_06_1256,59.9004017349,LearningTask,1,79,
200,w,200,,,,,,,,,,,,,,,,,0,0,0,0,22,0,88,0,,,,,,,,,,,,,,,,,,,,,,,,,,,,,w,1,0.317653894424,None,0,1.0,squarecyan.gif,go,,,,,,,,,,,,,,,,,,,,,,,,1.21,0.514189004898,0.000897884368896,0.317653894424,1,w,477.459000826,,,,,,,,,,,,,,,,,,,,,,,,,,,,,,,,2015_Jul_06_1256,59.9004017349,LearningTask,1,79,
200,s,-200,,,,,,,,,,,,,,,,,0,0,0,0,22,1,89,2,,,,,,,,,,,,,,,,,,,,,,,,,,,,,s,1,0.401514053345,None,0,4.0,crosswhite.gif,go,,,,,,,,,,,,,,,,,,,,,,,,4.05,0.514091968536,0.000909090042114,0.401514053345,1,s,480.462277889,,,,,,,,,,,,,,,,,,,,,,,,,,,,,,,,2015_Jul_06_1256,59.9004017349,LearningTask,1,79,
-200,q,200,,,,,,,,,,,,,,,,,0,0,0,0,22,2,90,1,,,,,,,,,,,,,,,,,,,,,,,,,,,,,q,1,0.367058992386,None,0,0.5,circlegray.gif,stop,,,,,,,,,,,,,,,,,,,,,,,,0.65,0.514621973038,0.00119996070862,0.367058992386,1,q,483.466017962,,,,,,,,,,,,,,,,,,,,,,,,,,,,,,,,2015_Jul_06_1256,59.9004017349,LearningTask,1,79,
-200,q,200,,,,,,,,,,,,,,,,,0,0,0,0,22,3,91,1,,,,,,,,,,,,,,,,,,,,,,,,,,,,,q,1,0.384115934372,None,0,0.5,trianglegreen.gif,go,,,,,,,,,,,,,,,,,,,,,,,,0.68,0.513991117477,0.000916004180908,0.384115934372,1,q,486.468965769,,,,,,,,,,,,,,,,,,,,,,,,,,,,,,,,2015_Jul_06_1256,59.9004017349,LearningTask,1,79,
200,s,-200,,,,,,,,,,,,,,,,,0,0,0,0,23,0,92,2,,,,,,,,,,,,,,,,,,,,,,,,,,,,,s,1,0.401134967804,None,0,2.0,lineyellow.gif,stop,,,,,,,,,,,,,,,,,,,,,,,,1.92,0.514368057251,0.00090503692627,0.401134967804,1,s,489.472386837,,,,,,,,,,,,,,,,,,,,,,,,,,,,,,,,2015_Jul_06_1256,59.9004017349,LearningTask,1,79,
200,w,200,,,,,,,,,,,,,,,,,0,0,0,0,23,1,93,0,,,,,,,,,,,,,,,,,,,,,,,,,,,,,w,1,0.351068019867,None,0,4.0,diamondblue.gif,stop,,,,,,,,,,,,,,,,,,,,,,,,4.09,0.513721942902,0.00102782249451,0.351068019867,1,w,492.47594595,,,,,,,,,,,,,,,,,,,,,,,,,,,,,,,,2015_Jul_06_1256,59.9004017349,LearningTask,1,79,
-200,a,-200,,,,,,,,,,,,,,,,,0,0,0,0,23,2,94,3,,,,,,,,,,,,,,,,,,,,,,,,,,,,,a,1,0.367525100708,None,0,1.0,squarecyan.gif,go,,,,,,,,,,,,,,,,,,,,,,,,1.01,0.514100074768,0.000903129577637,0.367525100708,1,a,495.479062796,,,,,,,,,,,,,,,,,,,,,,,,,,,,,,,,2015_Jul_06_1256,59.9004017349,LearningTask,1,79,
-200,a,-200,,,,,,,,,,,,,,,,,0,0,0,0,23,3,95,3,,,,,,,,,,,,,,,,,,,,,,,,,,,,,a,1,0.351159095764,None,0,2.0,lineyellow.gif,stop,,,,,,,,,,,,,,,,,,,,,,,,1.93,0.514290094376,0.000953912734985,0.351159095764,1,a,498.483290911,,,,,,,,,,,,,,,,,,,,,,,,,,,,,,,,2015_Jul_06_1256,59.9004017349,LearningTask,1,79,
200,w,200,,,,,,,,,,,,,,,,,0,0,0,0,24,0,96,0,,,,,,,,,,,,,,,,,,,,,,,,,,,,,w,1,0.333847999573,None,0,1.0,squarecyan.gif,go,,,,,,,,,,,,,,,,,,,,,,,,1.11,0.513343095779,0.000925064086914,0.333847999573,1,w,501.485730886,,,,,,,,,,,,,,,,,,,,,,,,,,,,,,,,2015_Jul_06_1256,59.9004017349,LearningTask,1,79,
-200,q,200,,,,,,,,,,,,,,,,,0,0,0,0,24,1,97,1,,,,,,,,,,,,,,,,,,,,,,,,,,,,,q,1,0.333575963974,None,0,4.0,diamondblue.gif,stop,,,,,,,,,,,,,,,,,,,,,,,,3.82,0.51479101181,0.000909090042114,0.333575963974,1,q,504.489078999,,,,,,,,,,,,,,,,,,,,,,,,,,,,,,,,2015_Jul_06_1256,59.9004017349,LearningTask,1,79,
200,w,200,,,,,,,,,,,,,,,,,0,0,0,0,24,2,98,0,,,,,,,,,,,,,,,,,,,,,,,,,,,,,w,1,0.333997964859,None,0,4.0,diamondblue.gif,stop,,,,,,,,,,,,,,,,,,,,,,,,3.91,0.514280080795,0.000962972640991,0.333997964859,1,w,507.492821932,,,,,,,,,,,,,,,,,,,,,,,,,,,,,,,,2015_Jul_06_1256,59.9004017349,LearningTask,1,79,
-200,q,200,,,,,,,,,,,,,,,,,0,0,0,0,24,3,99,1,,,,,,,,,,,,,,,,,,,,,,,,,,,,,q,1,0.383917808533,None,0,0.5,trianglegreen.gif,go,,,,,,,,,,,,,,,,,,,,,,,,0.7,0.513752937317,0.000910043716431,0.383917808533,1,q,510.495845795,,,,,,,,,,,,,,,,,,,,,,,,,,,,,,,,2015_Jul_06_1256,59.9004017349,LearningTask,1,79,
,,,,,,,,,,,,,,,,,,,0,0,0,0,,,,,,,,,,,,,,,,,,,,,,,,,,,,,,,,,,,,,,,,,,,,,,,,,,,,,,,,,,,,,,,,,,,,,,,,,,,,,,9,5.78569507599,,,,,,,,,,,,,,,,,,,,,,,2015_Jul_06_1256,59.9004017349,LearningTask,1,79,
200,w,200,,,,,,,,,,,,,,,,,1,0,1,0,0,0,0,0,,,,,,,,,,,,,,,,,,,,,,,,,,,,,w,1,0.350821971893,None,0,4.0,diamondblue.gif,stop,,,,,,,,,,,,,,,,,,,,,,,,4.09,0.51010799408,0.000883102416992,0.350821971893,1,w,519.723620892,,,,,,,,,,,,,,,,,,,,,,,,,,,,,,,,2015_Jul_06_1256,59.9004017349,LearningTask,1,79,
200,w,200,,,,,,,,,,,,,,,,,1,0,1,0,0,1,1,0,,,,,,,,,,,,,,,,,,,,,,,,,,,,,w,1,0.334268808365,None,0,1.0,squarecyan.gif,go,,,,,,,,,,,,,,,,,,,,,,,,0,0.513475894928,0.000900983810425,0.334268808365,1,w,522.726212978,,,,,,,,,,,,,,,,,,,,,,,,,,,,,,,,2015_Jul_06_1256,59.9004017349,LearningTask,1,79,
200,w,200,,,,,,,,,,,,,,,,,1,0,1,0,0,2,2,0,,,,,,,,,,,,,,,,,,,,,,,,,,,,,w,1,0.334177970886,None,0,2.0,invertedtriangleorange.gif,go,,,,,,,,,,,,,,,,,,,,,,,,2.1,0.514230966568,0.000902891159058,0.334177970886,1,w,525.729401827,,,,,,,,,,,,,,,,,,,,,,,,,,,,,,,,2015_Jul_06_1256,59.9004017349,LearningTask,1,79,
-200,q,200,,,,,,,,,,,,,,,,,1,0,1,0,0,3,3,1,,,,,,,,,,,,,,,,,,,,,,,,,,,,,q,1,0.317655801773,None,0,1.0,squarecyan.gif,go,,,,,,,,,,,,,,,,,,,,,,,,0.93,0.514324903488,0.000894069671631,0.317655801773,1,q,528.733347893,,,,,,,,,,,,,,,,,,,,,,,,,,,,,,,,2015_Jul_06_1256,59.9004017349,LearningTask,1,79,
200,w,200,,,,,,,,,,,,,,,,,1,0,1,0,1,0,4,0,,,,,,,,,,,,,,,,,,,,,,,,,,,,,w,1,0.317142009735,None,0,0.5,trianglegreen.gif,go,,,,,,,,,,,,,,,,,,,,,,,,0,0.513816833496,0.00089693069458,0.317142009735,1,w,531.736309767,,,,,,,,,,,,,,,,,,,,,,,,,,,,,,,,2015_Jul_06_1256,59.9004017349,LearningTask,1,79,
-200,q,200,,,,,,,,,,,,,,,,,1,0,1,0,1,1,5,1,,,,,,,,,,,,,,,,,,,,,,,,,,,,,q,1,0.367624998093,None,0,2.0,lineyellow.gif,stop,,,,,,,,,,,,,,,,,,,,,,,,2.16,0.514282941818,0.000904083251953,0.367624998093,1,q,534.739663839,,,,,,,,,,,,,,,,,,,,,,,,,,,,,,,,2015_Jul_06_1256,59.9004017349,LearningTask,1,79,
-200,q,200,,,,,,,,,,,,,,,,,1,0,1,0,1,2,6,1,,,,,,,,,,,,,,,,,,,,,,,,,,,,,q,1,0.351123809814,None,0,1.0,squarecyan.gif,go,,,,,,,,,,,,,,,,,,,,,,,,1.05,0.514222145081,0.00115609169006,0.351123809814,1,q,537.743196964,,,,,,,,,,,,,,,,,,,,,,,,,,,,,,,,2015_Jul_06_1256,59.9004017349,LearningTask,1,79,
-200,a,-200,,,,,,,,,,,,,,,,,1,0,1,0,1,3,7,3,,,,,,,,,,,,,,,,,,,,,,,,,,,,,a,1,0.400944948196,None,0,1.0,hexagonmagenta.gif,stop,,,,,,,,,,,,,,,,,,,,,,,,0.76,0.514010906219,0.00089693069458,0.400944948196,1,a,540.746529818,,,,,,,,,,,,,,,,,,,,,,,,,,,,,,,,2015_Jul_06_1256,59.9004017349,LearningTask,1,79,
-200,a,-200,,,,,,,,,,,,,,,,,1,0,1,0,2,0,8,3,,,,,,,,,,,,,,,,,,,,,,,,,,,,,a,1,0.417927980423,None,0,4.0,crosswhite.gif,go,,,,,,,,,,,,,,,,,,,,,,,,0,0.514074802399,0.00101590156555,0.417927980423,1,a,543.750018835,,,,,,,,,,,,,,,,,,,,,,,,,,,,,,,,2015_Jul_06_1256,59.9004017349,LearningTask,1,79,
-200,q,200,,,,,,,,,,,,,,,,,1,0,1,0,2,1,9,1,,,,,,,,,,,,,,,,,,,,,,,,,,,,,q,1,0.351087093353,None,0,2.0,invertedtriangleorange.gif,go,,,,,,,,,,,,,,,,,,,,,,,,2.24,0.513916015625,0.000902891159058,0.351087093353,1,q,546.752995968,,,,,,,,,,,,,,,,,,,,,,,,,,,,,,,,2015_Jul_06_1256,59.9004017349,LearningTask,1,79,
-200,q,200,,,,,,,,,,,,,,,,,1,0,1,0,2,2,10,1,,,,,,,,,,,,,,,,,,,,,,,,,,,,,q,1,0.350694894791,None,0,4.0,crosswhite.gif,go,,,,,,,,,,,,,,,,,,,,,,,,4.04,0.514499902725,0.000900983810425,0.350694894791,1,q,549.75639081,,,,,,,,,,,,,,,,,,,,,,,,,,,,,,,,2015_Jul_06_1256,59.9004017349,LearningTask,1,79,
-200,q,200,,,,,,,,,,,,,,,,,1,0,1,0,2,3,11,1,,,,,,,,,,,,,,,,,,,,,,,,,,,,,q,1,0.367628097534,None,0,0.5,circlegray.gif,stop,,,,,,,,,,,,,,,,,,,,,,,,0,0.514131069183,0.000964164733887,0.367628097534,1,q,552.759609938,,,,,,,,,,,,,,,,,,,,,,,,,,,,,,,,2015_Jul_06_1256,59.9004017349,LearningTask,1,79,
200,s,-200,,,,,,,,,,,,,,,,,1,0,1,0,3,0,12,2,,,,,,,,,,,,,,,,,,,,,,,,,,,,,s,1,0.400856971741,None,0,1.0,squarecyan.gif,go,,,,,,,,,,,,,,,,,,,,,,,,1.1,0.514145851135,0.000926971435547,0.400856971741,1,s,555.763387918,,,,,,,,,,,,,,,,,,,,,,,,,,,,,,,,2015_Jul_06_1256,59.9004017349,LearningTask,1,79,
-200,a,-200,,,,,,,,,,,,,,,,,1,0,1,0,3,1,13,3,,,,,,,,,,,,,,,,,,,,,,,,,,,,,a,1,0.401245832443,None,0,1.0,squarecyan.gif,go,,,,,,,,,,,,,,,,,,,,,,,,0,0.514080047607,0.000890970230103,0.401245832443,1,a,558.766381979,,,,,,,,,,,,,,,,,,,,,,,,,,,,,,,,2015_Jul_06_1256,59.9004017349,LearningTask,1,79,
200,s,-200,,,,,,,,,,,,,,,,,1,0,1,0,3,2,14,2,,,,,,,,,,,,,,,,,,,,,,,,,,,,,s,1,0.351058006287,None,0,4.0,crosswhite.gif,go,,,,,,,,,,,,,,,,,,,,,,,,3.81,0.513885974884,0.00092887878418,0.351058006287,1,s,561.769691944,,,,,,,,,,,,,,,,,,,,,,,,,,,,,,,,2015_Jul_06_1256,59.9004017349,LearningTask,1,79,
-200,q,200,,,,,,,,,,,,,,,,,1,0,1,0,3,3,15,1,,,,,,,,,,,,,,,,,,,,,,,,,,,,,q,1,0.451153039932,None,0,0.5,trianglegreen.gif,go,,,,,,,,,,,,,,,,,,,,,,,,0,0.514517068863,0.000908136367798,0.451153039932,1,q,564.773207903,,,,,,,,,,,,,,,,,,,,,,,,,,,,,,,,2015_Jul_06_1256,59.9004017349,LearningTask,1,79,
-200,a,-200,,,,,,,,,,,,,,,,,1,0,1,0,4,0,16,3,,,,,,,,,,,,,,,,,,,,,,,,,,,,,a,1,0.334201097488,None,0,1.0,squarecyan.gif,go,,,,,,,,,,,,,,,,,,,,,,,,1.23,0.514367103577,0.000899076461792,0.334201097488,1,a,567.776609898,,,,,,,,,,,,,,,,,,,,,,,,,,,,,,,,2015_Jul_06_1256,59.9004017349,LearningTask,1,79,
200,w,200,,,,,,,,,,,,,,,,,1,0,1,0,4,1,17,0,,,,,,,,,,,,,,,,,,,,,,,,,,,,,w,1,0.334592103958,None,0,0.5,circlegray.gif,stop,,,,,,,,,,,,,,,,,,,,,,,,0.72,0.513994932175,0.000907897949219,0.334592103958,1,w,570.779655933,,,,,,,,,,,,,,,,,,,,,,,,,,,,,,,,2015_Jul_06_1256,59.9004017349,LearningTask,1,79,
-200,q,200,,,,,,,,,,,,,,,,,1,0,1,0,4,2,18,1,,,,,,,,,,,,,,,,,,,,,,,,,,,,,q,1,0.317911148071,None,0,0.5,circlegray.gif,stop,,,,,,,,,,,,,,,,,,,,,,,,0,0.514443874359,0.000911951065063,0.317911148071,1,q,573.783252954,,,,,,,,,,,,,,,,,,,,,,,,,,,,,,,,2015_Jul_06_1256,59.9004017349,LearningTask,1,79,
200,w,200,,,,,,,,,,,,,,,,,1,0,1,0,4,3,19,0,,,,,,,,,,,,,,,,,,,,,,,,,,,,,w,1,0.367528915405,None,0,4.0,diamondblue.gif,stop,,,,,,,,,,,,,,,,,,,,,,,,4.1,0.514261960983,0.000902891159058,0.367528915405,1,w,576.786957979,,,,,,,,,,,,,,,,,,,,,,,,,,,,,,,,2015_Jul_06_1256,59.9004017349,LearningTask,1,79,
-200,q,200,,,,,,,,,,,,,,,,,1,0,1,0,5,0,20,1,,,,,,,,,,,,,,,,,,,,,,,,,,,,,q,1,0.317479848862,None,0,4.0,crosswhite.gif,go,,,,,,,,,,,,,,,,,,,,,,,,4.11,0.514109134674,0.00116205215454,0.317479848862,1,q,579.790149927,,,,,,,,,,,,,,,,,,,,,,,,,,,,,,,,2015_Jul_06_1256,59.9004017349,LearningTask,1,79,
200,s,-200,,,,,,,,,,,,,,,,,1,0,1,0,5,1,21,2,,,,,,,,,,,,,,,,,,,,,,,,,,,,,s,1,0.284417867661,None,0,0.5,trianglegreen.gif,go,,,,,,,,,,,,,,,,,,,,,,,,0,0.51415514946,0.000880002975464,0.284417867661,1,s,582.793268919,,,,,,,,,,,,,,,,,,,,,,,,,,,,,,,,2015_Jul_06_1256,59.9004017349,LearningTask,1,79,
-200,q,200,,,,,,,,,,,,,,,,,1,0,1,0,5,2,22,1,,,,,,,,,,,,,,,,,,,,,,,,,,,,,q,1,0.334506988525,None,0,1.0,hexagonmagenta.gif,stop,,,,,,,,,,,,,,,,,,,,,,,,0.95,0.51433300972,0.000922918319702,0.334506988525,1,q,585.796668768,,,,,,,,,,,,,,,,,,,,,,,,,,,,,,,,2015_Jul_06_1256,59.9004017349,LearningTask,1,79,
-200,q,200,,,,,,,,,,,,,,,,,1,0,1,0,5,3,23,1,,,,,,,,,,,,,,,,,,,,,,,,,,,,,q,1,0.350188016891,None,0,4.0,diamondblue.gif,stop,,,,,,,,,,,,,,,,,,,,,,,,0,0.514357089996,0.000901937484741,0.350188016891,1,q,588.800037861,,,,,,,,,,,,,,,,,,,,,,,,,,,,,,,,2015_Jul_06_1256,59.9004017349,LearningTask,1,79,
-200,q,200,,,,,,,,,,,,,,,,,1,0,1,0,6,0,24,1,,,,,,,,,,,,,,,,,,,,,,,,,,,,,q,1,0.317653894424,None,0,2.0,lineyellow.gif,stop,,,,,,,,,,,,,,,,,,,,,,,,0,0.514256000519,0.000985145568848,0.317653894424,1,q,591.804060936,,,,,,,,,,,,,,,,,,,,,,,,,,,,,,,,2015_Jul_06_1256,59.9004017349,LearningTask,1,79,
200,w,200,,,,,,,,,,,,,,,,,1,0,1,0,6,1,25,0,,,,,,,,,,,,,,,,,,,,,,,,,,,,,w,1,0.300813913345,None,0,0.5,circlegray.gif,stop,,,,,,,,,,,,,,,,,,,,,,,,0.66,0.513497114182,0.000887155532837,0.300813913345,1,w,594.806770802,,,,,,,,,,,,,,,,,,,,,,,,,,,,,,,,2015_Jul_06_1256,59.9004017349,LearningTask,1,79,
200,s,-200,,,,,,,,,,,,,,,,,1,0,1,0,6,2,26,2,,,,,,,,,,,,,,,,,,,,,,,,,,,,,s,1,0.317909955978,None,0,1.0,squarecyan.gif,go,,,,,,,,,,,,,,,,,,,,,,,,0,0.514266967773,0.000871896743774,0.317909955978,1,s,597.81003499,,,,,,,,,,,,,,,,,,,,,,,,,,,,,,,,2015_Jul_06_1256,59.9004017349,LearningTask,1,79,
200,w,200,,,,,,,,,,,,,,,,,1,0,1,0,6,3,27,0,,,,,,,,,,,,,,,,,,,,,,,,,,,,,w,1,0.317753076553,None,0,2.0,lineyellow.gif,stop,,,,,,,,,,,,,,,,,,,,,,,,2.07,0.514173030853,0.000923871994019,0.317753076553,1,w,600.813365936,,,,,,,,,,,,,,,,,,,,,,,,,,,,,,,,2015_Jul_06_1256,59.9004017349,LearningTask,1,79,
-200,a,-200,,,,,,,,,,,,,,,,,1,0,1,0,7,0,28,3,,,,,,,,,,,,,,,,,,,,,,,,,,,,,a,1,0.350540876389,None,0,0.5,circlegray.gif,stop,,,,,,,,,,,,,,,,,,,,,,,,0,0.514676809311,0.000882863998413,0.350540876389,1,a,603.816990852,,,,,,,,,,,,,,,,,,,,,,,,,,,,,,,,2015_Jul_06_1256,59.9004017349,LearningTask,1,79,
200,w,200,,,,,,,,,,,,,,,,,1,0,1,0,7,1,29,0,,,,,,,,,,,,,,,,,,,,,,,,,,,,,w,1,0.333909988403,None,0,0.5,trianglegreen.gif,go,,,,,,,,,,,,,,,,,,,,,,,,0.46,0.514273166656,0.000886201858521,0.333909988403,1,w,606.820039988,,,,,,,,,,,,,,,,,,,,,,,,,,,,,,,,2015_Jul_06_1256,59.9004017349,LearningTask,1,79,
200,s,-200,,,,,,,,,,,,,,,,,1,0,1,0,7,2,30,2,,,,,,,,,,,,,,,,,,,,,,,,,,,,,s,1,0.350223064423,None,0,4.0,diamondblue.gif,stop,,,,,,,,,,,,,,,,,,,,,,,,4.15,0.514631032944,0.00094199180603,0.350223064423,1,s,609.823505878,,,,,,,,,,,,,,,,,,,,,,,,,,,,,,,,2015_Jul_06_1256,59.9004017349,LearningTask,1,79,
200,s,-200,,,,,,,,,,,,,,,,,1,0,1,0,7,3,31,2,,,,,,,,,,,,,,,,,,,,,,,,,,,,,s,1,0.367527008057,None,0,0.5,circlegray.gif,stop,,,,,,,,,,,,,,,,,,,,,,,,0.59,0.514478206635,0.000883102416992,0.367527008057,1,s,612.827031851,,,,,,,,,,,,,,,,,,,,,,,,,,,,,,,,2015_Jul_06_1256,59.9004017349,LearningTask,1,79,
200,w,200,,,,,,,,,,,,,,,,,1,0,1,0,8,0,32,0,,,,,,,,,,,,,,,,,,,,,,,,,,,,,w,1,0.384155035019,None,0,2.0,invertedtriangleorange.gif,go,,,,,,,,,,,,,,,,,,,,,,,,2.13,0.514146089554,0.00088095664978,0.384155035019,1,w,615.830394983,,,,,,,,,,,,,,,,,,,,,,,,,,,,,,,,2015_Jul_06_1256,59.9004017349,LearningTask,1,79,
200,w,200,,,,,,,,,,,,,,,,,1,0,1,0,8,1,33,0,,,,,,,,,,,,,,,,,,,,,,,,,,,,,w,1,0.351436853409,None,0,1.0,squarecyan.gif,go,,,,,,,,,,,,,,,,,,,,,,,,1.18,0.513763189316,0.00090217590332,0.351436853409,1,w,618.833605766,,,,,,,,,,,,,,,,,,,,,,,,,,,,,,,,2015_Jul_06_1256,59.9004017349,LearningTask,1,79,
200,w,200,,,,,,,,,,,,,,,,,1,0,1,0,8,2,34,0,,,,,,,,,,,,,,,,,,,,,,,,,,,,,w,1,0.366945981979,None,0,2.0,invertedtriangleorange.gif,go,,,,,,,,,,,,,,,,,,,,,,,,0,0.514656066895,0.00088095664978,0.366945981979,1,w,621.837210894,,,,,,,,,,,,,,,,,,,,,,,,,,,,,,,,2015_Jul_06_1256,59.9004017349,LearningTask,1,79,
200,s,-200,,,,,,,,,,,,,,,,,1,0,1,0,8,3,35,2,,,,,,,,,,,,,,,,,,,,,,,,,,,,,s,1,0.400506973267,None,0,2.0,lineyellow.gif,stop,,,,,,,,,,,,,,,,,,,,,,,,2.15,0.51455116272,0.000960111618042,0.400506973267,1,s,624.840557814,,,,,,,,,,,,,,,,,,,,,,,,,,,,,,,,2015_Jul_06_1256,59.9004017349,LearningTask,1,79,
200,w,200,,,,,,,,,,,,,,,,,1,0,1,0,9,0,36,0,,,,,,,,,,,,,,,,,,,,,,,,,,,,,w,1,0.334233999252,None,0,1.0,squarecyan.gif,go,,,,,,,,,,,,,,,,,,,,,,,,0.79,0.513987779617,0.000870943069458,0.334233999252,1,w,627.843723774,,,,,,,,,,,,,,,,,,,,,,,,,,,,,,,,2015_Jul_06_1256,59.9004017349,LearningTask,1,79,
-200,q,200,,,,,,,,,,,,,,,,,1,0,1,0,9,1,37,1,,,,,,,,,,,,,,,,,,,,,,,,,,,,,q,1,0.367181062698,None,0,2.0,invertedtriangleorange.gif,go,,,,,,,,,,,,,,,,,,,,,,,,0,0.514099121094,0.00117111206055,0.367671966553,0,a,630.846925974,0,0.515699148178,0.000967025756836,0.367181062698,1,q,633.85065484,,,,,,,,,,,,,,,,,,,,,,,,,2015_Jul_06_1256,59.9004017349,LearningTask,1,79,
-200,a,-200,,,,,,,,,,,,,,,,,1,0,1,0,9,2,38,3,,,,,,,,,,,,,,,,,,,,,,,,,,,,,a,1,0.417255878448,None,0,0.5,circlegray.gif,stop,,,,,,,,,,,,,,,,,,,,,,,,0,0.514132976532,0.000886917114258,0.417255878448,1,a,636.853596926,,,,,,,,,,,,,,,,,,,,,,,,,,,,,,,,2015_Jul_06_1256,59.9004017349,LearningTask,1,79,
-200,a,-200,,,,,,,,,,,,,,,,,1,0,1,0,9,3,39,3,,,,,,,,,,,,,,,,,,,,,,,,,,,,,a,1,0.400879144669,None,0,0.5,trianglegreen.gif,go,,,,,,,,,,,,,,,,,,,,,,,,0.31,0.51443195343,0.000909090042114,0.400879144669,1,a,639.856776953,,,,,,,,,,,,,,,,,,,,,,,,,,,,,,,,2015_Jul_06_1256,59.9004017349,LearningTask,1,79,
-200,q,200,,,,,,,,,,,,,,,,,1,0,1,0,10,0,40,1,,,,,,,,,,,,,,,,,,,,,,,,,,,,,q,1,0.350814819336,None,0,1.0,hexagonmagenta.gif,stop,,,,,,,,,,,,,,,,,,,,,,,,0.99,0.514765024185,0.000879049301147,0.350814819336,1,q,642.861081839,,,,,,,,,,,,,,,,,,,,,,,,,,,,,,,,2015_Jul_06_1256,59.9004017349,LearningTask,1,79,
200,w,200,,,,,,,,,,,,,,,,,1,0,1,0,10,1,41,0,,,,,,,,,,,,,,,,,,,,,,,,,,,,,w,1,0.367557048798,None,0,0.5,circlegray.gif,stop,,,,,,,,,,,,,,,,,,,,,,,,0.72,0.513543128967,0.000988960266113,0.367557048798,1,w,645.863864899,,,,,,,,,,,,,,,,,,,,,,,,,,,,,,,,2015_Jul_06_1256,59.9004017349,LearningTask,1,79,
-200,q,200,,,,,,,,,,,,,,,,,1,0,1,0,10,2,42,1,,,,,,,,,,,,,,,,,,,,,,,,,,,,,q,1,0.301254034042,None,0,1.0,squarecyan.gif,go,,,,,,,,,,,,,,,,,,,,,,,,1.15,0.513953924179,0.000931024551392,0.301254034042,1,q,648.867064953,,,,,,,,,,,,,,,,,,,,,,,,,,,,,,,,2015_Jul_06_1256,59.9004017349,LearningTask,1,79,
200,s,-200,,,,,,,,,,,,,,,,,1,0,1,0,10,3,43,2,,,,,,,,,,,,,,,,,,,,,,,,,,,,,s,1,0.384048938751,None,0,0.5,trianglegreen.gif,go,,,,,,,,,,,,,,,,,,,,,,,,0.74,0.514379024506,0.000874042510986,0.384048938751,1,s,651.871092796,,,,,,,,,,,,,,,,,,,,,,,,,,,,,,,,2015_Jul_06_1256,59.9004017349,LearningTask,1,79,
200,s,-200,,,,,,,,,,,,,,,,,1,0,1,0,11,0,44,2,,,,,,,,,,,,,,,,,,,,,,,,,,,,,s,1,0.351337909698,None,0,1.0,squarecyan.gif,go,,,,,,,,,,,,,,,,,,,,,,,,1.21,0.513773918152,0.000874996185303,0.351337909698,1,s,654.874206781,,,,,,,,,,,,,,,,,,,,,,,,,,,,,,,,2015_Jul_06_1256,59.9004017349,LearningTask,1,79,
200,s,-200,,,,,,,,,,,,,,,,,1,0,1,0,11,1,45,2,,,,,,,,,,,,,,,,,,,,,,,,,,,,,s,1,0.417122125626,None,0,1.0,squarecyan.gif,go,,,,,,,,,,,,,,,,,,,,,,,,0,0.514101028442,0.00090503692627,0.417122125626,1,s,657.877270937,,,,,,,,,,,,,,,,,,,,,,,,,,,,,,,,2015_Jul_06_1256,59.9004017349,LearningTask,1,79,
200,w,200,,,,,,,,,,,,,,,,,1,0,1,0,11,2,46,0,,,,,,,,,,,,,,,,,,,,,,,,,,,,,w,1,0.351174116135,None,0,0.5,trianglegreen.gif,go,,,,,,,,,,,,,,,,,,,,,,,,0.5,0.514276981354,0.000880002975464,0.351174116135,1,w,660.880726814,,,,,,,,,,,,,,,,,,,,,,,,,,,,,,,,2015_Jul_06_1256,59.9004017349,LearningTask,1,79,
-200,a,-200,,,,,,,,,,,,,,,,,1,0,1,0,11,3,47,3,,,,,,,,,,,,,,,,,,,,,,,,,,,,,a,1,0.384226799011,None,0,2.0,invertedtriangleorange.gif,go,,,,,,,,,,,,,,,,,,,,,,,,2.07,0.514267921448,0.000885009765625,0.384226799011,1,a,663.884041786,,,,,,,,,,,,,,,,,,,,,,,,,,,,,,,,2015_Jul_06_1256,59.9004017349,LearningTask,1,79,
-200,q,200,,,,,,,,,,,,,,,,,1,0,1,0,12,0,48,1,,,,,,,,,,,,,,,,,,,,,,,,,,,,,q,1,0.367530107498,None,0,0.5,trianglegreen.gif,go,,,,,,,,,,,,,,,,,,,,,,,,0.49,0.514065027237,0.000895023345947,0.367530107498,1,q,666.887261868,,,,,,,,,,,,,,,,,,,,,,,,,,,,,,,,2015_Jul_06_1256,59.9004017349,LearningTask,1,79,
-200,a,-200,,,,,,,,,,,,,,,,,1,0,1,0,12,1,49,3,,,,,,,,,,,,,,,,,,,,,,,,,,,,,a,1,0.38426399231,None,0,1.0,squarecyan.gif,go,,,,,,,,,,,,,,,,,,,,,,,,0,0.514497995377,0.000880002975464,0.38426399231,1,a,669.890724897,,,,,,,,,,,,,,,,,,,,,,,,,,,,,,,,2015_Jul_06_1256,59.9004017349,LearningTask,1,79,
200,s,-200,,,,,,,,,,,,,,,,,1,0,1,0,12,2,50,2,,,,,,,,,,,,,,,,,,,,,,,,,,,,,s,1,0.35089802742,None,0,2.0,invertedtriangleorange.gif,go,,,,,,,,,,,,,,,,,,,,,,,,2.09,0.514143943787,0.00088095664978,0.35089802742,1,s,672.894308805,,,,,,,,,,,,,,,,,,,,,,,,,,,,,,,,2015_Jul_06_1256,59.9004017349,LearningTask,1,79,
200,w,200,,,,,,,,,,,,,,,,,1,0,1,0,12,3,51,0,,,,,,,,,,,,,,,,,,,,,,,,,,,,,w,1,0.368170022964,None,0,1.0,hexagonmagenta.gif,stop,,,,,,,,,,,,,,,,,,,,,,,,0,0.513691902161,0.000898122787476,0.368170022964,1,w,675.897252798,,,,,,,,,,,,,,,,,,,,,,,,,,,,,,,,2015_Jul_06_1256,59.9004017349,LearningTask,1,79,
200,s,-200,,,,,,,,,,,,,,,,,1,0,1,0,13,0,52,2,,,,,,,,,,,,,,,,,,,,,,,,,,,,,s,1,0.400399923325,None,0,0.5,circlegray.gif,stop,,,,,,,,,,,,,,,,,,,,,,,,0.42,0.514621973038,0.000888109207153,0.400399923325,1,s,678.901130915,,,,,,,,,,,,,,,,,,,,,,,,,,,,,,,,2015_Jul_06_1256,59.9004017349,LearningTask,1,79,
200,s,-200,,,,,,,,,,,,,,,,,1,0,1,0,13,1,53,2,,,,,,,,,,,,,,,,,,,,,,,,,,,,,s,1,0.350882053375,None,0,1.0,squarecyan.gif,go,,,,,,,,,,,,,,,,,,,,,,,,0,0.514088153839,0.000872135162354,0.350882053375,1,s,681.904090881,,,,,,,,,,,,,,,,,,,,,,,,,,,,,,,,2015_Jul_06_1256,59.9004017349,LearningTask,1,79,
-200,a,-200,,,,,,,,,,,,,,,,,1,0,1,0,13,2,54,3,,,,,,,,,,,,,,,,,,,,,,,,,,,,,a,1,0.401057004929,None,0,0.5,circlegray.gif,stop,,,,,,,,,,,,,,,,,,,,,,,,0.52,0.514284133911,0.000887155532837,0.401057004929,1,a,684.907405853,,,,,,,,,,,,,,,,,,,,,,,,,,,,,,,,2015_Jul_06_1256,59.9004017349,LearningTask,1,79,
200,s,-200,,,,,,,,,,,,,,,,,1,0,1,0,13,3,55,2,,,,,,,,,,,,,,,,,,,,,,,,,,,,,s,1,0.417526960373,None,0,2.0,invertedtriangleorange.gif,go,,,,,,,,,,,,,,,,,,,,,,,,2.24,0.514448881149,0.000993013381958,0.417526960373,1,s,687.910467863,,,,,,,,,,,,,,,,,,,,,,,,,,,,,,,,2015_Jul_06_1256,59.9004017349,LearningTask,1,79,
200,w,200,,,,,,,,,,,,,,,,,1,0,1,0,14,0,56,0,,,,,,,,,,,,,,,,,,,,,,,,,,,,,w,1,0.450685977936,None,0,2.0,invertedtriangleorange.gif,go,,,,,,,,,,,,,,,,,,,,,,,,2.16,0.51477599144,0.00088095664978,0.450685977936,1,w,690.914142847,,,,,,,,,,,,,,,,,,,,,,,,,,,,,,,,2015_Jul_06_1256,59.9004017349,LearningTask,1,79,
200,w,200,,,,,,,,,,,,,,,,,1,0,1,0,14,1,57,0,,,,,,,,,,,,,,,,,,,,,,,,,,,,,w,1,0.333492994308,None,0,2.0,lineyellow.gif,stop,,,,,,,,,,,,,,,,,,,,,,,,1.99,0.514652967453,0.000883102416992,0.333492994308,1,w,693.917671919,,,,,,,,,,,,,,,,,,,,,,,,,,,,,,,,2015_Jul_06_1256,59.9004017349,LearningTask,1,79,
200,w,200,,,,,,,,,,,,,,,,,1,0,1,0,14,2,58,0,,,,,,,,,,,,,,,,,,,,,,,,,,,,,w,1,0.350882053375,None,0,1.0,hexagonmagenta.gif,stop,,,,,,,,,,,,,,,,,,,,,,,,0.78,0.513990163803,0.000941038131714,0.350882053375,1,w,696.920907974,,,,,,,,,,,,,,,,,,,,,,,,,,,,,,,,2015_Jul_06_1256,59.9004017349,LearningTask,1,79,
-200,q,200,,,,,,,,,,,,,,,,,1,0,1,0,14,3,59,1,,,,,,,,,,,,,,,,,,,,,,,,,,,,,q,1,0.350753068924,None,0,2.0,invertedtriangleorange.gif,go,,,,,,,,,,,,,,,,,,,,,,,,2.03,0.514600992203,0.000883102416992,0.350753068924,1,q,699.924177885,,,,,,,,,,,,,,,,,,,,,,,,,,,,,,,,2015_Jul_06_1256,59.9004017349,LearningTask,1,79,
200,s,-200,,,,,,,,,,,,,,,,,1,0,1,0,15,0,60,2,,,,,,,,,,,,,,,,,,,,,,,,,,,,,s,1,0.317851066589,None,0,4.0,crosswhite.gif,go,,,,,,,,,,,,,,,,,,,,,,,,3.78,0.514310121536,0.000879049301147,0.317851066589,1,s,702.927360773,,,,,,,,,,,,,,,,,,,,,,,,,,,,,,,,2015_Jul_06_1256,59.9004017349,LearningTask,1,79,
-200,q,200,,,,,,,,,,,,,,,,,1,0,1,0,15,1,61,1,,,,,,,,,,,,,,,,,,,,,,,,,,,,,q,1,0.367996931076,None,0,0.5,circlegray.gif,stop,,,,,,,,,,,,,,,,,,,,,,,,0.52,0.514149904251,0.000921964645386,0.367996931076,1,q,705.930925846,,,,,,,,,,,,,,,,,,,,,,,,,,,,,,,,2015_Jul_06_1256,59.9004017349,LearningTask,1,79,
-200,q,200,,,,,,,,,,,,,,,,,1,0,1,0,15,2,62,1,,,,,,,,,,,,,,,,,,,,,,,,,,,,,q,1,0.350409984589,None,0,2.0,lineyellow.gif,stop,,,,,,,,,,,,,,,,,,,,,,,,2.14,0.514552116394,0.000921964645386,0.350409984589,1,q,708.934326887,,,,,,,,,,,,,,,,,,,,,,,,,,,,,,,,2015_Jul_06_1256,59.9004017349,LearningTask,1,79,
200,s,-200,,,,,,,,,,,,,,,,,1,0,1,0,15,3,63,2,,,,,,,,,,,,,,,,,,,,,,,,,,,,,s,1,0.351225137711,None,0,0.5,circlegray.gif,stop,,,,,,,,,,,,,,,,,,,,,,,,0.61,0.514240980148,0.000885009765625,0.351225137711,1,s,711.937776804,,,,,,,,,,,,,,,,,,,,,,,,,,,,,,,,2015_Jul_06_1256,59.9004017349,LearningTask,1,79,
200,w,200,,,,,,,,,,,,,,,,,1,0,1,0,16,0,64,0,,,,,,,,,,,,,,,,,,,,,,,,,,,,,w,1,0.367506980896,None,0,4.0,crosswhite.gif,go,,,,,,,,,,,,,,,,,,,,,,,,0,0.513957977295,0.000930786132812,0.367506980896,1,w,714.940932989,,,,,,,,,,,,,,,,,,,,,,,,,,,,,,,,2015_Jul_06_1256,59.9004017349,LearningTask,1,79,
-200,q,200,,,,,,,,,,,,,,,,,1,0,1,0,16,1,65,1,,,,,,,,,,,,,,,,,,,,,,,,,,,,,q,1,0.317226171494,None,0,2.0,invertedtriangleorange.gif,go,,,,,,,,,,,,,,,,,,,,,,,,2.08,0.51444196701,0.000878095626831,0.317226171494,1,q,717.944292784,,,,,,,,,,,,,,,,,,,,,,,,,,,,,,,,2015_Jul_06_1256,59.9004017349,LearningTask,1,79,
200,s,-200,,,,,,,,,,,,,,,,,1,0,1,0,16,2,66,2,,,,,,,,,,,,,,,,,,,,,,,,,,,,,s,1,0.417695999146,None,0,0.5,trianglegreen.gif,go,,,,,,,,,,,,,,,,,,,,,,,,0.25,0.514383077621,0.000902891159058,0.417695999146,1,s,720.947912931,,,,,,,,,,,,,,,,,,,,,,,,,,,,,,,,2015_Jul_06_1256,59.9004017349,LearningTask,1,79,
200,s,-200,,,,,,,,,,,,,,,,,1,0,1,0,16,3,67,2,,,,,,,,,,,,,,,,,,,,,,,,,,,,,s,1,0.367424964905,None,0,4.0,crosswhite.gif,go,,,,,,,,,,,,,,,,,,,,,,,,3.78,0.514341115952,0.000885963439941,0.367424964905,1,s,723.951040983,,,,,,,,,,,,,,,,,,,,,,,,,,,,,,,,2015_Jul_06_1256,59.9004017349,LearningTask,1,79,
-200,q,200,,,,,,,,,,,,,,,,,1,0,1,0,17,0,68,1,,,,,,,,,,,,,,,,,,,,,,,,,,,,,q,1,0.317282915115,None,0,0.5,circlegray.gif,stop,,,,,,,,,,,,,,,,,,,,,,,,0,0.514444112778,0.000885963439941,0.317282915115,1,q,726.954295874,,,,,,,,,,,,,,,,,,,,,,,,,,,,,,,,2015_Jul_06_1256,59.9004017349,LearningTask,1,79,
-200,q,200,,,,,,,,,,,,,,,,,1,0,1,0,17,1,69,1,,,,,,,,,,,,,,,,,,,,,,,,,,,,,q,1,0.367690086365,None,0,2.0,invertedtriangleorange.gif,go,,,,,,,,,,,,,,,,,,,,,,,,1.92,0.514438867569,0.000921010971069,0.367690086365,1,q,729.958029985,,,,,,,,,,,,,,,,,,,,,,,,,,,,,,,,2015_Jul_06_1256,59.9004017349,LearningTask,1,79,
-200,a,-200,,,,,,,,,,,,,,,,,1,0,1,0,17,2,70,3,,,,,,,,,,,,,,,,,,,,,,,,,,,,,a,1,0.384019851685,None,0,2.0,invertedtriangleorange.gif,go,,,,,,,,,,,,,,,,,,,,,,,,2.19,0.514350175858,0.000894069671631,0.384019851685,1,a,732.961051941,,,,,,,,,,,,,,,,,,,,,,,,,,,,,,,,2015_Jul_06_1256,59.9004017349,LearningTask,1,79,
200,s,-200,,,,,,,,,,,,,,,,,1,0,1,0,17,3,71,2,,,,,,,,,,,,,,,,,,,,,,,,,,,,,s,1,0.384155035019,None,0,1.0,hexagonmagenta.gif,stop,,,,,,,,,,,,,,,,,,,,,,,,1.09,0.51472902298,0.000931978225708,0.384155035019,1,s,735.964146852,,,,,,,,,,,,,,,,,,,,,,,,,,,,,,,,2015_Jul_06_1256,59.9004017349,LearningTask,1,79,
200,s,-200,,,,,,,,,,,,,,,,,1,0,1,0,18,0,72,2,,,,,,,,,,,,,,,,,,,,,,,,,,,,,s,1,0.350962162018,None,0,0.5,circlegray.gif,stop,,,,,,,,,,,,,,,,,,,,,,,,0.25,0.514930009842,0.000880002975464,0.350962162018,1,s,738.967919827,,,,,,,,,,,,,,,,,,,,,,,,,,,,,,,,2015_Jul_06_1256,59.9004017349,LearningTask,1,79,
-200,a,-200,,,,,,,,,,,,,,,,,1,0,1,0,18,1,73,3,,,,,,,,,,,,,,,,,,,,,,,,,,,,,a,1,0.367479085922,None,0,2.0,lineyellow.gif,stop,,,,,,,,,,,,,,,,,,,,,,,,0,0.514433145523,0.000923156738281,0.367479085922,1,a,741.971203804,,,,,,,,,,,,,,,,,,,,,,,,,,,,,,,,2015_Jul_06_1256,59.9004017349,LearningTask,1,79,
-200,a,-200,,,,,,,,,,,,,,,,,1,0,1,0,18,2,74,3,,,,,,,,,,,,,,,,,,,,,,,,,,,,,a,1,0.334201097488,None,0,1.0,hexagonmagenta.gif,stop,,,,,,,,,,,,,,,,,,,,,,,,1.09,0.514298915863,0.000933885574341,0.334201097488,1,a,744.974497795,,,,,,,,,,,,,,,,,,,,,,,,,,,,,,,,2015_Jul_06_1256,59.9004017349,LearningTask,1,79,
-200,a,-200,,,,,,,,,,,,,,,,,1,0,1,0,18,3,75,3,,,,,,,,,,,,,,,,,,,,,,,,,,,,,a,1,0.333978176117,None,0,1.0,hexagonmagenta.gif,stop,,,,,,,,,,,,,,,,,,,,,,,,0,0.51446890831,0.00091290473938,0.333978176117,1,a,747.977933884,,,,,,,,,,,,,,,,,,,,,,,,,,,,,,,,2015_Jul_06_1256,59.9004017349,LearningTask,1,79,
200,s,-200,,,,,,,,,,,,,,,,,1,0,1,0,19,0,76,2,,,,,,,,,,,,,,,,,,,,,,,,,,,,,s,1,0.334177970886,None,0,1.0,squarecyan.gif,go,,,,,,,,,,,,,,,,,,,,,,,,0,0.514397144318,0.000886201858521,0.334177970886,1,s,750.981609821,,,,,,,,,,,,,,,,,,,,,,,,,,,,,,,,2015_Jul_06_1256,59.9004017349,LearningTask,1,79,
200,s,-200,,,,,,,,,,,,,,,,,1,0,1,0,19,1,77,2,,,,,,,,,,,,,,,,,,,,,,,,,,,,,s,1,0.36691904068,None,0,4.0,crosswhite.gif,go,,,,,,,,,,,,,,,,,,,,,,,,3.93,0.514262914658,0.000881910324097,0.36691904068,1,s,753.984806776,,,,,,,,,,,,,,,,,,,,,,,,,,,,,,,,2015_Jul_06_1256,59.9004017349,LearningTask,1,79,
-200,a,-200,,,,,,,,,,,,,,,,,1,0,1,0,19,2,78,3,,,,,,,,,,,,,,,,,,,,,,,,,,,,,a,1,0.36748790741,None,0,1.0,squarecyan.gif,go,,,,,,,,,,,,,,,,,,,,,,,,1.07,0.51419711113,0.00088095664978,0.36748790741,1,a,756.988016844,,,,,,,,,,,,,,,,,,,,,,,,,,,,,,,,2015_Jul_06_1256,59.9004017349,LearningTask,1,79,
200,w,200,,,,,,,,,,,,,,,,,1,0,1,0,19,3,79,0,,,,,,,,,,,,,,,,,,,,,,,,,,,,,w,1,0.401324033737,None,0,2.0,lineyellow.gif,stop,,,,,,,,,,,,,,,,,,,,,,,,2.09,0.514351129532,0.000886917114258,0.401324033737,1,w,759.991638899,,,,,,,,,,,,,,,,,,,,,,,,,,,,,,,,2015_Jul_06_1256,59.9004017349,LearningTask,1,79,
-200,a,-200,,,,,,,,,,,,,,,,,1,0,1,0,20,0,80,3,,,,,,,,,,,,,,,,,,,,,,,,,,,,,a,1,0.434383869171,None,0,0.5,trianglegreen.gif,go,,,,,,,,,,,,,,,,,,,,,,,,0.55,0.513833045959,0.00092887878418,0.434383869171,1,a,762.994679928,,,,,,,,,,,,,,,,,,,,,,,,,,,,,,,,2015_Jul_06_1256,59.9004017349,LearningTask,1,79,
-200,q,200,,,,,,,,,,,,,,,,,1,0,1,0,20,1,81,1,,,,,,,,,,,,,,,,,,,,,,,,,,,,,q,1,0.367836952209,None,0,0.5,trianglegreen.gif,go,,,,,,,,,,,,,,,,,,,,,,,,0.65,0.514377832413,0.000873804092407,0.367836952209,1,q,765.998045921,,,,,,,,,,,,,,,,,,,,,,,,,,,,,,,,2015_Jul_06_1256,59.9004017349,LearningTask,1,79,
200,w,200,,,,,,,,,,,,,,,,,1,0,1,0,20,2,82,0,,,,,,,,,,,,,,,,,,,,,,,,,,,,,w,1,0.367338895798,None,0,1.0,squarecyan.gif,go,,,,,,,,,,,,,,,,,,,,,,,,1.07,0.514444112778,0.000990152359009,0.367338895798,1,w,769.001994848,,,,,,,,,,,,,,,,,,,,,,,,,,,,,,,,2015_Jul_06_1256,59.9004017349,LearningTask,1,79,
-200,a,-200,,,,,,,,,,,,,,,,,1,0,1,0,20,3,83,3,,,,,,,,,,,,,,,,,,,,,,,,,,,,,a,1,0.350813150406,None,0,4.0,diamondblue.gif,stop,,,,,,,,,,,,,,,,,,,,,,,,0,0.51348900795,0.00278806686401,0.350813150406,1,a,772.004871845,,,,,,,,,,,,,,,,,,,,,,,,,,,,,,,,2015_Jul_06_1256,59.9004017349,LearningTask,1,79,
200,s,-200,,,,,,,,,,,,,,,,,1,0,1,0,21,0,84,2,,,,,,,,,,,,,,,,,,,,,,,,,,,,,s,1,0.367151975632,None,0,4.0,diamondblue.gif,stop,,,,,,,,,,,,,,,,,,,,,,,,3.85,0.514309883118,0.000893831253052,0.367151975632,1,s,775.008090973,,,,,,,,,,,,,,,,,,,,,,,,,,,,,,,,2015_Jul_06_1256,59.9004017349,LearningTask,1,79,
-200,a,-200,,,,,,,,,,,,,,,,,1,0,1,0,21,1,85,3,,,,,,,,,,,,,,,,,,,,,,,,,,,,,a,1,0.333974838257,None,0,1.0,hexagonmagenta.gif,stop,,,,,,,,,,,,,,,,,,,,,,,,0.98,0.514305830002,0.000882863998413,0.333974838257,1,a,778.011811972,,,,,,,,,,,,,,,,,,,,,,,,,,,,,,,,2015_Jul_06_1256,59.9004017349,LearningTask,1,79,
-200,a,-200,,,,,,,,,,,,,,,,,1,0,1,0,21,2,86,3,,,,,,,,,,,,,,,,,,,,,,,,,,,,,a,1,0.350870132446,None,0,4.0,crosswhite.gif,go,,,,,,,,,,,,,,,,,,,,,,,,3.91,0.514019966125,0.00092601776123,0.350870132446,1,a,781.01509285,,,,,,,,,,,,,,,,,,,,,,,,,,,,,,,,2015_Jul_06_1256,59.9004017349,LearningTask,1,79,
-200,a,-200,,,,,,,,,,,,,,,,,1,0,1,0,21,3,87,3,,,,,,,,,,,,,,,,,,,,,,,,,,,,,a,1,0.36759185791,None,0,4.0,crosswhite.gif,go,,,,,,,,,,,,,,,,,,,,,,,,0,0.514047145844,0.000952959060669,0.36759185791,1,a,784.01855278,,,,,,,,,,,,,,,,,,,,,,,,,,,,,,,,2015_Jul_06_1256,59.9004017349,LearningTask,1,79,
200,w,200,,,,,,,,,,,,,,,,,1,0,1,0,22,0,88,0,,,,,,,,,,,,,,,,,,,,,,,,,,,,,w,1,0.384361982346,None,0,4.0,crosswhite.gif,go,,,,,,,,,,,,,,,,,,,,,,,,4.08,0.514271974564,0.000875949859619,0.384361982346,1,w,787.02182579,,,,,,,,,,,,,,,,,,,,,,,,,,,,,,,,2015_Jul_06_1256,59.9004017349,LearningTask,1,79,
-200,a,-200,,,,,,,,,,,,,,,,,1,0,1,0,22,1,89,3,,,,,,,,,,,,,,,,,,,,,,,,,,,,,a,1,0.367722034454,None,0,4.0,diamondblue.gif,stop,,,,,,,,,,,,,,,,,,,,,,,,4.11,0.513845920563,0.000880002975464,0.367722034454,1,a,790.024949789,,,,,,,,,,,,,,,,,,,,,,,,,,,,,,,,2015_Jul_06_1256,59.9004017349,LearningTask,1,79,
200,w,200,,,,,,,,,,,,,,,,,1,0,1,0,22,2,90,0,,,,,,,,,,,,,,,,,,,,,,,,,,,,,w,1,0.384178876877,None,0,2.0,lineyellow.gif,stop,,,,,,,,,,,,,,,,,,,,,,,,1.84,0.514090061188,0.000923156738281,0.384178876877,1,w,793.028202772,,,,,,,,,,,,,,,,,,,,,,,,,,,,,,,,2015_Jul_06_1256,59.9004017349,LearningTask,1,79,
200,s,-200,,,,,,,,,,,,,,,,,1,0,1,0,22,3,91,2,,,,,,,,,,,,,,,,,,,,,,,,,,,,,s,1,0.384277105331,None,0,2.0,invertedtriangleorange.gif,go,,,,,,,,,,,,,,,,,,,,,,,,2.13,0.514337062836,0.000878095626831,0.384277105331,1,s,796.031849861,,,,,,,,,,,,,,,,,,,,,,,,,,,,,,,,2015_Jul_06_1256,59.9004017349,LearningTask,1,79,
200,s,-200,,,,,,,,,,,,,,,,,1,0,1,0,23,0,92,2,,,,,,,,,,,,,,,,,,,,,,,,,,,,,s,1,0.351042032242,None,0,0.5,trianglegreen.gif,go,,,,,,,,,,,,,,,,,,,,,,,,0,0.51406788826,0.000878810882568,0.351042032242,1,s,799.035099983,,,,,,,,,,,,,,,,,,,,,,,,,,,,,,,,2015_Jul_06_1256,59.9004017349,LearningTask,1,79,
200,w,200,,,,,,,,,,,,,,,,,1,0,1,0,23,1,93,0,,,,,,,,,,,,,,,,,,,,,,,,,,,,,w,1,0.334359884262,None,0,2.0,invertedtriangleorange.gif,go,,,,,,,,,,,,,,,,,,,,,,,,0,0.513731002808,0.000888109207153,0.334359884262,1,w,802.038269997,,,,,,,,,,,,,,,,,,,,,,,,,,,,,,,,2015_Jul_06_1256,59.9004017349,LearningTask,1,79,
-200,q,200,,,,,,,,,,,,,,,,,1,0,1,0,23,2,94,1,,,,,,,,,,,,,,,,,,,,,,,,,,,,,q,1,0.355833053589,None,0,1.0,hexagonmagenta.gif,stop,,,,,,,,,,,,,,,,,,,,,,,,1.13,0.514595031738,0.000879049301147,0.355833053589,1,q,805.041574001,,,,,,,,,,,,,,,,,,,,,,,,,,,,,,,,2015_Jul_06_1256,59.9004017349,LearningTask,1,79,
-200,a,-200,,,,,,,,,,,,,,,,,1,0,1,0,23,3,95,3,,,,,,,,,,,,,,,,,,,,,,,,,,,,,a,1,0.40079498291,None,0,2.0,invertedtriangleorange.gif,go,,,,,,,,,,,,,,,,,,,,,,,,1.95,0.514430999756,0.000879049301147,0.40079498291,1,a,808.045322895,,,,,,,,,,,,,,,,,,,,,,,,,,,,,,,,2015_Jul_06_1256,59.9004017349,LearningTask,1,79,
-200,a,-200,,,,,,,,,,,,,,,,,1,0,1,0,24,0,96,3,,,,,,,,,,,,,,,,,,,,,,,,,,,,,a,1,0.351019859314,None,0,2.0,invertedtriangleorange.gif,go,,,,,,,,,,,,,,,,,,,,,,,,2.05,0.513808012009,0.000893831253052,0.351019859314,1,a,811.048415899,,,,,,,,,,,,,,,,,,,,,,,,,,,,,,,,2015_Jul_06_1256,59.9004017349,LearningTask,1,79,
-200,a,-200,,,,,,,,,,,,,,,,,1,0,1,0,24,1,97,3,,,,,,,,,,,,,,,,,,,,,,,,,,,,,a,1,0.350764036179,None,0,0.5,trianglegreen.gif,go,,,,,,,,,,,,,,,,,,,,,,,,0.43,0.514320850372,0.000878810882568,0.350764036179,1,a,814.051680803,,,,,,,,,,,,,,,,,,,,,,,,,,,,,,,,2015_Jul_06_1256,59.9004017349,LearningTask,1,79,
-200,q,200,,,,,,,,,,,,,,,,,1,0,1,0,24,2,98,1,,,,,,,,,,,,,,,,,,,,,,,,,,,,,q,1,0.38408780098,None,0,2.0,invertedtriangleorange.gif,go,,,,,,,,,,,,,,,,,,,,,,,,1.75,0.514317989349,0.000880002975464,0.38408780098,1,q,817.055622816,,,,,,,,,,,,,,,,,,,,,,,,,,,,,,,,2015_Jul_06_1256,59.9004017349,LearningTask,1,79,
-200,a,-200,,,,,,,,,,,,,,,,,1,0,1,0,24,3,99,3,,,,,,,,,,,,,,,,,,,,,,,,,,,,,a,1,0.417598009109,None,0,0.5,circlegray.gif,stop,,,,,,,,,,,,,,,,,,,,,,,,0.32,0.513931035995,0.000898838043213,0.417598009109,1,a,820.058438778,,,,,,,,,,,,,,,,,,,,,,,,,,,,,,,,2015_Jul_06_1256,59.9004017349,LearningTask,1,79,
,,,,,,,,,,,,,,,,,,,1,0,1,0,,,,,,,,,,,,,,,,,,,,,,,,,,,,,,,,,,,,,,,,,,,,,,,,,,,,,,,,,,,,,,,,,,,,,,,,,,,,,,9,8.94461894035,,,,,,,,,,,,,,,,,,,,,,,2015_Jul_06_1256,59.9004017349,LearningTask,1,79,
-200,a,-200,,,,,,,,,,,,,,,,,2,0,2,0,0,0,0,3,,,,,,,,,,,,,,,,,,,,,,,,,,,,,a,1,0.384181976318,None,0,2.0,lineyellow.gif,stop,,,,,,,,,,,,,,,,,,,,,,,,2.2,0.509363889694,0.000967025756836,0.384181976318,1,a,832.689714909,,,,,,,,,,,,,,,,,,,,,,,,,,,,,,,,2015_Jul_06_1256,59.9004017349,LearningTask,1,79,
-200,a,-200,,,,,,,,,,,,,,,,,2,0,2,0,0,1,1,3,,,,,,,,,,,,,,,,,,,,,,,,,,,,,a,1,0.350764036179,None,0,0.5,trianglegreen.gif,go,,,,,,,,,,,,,,,,,,,,,,,,0,0.513928890228,0.000898838043213,0.350764036179,1,a,835.692674875,,,,,,,,,,,,,,,,,,,,,,,,,,,,,,,,2015_Jul_06_1256,59.9004017349,LearningTask,1,79,
200,s,-200,,,,,,,,,,,,,,,,,2,0,2,0,0,2,2,2,,,,,,,,,,,,,,,,,,,,,,,,,,,,,s,1,0.333895921707,None,0,2.0,lineyellow.gif,stop,,,,,,,,,,,,,,,,,,,,,,,,2.17,0.514371156693,0.000953197479248,0.333895921707,1,s,838.696234941,,,,,,,,,,,,,,,,,,,,,,,,,,,,,,,,2015_Jul_06_1256,59.9004017349,LearningTask,1,79,
200,s,-200,,,,,,,,,,,,,,,,,2,0,2,0,0,3,3,2,,,,,,,,,,,,,,,,,,,,,,,,,,,,,s,1,0.384729862213,None,0,2.0,lineyellow.gif,stop,,,,,,,,,,,,,,,,,,,,,,,,0,0.513885974884,0.000943899154663,0.384729862213,1,s,841.699382782,,,,,,,,,,,,,,,,,,,,,,,,,,,,,,,,2015_Jul_06_1256,59.9004017349,LearningTask,1,79,
200,w,200,,,,,,,,,,,,,,,,,2,0,2,0,1,0,4,0,,,,,,,,,,,,,,,,,,,,,,,,,,,,,w,1,0.300796031952,None,0,4.0,crosswhite.gif,go,,,,,,,,,,,,,,,,,,,,,,,,3.8,0.514580965042,0.000879049301147,0.300796031952,1,w,844.702852964,,,,,,,,,,,,,,,,,,,,,,,,,,,,,,,,2015_Jul_06_1256,59.9004017349,LearningTask,1,79,
200,s,-200,,,,,,,,,,,,,,,,,2,0,2,0,1,1,5,2,,,,,,,,,,,,,,,,,,,,,,,,,,,,,s,1,0.334404230118,None,0,1.0,hexagonmagenta.gif,stop,,,,,,,,,,,,,,,,,,,,,,,,1.22,0.51403093338,0.000888109207153,0.334404230118,1,s,847.706707954,,,,,,,,,,,,,,,,,,,,,,,,,,,,,,,,2015_Jul_06_1256,59.9004017349,LearningTask,1,79,
200,s,-200,,,,,,,,,,,,,,,,,2,0,2,0,1,2,6,2,,,,,,,,,,,,,,,,,,,,,,,,,,,,,s,1,0.284477949142,None,0,1.0,hexagonmagenta.gif,stop,,,,,,,,,,,,,,,,,,,,,,,,1.15,0.513630151749,0.000905990600586,0.284477949142,1,s,850.709540844,,,,,,,,,,,,,,,,,,,,,,,,,,,,,,,,2015_Jul_06_1256,59.9004017349,LearningTask,1,79,
-200,a,-200,,,,,,,,,,,,,,,,,2,0,2,0,1,3,7,3,,,,,,,,,,,,,,,,,,,,,,,,,,,,,a,1,0.334604978561,None,0,0.5,trianglegreen.gif,go,,,,,,,,,,,,,,,,,,,,,,,,0.36,0.513584136963,0.00101208686829,0.334604978561,1,a,853.712645769,,,,,,,,,,,,,,,,,,,,,,,,,,,,,,,,2015_Jul_06_1256,59.9004017349,LearningTask,1,79,
200,s,-200,,,,,,,,,,,,,,,,,2,0,2,0,2,0,8,2,,,,,,,,,,,,,,,,,,,,,,,,,,,,,s,1,0.351121902466,None,0,2.0,invertedtriangleorange.gif,go,,,,,,,,,,,,,,,,,,,,,,,,1.95,0.514425992966,0.00088095664978,0.351121902466,1,s,856.716103792,,,,,,,,,,,,,,,,,,,,,,,,,,,,,,,,2015_Jul_06_1256,59.9004017349,LearningTask,1,79,
-200,a,-200,,,,,,,,,,,,,,,,,2,0,2,0,2,1,9,3,,,,,,,,,,,,,,,,,,,,,,,,,,,,,a,1,0.367795944214,None,0,4.0,diamondblue.gif,stop,,,,,,,,,,,,,,,,,,,,,,,,3.86,0.514299154282,0.000874042510986,0.367795944214,1,a,859.719483852,,,,,,,,,,,,,,,,,,,,,,,,,,,,,,,,2015_Jul_06_1256,59.9004017349,LearningTask,1,79,
-200,a,-200,,,,,,,,,,,,,,,,,2,0,2,0,2,2,10,3,,,,,,,,,,,,,,,,,,,,,,,,,,,,,a,1,0.367923021317,None,0,0.5,circlegray.gif,stop,,,,,,,,,,,,,,,,,,,,,,,,0.6,0.514362812042,0.00100898742676,0.367923021317,1,a,862.722751856,,,,,,,,,,,,,,,,,,,,,,,,,,,,,,,,2015_Jul_06_1256,59.9004017349,LearningTask,1,79,
-200,q,200,,,,,,,,,,,,,,,,,2,0,2,0,2,3,11,1,,,,,,,,,,,,,,,,,,,,,,,,,,,,,q,1,0.367520093918,None,0,4.0,diamondblue.gif,stop,,,,,,,,,,,,,,,,,,,,,,,,3.96,0.514313936234,0.000874996185303,0.367520093918,1,q,865.726755857,,,,,,,,,,,,,,,,,,,,,,,,,,,,,,,,2015_Jul_06_1256,59.9004017349,LearningTask,1,79,
200,w,200,,,,,,,,,,,,,,,,,2,0,2,0,3,0,12,0,,,,,,,,,,,,,,,,,,,,,,,,,,,,,w,1,0.350776910782,None,0,4.0,crosswhite.gif,go,,,,,,,,,,,,,,,,,,,,,,,,4.09,0.513725996017,0.000883817672729,0.350776910782,1,w,868.729471922,,,,,,,,,,,,,,,,,,,,,,,,,,,,,,,,2015_Jul_06_1256,59.9004017349,LearningTask,1,79,
200,s,-200,,,,,,,,,,,,,,,,,2,0,2,0,3,1,13,2,,,,,,,,,,,,,,,,,,,,,,,,,,,,,s,1,0.367666959763,None,0,4.0,diamondblue.gif,stop,,,,,,,,,,,,,,,,,,,,,,,,4.12,0.514358997345,0.000988006591797,0.367666959763,1,s,871.732833862,,,,,,,,,,,,,,,,,,,,,,,,,,,,,,,,2015_Jul_06_1256,59.9004017349,LearningTask,1,79,
-200,q,200,,,,,,,,,,,,,,,,,2,0,2,0,3,2,14,1,,,,,,,,,,,,,,,,,,,,,,,,,,,,,q,1,0.3677110672,None,0,0.5,trianglegreen.gif,go,,,,,,,,,,,,,,,,,,,,,,,,0.47,0.514179944992,0.000875949859619,0.3677110672,1,q,874.736498833,,,,,,,,,,,,,,,,,,,,,,,,,,,,,,,,2015_Jul_06_1256,59.9004017349,LearningTask,1,79,
-200,a,-200,,,,,,,,,,,,,,,,,2,0,2,0,3,3,15,3,,,,,,,,,,,,,,,,,,,,,,,,,,,,,a,1,0.334002971649,None,0,2.0,lineyellow.gif,stop,,,,,,,,,,,,,,,,,,,,,,,,1.86,0.514166116714,0.000870227813721,0.334002971649,1,a,877.73999691,,,,,,,,,,,,,,,,,,,,,,,,,,,,,,,,2015_Jul_06_1256,59.9004017349,LearningTask,1,79,
200,w,200,,,,,,,,,,,,,,,,,2,0,2,0,4,0,16,0,,,,,,,,,,,,,,,,,,,,,,,,,,,,,w,1,0.300748109818,None,0,0.5,trianglegreen.gif,go,,,,,,,,,,,,,,,,,,,,,,,,0.45,0.514059066772,0.00110101699829,0.300748109818,1,w,880.742963791,,,,,,,,,,,,,,,,,,,,,,,,,,,,,,,,2015_Jul_06_1256,59.9004017349,LearningTask,1,79,
200,w,200,,,,,,,,,,,,,,,,,2,0,2,0,4,1,17,0,,,,,,,,,,,,,,,,,,,,,,,,,,,,,w,1,0.384057044983,None,0,0.5,circlegray.gif,stop,,,,,,,,,,,,,,,,,,,,,,,,0,0.514204978943,0.000952959060669,0.384057044983,1,w,883.746304989,,,,,,,,,,,,,,,,,,,,,,,,,,,,,,,,2015_Jul_06_1256,59.9004017349,LearningTask,1,79,
200,w,200,,,,,,,,,,,,,,,,,2,0,2,0,4,2,18,0,,,,,,,,,,,,,,,,,,,,,,,,,,,,,w,1,0.350694894791,None,0,4.0,crosswhite.gif,go,,,,,,,,,,,,,,,,,,,,,,,,3.95,0.5143430233,0.000878095626831,0.350694894791,1,w,886.749840975,,,,,,,,,,,,,,,,,,,,,,,,,,,,,,,,2015_Jul_06_1256,59.9004017349,LearningTask,1,79,
-200,a,-200,,,,,,,,,,,,,,,,,2,0,2,0,4,3,19,3,,,,,,,,,,,,,,,,,,,,,,,,,,,,,a,1,0.417391061783,None,0,2.0,invertedtriangleorange.gif,go,,,,,,,,,,,,,,,,,,,,,,,,1.97,0.51389503479,0.000890970230103,0.417391061783,1,a,889.752993822,,,,,,,,,,,,,,,,,,,,,,,,,,,,,,,,2015_Jul_06_1256,59.9004017349,LearningTask,1,79,
-200,q,200,,,,,,,,,,,,,,,,,2,0,2,0,5,0,20,1,,,,,,,,,,,,,,,,,,,,,,,,,,,,,q,1,0.367891073227,None,0,0.5,trianglegreen.gif,go,,,,,,,,,,,,,,,,,,,,,,,,0.56,0.51437497139,0.000880002975464,0.367891073227,1,q,892.756559849,,,,,,,,,,,,,,,,,,,,,,,,,,,,,,,,2015_Jul_06_1256,59.9004017349,LearningTask,1,79,
200,s,-200,,,,,,,,,,,,,,,,,2,0,2,0,5,1,21,2,,,,,,,,,,,,,,,,,,,,,,,,,,,,,s,1,0.384263038635,None,0,4.0,crosswhite.gif,go,,,,,,,,,,,,,,,,,,,,,,,,3.81,0.514183998108,0.000878095626831,0.384263038635,1,s,895.760179996,,,,,,,,,,,,,,,,,,,,,,,,,,,,,,,,2015_Jul_06_1256,59.9004017349,LearningTask,1,79,
-200,a,-200,,,,,,,,,,,,,,,,,2,0,2,0,5,2,22,3,,,,,,,,,,,,,,,,,,,,,,,,,,,,,a,1,0.334403038025,None,0,1.0,hexagonmagenta.gif,stop,,,,,,,,,,,,,,,,,,,,,,,,0.94,0.513725042343,0.000887870788574,0.334403038025,1,a,898.763020992,,,,,,,,,,,,,,,,,,,,,,,,,,,,,,,,2015_Jul_06_1256,59.9004017349,LearningTask,1,79,
-200,a,-200,,,,,,,,,,,,,,,,,2,0,2,0,5,3,23,3,,,,,,,,,,,,,,,,,,,,,,,,,,,,,a,1,0.36772108078,None,0,2.0,lineyellow.gif,stop,,,,,,,,,,,,,,,,,,,,,,,,0,0.514391183853,0.000884056091309,0.36772108078,1,a,901.766200781,,,,,,,,,,,,,,,,,,,,,,,,,,,,,,,,2015_Jul_06_1256,59.9004017349,LearningTask,1,79,
200,w,200,,,,,,,,,,,,,,,,,2,0,2,0,6,0,24,0,,,,,,,,,,,,,,,,,,,,,,,,,,,,,w,1,0.467529058456,None,0,1.0,squarecyan.gif,go,,,,,,,,,,,,,,,,,,,,,,,,1.04,0.51455616951,0.000864028930664,0.467529058456,1,w,904.769869804,,,,,,,,,,,,,,,,,,,,,,,,,,,,,,,,2015_Jul_06_1256,59.9004017349,LearningTask,1,79,
200,w,200,,,,,,,,,,,,,,,,,2,0,2,0,6,1,25,0,,,,,,,,,,,,,,,,,,,,,,,,,,,,,w,1,0.316870927811,None,0,1.0,hexagonmagenta.gif,stop,,,,,,,,,,,,,,,,,,,,,,,,0.79,0.514722108841,0.000880002975464,0.316870927811,1,w,907.773208857,,,,,,,,,,,,,,,,,,,,,,,,,,,,,,,,2015_Jul_06_1256,59.9004017349,LearningTask,1,79,
-200,a,-200,,,,,,,,,,,,,,,,,2,0,2,0,6,2,26,3,,,,,,,,,,,,,,,,,,,,,,,,,,,,,a,1,0.350747108459,None,0,0.5,trianglegreen.gif,go,,,,,,,,,,,,,,,,,,,,,,,,0,0.514303922653,0.000934839248657,0.350747108459,1,a,910.776673794,,,,,,,,,,,,,,,,,,,,,,,,,,,,,,,,2015_Jul_06_1256,59.9004017349,LearningTask,1,79,
-200,q,200,,,,,,,,,,,,,,,,,2,0,2,0,6,3,27,1,,,,,,,,,,,,,,,,,,,,,,,,,,,,,q,1,0.384551048279,None,0,4.0,diamondblue.gif,stop,,,,,,,,,,,,,,,,,,,,,,,,4.12,0.514095067978,0.000905990600586,0.384551048279,1,q,913.779893875,,,,,,,,,,,,,,,,,,,,,,,,,,,,,,,,2015_Jul_06_1256,59.9004017349,LearningTask,1,79,
-200,a,-200,,,,,,,,,,,,,,,,,2,0,2,0,7,0,28,3,,,,,,,,,,,,,,,,,,,,,,,,,,,,,a,1,0.367616891861,None,0,2.0,lineyellow.gif,stop,,,,,,,,,,,,,,,,,,,,,,,,2.0,0.514533042908,0.000872135162354,0.367616891861,1,a,916.783143997,,,,,,,,,,,,,,,,,,,,,,,,,,,,,,,,2015_Jul_06_1256,59.9004017349,LearningTask,1,79,
200,w,200,,,,,,,,,,,,,,,,,2,0,2,0,7,1,29,0,,,,,,,,,,,,,,,,,,,,,,,,,,,,,w,1,0.484838008881,None,0,0.5,circlegray.gif,stop,,,,,,,,,,,,,,,,,,,,,,,,0.35,0.514038085938,0.00123906135559,0.484838008881,1,w,919.786638975,,,,,,,,,,,,,,,,,,,,,,,,,,,,,,,,2015_Jul_06_1256,59.9004017349,LearningTask,1,79,
200,w,200,,,,,,,,,,,,,,,,,2,0,2,0,7,2,30,0,,,,,,,,,,,,,,,,,,,,,,,,,,,,,w,1,0.317528963089,None,0,0.5,circlegray.gif,stop,,,,,,,,,,,,,,,,,,,,,,,,0.38,0.514183044434,0.000879049301147,0.317528963089,1,w,922.790003777,,,,,,,,,,,,,,,,,,,,,,,,,,,,,,,,2015_Jul_06_1256,59.9004017349,LearningTask,1,79,
200,w,200,,,,,,,,,,,,,,,,,2,0,2,0,7,3,31,0,,,,,,,,,,,,,,,,,,,,,,,,,,,,,w,1,0.267230987549,None,0,2.0,invertedtriangleorange.gif,go,,,,,,,,,,,,,,,,,,,,,,,,2.12,0.514397144318,0.000903129577637,0.267230987549,1,w,925.793310881,,,,,,,,,,,,,,,,,,,,,,,,,,,,,,,,2015_Jul_06_1256,59.9004017349,LearningTask,1,79,
200,w,200,,,,,,,,,,,,,,,,,2,0,2,0,8,0,32,0,,,,,,,,,,,,,,,,,,,,,,,,,,,,,w,1,0.317220926285,None,0,1.0,hexagonmagenta.gif,stop,,,,,,,,,,,,,,,,,,,,,,,,0.78,0.514508008957,0.000899076461792,0.317220926285,1,w,928.796448946,,,,,,,,,,,,,,,,,,,,,,,,,,,,,,,,2015_Jul_06_1256,59.9004017349,LearningTask,1,79,
-200,a,-200,,,,,,,,,,,,,,,,,2,0,2,0,8,1,33,3,,,,,,,,,,,,,,,,,,,,,,,,,,,,,a,1,0.400687932968,None,0,0.5,circlegray.gif,stop,,,,,,,,,,,,,,,,,,,,,,,,0.57,0.514773845673,0.000906944274902,0.400687932968,1,a,931.800013781,,,,,,,,,,,,,,,,,,,,,,,,,,,,,,,,2015_Jul_06_1256,59.9004017349,LearningTask,1,79,
200,w,200,,,,,,,,,,,,,,,,,2,0,2,0,8,2,34,0,,,,,,,,,,,,,,,,,,,,,,,,,,,,,w,1,0.284074068069,None,0,2.0,invertedtriangleorange.gif,go,,,,,,,,,,,,,,,,,,,,,,,,1.82,0.514286994934,0.000871896743774,0.284074068069,1,w,934.803554773,,,,,,,,,,,,,,,,,,,,,,,,,,,,,,,,2015_Jul_06_1256,59.9004017349,LearningTask,1,79,
-200,q,200,,,,,,,,,,,,,,,,,2,0,2,0,8,3,35,1,,,,,,,,,,,,,,,,,,,,,,,,,,,,,q,1,0.384156227112,None,0,1.0,hexagonmagenta.gif,stop,,,,,,,,,,,,,,,,,,,,,,,,1.16,0.513751029968,0.000890016555786,0.384156227112,1,q,937.806759834,,,,,,,,,,,,,,,,,,,,,,,,,,,,,,,,2015_Jul_06_1256,59.9004017349,LearningTask,1,79,
-200,q,200,,,,,,,,,,,,,,,,,2,0,2,0,9,0,36,1,,,,,,,,,,,,,,,,,,,,,,,,,,,,,q,1,0.367280006409,None,0,2.0,lineyellow.gif,stop,,,,,,,,,,,,,,,,,,,,,,,,0,0.514246940613,0.000904083251953,0.351398944855,0,a,940.810342789,0,0.515655040741,0.000941038131714,0.367280006409,1,q,943.814005852,,,,,,,,,,,,,,,,,,,,,,,,,2015_Jul_06_1256,59.9004017349,LearningTask,1,79,
200,w,200,,,,,,,,,,,,,,,,,2,0,2,0,9,1,37,0,,,,,,,,,,,,,,,,,,,,,,,,,,,,,w,1,0.317322015762,None,0,2.0,invertedtriangleorange.gif,go,,,,,,,,,,,,,,,,,,,,,,,,1.86,0.513722896576,0.000884056091309,0.317322015762,1,w,946.8166399,,,,,,,,,,,,,,,,,,,,,,,,,,,,,,,,2015_Jul_06_1256,59.9004017349,LearningTask,1,79,
-200,q,200,,,,,,,,,,,,,,,,,2,0,2,0,9,2,38,1,,,,,,,,,,,,,,,,,,,,,,,,,,,,,q,1,0.300849914551,None,0,0.5,circlegray.gif,stop,,,,,,,,,,,,,,,,,,,,,,,,0.72,0.514389038086,0.000941038131714,0.300849914551,1,q,949.819852829,,,,,,,,,,,,,,,,,,,,,,,,,,,,,,,,2015_Jul_06_1256,59.9004017349,LearningTask,1,79,
200,w,200,,,,,,,,,,,,,,,,,2,0,2,0,9,3,39,0,,,,,,,,,,,,,,,,,,,,,,,,,,,,,w,1,0.301289081573,None,0,2.0,invertedtriangleorange.gif,go,,,,,,,,,,,,,,,,,,,,,,,,0,0.514604091644,0.000881195068359,0.301289081573,1,w,952.823617935,,,,,,,,,,,,,,,,,,,,,,,,,,,,,,,,2015_Jul_06_1256,59.9004017349,LearningTask,1,79,
-200,q,200,,,,,,,,,,,,,,,,,2,0,2,0,10,0,40,1,,,,,,,,,,,,,,,,,,,,,,,,,,,,,q,1,0.333796977997,None,0,2.0,lineyellow.gif,stop,,,,,,,,,,,,,,,,,,,,,,,,1.86,0.514368057251,0.00088095664978,0.333796977997,1,q,955.826970816,,,,,,,,,,,,,,,,,,,,,,,,,,,,,,,,2015_Jul_06_1256,59.9004017349,LearningTask,1,79,
-200,q,200,,,,,,,,,,,,,,,,,2,0,2,0,10,1,41,1,,,,,,,,,,,,,,,,,,,,,,,,,,,,,q,1,0.300676107407,None,0,4.0,diamondblue.gif,stop,,,,,,,,,,,,,,,,,,,,,,,,0,0.514094114304,0.00101518630981,0.300676107407,1,q,958.830588818,,,,,,,,,,,,,,,,,,,,,,,,,,,,,,,,2015_Jul_06_1256,59.9004017349,LearningTask,1,79,
-200,a,-200,,,,,,,,,,,,,,,,,2,0,2,0,10,2,42,3,,,,,,,,,,,,,,,,,,,,,,,,,,,,,a,1,0.417459964752,None,0,2.0,lineyellow.gif,stop,,,,,,,,,,,,,,,,,,,,,,,,0,0.514362096786,0.000876903533936,0.417459964752,1,a,961.833701849,,,,,,,,,,,,,,,,,,,,,,,,,,,,,,,,2015_Jul_06_1256,59.9004017349,LearningTask,1,79,
-200,q,200,,,,,,,,,,,,,,,,,2,0,2,0,10,3,43,1,,,,,,,,,,,,,,,,,,,,,,,,,,,,,q,1,0.350829124451,None,0,0.5,trianglegreen.gif,go,,,,,,,,,,,,,,,,,,,,,,,,0.56,0.514114141464,0.000882148742676,0.350829124451,1,q,964.836877823,,,,,,,,,,,,,,,,,,,,,,,,,,,,,,,,2015_Jul_06_1256,59.9004017349,LearningTask,1,79,
200,w,200,,,,,,,,,,,,,,,,,2,0,2,0,11,0,44,0,,,,,,,,,,,,,,,,,,,,,,,,,,,,,w,1,0.318181991577,None,0,4.0,crosswhite.gif,go,,,,,,,,,,,,,,,,,,,,,,,,3.88,0.514024972916,0.00103282928467,0.318181991577,1,w,967.840169907,,,,,,,,,,,,,,,,,,,,,,,,,,,,,,,,2015_Jul_06_1256,59.9004017349,LearningTask,1,79,
200,s,-200,,,,,,,,,,,,,,,,,2,0,2,0,11,1,45,2,,,,,,,,,,,,,,,,,,,,,,,,,,,,,s,1,0.451274871826,None,0,2.0,invertedtriangleorange.gif,go,,,,,,,,,,,,,,,,,,,,,,,,0,0.514269113541,0.000994920730591,0.451274871826,1,s,970.843662977,,,,,,,,,,,,,,,,,,,,,,,,,,,,,,,,2015_Jul_06_1256,59.9004017349,LearningTask,1,79,
200,w,200,,,,,,,,,,,,,,,,,2,0,2,0,11,2,46,0,,,,,,,,,,,,,,,,,,,,,,,,,,,,,w,1,0.317633152008,None,0,0.5,trianglegreen.gif,go,,,,,,,,,,,,,,,,,,,,,,,,0,0.514734983444,0.000883102416992,0.317633152008,1,w,973.84706378,,,,,,,,,,,,,,,,,,,,,,,,,,,,,,,,2015_Jul_06_1256,59.9004017349,LearningTask,1,79,
-200,q,200,,,,,,,,,,,,,,,,,2,0,2,0,11,3,47,1,,,,,,,,,,,,,,,,,,,,,,,,,,,,,q,1,0.30099606514,None,0,2.0,invertedtriangleorange.gif,go,,,,,,,,,,,,,,,,,,,,,,,,2.13,0.51371884346,0.000926971435547,0.30099606514,1,q,976.850201845,,,,,,,,,,,,,,,,,,,,,,,,,,,,,,,,2015_Jul_06_1256,59.9004017349,LearningTask,1,79,
200,s,-200,,,,,,,,,,,,,,,,,2,0,2,0,12,0,48,2,,,,,,,,,,,,,,,,,,,,,,,,,,,,,s,1,0.384172916412,None,0,0.5,trianglegreen.gif,go,,,,,,,,,,,,,,,,,,,,,,,,0.71,0.514577150345,0.000877141952515,0.384172916412,1,s,979.8536129,,,,,,,,,,,,,,,,,,,,,,,,,,,,,,,,2015_Jul_06_1256,59.9004017349,LearningTask,1,79,
200,s,-200,,,,,,,,,,,,,,,,,2,0,2,0,12,1,49,2,,,,,,,,,,,,,,,,,,,,,,,,,,,,,s,1,0.350970983505,None,0,2.0,lineyellow.gif,stop,,,,,,,,,,,,,,,,,,,,,,,,1.81,0.514283895493,0.000900030136108,0.350970983505,1,s,982.857161999,,,,,,,,,,,,,,,,,,,,,,,,,,,,,,,,2015_Jul_06_1256,59.9004017349,LearningTask,1,79,
-200,q,200,,,,,,,,,,,,,,,,,2,0,2,0,12,2,50,1,,,,,,,,,,,,,,,,,,,,,,,,,,,,,q,1,0.334544181824,None,0,1.0,hexagonmagenta.gif,stop,,,,,,,,,,,,,,,,,,,,,,,,0.88,0.514121055603,0.000887155532837,0.334544181824,1,q,985.860563993,,,,,,,,,,,,,,,,,,,,,,,,,,,,,,,,2015_Jul_06_1256,59.9004017349,LearningTask,1,79,
-200,q,200,,,,,,,,,,,,,,,,,2,0,2,0,12,3,51,1,,,,,,,,,,,,,,,,,,,,,,,,,,,,,q,1,0.38408613205,None,0,4.0,diamondblue.gif,stop,,,,,,,,,,,,,,,,,,,,,,,,3.81,0.514189004898,0.000898122787476,0.38408613205,1,q,988.864059925,,,,,,,,,,,,,,,,,,,,,,,,,,,,,,,,2015_Jul_06_1256,59.9004017349,LearningTask,1,79,
200,s,-200,,,,,,,,,,,,,,,,,2,0,2,0,13,0,52,2,,,,,,,,,,,,,,,,,,,,,,,,,,,,,s,1,0.333801984787,None,0,4.0,diamondblue.gif,stop,,,,,,,,,,,,,,,,,,,,,,,,3.9,0.513795137405,0.0010302066803,0.333801984787,1,s,991.867531776,,,,,,,,,,,,,,,,,,,,,,,,,,,,,,,,2015_Jul_06_1256,59.9004017349,LearningTask,1,79,
200,s,-200,,,,,,,,,,,,,,,,,2,0,2,0,13,1,53,2,,,,,,,,,,,,,,,,,,,,,,,,,,,,,s,1,0.334185123444,None,0,0.5,trianglegreen.gif,go,,,,,,,,,,,,,,,,,,,,,,,,0.68,0.513721942902,0.000900030136108,0.334185123444,1,s,994.870571852,,,,,,,,,,,,,,,,,,,,,,,,,,,,,,,,2015_Jul_06_1256,59.9004017349,LearningTask,1,79,
-200,q,200,,,,,,,,,,,,,,,,,2,0,2,0,13,2,54,1,,,,,,,,,,,,,,,,,,,,,,,,,,,,,q,1,0.367289066315,None,0,1.0,squarecyan.gif,go,,,,,,,,,,,,,,,,,,,,,,,,0,0.514387130737,0.000946044921875,0.367289066315,1,q,997.873851776,,,,,,,,,,,,,,,,,,,,,,,,,,,,,,,,2015_Jul_06_1256,59.9004017349,LearningTask,1,79,
-200,a,-200,,,,,,,,,,,,,,,,,2,0,2,0,13,3,55,3,,,,,,,,,,,,,,,,,,,,,,,,,,,,,a,1,0.367662906647,None,0,4.0,crosswhite.gif,go,,,,,,,,,,,,,,,,,,,,,,,,4.02,0.514415025711,0.000881910324097,0.367662906647,1,a,1000.87731099,,,,,,,,,,,,,,,,,,,,,,,,,,,,,,,,2015_Jul_06_1256,59.9004017349,LearningTask,1,79,
200,s,-200,,,,,,,,,,,,,,,,,2,0,2,0,14,0,56,2,,,,,,,,,,,,,,,,,,,,,,,,,,,,,s,1,0.334147930145,None,0,0.5,circlegray.gif,stop,,,,,,,,,,,,,,,,,,,,,,,,0.26,0.514168024063,0.00113797187805,0.334147930145,1,s,1003.88060188,,,,,,,,,,,,,,,,,,,,,,,,,,,,,,,,2015_Jul_06_1256,59.9004017349,LearningTask,1,79,
-200,q,200,,,,,,,,,,,,,,,,,2,0,2,0,14,1,57,1,,,,,,,,,,,,,,,,,,,,,,,,,,,,,q,1,0.334336996078,None,0,0.5,trianglegreen.gif,go,,,,,,,,,,,,,,,,,,,,,,,,0.59,0.514220952988,0.00104713439941,0.334336996078,1,q,1006.88399887,,,,,,,,,,,,,,,,,,,,,,,,,,,,,,,,2015_Jul_06_1256,59.9004017349,LearningTask,1,79,
-200,a,-200,,,,,,,,,,,,,,,,,2,0,2,0,14,2,58,3,,,,,,,,,,,,,,,,,,,,,,,,,,,,,a,1,0.3673350811,None,0,0.5,circlegray.gif,stop,,,,,,,,,,,,,,,,,,,,,,,,0.43,0.514279842377,0.00142478942871,0.3673350811,1,a,1009.88733387,,,,,,,,,,,,,,,,,,,,,,,,,,,,,,,,2015_Jul_06_1256,59.9004017349,LearningTask,1,79,
200,w,200,,,,,,,,,,,,,,,,,2,0,2,0,14,3,59,0,,,,,,,,,,,,,,,,,,,,,,,,,,,,,w,1,0.484422206879,None,0,4.0,crosswhite.gif,go,,,,,,,,,,,,,,,,,,,,,,,,4.22,0.514159917831,0.000879049301147,0.484422206879,1,w,1012.89081383,,,,,,,,,,,,,,,,,,,,,,,,,,,,,,,,2015_Jul_06_1256,59.9004017349,LearningTask,1,79,
200,w,200,,,,,,,,,,,,,,,,,2,0,2,0,15,0,60,0,,,,,,,,,,,,,,,,,,,,,,,,,,,,,w,1,0.384279966354,None,0,2.0,invertedtriangleorange.gif,go,,,,,,,,,,,,,,,,,,,,,,,,0,0.51375412941,0.000930070877075,0.384279966354,1,w,1015.89412284,,,,,,,,,,,,,,,,,,,,,,,,,,,,,,,,2015_Jul_06_1256,59.9004017349,LearningTask,1,79,
-200,a,-200,,,,,,,,,,,,,,,,,2,0,2,0,15,1,61,3,,,,,,,,,,,,,,,,,,,,,,,,,,,,,a,1,0.350749015808,None,0,1.0,squarecyan.gif,go,,,,,,,,,,,,,,,,,,,,,,,,0.78,0.514172077179,0.000874996185303,0.350749015808,1,a,1018.89766383,,,,,,,,,,,,,,,,,,,,,,,,,,,,,,,,2015_Jul_06_1256,59.9004017349,LearningTask,1,79,
-200,a,-200,,,,,,,,,,,,,,,,,2,0,2,0,15,2,62,3,,,,,,,,,,,,,,,,,,,,,,,,,,,,,a,1,0.351056814194,None,0,4.0,diamondblue.gif,stop,,,,,,,,,,,,,,,,,,,,,,,,3.8,0.514001131058,0.000875949859619,0.351056814194,1,a,1021.90091085,,,,,,,,,,,,,,,,,,,,,,,,,,,,,,,,2015_Jul_06_1256,59.9004017349,LearningTask,1,79,
-200,a,-200,,,,,,,,,,,,,,,,,2,0,2,0,15,3,63,3,,,,,,,,,,,,,,,,,,,,,,,,,,,,,a,1,0.367354154587,None,0,1.0,hexagonmagenta.gif,stop,,,,,,,,,,,,,,,,,,,,,,,,0.93,0.514258861542,0.000927925109863,0.367354154587,1,a,1024.90405679,,,,,,,,,,,,,,,,,,,,,,,,,,,,,,,,2015_Jul_06_1256,59.9004017349,LearningTask,1,79,
-200,q,200,,,,,,,,,,,,,,,,,2,0,2,0,16,0,64,1,,,,,,,,,,,,,,,,,,,,,,,,,,,,,q,1,0.351175069809,None,0,4.0,crosswhite.gif,go,,,,,,,,,,,,,,,,,,,,,,,,4.23,0.514168024063,0.000906944274902,0.351175069809,1,q,1027.90770888,,,,,,,,,,,,,,,,,,,,,,,,,,,,,,,,2015_Jul_06_1256,59.9004017349,LearningTask,1,79,
200,w,200,,,,,,,,,,,,,,,,,2,0,2,0,16,1,65,0,,,,,,,,,,,,,,,,,,,,,,,,,,,,,w,1,0.317486047745,None,0,1.0,squarecyan.gif,go,,,,,,,,,,,,,,,,,,,,,,,,1.05,0.514019966125,0.000874996185303,0.317486047745,1,w,1030.91098189,,,,,,,,,,,,,,,,,,,,,,,,,,,,,,,,2015_Jul_06_1256,59.9004017349,LearningTask,1,79,
200,w,200,,,,,,,,,,,,,,,,,2,0,2,0,16,2,66,0,,,,,,,,,,,,,,,,,,,,,,,,,,,,,w,1,0.350986003876,None,0,0.5,trianglegreen.gif,go,,,,,,,,,,,,,,,,,,,,,,,,0.4,0.513763904572,0.000938892364502,0.350986003876,1,w,1033.9146769,,,,,,,,,,,,,,,,,,,,,,,,,,,,,,,,2015_Jul_06_1256,59.9004017349,LearningTask,1,79,
-200,q,200,,,,,,,,,,,,,,,,,2,0,2,0,16,3,67,1,,,,,,,,,,,,,,,,,,,,,,,,,,,,,q,1,0.466958999634,None,0,0.5,circlegray.gif,stop,,,,,,,,,,,,,,,,,,,,,,,,0.48,0.513897180557,0.000884056091309,0.466958999634,1,q,1036.91777396,,,,,,,,,,,,,,,,,,,,,,,,,,,,,,,,2015_Jul_06_1256,59.9004017349,LearningTask,1,79,
200,s,-200,,,,,,,,,,,,,,,,,2,0,2,0,17,0,68,2,,,,,,,,,,,,,,,,,,,,,,,,,,,,,s,1,0.350378036499,None,0,2.0,lineyellow.gif,stop,,,,,,,,,,,,,,,,,,,,,,,,0,0.514492988586,0.000876903533936,0.350378036499,1,s,1039.92138886,,,,,,,,,,,,,,,,,,,,,,,,,,,,,,,,2015_Jul_06_1256,59.9004017349,LearningTask,1,79,
-200,q,200,,,,,,,,,,,,,,,,,2,0,2,0,17,1,69,1,,,,,,,,,,,,,,,,,,,,,,,,,,,,,q,1,0.33375787735,None,0,1.0,hexagonmagenta.gif,stop,,,,,,,,,,,,,,,,,,,,,,,,1.2,0.51381278038,0.000895977020264,0.33375787735,1,q,1042.92417097,,,,,,,,,,,,,,,,,,,,,,,,,,,,,,,,2015_Jul_06_1256,59.9004017349,LearningTask,1,79,
-200,a,-200,,,,,,,,,,,,,,,,,2,0,2,0,17,2,70,3,,,,,,,,,,,,,,,,,,,,,,,,,,,,,a,1,0.40070605278,None,0,2.0,lineyellow.gif,stop,,,,,,,,,,,,,,,,,,,,,,,,2.12,0.514323949814,0.00123190879822,0.40070605278,1,a,1045.92745686,,,,,,,,,,,,,,,,,,,,,,,,,,,,,,,,2015_Jul_06_1256,59.9004017349,LearningTask,1,79,
200,s,-200,,,,,,,,,,,,,,,,,2,0,2,0,17,3,71,2,,,,,,,,,,,,,,,,,,,,,,,,,,,,,s,1,0.400961875916,None,0,4.0,crosswhite.gif,go,,,,,,,,,,,,,,,,,,,,,,,,3.91,0.514314889908,0.000881910324097,0.400961875916,1,s,1048.931041,,,,,,,,,,,,,,,,,,,,,,,,,,,,,,,,2015_Jul_06_1256,59.9004017349,LearningTask,1,79,
200,s,-200,,,,,,,,,,,,,,,,,2,0,2,0,18,0,72,2,,,,,,,,,,,,,,,,,,,,,,,,,,,,,s,1,0.40074801445,None,0,4.0,diamondblue.gif,stop,,,,,,,,,,,,,,,,,,,,,,,,0,0.514264822006,0.00089693069458,0.40074801445,1,s,1051.93436193,,,,,,,,,,,,,,,,,,,,,,,,,,,,,,,,2015_Jul_06_1256,59.9004017349,LearningTask,1,79,
-200,q,200,,,,,,,,,,,,,,,,,2,0,2,0,18,1,73,1,,,,,,,,,,,,,,,,,,,,,,,,,,,,,q,1,0.367360115051,None,0,2.0,lineyellow.gif,stop,,,,,,,,,,,,,,,,,,,,,,,,2.14,0.514318943024,0.00103092193604,0.367360115051,1,q,1054.93788695,,,,,,,,,,,,,,,,,,,,,,,,,,,,,,,,2015_Jul_06_1256,59.9004017349,LearningTask,1,79,
200,w,200,,,,,,,,,,,,,,,,,2,0,2,0,18,2,74,0,,,,,,,,,,,,,,,,,,,,,,,,,,,,,w,1,0.317469120026,None,0,4.0,diamondblue.gif,stop,,,,,,,,,,,,,,,,,,,,,,,,0,0.514219999313,0.000879049301147,0.317469120026,1,w,1057.94132781,,,,,,,,,,,,,,,,,,,,,,,,,,,,,,,,2015_Jul_06_1256,59.9004017349,LearningTask,1,79,
200,s,-200,,,,,,,,,,,,,,,,,2,0,2,0,18,3,75,2,,,,,,,,,,,,,,,,,,,,,,,,,,,,,s,1,0.367348909378,None,0,4.0,crosswhite.gif,go,,,,,,,,,,,,,,,,,,,,,,,,4.13,0.514043807983,0.000878810882568,0.367348909378,1,s,1060.94433188,,,,,,,,,,,,,,,,,,,,,,,,,,,,,,,,2015_Jul_06_1256,59.9004017349,LearningTask,1,79,
200,s,-200,,,,,,,,,,,,,,,,,2,0,2,0,19,0,76,2,,,,,,,,,,,,,,,,,,,,,,,,,,,,,s,1,0.517910957336,None,0,2.0,lineyellow.gif,stop,,,,,,,,,,,,,,,,,,,,,,,,1.79,0.513767004013,0.000938892364502,0.517910957336,1,s,1063.94765997,,,,,,,,,,,,,,,,,,,,,,,,,,,,,,,,2015_Jul_06_1256,59.9004017349,LearningTask,1,79,
-200,a,-200,,,,,,,,,,,,,,,,,2,0,2,0,19,1,77,3,,,,,,,,,,,,,,,,,,,,,,,,,,,,,a,1,0.401221036911,None,0,2.0,lineyellow.gif,stop,,,,,,,,,,,,,,,,,,,,,,,,1.84,0.514407873154,0.000874996185303,0.401221036911,1,a,1066.95123386,,,,,,,,,,,,,,,,,,,,,,,,,,,,,,,,2015_Jul_06_1256,59.9004017349,LearningTask,1,79,
-200,q,200,,,,,,,,,,,,,,,,,2,0,2,0,19,2,78,1,,,,,,,,,,,,,,,,,,,,,,,,,,,,,q,1,0.38404917717,None,0,1.0,squarecyan.gif,go,,,,,,,,,,,,,,,,,,,,,,,,1.04,0.51417183876,0.00138998031616,0.38404917717,1,q,1069.95478177,,,,,,,,,,,,,,,,,,,,,,,,,,,,,,,,2015_Jul_06_1256,59.9004017349,LearningTask,1,79,
-200,q,200,,,,,,,,,,,,,,,,,2,0,2,0,19,3,79,1,,,,,,,,,,,,,,,,,,,,,,,,,,,,,q,1,0.317606925964,None,0,0.5,trianglegreen.gif,go,,,,,,,,,,,,,,,,,,,,,,,,0,0.513904809952,0.000924825668335,0.317606925964,1,q,1072.95788383,,,,,,,,,,,,,,,,,,,,,,,,,,,,,,,,2015_Jul_06_1256,59.9004017349,LearningTask,1,79,
200,s,-200,,,,,,,,,,,,,,,,,2,0,2,0,20,0,80,2,,,,,,,,,,,,,,,,,,,,,,,,,,,,,s,1,0.350260972977,None,0,1.0,squarecyan.gif,go,,,,,,,,,,,,,,,,,,,,,,,,1.11,0.514183998108,0.000866174697876,0.350260972977,1,s,1075.96117091,,,,,,,,,,,,,,,,,,,,,,,,,,,,,,,,2015_Jul_06_1256,59.9004017349,LearningTask,1,79,
200,s,-200,,,,,,,,,,,,,,,,,2,0,2,0,20,1,81,2,,,,,,,,,,,,,,,,,,,,,,,,,,,,,s,1,0.384230136871,None,0,0.5,circlegray.gif,stop,,,,,,,,,,,,,,,,,,,,,,,,0.32,0.514154911041,0.000883817672729,0.384230136871,1,s,1078.96492386,,,,,,,,,,,,,,,,,,,,,,,,,,,,,,,,2015_Jul_06_1256,59.9004017349,LearningTask,1,79,
200,s,-200,,,,,,,,,,,,,,,,,2,0,2,0,20,2,82,2,,,,,,,,,,,,,,,,,,,,,,,,,,,,,s,1,0.351064920425,None,0,0.5,circlegray.gif,stop,,,,,,,,,,,,,,,,,,,,,,,,0.33,0.513456821442,0.000895977020264,0.351064920425,1,s,1081.96805096,,,,,,,,,,,,,,,,,,,,,,,,,,,,,,,,2015_Jul_06_1256,59.9004017349,LearningTask,1,79,
-200,a,-200,,,,,,,,,,,,,,,,,2,0,2,0,20,3,83,3,,,,,,,,,,,,,,,,,,,,,,,,,,,,,a,1,0.350599050522,None,0,4.0,crosswhite.gif,go,,,,,,,,,,,,,,,,,,,,,,,,0,0.514183044434,0.00088095664978,0.350599050522,1,a,1084.97129893,,,,,,,,,,,,,,,,,,,,,,,,,,,,,,,,2015_Jul_06_1256,59.9004017349,LearningTask,1,79,
200,s,-200,,,,,,,,,,,,,,,,,2,0,2,0,21,0,84,2,,,,,,,,,,,,,,,,,,,,,,,,,,,,,s,1,0.350870847702,None,0,2.0,lineyellow.gif,stop,,,,,,,,,,,,,,,,,,,,,,,,2.15,0.514508962631,0.00088095664978,0.350870847702,1,s,1087.97491193,,,,,,,,,,,,,,,,,,,,,,,,,,,,,,,,2015_Jul_06_1256,59.9004017349,LearningTask,1,79,
200,s,-200,,,,,,,,,,,,,,,,,2,0,2,0,21,1,85,2,,,,,,,,,,,,,,,,,,,,,,,,,,,,,s,1,0.350761890411,None,0,2.0,invertedtriangleorange.gif,go,,,,,,,,,,,,,,,,,,,,,,,,1.97,0.513832092285,0.000892162322998,0.350761890411,1,s,1090.97787189,,,,,,,,,,,,,,,,,,,,,,,,,,,,,,,,2015_Jul_06_1256,59.9004017349,LearningTask,1,79,
200,w,200,,,,,,,,,,,,,,,,,2,0,2,0,21,2,86,0,,,,,,,,,,,,,,,,,,,,,,,,,,,,,w,1,0.384181022644,None,0,2.0,invertedtriangleorange.gif,go,,,,,,,,,,,,,,,,,,,,,,,,0,0.51424407959,0.000891923904419,0.384181022644,1,w,1093.98130298,,,,,,,,,,,,,,,,,,,,,,,,,,,,,,,,2015_Jul_06_1256,59.9004017349,LearningTask,1,79,
-200,a,-200,,,,,,,,,,,,,,,,,2,0,2,0,21,3,87,3,,,,,,,,,,,,,,,,,,,,,,,,,,,,,a,1,0.367439985275,None,0,4.0,diamondblue.gif,stop,,,,,,,,,,,,,,,,,,,,,,,,3.96,0.514380216599,0.000883102416992,0.367439985275,1,a,1096.985008,,,,,,,,,,,,,,,,,,,,,,,,,,,,,,,,2015_Jul_06_1256,59.9004017349,LearningTask,1,79,
-200,q,200,,,,,,,,,,,,,,,,,2,0,2,0,22,0,88,1,,,,,,,,,,,,,,,,,,,,,,,,,,,,,q,1,0.383996009827,None,0,2.0,invertedtriangleorange.gif,go,,,,,,,,,,,,,,,,,,,,,,,,1.8,0.513972043991,0.00088095664978,0.383996009827,1,q,1099.98795795,,,,,,,,,,,,,,,,,,,,,,,,,,,,,,,,2015_Jul_06_1256,59.9004017349,LearningTask,1,79,
-200,a,-200,,,,,,,,,,,,,,,,,2,0,2,0,22,1,89,3,,,,,,,,,,,,,,,,,,,,,,,,,,,,,a,1,0.367649078369,None,0,2.0,lineyellow.gif,stop,,,,,,,,,,,,,,,,,,,,,,,,2.23,0.514051914215,0.000952005386353,0.367649078369,1,a,1102.99158382,,,,,,,,,,,,,,,,,,,,,,,,,,,,,,,,2015_Jul_06_1256,59.9004017349,LearningTask,1,79,
200,w,200,,,,,,,,,,,,,,,,,2,0,2,0,22,2,90,0,,,,,,,,,,,,,,,,,,,,,,,,,,,,,w,1,0.350750923157,None,0,0.5,circlegray.gif,stop,,,,,,,,,,,,,,,,,,,,,,,,0.55,0.514069080353,0.000875949859619,0.350750923157,1,w,1105.99491382,,,,,,,,,,,,,,,,,,,,,,,,,,,,,,,,2015_Jul_06_1256,59.9004017349,LearningTask,1,79,
-200,q,200,,,,,,,,,,,,,,,,,2,0,2,0,22,3,91,1,,,,,,,,,,,,,,,,,,,,,,,,,,,,,q,1,0.350713968277,None,0,1.0,squarecyan.gif,go,,,,,,,,,,,,,,,,,,,,,,,,1.0,0.513777017593,0.00092887878418,0.350713968277,1,q,1108.9981389,,,,,,,,,,,,,,,,,,,,,,,,,,,,,,,,2015_Jul_06_1256,59.9004017349,LearningTask,1,79,
200,s,-200,,,,,,,,,,,,,,,,,2,0,2,0,23,0,92,2,,,,,,,,,,,,,,,,,,,,,,,,,,,,,s,1,0.351316928864,None,0,2.0,invertedtriangleorange.gif,go,,,,,,,,,,,,,,,,,,,,,,,,1.87,0.513877153397,0.00108599662781,0.351316928864,1,s,1112.00138593,,,,,,,,,,,,,,,,,,,,,,,,,,,,,,,,2015_Jul_06_1256,59.9004017349,LearningTask,1,79,
-200,q,200,,,,,,,,,,,,,,,,,2,0,2,0,23,1,93,1,,,,,,,,,,,,,,,,,,,,,,,,,,,,,q,1,0.350518941879,None,0,2.0,lineyellow.gif,stop,,,,,,,,,,,,,,,,,,,,,,,,2.22,0.514497041702,0.000876903533936,0.350518941879,1,q,1115.00490689,,,,,,,,,,,,,,,,,,,,,,,,,,,,,,,,2015_Jul_06_1256,59.9004017349,LearningTask,1,79,
-200,q,200,,,,,,,,,,,,,,,,,2,0,2,0,23,2,94,1,,,,,,,,,,,,,,,,,,,,,,,,,,,,,q,1,0.367520809174,None,0,0.5,trianglegreen.gif,go,,,,,,,,,,,,,,,,,,,,,,,,0.69,0.514267921448,0.000885009765625,0.367520809174,1,q,1118.00818491,,,,,,,,,,,,,,,,,,,,,,,,,,,,,,,,2015_Jul_06_1256,59.9004017349,LearningTask,1,79,
200,w,200,,,,,,,,,,,,,,,,,2,0,2,0,23,3,95,0,,,,,,,,,,,,,,,,,,,,,,,,,,,,,w,1,0.384116888046,None,0,4.0,crosswhite.gif,go,,,,,,,,,,,,,,,,,,,,,,,,4.02,0.514194965363,0.000900030136108,0.384116888046,1,w,1121.01147294,,,,,,,,,,,,,,,,,,,,,,,,,,,,,,,,2015_Jul_06_1256,59.9004017349,LearningTask,1,79,
200,s,-200,,,,,,,,,,,,,,,,,2,0,2,0,24,0,96,2,,,,,,,,,,,,,,,,,,,,,,,,,,,,,s,1,0.3674659729,None,0,1.0,squarecyan.gif,go,,,,,,,,,,,,,,,,,,,,,,,,0.88,0.514188051224,0.000909090042114,0.3674659729,1,s,1124.01469398,,,,,,,,,,,,,,,,,,,,,,,,,,,,,,,,2015_Jul_06_1256,59.9004017349,LearningTask,1,79,
200,w,200,,,,,,,,,,,,,,,,,2,0,2,0,24,1,97,0,,,,,,,,,,,,,,,,,,,,,,,,,,,,,w,1,0.334410190582,None,0,1.0,hexagonmagenta.gif,stop,,,,,,,,,,,,,,,,,,,,,,,,1.22,0.514509916306,0.000880002975464,0.334410190582,1,w,1127.01828194,,,,,,,,,,,,,,,,,,,,,,,,,,,,,,,,2015_Jul_06_1256,59.9004017349,LearningTask,1,79,
-200,a,-200,,,,,,,,,,,,,,,,,2,0,2,0,24,2,98,3,,,,,,,,,,,,,,,,,,,,,,,,,,,,,a,1,0.450814008713,None,0,4.0,diamondblue.gif,stop,,,,,,,,,,,,,,,,,,,,,,,,3.91,0.514019966125,0.000967025756836,0.450814008713,1,a,1130.02160382,,,,,,,,,,,,,,,,,,,,,,,,,,,,,,,,2015_Jul_06_1256,59.9004017349,LearningTask,1,79,
-200,a,-200,,,,,,,,,,,,,,,,,2,0,2,0,24,3,99,3,,,,,,,,,,,,,,,,,,,,,,,,,,,,,a,1,0.36740899086,None,0,4.0,crosswhite.gif,go,,,,,,,,,,,,,,,,,,,,,,,,3.8,0.514271020889,0.000877857208252,0.36740899086,1,a,1133.02487183,,,,,,,,,,,,,,,,,,,,,,,,,,,,,,,,2015_Jul_06_1256,59.9004017349,LearningTask,1,79,
,,,,,,,,,,,,,,,,,,,2,0,2,0,,,,,,,,,,,,,,,,,,,,,,,,,,,,,,,,,,,,,,,,,,,,,,,,,,,,,,,,,,,,,,,,,,,,,,,,,,,,,,9,6.95093178749,,,,,,,,,,,,,,,,,,,,,,,2015_Jul_06_1256,59.9004017349,LearningTask,1,79,
-200,q,200,,,,,,,,,,,,,,,,,3,0,3,0,0,0,0,1,,,,,,,,,,,,,,,,,,,,,,,,,,,,,q,1,0.418213129044,None,0,2.0,lineyellow.gif,stop,,,,,,,,,,,,,,,,,,,,,,,,2.05,0.510161876678,0.000865936279297,0.418213129044,1,q,1143.90423679,,,,,,,,,,,,,,,,,,,,,,,,,,,,,,,,2015_Jul_06_1256,59.9004017349,LearningTask,1,79,
-200,q,200,,,,,,,,,,,,,,,,,3,0,3,0,0,1,1,1,,,,,,,,,,,,,,,,,,,,,,,,,,,,,q,1,0.351313829422,None,0,4.0,diamondblue.gif,stop,,,,,,,,,,,,,,,,,,,,,,,,4.09,0.513178825378,0.000886917114258,0.351313829422,1,q,1146.90721297,,,,,,,,,,,,,,,,,,,,,,,,,,,,,,,,2015_Jul_06_1256,59.9004017349,LearningTask,1,79,
200,w,200,,,,,,,,,,,,,,,,,3,0,3,0,0,2,2,0,,,,,,,,,,,,,,,,,,,,,,,,,,,,,w,1,0.317859888077,None,0,4.0,diamondblue.gif,stop,,,,,,,,,,,,,,,,,,,,,,,,3.83,0.514281988144,0.000875949859619,0.317859888077,1,w,1149.91038179,,,,,,,,,,,,,,,,,,,,,,,,,,,,,,,,2015_Jul_06_1256,59.9004017349,LearningTask,1,79,
-200,a,-200,,,,,,,,,,,,,,,,,3,0,3,0,0,3,3,3,,,,,,,,,,,,,,,,,,,,,,,,,,,,,a,1,0.317395210266,None,0,1.0,hexagonmagenta.gif,stop,,,,,,,,,,,,,,,,,,,,,,,,1.0,0.514359951019,0.000948905944824,0.317395210266,1,a,1152.91397095,,,,,,,,,,,,,,,,,,,,,,,,,,,,,,,,2015_Jul_06_1256,59.9004017349,LearningTask,1,79,
