xPos,corrAns,yPos,corrGoResp,yPosGoStim,xPosGoStim,pracTrials.thisRepN,pracTrials.thisTrialN,pracTrials.thisN,pracTrials.thisIndex,ReDoLoopPrac.thisRepN,ReDoLoopPrac.thisTrialN,ReDoLoopPrac.thisN,ReDoLoopPrac.thisIndex,ReDoLoopPrac.thisTrial,pracStopTrials.thisRepN,pracStopTrials.thisTrialN,pracStopTrials.thisN,pracStopTrials.thisIndex,Blocks.thisRepN,Blocks.thisTrialN,Blocks.thisN,Blocks.thisIndex,trials.thisRepN,trials.thisTrialN,trials.thisN,trials.thisIndex,ReDoLoopMain.thisRepN,ReDoLoopMain.thisTrialN,ReDoLoopMain.thisN,ReDoLoopMain.thisIndex,ReDoLoopMain.thisTrial,StopBlocks.thisRepN,StopBlocks.thisTrialN,StopBlocks.thisN,StopBlocks.thisIndex,StopTrials.thisRepN,StopTrials.thisTrialN,StopTrials.thisN,StopTrials.thisIndex,auctionBlocks.thisRepN,auctionBlocks.thisTrialN,auctionBlocks.thisN,auctionBlocks.thisIndex,auctionTrials.thisRepN,auctionTrials.thisTrialN,auctionTrials.thisN,auctionTrials.thisIndex,learningTrialList,learningPracTrialList,stopTrialList,stopPracTrialList,auctionTrialList,ok1.keys,ok1.rt,resp.keys,resp.corr,resp.rt,feedbackResp.keys,feedbackResp.corr,currentReward,currentStimulus,currentStimType,firstPracComputedRewardOutput,firstPracLearningStimOnset,firstPracLearningFixOnset,firstPracPresentationRT,firstPracPresentationAcc,firstPracPresentationResp,firstPracEndTrialTimeStamp,StartTrialTimeStamp,trialType,goStim,stimType,stopStimValue,goResp.keys,goResp.corr,goResp.rt,key_resp_9.keys,key_resp_9.corr,fixStopOnset,goStimOnset,stopSignalOnset,EndTrialTimeStamp,key_resp_3.keys,key_resp_3.rt,firstComputedRewardOutput,firstLearningStimOnset,firstLearningFixOnset,firstPresentationRT,firstPresentationAcc,firstPresentationResp,firstEndTrialTimeStamp,key_resp_7.keys,key_resp_7.rt,secondComputedRewardOutput,secondLearningStimOnset,secondLearningFixOnset,secondPresentationRT,secondPresentationAcc,secondPresentationResp,secondEndTrialTimeStamp,beginningSSD,EndingSSD,key_resp_9.rt,key_resp_4.keys,key_resp_4.rt,auctionResponse.keys,auctionStimDuration,auctionStim,auctionAmounts,auctionStimValue,auctionCondition,chosenAuctionAmount,auctionResponse.rt,key_resp_5.keys,key_resp_5.rt,shuffledRewardList,chosenReward1,chosenReward2,chosenReward3,chosenReward4,chosenReward5,key_resp_6.keys,key_resp_6.rt,date,frameRate,expName,session,participant,
,,,,,,,,,,,,,,,,,,,,,,,,,,,,,,,,,,,,,,,,,,,,,,,,[],[],[],[],[],9,58.6020948887,,,,,,,,,,,,,,,,,,,,,,,,,,,,,,,,,,,,,,,,,,,,,,,,,,,,,,,,,,,,,,,,,,,,,,,2015_Jul_07_1410,59.8777406285,LearningTask,1,82,
200,w,200,,,,0,0,0,8,,,,,,,,,,,,,,,,,,,,,,,,,,,,,,,,,,,,,,,,,,,,,,w,1,0.617772817612,None,0,2.0,squaremagenta.gif,stop,0,0.500752925873,0.0194299221039,0.617772817612,1,w,128.589436054,,,,,,,,,,,,,,,,,,,,,,,,,,,,,,,,,,,,,,,,,,,,,,,,,,,,,,,,2015_Jul_07_1410,59.8777406285,LearningTask,1,82,
200,w,200,,,,0,1,1,0,,,,,,,,,,,,,,,,,,,,,,,,,,,,,,,,,,,,,,,,,,,,,,w,1,0.500532150269,None,0,2.0,squaremagenta.gif,stop,1.93,0.514853954315,0.000895977020264,0.500532150269,1,w,131.592612982,,,,,,,,,,,,,,,,,,,,,,,,,,,,,,,,,,,,,,,,,,,,,,,,,,,,,,,,2015_Jul_07_1410,59.8777406285,LearningTask,1,82,
-200,q,200,,,,0,2,2,9,,,,,,,,,,,,,,,,,,,,,,,,,,,,,,,,,,,,,,,,,,,,,,q,1,0.467746973038,None,0,2.0,circleyellow.gif,go,2.08,0.515094041824,0.0170509815216,0.467746973038,1,q,134.595916986,,,,,,,,,,,,,,,,,,,,,,,,,,,,,,,,,,,,,,,,,,,,,,,,,,,,,,,,2015_Jul_07_1410,59.8777406285,LearningTask,1,82,
200,s,-200,,,,0,3,3,6,,,,,,,,,,,,,,,,,,,,,,,,,,,,,,,,,,,,,,,,,,,,,,s,1,0.501441955566,None,0,0.5,invertedtriangleblue.gif,go,0.62,0.515486955643,0.00993895530701,0.501441955566,1,s,137.599279881,,,,,,,,,,,,,,,,,,,,,,,,,,,,,,,,,,,,,,,,,,,,,,,,,,,,,,,,2015_Jul_07_1410,59.8777406285,LearningTask,1,82,
200,s,-200,,,,0,4,4,2,,,,,,,,,,,,,,,,,,,,,,,,,,,,,,,,,,,,,,,,,,,,,,s,1,0.517848014832,None,0,1.0,crossgreen.gif,go,1.02,0.515009880066,0.022449016571,0.517848014832,1,s,140.603102922,,,,,,,,,,,,,,,,,,,,,,,,,,,,,,,,,,,,,,,,,,,,,,,,,,,,,,,,2015_Jul_07_1410,59.8777406285,LearningTask,1,82,
-200,a,-200,,,,0,5,5,7,,,,,,,,,,,,,,,,,,,,,,,,,,,,,,,,,,,,,,,,,,,,,,a,1,0.367735862732,None,0,0.5,invertedtriangleblue.gif,go,0,0.514495134354,0.000924110412598,0.367735862732,1,a,143.606050968,,,,,,,,,,,,,,,,,,,,,,,,,,,,,,,,,,,,,,,,,,,,,,,,,,,,,,,,2015_Jul_07_1410,59.8777406285,LearningTask,1,82,
-200,q,200,,,,0,6,6,5,,,,,,,,,,,,,,,,,,,,,,,,,,,,,,,,,,,,,,,,,,,,,,q,1,0.417499065399,None,0,1.0,hexagoncyan.gif,stop,0.94,0.515202045441,0.0349450111389,0.417499065399,1,q,146.609487057,,,,,,,,,,,,,,,,,,,,,,,,,,,,,,,,,,,,,,,,,,,,,,,,,,,,,,,,2015_Jul_07_1410,59.8777406285,LearningTask,1,82,
200,w,200,,,,0,7,7,4,,,,,,,,,,,,,,,,,,,,,,,,,,,,,,,,,,,,,,,,,,,,,,w,1,0.401443958282,None,0,2.0,squaremagenta.gif,stop,1.88,0.515000104904,0.0010449886322,0.401443958282,1,w,149.612663031,,,,,,,,,,,,,,,,,,,,,,,,,,,,,,,,,,,,,,,,,,,,,,,,,,,,,,,,2015_Jul_07_1410,59.8777406285,LearningTask,1,82,
-200,a,-200,,,,0,8,8,3,,,,,,,,,,,,,,,,,,,,,,,,,,,,,,,,,,,,,,,,,,,,,,a,1,0.417685031891,None,0,0.5,invertedtriangleblue.gif,go,0,0.515094995499,0.00101017951965,0.417685031891,1,a,152.616396904,,,,,,,,,,,,,,,,,,,,,,,,,,,,,,,,,,,,,,,,,,,,,,,,,,,,,,,,2015_Jul_07_1410,59.8777406285,LearningTask,1,82,
-200,q,200,,,,0,9,9,1,,,,,,,,,,,,,,,,,,,,,,,,,,,,,,,,,,,,,,,,,,,,,,q,1,0.400632858276,None,0,4.0,diamondgray.gif,stop,4.1,0.515102148056,0.0602469444275,0.400632858276,1,q,155.619561911,,,,,,,,,,,,,,,,,,,,,,,,,,,,,,,,,,,,,,,,,,,,,,,,,,,,,,,,2015_Jul_07_1410,59.8777406285,LearningTask,1,82,
,,,m,0,200,,,,,,,,,,0,0,0,1,,,,,,,,,,,,,,,,,,,,,,,,,,,,,,,,,,,,,,,,,,,,,,,,,,,,206.318558931,stop,diamondgray.gif,stop,4.0,m,1,0.534753084183,None,0,0.00165700912476,0.50644493103,0.757040977478,209.312933922,,,,,,,,,,,,,,,,,,,,,,,,,,,,,,,,,,,,,,,,,,2015_Jul_07_1410,59.8777406285,LearningTask,1,82,
,,,z,0,-200,,,,,,,,,,0,1,1,0,,,,,,,,,,,,,,,,,,,,,,,,,,,,,,,,,,,,,,,,,,,,,,,,,,,,209.313334942,go,lineorange.gif,go,4.0,z,1,0.634423017502,None,0,0.0786430835724,0.515855073929,,212.316606045,,,,,,,,,,,,,,,,,,,,,,,,,,,,,,,,,,,,,,,,,,2015_Jul_07_1410,59.8777406285,LearningTask,1,82,
,,,z,0,-200,,,,,,,,,,1,0,2,0,,,,,,,,,,,,,,,,,,,,,,,,,,,,,,,,,,,,,,,,,,,,,,,,,,,,212.316969872,stop,diamondgray.gif,stop,4.0,None,0,,None,0,0.00125193595886,0.515595912933,0.765657901764,215.319911957,,,,,,,,,,,,,,,,,,,,,,,,,,,,,,,,,,,,,,,,,,2015_Jul_07_1410,59.8777406285,LearningTask,1,82,
,,,m,0,200,,,,,,,,,,1,1,3,1,,,,,,,,,,,,,,,,,,,,,,,,,,,,,,,,,,,,,,,,,,,,,,,,,,,,215.320270061,go,circleyellow.gif,go,2.0,m,1,0.417628765106,None,0,0.00131297111511,0.516170024872,,218.323559046,,,,,,,,,,,,,,,,,,,,,,,,,,,,,,,,,,,,,,,,,,2015_Jul_07_1410,59.8777406285,LearningTask,1,82,
,,,z,0,-200,,,,,,,,,,2,0,4,0,,,,,,,,,,,,,,,,,,,,,,,,,,,,,,,,,,,,,,,,,,,,,,,,,,,,218.323930979,go,lineorange.gif,go,4.0,z,1,0.601101875305,None,0,0.00109195709229,0.515106916428,,221.326495886,,,,,,,,,,,,,,,,,,,,,,,,,,,,,,,,,,,,,,,,,,2015_Jul_07_1410,59.8777406285,LearningTask,1,82,
,,,m,0,200,,,,,,,,,,2,1,5,1,,,,,,,,,,,,,,,,,,,,,,,,,,,,,,,,,,,,,,,,,,,,,,,,,,,,221.326858044,go,invertedtriangleblue.gif,go,0.5,m,1,0.534148216248,None,0,0.0013108253479,0.516015052795,,224.329908848,,,,,,,,,,,,,,,,,,,,,,,,,,,,,,,,,,,,,,,,,,2015_Jul_07_1410,59.8777406285,LearningTask,1,82,
,,,m,0,200,,,,,,,,,,3,0,6,1,,,,,,,,,,,,,,,,,,,,,,,,,,,,,,,,,,,,,,,,,,,,,,,,,,,,224.330271959,stop,hexagoncyan.gif,stop,1.0,m,1,0.434353113174,None,0,0.00138401985168,0.515774965286,0.76601600647,227.33355093,,,,,,,,,,,,,,,,,,,,,,,,,,,,,,,,,,,,,,,,,,2015_Jul_07_1410,59.8777406285,LearningTask,1,82,
,,,z,0,-200,,,,,,,,,,3,1,7,0,,,,,,,,,,,,,,,,,,,,,,,,,,,,,,,,,,,,,,,,,,,,,,,,,,,,227.33397603,go,invertedtriangleblue.gif,go,0.5,z,1,0.534409046173,None,0,0.00103306770325,0.515373945236,,230.336703062,,,,,,,,,,,,,,,,,,,,,,,,,,,,,,,,,,,,,,,,,,2015_Jul_07_1410,59.8777406285,LearningTask,1,82,
,,,z,0,-200,,,,,,,,,,4,0,8,0,,,,,,,,,,,,,,,,,,,,,,,,,,,,,,,,,,,,,,,,,,,,,,,,,,,,230.337065935,go,lineorange.gif,go,4.0,z,1,0.483954906464,None,0,0.000946998596191,0.515977144241,,233.339804888,,,,,,,,,,,,,,,,,,,,,,,,,,,,,,,,,,,,,,,,,,2015_Jul_07_1410,59.8777406285,LearningTask,1,82,
,,,m,0,200,,,,,,,,,,4,1,9,1,,,,,,,,,,,,,,,,,,,,,,,,,,,,,,,,,,,,,,,,,,,,,,,,,,,,233.340177059,stop,trianglewhite.gif,stop,0.5,m,1,0.384641885757,None,0,0.0238308906555,0.515759944916,0.750211000443,236.343564987,,,,,,,,,,,,,,,,,,,,,,,,,,,,,,,,,,,,,,,,,,2015_Jul_07_1410,59.8777406285,LearningTask,1,82,
,,,,,,,,,,,,,,,,,,,,,,,,,,,,,,,,,,,,,,,,,,,,,,,,,,,,,,,,,,,,,,,,,,,,,,,,,,,,,,,,,,,,9,3.42765498161,,,,,,,,,,,,,,,,,,,,,,,,,,,,,,,,,,,,,,,,2015_Jul_07_1410,59.8777406285,LearningTask,1,82,
,,,,,,,,,,,,,,,,,,,,,,,,,,,,,,,,,,,,,,,,,,,,,,,,,,,,,9,100.32971096,,,,,,,,,,,,,,,,,,,,,,,,,,,,,,,,,,,,,,,,,,,,,,,,,,,,,,,,,,,,,,,,,,,,,,,2015_Jul_07_1410,59.8777406285,LearningTask,1,82,
200,s,-200,,,,,,,,,,,,,,,,,0,0,0,0,0,0,0,2,,,,,,,,,,,,,,,,,,,,,,,,,,,,,s,1,0.484175920486,None,0,0.5,trianglewhite.gif,stop,,,,,,,,,,,,,,,,,,,,,,,,0.34,0.504989147186,0.000893115997314,0.484175920486,1,s,343.2816329,,,,,,,,,,,,,,,,,,,,,,,,,,,,,,,,,2015_Jul_07_1410,59.8777406285,LearningTask,1,82,
-200,a,-200,,,,,,,,,,,,,,,,,0,0,0,0,0,1,1,3,,,,,,,,,,,,,,,,,,,,,,,,,,,,,a,1,0.450904130936,None,0,2.0,squaremagenta.gif,stop,,,,,,,,,,,,,,,,,,,,,,,,2.22,0.513658046722,0.00127601623535,0.450904130936,1,a,346.284708977,,,,,,,,,,,,,,,,,,,,,,,,,,,,,,,,,2015_Jul_07_1410,59.8777406285,LearningTask,1,82,
200,s,-200,,,,,,,,,,,,,,,,,0,0,0,0,0,2,2,2,,,,,,,,,,,,,,,,,,,,,,,,,,,,,s,1,0.401298999786,None,0,0.5,invertedtriangleblue.gif,go,,,,,,,,,,,,,,,,,,,,,,,,0.67,0.514183998108,0.000915050506592,0.401298999786,1,s,349.287832022,,,,,,,,,,,,,,,,,,,,,,,,,,,,,,,,,2015_Jul_07_1410,59.8777406285,LearningTask,1,82,
-200,a,-200,,,,,,,,,,,,,,,,,0,0,0,0,0,3,3,3,,,,,,,,,,,,,,,,,,,,,,,,,,,,,a,1,0.467945098877,None,0,2.0,circleyellow.gif,go,,,,,,,,,,,,,,,,,,,,,,,,1.78,0.514307975769,0.000895023345947,0.467945098877,1,a,352.29161787,,,,,,,,,,,,,,,,,,,,,,,,,,,,,,,,,2015_Jul_07_1410,59.8777406285,LearningTask,1,82,
-200,q,200,,,,,,,,,,,,,,,,,0,0,0,0,1,0,4,1,,,,,,,,,,,,,,,,,,,,,,,,,,,,,q,1,0.350665092468,None,0,2.0,circleyellow.gif,go,,,,,,,,,,,,,,,,,,,,,,,,2.08,0.514028072357,0.000942945480347,0.350665092468,1,q,355.294698954,,,,,,,,,,,,,,,,,,,,,,,,,,,,,,,,,2015_Jul_07_1410,59.8777406285,LearningTask,1,82,
200,w,200,,,,,,,,,,,,,,,,,0,0,0,0,1,1,5,0,,,,,,,,,,,,,,,,,,,,,,,,,,,,,w,1,0.484213113785,None,0,4.0,lineorange.gif,go,,,,,,,,,,,,,,,,,,,,,,,,4.09,0.514404058456,0.000898122787476,0.484213113785,1,w,358.298060894,,,,,,,,,,,,,,,,,,,,,,,,,,,,,,,,,2015_Jul_07_1410,59.8777406285,LearningTask,1,82,
200,s,-200,,,,,,,,,,,,,,,,,0,0,0,0,1,2,6,2,,,,,,,,,,,,,,,,,,,,,,,,,,,,,s,1,0.334568977356,None,0,0.5,trianglewhite.gif,stop,,,,,,,,,,,,,,,,,,,,,,,,0.38,0.514261960983,0.00092887878418,0.334568977356,1,s,361.301444054,,,,,,,,,,,,,,,,,,,,,,,,,,,,,,,,,2015_Jul_07_1410,59.8777406285,LearningTask,1,82,
-200,q,200,,,,,,,,,,,,,,,,,0,0,0,0,1,3,7,1,,,,,,,,,,,,,,,,,,,,,,,,,,,,,q,1,0.350540876389,None,0,0.5,trianglewhite.gif,stop,,,,,,,,,,,,,,,,,,,,,,,,0.62,0.514064788818,0.000902891159058,0.350540876389,1,q,364.304760933,,,,,,,,,,,,,,,,,,,,,,,,,,,,,,,,,2015_Jul_07_1410,59.8777406285,LearningTask,1,82,
-200,a,-200,,,,,,,,,,,,,,,,,0,0,0,0,2,0,8,3,,,,,,,,,,,,,,,,,,,,,,,,,,,,,a,1,0.334004163742,None,0,1.0,crossgreen.gif,go,,,,,,,,,,,,,,,,,,,,,,,,1.22,0.514453887939,0.00128698348999,0.334004163742,1,a,367.308475971,,,,,,,,,,,,,,,,,,,,,,,,,,,,,,,,,2015_Jul_07_1410,59.8777406285,LearningTask,1,82,
-200,a,-200,,,,,,,,,,,,,,,,,0,0,0,0,2,1,9,3,,,,,,,,,,,,,,,,,,,,,,,,,,,,,a,1,0.384493112564,None,0,2.0,circleyellow.gif,go,,,,,,,,,,,,,,,,,,,,,,,,1.79,0.513593196869,0.000921010971069,0.384493112564,1,a,370.311790943,,,,,,,,,,,,,,,,,,,,,,,,,,,,,,,,,2015_Jul_07_1410,59.8777406285,LearningTask,1,82,
200,s,-200,,,,,,,,,,,,,,,,,0,0,0,0,2,2,10,2,,,,,,,,,,,,,,,,,,,,,,,,,,,,,s,1,0.38442492485,None,0,1.0,hexagoncyan.gif,stop,,,,,,,,,,,,,,,,,,,,,,,,1.04,0.51411819458,0.000888109207153,0.38442492485,1,s,373.314935923,,,,,,,,,,,,,,,,,,,,,,,,,,,,,,,,,2015_Jul_07_1410,59.8777406285,LearningTask,1,82,
200,w,200,,,,,,,,,,,,,,,,,0,0,0,0,2,3,11,0,,,,,,,,,,,,,,,,,,,,,,,,,,,,,w,1,0.384112119675,None,0,2.0,squaremagenta.gif,stop,,,,,,,,,,,,,,,,,,,,,,,,1.91,0.514389038086,0.000998020172119,0.384112119675,1,w,376.318214893,,,,,,,,,,,,,,,,,,,,,,,,,,,,,,,,,2015_Jul_07_1410,59.8777406285,LearningTask,1,82,
-200,q,200,,,,,,,,,,,,,,,,,0,0,0,0,3,0,12,1,,,,,,,,,,,,,,,,,,,,,,,,,,,,,q,1,0.334137916565,None,0,4.0,diamondgray.gif,stop,,,,,,,,,,,,,,,,,,,,,,,,4.21,0.514422893524,0.000890970230103,0.334137916565,1,q,379.32170105,,,,,,,,,,,,,,,,,,,,,,,,,,,,,,,,,2015_Jul_07_1410,59.8777406285,LearningTask,1,82,
200,s,-200,,,,,,,,,,,,,,,,,0,0,0,0,3,1,13,2,,,,,,,,,,,,,,,,,,,,,,,,,,,,,s,1,0.351161956787,None,0,4.0,diamondgray.gif,stop,,,,,,,,,,,,,,,,,,,,,,,,0,0.514230012894,0.00118517875671,0.351161956787,1,s,382.325026035,,,,,,,,,,,,,,,,,,,,,,,,,,,,,,,,,2015_Jul_07_1410,59.8777406285,LearningTask,1,82,
200,w,200,,,,,,,,,,,,,,,,,0,0,0,0,3,2,14,0,,,,,,,,,,,,,,,,,,,,,,,,,,,,,w,1,0.350912094116,None,0,4.0,diamondgray.gif,stop,,,,,,,,,,,,,,,,,,,,,,,,0,0.514338970184,0.00100708007812,0.350912094116,1,w,385.32878089,,,,,,,,,,,,,,,,,,,,,,,,,,,,,,,,,2015_Jul_07_1410,59.8777406285,LearningTask,1,82,
200,w,200,,,,,,,,,,,,,,,,,0,0,0,0,3,3,15,0,,,,,,,,,,,,,,,,,,,,,,,,,,,,,w,1,0.367249011993,None,0,2.0,squaremagenta.gif,stop,,,,,,,,,,,,,,,,,,,,,,,,1.81,0.514215946198,0.000890970230103,0.367249011993,1,w,388.331806898,,,,,,,,,,,,,,,,,,,,,,,,,,,,,,,,,2015_Jul_07_1410,59.8777406285,LearningTask,1,82,
200,w,200,,,,,,,,,,,,,,,,,0,0,0,0,4,0,16,0,,,,,,,,,,,,,,,,,,,,,,,,,,,,,w,1,0.367567062378,None,0,1.0,crossgreen.gif,go,,,,,,,,,,,,,,,,,,,,,,,,0.77,0.514409065247,0.000922918319702,0.367567062378,1,w,391.335053921,,,,,,,,,,,,,,,,,,,,,,,,,,,,,,,,,2015_Jul_07_1410,59.8777406285,LearningTask,1,82,
200,s,-200,,,,,,,,,,,,,,,,,0,0,0,0,4,1,17,2,,,,,,,,,,,,,,,,,,,,,,,,,,,,,s,1,0.434576034546,None,0,1.0,hexagoncyan.gif,stop,,,,,,,,,,,,,,,,,,,,,,,,0.75,0.514087915421,0.000924825668335,0.434576034546,1,s,394.338654041,,,,,,,,,,,,,,,,,,,,,,,,,,,,,,,,,2015_Jul_07_1410,59.8777406285,LearningTask,1,82,
-200,a,-200,,,,,,,,,,,,,,,,,0,0,0,0,4,2,18,3,,,,,,,,,,,,,,,,,,,,,,,,,,,,,a,1,0.418174028397,None,0,1.0,hexagoncyan.gif,stop,,,,,,,,,,,,,,,,,,,,,,,,1.05,0.514347791672,0.000897884368896,0.418174028397,1,a,397.342005014,,,,,,,,,,,,,,,,,,,,,,,,,,,,,,,,,2015_Jul_07_1410,59.8777406285,LearningTask,1,82,
-200,q,200,,,,,,,,,,,,,,,,,0,0,0,0,4,3,19,1,,,,,,,,,,,,,,,,,,,,,,,,,,,,,q,1,0.400542974472,None,0,4.0,lineorange.gif,go,,,,,,,,,,,,,,,,,,,,,,,,3.83,0.51458978653,0.000960826873779,0.400542974472,1,q,400.345479965,,,,,,,,,,,,,,,,,,,,,,,,,,,,,,,,,2015_Jul_07_1410,59.8777406285,LearningTask,1,82,
200,s,-200,,,,,,,,,,,,,,,,,0,0,0,0,5,0,20,2,,,,,,,,,,,,,,,,,,,,,,,,,,,,,s,1,0.350771188736,None,0,4.0,diamondgray.gif,stop,,,,,,,,,,,,,,,,,,,,,,,,3.91,0.514093875885,0.00125002861023,0.350771188736,1,s,403.348796844,,,,,,,,,,,,,,,,,,,,,,,,,,,,,,,,,2015_Jul_07_1410,59.8777406285,LearningTask,1,82,
200,s,-200,,,,,,,,,,,,,,,,,0,0,0,0,5,1,21,2,,,,,,,,,,,,,,,,,,,,,,,,,,,,,s,1,0.401515960693,None,0,0.5,invertedtriangleblue.gif,go,,,,,,,,,,,,,,,,,,,,,,,,0,0.514069795609,0.000967025756836,0.401515960693,1,s,406.351992846,,,,,,,,,,,,,,,,,,,,,,,,,,,,,,,,,2015_Jul_07_1410,59.8777406285,LearningTask,1,82,
200,s,-200,,,,,,,,,,,,,,,,,0,0,0,0,5,2,22,2,,,,,,,,,,,,,,,,,,,,,,,,,,,,,s,1,0.334362983704,None,0,2.0,circleyellow.gif,go,,,,,,,,,,,,,,,,,,,,,,,,2.22,0.514323949814,0.000947952270508,0.334362983704,1,s,409.355815887,,,,,,,,,,,,,,,,,,,,,,,,,,,,,,,,,2015_Jul_07_1410,59.8777406285,LearningTask,1,82,
200,s,-200,,,,,,,,,,,,,,,,,0,0,0,0,5,3,23,2,,,,,,,,,,,,,,,,,,,,,,,,,,,,,s,1,0.367694139481,None,0,0.5,trianglewhite.gif,stop,,,,,,,,,,,,,,,,,,,,,,,,0,0.514019966125,0.00090503692627,0.367694139481,1,s,412.35876894,,,,,,,,,,,,,,,,,,,,,,,,,,,,,,,,,2015_Jul_07_1410,59.8777406285,LearningTask,1,82,
200,w,200,,,,,,,,,,,,,,,,,0,0,0,0,6,0,24,0,,,,,,,,,,,,,,,,,,,,,,,,,,,,,w,1,0.417247056961,None,0,4.0,diamondgray.gif,stop,,,,,,,,,,,,,,,,,,,,,,,,4.03,0.514544963837,0.000885009765625,0.417247056961,1,w,415.362119913,,,,,,,,,,,,,,,,,,,,,,,,,,,,,,,,,2015_Jul_07_1410,59.8777406285,LearningTask,1,82,
200,w,200,,,,,,,,,,,,,,,,,0,0,0,0,6,1,25,0,,,,,,,,,,,,,,,,,,,,,,,,,,,,,w,1,0.38377904892,None,0,1.0,hexagoncyan.gif,stop,,,,,,,,,,,,,,,,,,,,,,,,0.98,0.514523029327,0.000890016555786,0.38377904892,1,w,418.365567923,,,,,,,,,,,,,,,,,,,,,,,,,,,,,,,,,2015_Jul_07_1410,59.8777406285,LearningTask,1,82,
200,w,200,,,,,,,,,,,,,,,,,0,0,0,0,6,2,26,0,,,,,,,,,,,,,,,,,,,,,,,,,,,,,w,1,0.384351968765,None,0,2.0,squaremagenta.gif,stop,,,,,,,,,,,,,,,,,,,,,,,,1.9,0.514225006104,0.000899076461792,0.384351968765,1,w,421.368974924,,,,,,,,,,,,,,,,,,,,,,,,,,,,,,,,,2015_Jul_07_1410,59.8777406285,LearningTask,1,82,
200,w,200,,,,,,,,,,,,,,,,,0,0,0,0,6,3,27,0,,,,,,,,,,,,,,,,,,,,,,,,,,,,,w,1,0.383934020996,None,0,0.5,trianglewhite.gif,stop,,,,,,,,,,,,,,,,,,,,,,,,0,0.514317989349,0.00104808807373,0.383934020996,1,w,424.372876883,,,,,,,,,,,,,,,,,,,,,,,,,,,,,,,,,2015_Jul_07_1410,59.8777406285,LearningTask,1,82,
-200,a,-200,,,,,,,,,,,,,,,,,0,0,0,0,7,0,28,3,,,,,,,,,,,,,,,,,,,,,,,,,,,,,a,1,0.38431596756,None,0,0.5,trianglewhite.gif,stop,,,,,,,,,,,,,,,,,,,,,,,,0.67,0.513714075089,0.00089693069458,0.38431596756,1,a,427.375803947,,,,,,,,,,,,,,,,,,,,,,,,,,,,,,,,,2015_Jul_07_1410,59.8777406285,LearningTask,1,82,
200,s,-200,,,,,,,,,,,,,,,,,0,0,0,0,7,1,29,2,,,,,,,,,,,,,,,,,,,,,,,,,,,,,s,1,0.350589036942,None,0,1.0,hexagoncyan.gif,stop,,,,,,,,,,,,,,,,,,,,,,,,1.22,0.514513015747,0.000893115997314,0.350589036942,1,s,430.379006863,,,,,,,,,,,,,,,,,,,,,,,,,,,,,,,,,2015_Jul_07_1410,59.8777406285,LearningTask,1,82,
-200,q,200,,,,,,,,,,,,,,,,,0,0,0,0,7,2,30,1,,,,,,,,,,,,,,,,,,,,,,,,,,,,,q,1,0.317401170731,None,0,0.5,invertedtriangleblue.gif,go,,,,,,,,,,,,,,,,,,,,,,,,0.43,0.51437497139,0.00104093551636,0.317401170731,1,q,433.38261199,,,,,,,,,,,,,,,,,,,,,,,,,,,,,,,,,2015_Jul_07_1410,59.8777406285,LearningTask,1,82,
200,s,-200,,,,,,,,,,,,,,,,,0,0,0,0,7,3,31,2,,,,,,,,,,,,,,,,,,,,,,,,,,,,,s,1,0.317494869232,None,0,4.0,diamondgray.gif,stop,,,,,,,,,,,,,,,,,,,,,,,,3.94,0.514096975327,0.000908851623535,0.317494869232,1,s,436.385808945,,,,,,,,,,,,,,,,,,,,,,,,,,,,,,,,,2015_Jul_07_1410,59.8777406285,LearningTask,1,82,
-200,q,200,,,,,,,,,,,,,,,,,0,0,0,0,8,0,32,1,,,,,,,,,,,,,,,,,,,,,,,,,,,,,q,1,0.417604923248,None,0,4.0,lineorange.gif,go,,,,,,,,,,,,,,,,,,,,,,,,0,0.514340162277,0.000910043716431,0.417604923248,1,q,439.389014006,,,,,,,,,,,,,,,,,,,,,,,,,,,,,,,,,2015_Jul_07_1410,59.8777406285,LearningTask,1,82,
200,w,200,,,,,,,,,,,,,,,,,0,0,0,0,8,1,33,0,,,,,,,,,,,,,,,,,,,,,,,,,,,,,w,1,0.384021043777,None,0,1.0,hexagoncyan.gif,stop,,,,,,,,,,,,,,,,,,,,,,,,1.04,0.514716148376,0.00092601776123,0.384021043777,1,w,442.392617941,,,,,,,,,,,,,,,,,,,,,,,,,,,,,,,,,2015_Jul_07_1410,59.8777406285,LearningTask,1,82,
-200,a,-200,,,,,,,,,,,,,,,,,0,0,0,0,8,2,34,3,,,,,,,,,,,,,,,,,,,,,,,,,,,,,a,1,0.451039075851,None,0,2.0,circleyellow.gif,go,,,,,,,,,,,,,,,,,,,,,,,,1.76,0.51444196701,0.000907897949219,0.451039075851,1,a,445.395959854,,,,,,,,,,,,,,,,,,,,,,,,,,,,,,,,,2015_Jul_07_1410,59.8777406285,LearningTask,1,82,
200,s,-200,,,,,,,,,,,,,,,,,0,0,0,0,8,3,35,2,,,,,,,,,,,,,,,,,,,,,,,,,,,,,s,1,0.367812156677,None,0,0.5,invertedtriangleblue.gif,go,,,,,,,,,,,,,,,,,,,,,,,,0,0.514200210571,0.000959157943726,0.367812156677,1,s,448.399466038,,,,,,,,,,,,,,,,,,,,,,,,,,,,,,,,,2015_Jul_07_1410,59.8777406285,LearningTask,1,82,
-200,q,200,,,,,,,,,,,,,,,,,0,0,0,0,9,0,36,1,,,,,,,,,,,,,,,,,,,,,,,,,,,,,q,1,0.401087999344,None,0,4.0,diamondgray.gif,stop,,,,,,,,,,,,,,,,,,,,,,,,0,0.51374912262,0.000905990600586,0.401087999344,1,q,451.402714014,,,,,,,,,,,,,,,,,,,,,,,,,,,,,,,,,2015_Jul_07_1410,59.8777406285,LearningTask,1,82,
200,s,-200,,,,,,,,,,,,,,,,,0,0,0,0,9,1,37,2,,,,,,,,,,,,,,,,,,,,,,,,,,,,,s,1,0.334275007248,None,0,4.0,lineorange.gif,go,,,,,,,,,,,,,,,,,,,,,,,,4.03,0.514148950577,0.000899076461792,0.334275007248,1,s,454.406358957,,,,,,,,,,,,,,,,,,,,,,,,,,,,,,,,,2015_Jul_07_1410,59.8777406285,LearningTask,1,82,
200,s,-200,,,,,,,,,,,,,,,,,0,0,0,0,9,2,38,2,,,,,,,,,,,,,,,,,,,,,,,,,,,,,s,1,0.384325027466,None,0,2.0,squaremagenta.gif,stop,,,,,,,,,,,,,,,,,,,,,,,,2.02,0.513758897781,0.000926971435547,0.384325027466,1,s,457.409718037,,,,,,,,,,,,,,,,,,,,,,,,,,,,,,,,,2015_Jul_07_1410,59.8777406285,LearningTask,1,82,
200,s,-200,,,,,,,,,,,,,,,,,0,0,0,0,9,3,39,2,,,,,,,,,,,,,,,,,,,,,,,,,,,,,s,1,0.400760173798,None,0,1.0,crossgreen.gif,go,,,,,,,,,,,,,,,,,,,,,,,,0.85,0.514404058456,0.000900983810425,0.400760173798,1,s,460.412883997,,,,,,,,,,,,,,,,,,,,,,,,,,,,,,,,,2015_Jul_07_1410,59.8777406285,LearningTask,1,82,
200,w,200,,,,,,,,,,,,,,,,,0,0,0,0,10,0,40,0,,,,,,,,,,,,,,,,,,,,,,,,,,,,,w,1,0.333956003189,None,0,1.0,hexagoncyan.gif,stop,,,,,,,,,,,,,,,,,,,,,,,,1.12,0.514349937439,0.000913858413696,0.333956003189,1,w,463.416344881,,,,,,,,,,,,,,,,,,,,,,,,,,,,,,,,,2015_Jul_07_1410,59.8777406285,LearningTask,1,82,
200,w,200,,,,,,,,,,,,,,,,,0,0,0,0,10,1,41,0,,,,,,,,,,,,,,,,,,,,,,,,,,,,,w,1,0.333933830261,None,0,2.0,circleyellow.gif,go,,,,,,,,,,,,,,,,,,,,,,,,0,0.514189958572,0.000910043716431,0.333933830261,1,w,466.419684887,,,,,,,,,,,,,,,,,,,,,,,,,,,,,,,,,2015_Jul_07_1410,59.8777406285,LearningTask,1,82,
200,w,200,,,,,,,,,,,,,,,,,0,0,0,0,10,2,42,0,,,,,,,,,,,,,,,,,,,,,,,,,,,,,w,1,0.334219932556,None,0,2.0,circleyellow.gif,go,,,,,,,,,,,,,,,,,,,,,,,,2.04,0.514135122299,0.000891923904419,0.334219932556,1,w,469.423357964,,,,,,,,,,,,,,,,,,,,,,,,,,,,,,,,,2015_Jul_07_1410,59.8777406285,LearningTask,1,82,
-200,a,-200,,,,,,,,,,,,,,,,,0,0,0,0,10,3,43,3,,,,,,,,,,,,,,,,,,,,,,,,,,,,,a,1,0.434321880341,None,0,0.5,trianglewhite.gif,stop,,,,,,,,,,,,,,,,,,,,,,,,0.44,0.513554096222,0.000943899154663,0.434321880341,1,a,472.426828861,,,,,,,,,,,,,,,,,,,,,,,,,,,,,,,,,2015_Jul_07_1410,59.8777406285,LearningTask,1,82,
200,w,200,,,,,,,,,,,,,,,,,0,0,0,0,11,0,44,0,,,,,,,,,,,,,,,,,,,,,,,,,,,,,w,1,0.350919008255,None,0,4.0,lineorange.gif,go,,,,,,,,,,,,,,,,,,,,,,,,4.19,0.514245033264,0.000898122787476,0.350919008255,1,w,475.429758072,,,,,,,,,,,,,,,,,,,,,,,,,,,,,,,,,2015_Jul_07_1410,59.8777406285,LearningTask,1,82,
-200,q,200,,,,,,,,,,,,,,,,,0,0,0,0,11,1,45,1,,,,,,,,,,,,,,,,,,,,,,,,,,,,,q,1,0.33456993103,None,0,2.0,circleyellow.gif,go,,,,,,,,,,,,,,,,,,,,,,,,0,0.514434099197,0.000899076461792,0.33456993103,1,q,478.433111906,,,,,,,,,,,,,,,,,,,,,,,,,,,,,,,,,2015_Jul_07_1410,59.8777406285,LearningTask,1,82,
200,w,200,,,,,,,,,,,,,,,,,0,0,0,0,11,2,46,0,,,,,,,,,,,,,,,,,,,,,,,,,,,,,w,1,0.334501981735,None,0,1.0,crossgreen.gif,go,,,,,,,,,,,,,,,,,,,,,,,,1.04,0.514191865921,0.000971794128418,0.334501981735,1,w,481.436655998,,,,,,,,,,,,,,,,,,,,,,,,,,,,,,,,,2015_Jul_07_1410,59.8777406285,LearningTask,1,82,
200,s,-200,,,,,,,,,,,,,,,,,0,0,0,0,11,3,47,2,,,,,,,,,,,,,,,,,,,,,,,,,,,,,s,1,0.334187030792,None,0,1.0,hexagoncyan.gif,stop,,,,,,,,,,,,,,,,,,,,,,,,0.87,0.514181137085,0.00103712081909,0.334187030792,1,s,484.439867973,,,,,,,,,,,,,,,,,,,,,,,,,,,,,,,,,2015_Jul_07_1410,59.8777406285,LearningTask,1,82,
-200,q,200,,,,,,,,,,,,,,,,,0,0,0,0,12,0,48,1,,,,,,,,,,,,,,,,,,,,,,,,,,,,,q,1,0.384088993073,None,0,2.0,circleyellow.gif,go,,,,,,,,,,,,,,,,,,,,,,,,2.04,0.514243841171,0.00119686126709,0.384088993073,1,q,487.443609953,,,,,,,,,,,,,,,,,,,,,,,,,,,,,,,,,2015_Jul_07_1410,59.8777406285,LearningTask,1,82,
200,s,-200,,,,,,,,,,,,,,,,,0,0,0,0,12,1,49,2,,,,,,,,,,,,,,,,,,,,,,,,,,,,,s,1,0.367099046707,None,0,4.0,diamondgray.gif,stop,,,,,,,,,,,,,,,,,,,,,,,,4.04,0.513845920563,0.000907897949219,0.367099046707,1,s,490.44667697,,,,,,,,,,,,,,,,,,,,,,,,,,,,,,,,,2015_Jul_07_1410,59.8777406285,LearningTask,1,82,
200,w,200,,,,,,,,,,,,,,,,,0,0,0,0,12,2,50,0,,,,,,,,,,,,,,,,,,,,,,,,,,,,,w,1,0.384596824646,None,0,4.0,diamondgray.gif,stop,,,,,,,,,,,,,,,,,,,,,,,,3.95,0.514350175858,0.000990152359009,0.384596824646,1,w,493.450011015,,,,,,,,,,,,,,,,,,,,,,,,,,,,,,,,,2015_Jul_07_1410,59.8777406285,LearningTask,1,82,
-200,a,-200,,,,,,,,,,,,,,,,,0,0,0,0,12,3,51,3,,,,,,,,,,,,,,,,,,,,,,,,,,,,,a,1,0.384745836258,None,0,4.0,lineorange.gif,go,,,,,,,,,,,,,,,,,,,,,,,,3.92,0.514235973358,0.00094199180603,0.384745836258,1,a,496.453938961,,,,,,,,,,,,,,,,,,,,,,,,,,,,,,,,,2015_Jul_07_1410,59.8777406285,LearningTask,1,82,
200,w,200,,,,,,,,,,,,,,,,,0,0,0,0,13,0,52,0,,,,,,,,,,,,,,,,,,,,,,,,,,,,,w,1,0.30021905899,None,0,2.0,squaremagenta.gif,stop,,,,,,,,,,,,,,,,,,,,,,,,0,0.514056921005,0.00089693069458,0.30021905899,1,w,499.456815004,,,,,,,,,,,,,,,,,,,,,,,,,,,,,,,,,2015_Jul_07_1410,59.8777406285,LearningTask,1,82,
-200,a,-200,,,,,,,,,,,,,,,,,0,0,0,0,13,1,53,3,,,,,,,,,,,,,,,,,,,,,,,,,,,,,a,1,0.384540081024,None,0,0.5,invertedtriangleblue.gif,go,,,,,,,,,,,,,,,,,,,,,,,,0.56,0.514196872711,0.000913858413696,0.384540081024,1,a,502.460084915,,,,,,,,,,,,,,,,,,,,,,,,,,,,,,,,,2015_Jul_07_1410,59.8777406285,LearningTask,1,82,
200,w,200,,,,,,,,,,,,,,,,,0,0,0,0,13,2,54,0,,,,,,,,,,,,,,,,,,,,,,,,,,,,,w,1,0.350785017014,None,0,2.0,squaremagenta.gif,stop,,,,,,,,,,,,,,,,,,,,,,,,0,0.514573812485,0.000900983810425,0.350785017014,1,w,505.463675022,,,,,,,,,,,,,,,,,,,,,,,,,,,,,,,,,2015_Jul_07_1410,59.8777406285,LearningTask,1,82,
-200,a,-200,,,,,,,,,,,,,,,,,0,0,0,0,13,3,55,3,,,,,,,,,,,,,,,,,,,,,,,,,,,,,a,1,0.450911998749,None,0,2.0,squaremagenta.gif,stop,,,,,,,,,,,,,,,,,,,,,,,,1.95,0.513530015945,0.00108599662781,0.450911998749,1,a,508.466923952,,,,,,,,,,,,,,,,,,,,,,,,,,,,,,,,,2015_Jul_07_1410,59.8777406285,LearningTask,1,82,
-200,q,200,,,,,,,,,,,,,,,,,0,0,0,0,14,0,56,1,,,,,,,,,,,,,,,,,,,,,,,,,,,,,q,1,0.367643117905,None,0,0.5,invertedtriangleblue.gif,go,,,,,,,,,,,,,,,,,,,,,,,,0.28,0.514315843582,0.00102281570435,0.367643117905,1,q,511.471385002,,,,,,,,,,,,,,,,,,,,,,,,,,,,,,,,,2015_Jul_07_1410,59.8777406285,LearningTask,1,82,
200,s,-200,,,,,,,,,,,,,,,,,0,0,0,0,14,1,57,2,,,,,,,,,,,,,,,,,,,,,,,,,,,,,s,1,0.384382009506,None,0,2.0,circleyellow.gif,go,,,,,,,,,,,,,,,,,,,,,,,,2.17,0.513419866562,0.000944852828979,0.384382009506,1,s,514.473736048,,,,,,,,,,,,,,,,,,,,,,,,,,,,,,,,,2015_Jul_07_1410,59.8777406285,LearningTask,1,82,
-200,a,-200,,,,,,,,,,,,,,,,,0,0,0,0,14,2,58,3,,,,,,,,,,,,,,,,,,,,,,,,,,,,,a,1,0.383655071259,None,0,0.5,trianglewhite.gif,stop,,,,,,,,,,,,,,,,,,,,,,,,0.5,0.514653921127,0.000938892364502,0.383655071259,1,a,517.476980925,,,,,,,,,,,,,,,,,,,,,,,,,,,,,,,,,2015_Jul_07_1410,59.8777406285,LearningTask,1,82,
-200,q,200,,,,,,,,,,,,,,,,,0,0,0,0,14,3,59,1,,,,,,,,,,,,,,,,,,,,,,,,,,,,,q,1,0.383900880814,None,0,2.0,squaremagenta.gif,stop,,,,,,,,,,,,,,,,,,,,,,,,1.98,0.514456033707,0.000951051712036,0.383900880814,1,q,520.480279922,,,,,,,,,,,,,,,,,,,,,,,,,,,,,,,,,2015_Jul_07_1410,59.8777406285,LearningTask,1,82,
-200,q,200,,,,,,,,,,,,,,,,,0,0,0,0,15,0,60,1,,,,,,,,,,,,,,,,,,,,,,,,,,,,,q,1,0.417471885681,None,0,4.0,diamondgray.gif,stop,,,,,,,,,,,,,,,,,,,,,,,,0,0.514419078827,0.00102686882019,0.417471885681,1,q,523.483752012,,,,,,,,,,,,,,,,,,,,,,,,,,,,,,,,,2015_Jul_07_1410,59.8777406285,LearningTask,1,82,
-200,q,200,,,,,,,,,,,,,,,,,0,0,0,0,15,1,61,1,,,,,,,,,,,,,,,,,,,,,,,,,,,,,q,1,0.500926017761,None,0,2.0,circleyellow.gif,go,,,,,,,,,,,,,,,,,,,,,,,,2.25,0.514492988586,0.000898122787476,0.500926017761,1,q,526.486973047,,,,,,,,,,,,,,,,,,,,,,,,,,,,,,,,,2015_Jul_07_1410,59.8777406285,LearningTask,1,82,
-200,q,200,,,,,,,,,,,,,,,,,0,0,0,0,15,2,62,1,,,,,,,,,,,,,,,,,,,,,,,,,,,,,q,1,0.417835950851,None,0,2.0,circleyellow.gif,go,,,,,,,,,,,,,,,,,,,,,,,,0,0.514029979706,0.000927925109863,0.417835950851,1,q,529.490563869,,,,,,,,,,,,,,,,,,,,,,,,,,,,,,,,,2015_Jul_07_1410,59.8777406285,LearningTask,1,82,
-200,a,-200,,,,,,,,,,,,,,,,,0,0,0,0,15,3,63,3,,,,,,,,,,,,,,,,,,,,,,,,,,,,,a,1,0.467224836349,None,0,2.0,squaremagenta.gif,stop,,,,,,,,,,,,,,,,,,,,,,,,2.08,0.514647960663,0.000895023345947,0.467224836349,1,a,532.493898869,,,,,,,,,,,,,,,,,,,,,,,,,,,,,,,,,2015_Jul_07_1410,59.8777406285,LearningTask,1,82,
-200,a,-200,,,,,,,,,,,,,,,,,0,0,0,0,16,0,64,3,,,,,,,,,,,,,,,,,,,,,,,,,,,,,a,1,0.384682178497,None,0,0.5,invertedtriangleblue.gif,go,,,,,,,,,,,,,,,,,,,,,,,,0.32,0.514183998108,0.000946998596191,0.384682178497,1,a,535.497699022,,,,,,,,,,,,,,,,,,,,,,,,,,,,,,,,,2015_Jul_07_1410,59.8777406285,LearningTask,1,82,
-200,a,-200,,,,,,,,,,,,,,,,,0,0,0,0,16,1,65,3,,,,,,,,,,,,,,,,,,,,,,,,,,,,,a,1,0.367887020111,None,0,1.0,hexagoncyan.gif,stop,,,,,,,,,,,,,,,,,,,,,,,,0.88,0.513656139374,0.000888109207153,0.367887020111,1,a,538.50068903,,,,,,,,,,,,,,,,,,,,,,,,,,,,,,,,,2015_Jul_07_1410,59.8777406285,LearningTask,1,82,
-200,a,-200,,,,,,,,,,,,,,,,,0,0,0,0,16,2,66,3,,,,,,,,,,,,,,,,,,,,,,,,,,,,,a,1,0.334336042404,None,0,2.0,circleyellow.gif,go,,,,,,,,,,,,,,,,,,,,,,,,2.16,0.514596939087,0.000891923904419,0.334336042404,1,a,541.504366875,,,,,,,,,,,,,,,,,,,,,,,,,,,,,,,,,2015_Jul_07_1410,59.8777406285,LearningTask,1,82,
-200,a,-200,,,,,,,,,,,,,,,,,0,0,0,0,16,3,67,3,,,,,,,,,,,,,,,,,,,,,,,,,,,,,a,1,0.367852926254,None,0,0.5,invertedtriangleblue.gif,go,,,,,,,,,,,,,,,,,,,,,,,,0.51,0.513761997223,0.000921964645386,0.367852926254,1,a,544.507688046,,,,,,,,,,,,,,,,,,,,,,,,,,,,,,,,,2015_Jul_07_1410,59.8777406285,LearningTask,1,82,
200,w,200,,,,,,,,,,,,,,,,,0,0,0,0,17,0,68,0,,,,,,,,,,,,,,,,,,,,,,,,,,,,,w,1,0.400606155396,None,0,4.0,diamondgray.gif,stop,,,,,,,,,,,,,,,,,,,,,,,,4.17,0.514229059219,0.000988006591797,0.400606155396,1,w,547.510793924,,,,,,,,,,,,,,,,,,,,,,,,,,,,,,,,,2015_Jul_07_1410,59.8777406285,LearningTask,1,82,
-200,q,200,,,,,,,,,,,,,,,,,0,0,0,0,17,1,69,1,,,,,,,,,,,,,,,,,,,,,,,,,,,,,q,1,0.350680112839,None,0,1.0,hexagoncyan.gif,stop,,,,,,,,,,,,,,,,,,,,,,,,0.77,0.514366865158,0.000892877578735,0.350680112839,1,q,550.514153004,,,,,,,,,,,,,,,,,,,,,,,,,,,,,,,,,2015_Jul_07_1410,59.8777406285,LearningTask,1,82,
-200,a,-200,,,,,,,,,,,,,,,,,0,0,0,0,17,2,70,3,,,,,,,,,,,,,,,,,,,,,,,,,,,,,a,1,0.384114980698,None,0,4.0,lineorange.gif,go,,,,,,,,,,,,,,,,,,,,,,,,0,0.514620065689,0.000908851623535,0.384114980698,1,a,553.517451048,,,,,,,,,,,,,,,,,,,,,,,,,,,,,,,,,2015_Jul_07_1410,59.8777406285,LearningTask,1,82,
-200,q,200,,,,,,,,,,,,,,,,,0,0,0,0,17,3,71,1,,,,,,,,,,,,,,,,,,,,,,,,,,,,,q,1,0.384573936462,None,0,4.0,lineorange.gif,go,,,,,,,,,,,,,,,,,,,,,,,,3.98,0.514528036118,0.000891923904419,0.384573936462,1,q,556.520750999,,,,,,,,,,,,,,,,,,,,,,,,,,,,,,,,,2015_Jul_07_1410,59.8777406285,LearningTask,1,82,
200,s,-200,,,,,,,,,,,,,,,,,0,0,0,0,18,0,72,2,,,,,,,,,,,,,,,,,,,,,,,,,,,,,s,1,0.38371014595,None,0,4.0,lineorange.gif,go,,,,,,,,,,,,,,,,,,,,,,,,0,0.515048027039,0.0011830329895,0.38371014595,1,s,559.524781942,,,,,,,,,,,,,,,,,,,,,,,,,,,,,,,,,2015_Jul_07_1410,59.8777406285,LearningTask,1,82,
-200,a,-200,,,,,,,,,,,,,,,,,0,0,0,0,18,1,73,3,,,,,,,,,,,,,,,,,,,,,,,,,,,,,a,1,0.351078987122,None,0,0.5,invertedtriangleblue.gif,go,,,,,,,,,,,,,,,,,,,,,,,,0,0.514128923416,0.000892877578735,0.351078987122,1,a,562.527719975,,,,,,,,,,,,,,,,,,,,,,,,,,,,,,,,,2015_Jul_07_1410,59.8777406285,LearningTask,1,82,
-200,q,200,,,,,,,,,,,,,,,,,0,0,0,0,18,2,74,1,,,,,,,,,,,,,,,,,,,,,,,,,,,,,q,1,0.384300947189,None,0,1.0,crossgreen.gif,go,,,,,,,,,,,,,,,,,,,,,,,,1.21,0.514146089554,0.00102019309998,0.384300947189,1,q,565.531028986,,,,,,,,,,,,,,,,,,,,,,,,,,,,,,,,,2015_Jul_07_1410,59.8777406285,LearningTask,1,82,
200,s,-200,,,,,,,,,,,,,,,,,0,0,0,0,18,3,75,2,,,,,,,,,,,,,,,,,,,,,,,,,,,,,s,1,0.484539985657,None,0,2.0,squaremagenta.gif,stop,,,,,,,,,,,,,,,,,,,,,,,,1.8,0.514194965363,0.000952005386353,0.484539985657,1,s,568.534512997,,,,,,,,,,,,,,,,,,,,,,,,,,,,,,,,,2015_Jul_07_1410,59.8777406285,LearningTask,1,82,
200,s,-200,,,,,,,,,,,,,,,,,0,0,0,0,19,0,76,2,,,,,,,,,,,,,,,,,,,,,,,,,,,,,s,1,0.384151935577,None,0,2.0,circleyellow.gif,go,,,,,,,,,,,,,,,,,,,,,,,,2.17,0.51432800293,0.00090217590332,0.384151935577,1,s,571.537919998,,,,,,,,,,,,,,,,,,,,,,,,,,,,,,,,,2015_Jul_07_1410,59.8777406285,LearningTask,1,82,
-200,q,200,,,,,,,,,,,,,,,,,0,0,0,0,19,1,77,1,,,,,,,,,,,,,,,,,,,,,,,,,,,,,q,1,0.500851869583,None,0,2.0,squaremagenta.gif,stop,,,,,,,,,,,,,,,,,,,,,,,,2.21,0.514352798462,0.000939846038818,0.500851869583,1,q,574.541769028,,,,,,,,,,,,,,,,,,,,,,,,,,,,,,,,,2015_Jul_07_1410,59.8777406285,LearningTask,1,82,
-200,a,-200,,,,,,,,,,,,,,,,,0,0,0,0,19,2,78,3,,,,,,,,,,,,,,,,,,,,,,,,,,,,,a,1,0.567363023758,None,0,1.0,crossgreen.gif,go,,,,,,,,,,,,,,,,,,,,,,,,1.11,0.513839006424,0.000894069671631,0.567363023758,1,a,577.544757843,,,,,,,,,,,,,,,,,,,,,,,,,,,,,,,,,2015_Jul_07_1410,59.8777406285,LearningTask,1,82,
200,w,200,,,,,,,,,,,,,,,,,0,0,0,0,19,3,79,0,,,,,,,,,,,,,,,,,,,,,,,,,,,,,w,1,0.367046117783,None,0,0.5,trianglewhite.gif,stop,,,,,,,,,,,,,,,,,,,,,,,,0,0.514166116714,0.000903129577637,0.367046117783,1,w,580.547960043,,,,,,,,,,,,,,,,,,,,,,,,,,,,,,,,,2015_Jul_07_1410,59.8777406285,LearningTask,1,82,
200,w,200,,,,,,,,,,,,,,,,,0,0,0,0,20,0,80,0,,,,,,,,,,,,,,,,,,,,,,,,,,,,,w,1,0.468268156052,None,0,0.5,invertedtriangleblue.gif,go,,,,,,,,,,,,,,,,,,,,,,,,0,0.514214992523,0.000940084457397,0.468268156052,1,w,583.551316023,,,,,,,,,,,,,,,,,,,,,,,,,,,,,,,,,2015_Jul_07_1410,59.8777406285,LearningTask,1,82,
200,s,-200,,,,,,,,,,,,,,,,,0,0,0,0,20,1,81,2,,,,,,,,,,,,,,,,,,,,,,,,,,,,,s,1,0.401104927063,None,0,4.0,diamondgray.gif,stop,,,,,,,,,,,,,,,,,,,,,,,,3.95,0.514057159424,0.000914096832275,0.401104927063,1,s,586.55470705,,,,,,,,,,,,,,,,,,,,,,,,,,,,,,,,,2015_Jul_07_1410,59.8777406285,LearningTask,1,82,
-200,q,200,,,,,,,,,,,,,,,,,0,0,0,0,20,2,82,1,,,,,,,,,,,,,,,,,,,,,,,,,,,,,q,1,0.550879955292,None,0,2.0,squaremagenta.gif,stop,,,,,,,,,,,,,,,,,,,,,,,,1.95,0.514415979385,0.000906944274902,0.550879955292,1,q,589.557967901,,,,,,,,,,,,,,,,,,,,,,,,,,,,,,,,,2015_Jul_07_1410,59.8777406285,LearningTask,1,82,
-200,a,-200,,,,,,,,,,,,,,,,,0,0,0,0,20,3,83,3,,,,,,,,,,,,,,,,,,,,,,,,,,,,,a,1,0.384194850922,None,0,0.5,invertedtriangleblue.gif,go,,,,,,,,,,,,,,,,,,,,,,,,0.36,0.514177799225,0.00097393989563,0.384194850922,1,a,592.561676025,,,,,,,,,,,,,,,,,,,,,,,,,,,,,,,,,2015_Jul_07_1410,59.8777406285,LearningTask,1,82,
-200,a,-200,,,,,,,,,,,,,,,,,0,0,0,0,21,0,84,3,,,,,,,,,,,,,,,,,,,,,,,,,,,,,a,1,0.367367982864,None,0,4.0,diamondgray.gif,stop,,,,,,,,,,,,,,,,,,,,,,,,0,0.514297962189,0.0011830329895,0.367367982864,1,a,595.564813852,,,,,,,,,,,,,,,,,,,,,,,,,,,,,,,,,2015_Jul_07_1410,59.8777406285,LearningTask,1,82,
200,s,-200,,,,,,,,,,,,,,,,,0,0,0,0,21,1,85,2,,,,,,,,,,,,,,,,,,,,,,,,,,,,,s,1,0.367611885071,None,0,4.0,diamondgray.gif,stop,,,,,,,,,,,,,,,,,,,,,,,,3.85,0.514487981796,0.00108504295349,0.367611885071,1,s,598.568469048,,,,,,,,,,,,,,,,,,,,,,,,,,,,,,,,,2015_Jul_07_1410,59.8777406285,LearningTask,1,82,
-200,q,200,,,,,,,,,,,,,,,,,0,0,0,0,21,2,86,1,,,,,,,,,,,,,,,,,,,,,,,,,,,,,q,1,0.367172002792,None,0,2.0,squaremagenta.gif,stop,,,,,,,,,,,,,,,,,,,,,,,,2.02,0.514359951019,0.000890016555786,0.367172002792,1,q,601.572093964,,,,,,,,,,,,,,,,,,,,,,,,,,,,,,,,,2015_Jul_07_1410,59.8777406285,LearningTask,1,82,
-200,q,200,,,,,,,,,,,,,,,,,0,0,0,0,21,3,87,1,,,,,,,,,,,,,,,,,,,,,,,,,,,,,q,1,0.400652170181,None,0,4.0,lineorange.gif,go,,,,,,,,,,,,,,,,,,,,,,,,0,0.514088869095,0.00090503692627,0.400652170181,1,q,604.575036049,,,,,,,,,,,,,,,,,,,,,,,,,,,,,,,,,2015_Jul_07_1410,59.8777406285,LearningTask,1,82,
-200,q,200,,,,,,,,,,,,,,,,,0,0,0,0,22,0,88,1,,,,,,,,,,,,,,,,,,,,,,,,,,,,,q,1,0.467358112335,None,0,2.0,circleyellow.gif,go,,,,,,,,,,,,,,,,,,,,,,,,1.85,0.514337062836,0.00104188919067,0.467358112335,1,q,607.578325033,,,,,,,,,,,,,,,,,,,,,,,,,,,,,,,,,2015_Jul_07_1410,59.8777406285,LearningTask,1,82,
200,w,200,,,,,,,,,,,,,,,,,0,0,0,0,22,1,89,0,,,,,,,,,,,,,,,,,,,,,,,,,,,,,w,1,0.383742809296,None,0,4.0,diamondgray.gif,stop,,,,,,,,,,,,,,,,,,,,,,,,3.8,0.514407157898,0.000898122787476,0.383742809296,1,w,610.581711054,,,,,,,,,,,,,,,,,,,,,,,,,,,,,,,,,2015_Jul_07_1410,59.8777406285,LearningTask,1,82,
200,w,200,,,,,,,,,,,,,,,,,0,0,0,0,22,2,90,0,,,,,,,,,,,,,,,,,,,,,,,,,,,,,w,1,0.351052999496,None,0,2.0,squaremagenta.gif,stop,,,,,,,,,,,,,,,,,,,,,,,,2.05,0.514462947845,0.000895977020264,0.351052999496,1,w,613.58501792,,,,,,,,,,,,,,,,,,,,,,,,,,,,,,,,,2015_Jul_07_1410,59.8777406285,LearningTask,1,82,
-200,q,200,,,,,,,,,,,,,,,,,0,0,0,0,22,3,91,1,,,,,,,,,,,,,,,,,,,,,,,,,,,,,q,1,0.334427118301,None,0,2.0,squaremagenta.gif,stop,,,,,,,,,,,,,,,,,,,,,,,,1.93,0.513654947281,0.000936031341553,0.334427118301,1,q,616.588732958,,,,,,,,,,,,,,,,,,,,,,,,,,,,,,,,,2015_Jul_07_1410,59.8777406285,LearningTask,1,82,
-200,q,200,,,,,,,,,,,,,,,,,0,0,0,0,23,0,92,1,,,,,,,,,,,,,,,,,,,,,,,,,,,,,q,1,0.533738851547,None,0,1.0,crossgreen.gif,go,,,,,,,,,,,,,,,,,,,,,,,,1.1,0.514528036118,0.000893831253052,0.533738851547,1,q,619.592336893,,,,,,,,,,,,,,,,,,,,,,,,,,,,,,,,,2015_Jul_07_1410,59.8777406285,LearningTask,1,82,
200,w,200,,,,,,,,,,,,,,,,,0,0,0,0,23,1,93,0,,,,,,,,,,,,,,,,,,,,,,,,,,,,,w,1,0.350682973862,None,0,4.0,lineorange.gif,go,,,,,,,,,,,,,,,,,,,,,,,,4.09,0.513705015182,0.000986814498901,0.350682973862,1,w,622.595556021,,,,,,,,,,,,,,,,,,,,,,,,,,,,,,,,,2015_Jul_07_1410,59.8777406285,LearningTask,1,82,
-200,a,-200,,,,,,,,,,,,,,,,,0,0,0,0,23,2,94,3,,,,,,,,,,,,,,,,,,,,,,,,,,,,,a,1,0.450796127319,None,0,4.0,lineorange.gif,go,,,,,,,,,,,,,,,,,,,,,,,,3.92,0.514089822769,0.000897884368896,0.450796127319,1,a,625.598886013,,,,,,,,,,,,,,,,,,,,,,,,,,,,,,,,,2015_Jul_07_1410,59.8777406285,LearningTask,1,82,
-200,a,-200,,,,,,,,,,,,,,,,,0,0,0,0,23,3,95,3,,,,,,,,,,,,,,,,,,,,,,,,,,,,,a,1,0.417618989944,None,0,0.5,invertedtriangleblue.gif,go,,,,,,,,,,,,,,,,,,,,,,,,0.68,0.514157056808,0.000890970230103,0.417618989944,1,a,628.602000952,,,,,,,,,,,,,,,,,,,,,,,,,,,,,,,,,2015_Jul_07_1410,59.8777406285,LearningTask,1,82,
200,s,-200,,,,,,,,,,,,,,,,,0,0,0,0,24,0,96,2,,,,,,,,,,,,,,,,,,,,,,,,,,,,,s,1,0.35108590126,None,0,0.5,invertedtriangleblue.gif,go,,,,,,,,,,,,,,,,,,,,,,,,0.56,0.514177083969,0.000931024551392,0.35108590126,1,s,631.605939865,,,,,,,,,,,,,,,,,,,,,,,,,,,,,,,,,2015_Jul_07_1410,59.8777406285,LearningTask,1,82,
-200,a,-200,,,,,,,,,,,,,,,,,0,0,0,0,24,1,97,3,,,,,,,,,,,,,,,,,,,,,,,,,,,,,a,1,0.384213924408,None,0,2.0,squaremagenta.gif,stop,,,,,,,,,,,,,,,,,,,,,,,,1.85,0.513688087463,0.000919103622437,0.384213924408,1,a,634.608945847,,,,,,,,,,,,,,,,,,,,,,,,,,,,,,,,,2015_Jul_07_1410,59.8777406285,LearningTask,1,82,
-200,q,200,,,,,,,,,,,,,,,,,0,0,0,0,24,2,98,1,,,,,,,,,,,,,,,,,,,,,,,,,,,,,q,1,0.350672006607,None,0,1.0,hexagoncyan.gif,stop,,,,,,,,,,,,,,,,,,,,,,,,1.03,0.514205932617,0.00125789642334,0.350672006607,1,q,637.61202693,,,,,,,,,,,,,,,,,,,,,,,,,,,,,,,,,2015_Jul_07_1410,59.8777406285,LearningTask,1,82,
200,w,200,,,,,,,,,,,,,,,,,0,0,0,0,24,3,99,0,,,,,,,,,,,,,,,,,,,,,,,,,,,,,w,1,0.350896120071,None,0,0.5,trianglewhite.gif,stop,,,,,,,,,,,,,,,,,,,,,,,,0.32,0.514379024506,0.000978946685791,0.350896120071,1,w,640.615633011,,,,,,,,,,,,,,,,,,,,,,,,,,,,,,,,,2015_Jul_07_1410,59.8777406285,LearningTask,1,82,
,,,,,,,,,,,,,,,,,,,0,0,0,0,,,,,,,,,,,,,,,,,,,,,,,,,,,,,,,,,,,,,,,,,,,,,,,,,,,,,,,,,,,,,,,,,,,,,,,9,48.4155209064,,,,,,,,,,,,,,,,,,,,,,,,,,,,,,,2015_Jul_07_1410,59.8777406285,LearningTask,1,82,
200,w,200,,,,,,,,,,,,,,,,,1,0,1,0,0,0,0,0,,,,,,,,,,,,,,,,,,,,,,,,,,,,,w,1,0.41682600975,None,0,2.0,circleyellow.gif,go,,,,,,,,,,,,,,,,,,,,,,,,2.04,0.509990930557,0.000892877578735,0.41682600975,1,w,692.407763004,,,,,,,,,,,,,,,,,,,,,,,,,,,,,,,,,2015_Jul_07_1410,59.8777406285,LearningTask,1,82,
200,s,-200,,,,,,,,,,,,,,,,,1,0,1,0,0,1,1,2,,,,,,,,,,,,,,,,,,,,,,,,,,,,,s,1,0.367790222168,None,0,2.0,circleyellow.gif,go,,,,,,,,,,,,,,,,,,,,,,,,0,0.513428926468,0.000891923904419,0.367790222168,1,s,695.410960913,,,,,,,,,,,,,,,,,,,,,,,,,,,,,,,,,2015_Jul_07_1410,59.8777406285,LearningTask,1,82,
200,s,-200,,,,,,,,,,,,,,,,,1,0,1,0,0,2,2,2,,,,,,,,,,,,,,,,,,,,,,,,,,,,,s,1,0.417919158936,None,0,2.0,squaremagenta.gif,stop,,,,,,,,,,,,,,,,,,,,,,,,1.88,0.513985872269,0.00089693069458,0.417919158936,1,s,698.41387105,,,,,,,,,,,,,,,,,,,,,,,,,,,,,,,,,2015_Jul_07_1410,59.8777406285,LearningTask,1,82,
-200,a,-200,,,,,,,,,,,,,,,,,1,0,1,0,0,3,3,3,,,,,,,,,,,,,,,,,,,,,,,,,,,,,a,1,0.417728900909,None,0,2.0,squaremagenta.gif,stop,,,,,,,,,,,,,,,,,,,,,,,,0,0.514358997345,0.000892877578735,0.417363882065,0,q,701.41720295,,,1.88,0.515496015549,0.00102400779724,0.417728900909,1,a,704.420706987,,,,,,,,,,,,,,,,,,,,,,,,2015_Jul_07_1410,59.8777406285,LearningTask,1,82,
200,w,200,,,,,,,,,,,,,,,,,1,0,1,0,1,0,4,0,,,,,,,,,,,,,,,,,,,,,,,,,,,,,w,1,0.401041030884,None,0,1.0,crossgreen.gif,go,,,,,,,,,,,,,,,,,,,,,,,,0.77,0.514101982117,0.000887155532837,0.401041030884,1,w,707.424054861,,,,,,,,,,,,,,,,,,,,,,,,,,,,,,,,,2015_Jul_07_1410,59.8777406285,LearningTask,1,82,
-200,a,-200,,,,,,,,,,,,,,,,,1,0,1,0,1,1,5,3,,,,,,,,,,,,,,,,,,,,,,,,,,,,,a,1,0.451756000519,None,0,1.0,crossgreen.gif,go,,,,,,,,,,,,,,,,,,,,,,,,0,0.513833999634,0.000957012176514,0.451756000519,1,a,710.427273035,,,,,,,,,,,,,,,,,,,,,,,,,,,,,,,,,2015_Jul_07_1410,59.8777406285,LearningTask,1,82,
200,s,-200,,,,,,,,,,,,,,,,,1,0,1,0,1,2,6,2,,,,,,,,,,,,,,,,,,,,,,,,,,,,,s,1,0.401121139526,None,0,4.0,diamondgray.gif,stop,,,,,,,,,,,,,,,,,,,,,,,,0,0.514313936234,0.000895977020264,0.401121139526,1,s,713.430680037,,,,,,,,,,,,,,,,,,,,,,,,,,,,,,,,,2015_Jul_07_1410,59.8777406285,LearningTask,1,82,
200,w,200,,,,,,,,,,,,,,,,,1,0,1,0,1,3,7,0,,,,,,,,,,,,,,,,,,,,,,,,,,,,,w,1,0.351130008698,None,0,4.0,diamondgray.gif,stop,,,,,,,,,,,,,,,,,,,,,,,,0,0.514302968979,0.000905990600586,0.351130008698,1,w,716.434005022,,,,,,,,,,,,,,,,,,,,,,,,,,,,,,,,,2015_Jul_07_1410,59.8777406285,LearningTask,1,82,
200,s,-200,,,,,,,,,,,,,,,,,1,0,1,0,2,0,8,2,,,,,,,,,,,,,,,,,,,,,,,,,,,,,s,1,0.434713125229,None,0,1.0,hexagoncyan.gif,stop,,,,,,,,,,,,,,,,,,,,,,,,0.92,0.514081954956,0.000942945480347,0.434713125229,1,s,719.437658072,,,,,,,,,,,,,,,,,,,,,,,,,,,,,,,,,2015_Jul_07_1410,59.8777406285,LearningTask,1,82,
-200,q,200,,,,,,,,,,,,,,,,,1,0,1,0,2,1,9,1,,,,,,,,,,,,,,,,,,,,,,,,,,,,,q,1,0.401413202286,None,0,2.0,circleyellow.gif,go,,,,,,,,,,,,,,,,,,,,,,,,1.91,0.514115095139,0.000954151153564,0.401413202286,1,q,722.440839052,,,,,,,,,,,,,,,,,,,,,,,,,,,,,,,,,2015_Jul_07_1410,59.8777406285,LearningTask,1,82,
-200,a,-200,,,,,,,,,,,,,,,,,1,0,1,0,2,2,10,3,,,,,,,,,,,,,,,,,,,,,,,,,,,,,a,1,0.418218851089,None,0,0.5,trianglewhite.gif,stop,,,,,,,,,,,,,,,,,,,,,,,,0.67,0.514364957809,0.000953912734985,0.418218851089,1,a,725.444270849,,,,,,,,,,,,,,,,,,,,,,,,,,,,,,,,,2015_Jul_07_1410,59.8777406285,LearningTask,1,82,
-200,q,200,,,,,,,,,,,,,,,,,1,0,1,0,2,3,11,1,,,,,,,,,,,,,,,,,,,,,,,,,,,,,q,1,0.534729003906,None,0,1.0,crossgreen.gif,go,,,,,,,,,,,,,,,,,,,,,,,,1.0,0.514050006866,0.000898838043213,0.534729003906,1,q,728.44768095,,,,,,,,,,,,,,,,,,,,,,,,,,,,,,,,,2015_Jul_07_1410,59.8777406285,LearningTask,1,82,
200,s,-200,,,,,,,,,,,,,,,,,1,0,1,0,3,0,12,2,,,,,,,,,,,,,,,,,,,,,,,,,,,,,s,1,0.384397029877,None,0,2.0,squaremagenta.gif,stop,,,,,,,,,,,,,,,,,,,,,,,,0,0.514152050018,0.000933885574341,0.384397029877,1,s,731.450837851,,,,,,,,,,,,,,,,,,,,,,,,,,,,,,,,,2015_Jul_07_1410,59.8777406285,LearningTask,1,82,
-200,a,-200,,,,,,,,,,,,,,,,,1,0,1,0,3,1,13,3,,,,,,,,,,,,,,,,,,,,,,,,,,,,,a,1,0.351011991501,None,0,2.0,circleyellow.gif,go,,,,,,,,,,,,,,,,,,,,,,,,1.91,0.514748096466,0.000885963439941,0.351011991501,1,a,734.454761982,,,,,,,,,,,,,,,,,,,,,,,,,,,,,,,,,2015_Jul_07_1410,59.8777406285,LearningTask,1,82,
-200,a,-200,,,,,,,,,,,,,,,,,1,0,1,0,3,2,14,3,,,,,,,,,,,,,,,,,,,,,,,,,,,,,a,1,0.350558996201,None,0,0.5,trianglewhite.gif,stop,,,,,,,,,,,,,,,,,,,,,,,,0.42,0.514070987701,0.000888824462891,0.350558996201,1,a,737.45777607,,,,,,,,,,,,,,,,,,,,,,,,,,,,,,,,,2015_Jul_07_1410,59.8777406285,LearningTask,1,82,
200,w,200,,,,,,,,,,,,,,,,,1,0,1,0,3,3,15,0,,,,,,,,,,,,,,,,,,,,,,,,,,,,,w,1,0.434090852737,None,0,1.0,hexagoncyan.gif,stop,,,,,,,,,,,,,,,,,,,,,,,,0.95,0.514602899551,0.000906944274902,0.434090852737,1,w,740.46114707,,,,,,,,,,,,,,,,,,,,,,,,,,,,,,,,,2015_Jul_07_1410,59.8777406285,LearningTask,1,82,
200,s,-200,,,,,,,,,,,,,,,,,1,0,1,0,4,0,16,2,,,,,,,,,,,,,,,,,,,,,,,,,,,,,s,1,0.333822965622,None,0,1.0,crossgreen.gif,go,,,,,,,,,,,,,,,,,,,,,,,,0.96,0.514466047287,0.000895977020264,0.333822965622,1,s,743.464452028,,,,,,,,,,,,,,,,,,,,,,,,,,,,,,,,,2015_Jul_07_1410,59.8777406285,LearningTask,1,82,
200,w,200,,,,,,,,,,,,,,,,,1,0,1,0,4,1,17,0,,,,,,,,,,,,,,,,,,,,,,,,,,,,,w,1,0.434845924377,None,0,1.0,crossgreen.gif,go,,,,,,,,,,,,,,,,,,,,,,,,0,0.514102935791,0.00100588798523,0.434845924377,1,w,746.467941999,,,,,,,,,,,,,,,,,,,,,,,,,,,,,,,,,2015_Jul_07_1410,59.8777406285,LearningTask,1,82,
200,w,200,,,,,,,,,,,,,,,,,1,0,1,0,4,2,18,0,,,,,,,,,,,,,,,,,,,,,,,,,,,,,w,1,0.417248010635,None,0,1.0,hexagoncyan.gif,stop,,,,,,,,,,,,,,,,,,,,,,,,0,0.514282941818,0.00107383728027,0.417248010635,1,w,749.47111702,,,,,,,,,,,,,,,,,,,,,,,,,,,,,,,,,2015_Jul_07_1410,59.8777406285,LearningTask,1,82,
-200,a,-200,,,,,,,,,,,,,,,,,1,0,1,0,4,3,19,3,,,,,,,,,,,,,,,,,,,,,,,,,,,,,a,1,0.417048215866,None,0,1.0,crossgreen.gif,go,,,,,,,,,,,,,,,,,,,,,,,,1.11,0.514938831329,0.000870943069458,0.417048215866,1,a,752.47456193,,,,,,,,,,,,,,,,,,,,,,,,,,,,,,,,,2015_Jul_07_1410,59.8777406285,LearningTask,1,82,
200,s,-200,,,,,,,,,,,,,,,,,1,0,1,0,5,0,20,2,,,,,,,,,,,,,,,,,,,,,,,,,,,,,s,1,0.333775043488,None,0,1.0,hexagoncyan.gif,stop,,,,,,,,,,,,,,,,,,,,,,,,1.06,0.514631986618,0.000877141952515,0.333775043488,1,s,755.478222847,,,,,,,,,,,,,,,,,,,,,,,,,,,,,,,,,2015_Jul_07_1410,59.8777406285,LearningTask,1,82,
-200,q,200,,,,,,,,,,,,,,,,,1,0,1,0,5,1,21,1,,,,,,,,,,,,,,,,,,,,,,,,,,,,,q,1,0.367969989777,None,0,2.0,circleyellow.gif,go,,,,,,,,,,,,,,,,,,,,,,,,1.77,0.51393198967,0.0369930267334,0.367969989777,1,q,758.481334925,,,,,,,,,,,,,,,,,,,,,,,,,,,,,,,,,2015_Jul_07_1410,59.8777406285,LearningTask,1,82,
200,w,200,,,,,,,,,,,,,,,,,1,0,1,0,5,2,22,0,,,,,,,,,,,,,,,,,,,,,,,,,,,,,w,1,0.35097193718,None,0,0.5,invertedtriangleblue.gif,go,,,,,,,,,,,,,,,,,,,,,,,,0,0.514634132385,0.000882148742676,0.35097193718,1,w,761.484811068,,,,,,,,,,,,,,,,,,,,,,,,,,,,,,,,,2015_Jul_07_1410,59.8777406285,LearningTask,1,82,
200,s,-200,,,,,,,,,,,,,,,,,1,0,1,0,5,3,23,2,,,,,,,,,,,,,,,,,,,,,,,,,,,,,s,1,0.40159201622,None,0,1.0,crossgreen.gif,go,,,,,,,,,,,,,,,,,,,,,,,,0,0.514191865921,0.000883817672729,0.40159201622,1,s,764.487931013,,,,,,,,,,,,,,,,,,,,,,,,,,,,,,,,,2015_Jul_07_1410,59.8777406285,LearningTask,1,82,
200,s,-200,,,,,,,,,,,,,,,,,1,0,1,0,6,0,24,2,,,,,,,,,,,,,,,,,,,,,,,,,,,,,s,1,0.401310920715,None,0,1.0,hexagoncyan.gif,stop,,,,,,,,,,,,,,,,,,,,,,,,0.93,0.514173984528,0.000920057296753,0.401310920715,1,s,767.491546869,,,,,,,,,,,,,,,,,,,,,,,,,,,,,,,,,2015_Jul_07_1410,59.8777406285,LearningTask,1,82,
200,w,200,,,,,,,,,,,,,,,,,1,0,1,0,6,1,25,0,,,,,,,,,,,,,,,,,,,,,,,,,,,,,w,1,0.35089302063,None,0,0.5,trianglewhite.gif,stop,,,,,,,,,,,,,,,,,,,,,,,,0.51,0.514341115952,0.000924110412598,0.35089302063,1,w,770.494945049,,,,,,,,,,,,,,,,,,,,,,,,,,,,,,,,,2015_Jul_07_1410,59.8777406285,LearningTask,1,82,
-200,q,200,,,,,,,,,,,,,,,,,1,0,1,0,6,2,26,1,,,,,,,,,,,,,,,,,,,,,,,,,,,,,q,1,0.401075124741,None,0,4.0,diamondgray.gif,stop,,,,,,,,,,,,,,,,,,,,,,,,3.79,0.514083147049,0.000874996185303,0.401075124741,1,q,773.498340845,,,,,,,,,,,,,,,,,,,,,,,,,,,,,,,,,2015_Jul_07_1410,59.8777406285,LearningTask,1,82,
-200,a,-200,,,,,,,,,,,,,,,,,1,0,1,0,6,3,27,3,,,,,,,,,,,,,,,,,,,,,,,,,,,,,a,1,0.383941888809,None,0,4.0,lineorange.gif,go,,,,,,,,,,,,,,,,,,,,,,,,4.09,0.513954162598,0.000895023345947,0.383941888809,1,a,776.501821995,,,,,,,,,,,,,,,,,,,,,,,,,,,,,,,,,2015_Jul_07_1410,59.8777406285,LearningTask,1,82,
200,w,200,,,,,,,,,,,,,,,,,1,0,1,0,7,0,28,0,,,,,,,,,,,,,,,,,,,,,,,,,,,,,w,1,0.317762136459,None,0,2.0,circleyellow.gif,go,,,,,,,,,,,,,,,,,,,,,,,,0,0.513986825943,0.000874996185303,0.317762136459,1,w,779.505167961,,,,,,,,,,,,,,,,,,,,,,,,,,,,,,,,,2015_Jul_07_1410,59.8777406285,LearningTask,1,82,
200,w,200,,,,,,,,,,,,,,,,,1,0,1,0,7,1,29,0,,,,,,,,,,,,,,,,,,,,,,,,,,,,,w,1,0.367700099945,None,0,2.0,circleyellow.gif,go,,,,,,,,,,,,,,,,,,,,,,,,0,0.514050960541,0.000899076461792,0.367700099945,1,w,782.509034872,,,,,,,,,,,,,,,,,,,,,,,,,,,,,,,,,2015_Jul_07_1410,59.8777406285,LearningTask,1,82,
200,s,-200,,,,,,,,,,,,,,,,,1,0,1,0,7,2,30,2,,,,,,,,,,,,,,,,,,,,,,,,,,,,,s,1,0.401052951813,None,0,4.0,diamondgray.gif,stop,,,,,,,,,,,,,,,,,,,,,,,,4.06,0.513366937637,0.000946998596191,0.401052951813,1,s,785.512264967,,,,,,,,,,,,,,,,,,,,,,,,,,,,,,,,,2015_Jul_07_1410,59.8777406285,LearningTask,1,82,
-200,q,200,,,,,,,,,,,,,,,,,1,0,1,0,7,3,31,1,,,,,,,,,,,,,,,,,,,,,,,,,,,,,q,1,0.400698184967,None,0,1.0,crossgreen.gif,go,,,,,,,,,,,,,,,,,,,,,,,,0.9,0.514130830765,0.0188598632812,0.400698184967,1,q,788.515100956,,,,,,,,,,,,,,,,,,,,,,,,,,,,,,,,,2015_Jul_07_1410,59.8777406285,LearningTask,1,82,
-200,a,-200,,,,,,,,,,,,,,,,,1,0,1,0,8,0,32,3,,,,,,,,,,,,,,,,,,,,,,,,,,,,,a,1,0.367901086807,None,0,2.0,circleyellow.gif,go,,,,,,,,,,,,,,,,,,,,,,,,2.04,0.514174938202,0.00106191635132,0.367901086807,1,a,791.518461943,,,,,,,,,,,,,,,,,,,,,,,,,,,,,,,,,2015_Jul_07_1410,59.8777406285,LearningTask,1,82,
200,w,200,,,,,,,,,,,,,,,,,1,0,1,0,8,1,33,0,,,,,,,,,,,,,,,,,,,,,,,,,,,,,w,1,0.334220170975,None,0,0.5,invertedtriangleblue.gif,go,,,,,,,,,,,,,,,,,,,,,,,,0.58,0.51432800293,0.0199830532074,0.334220170975,1,w,794.522428036,,,,,,,,,,,,,,,,,,,,,,,,,,,,,,,,,2015_Jul_07_1410,59.8777406285,LearningTask,1,82,
-200,q,200,,,,,,,,,,,,,,,,,1,0,1,0,8,2,34,1,,,,,,,,,,,,,,,,,,,,,,,,,,,,,q,1,0.317344903946,None,0,1.0,hexagoncyan.gif,stop,,,,,,,,,,,,,,,,,,,,,,,,0,0.513846158981,0.0602660179138,0.317344903946,1,q,797.52560091,,,,,,,,,,,,,,,,,,,,,,,,,,,,,,,,,2015_Jul_07_1410,59.8777406285,LearningTask,1,82,
200,s,-200,,,,,,,,,,,,,,,,,1,0,1,0,8,3,35,2,,,,,,,,,,,,,,,,,,,,,,,,,,,,,s,1,0.367640018463,None,0,4.0,diamondgray.gif,stop,,,,,,,,,,,,,,,,,,,,,,,,0,0.513864040375,0.00104093551636,0.367640018463,1,s,800.528692007,,,,,,,,,,,,,,,,,,,,,,,,,,,,,,,,,2015_Jul_07_1410,59.8777406285,LearningTask,1,82,
200,s,-200,,,,,,,,,,,,,,,,,1,0,1,0,9,0,36,2,,,,,,,,,,,,,,,,,,,,,,,,,,,,,s,1,0.417861938477,None,0,4.0,lineorange.gif,go,,,,,,,,,,,,,,,,,,,,,,,,3.88,0.514346122742,0.000826120376587,0.417861938477,1,s,803.532188892,,,,,,,,,,,,,,,,,,,,,,,,,,,,,,,,,2015_Jul_07_1410,59.8777406285,LearningTask,1,82,
200,w,200,,,,,,,,,,,,,,,,,1,0,1,0,9,1,37,0,,,,,,,,,,,,,,,,,,,,,,,,,,,,,w,1,0.401482105255,None,0,1.0,crossgreen.gif,go,,,,,,,,,,,,,,,,,,,,,,,,0.83,0.51332783699,0.00114798545837,0.401482105255,1,w,806.535606861,,,,,,,,,,,,,,,,,,,,,,,,,,,,,,,,,2015_Jul_07_1410,59.8777406285,LearningTask,1,82,
200,s,-200,,,,,,,,,,,,,,,,,1,0,1,0,9,2,38,2,,,,,,,,,,,,,,,,,,,,,,,,,,,,,s,1,0.401161909103,None,0,4.0,lineorange.gif,go,,,,,,,,,,,,,,,,,,,,,,,,0,0.514193058014,0.00158309936523,0.401161909103,1,s,809.538954973,,,,,,,,,,,,,,,,,,,,,,,,,,,,,,,,,2015_Jul_07_1410,59.8777406285,LearningTask,1,82,
-200,q,200,,,,,,,,,,,,,,,,,1,0,1,0,9,3,39,1,,,,,,,,,,,,,,,,,,,,,,,,,,,,,q,1,0.418050050735,None,0,0.5,invertedtriangleblue.gif,go,,,,,,,,,,,,,,,,,,,,,,,,0.73,0.51420712471,0.00127696990967,0.418050050735,1,q,812.542810917,,,,,,,,,,,,,,,,,,,,,,,,,,,,,,,,,2015_Jul_07_1410,59.8777406285,LearningTask,1,82,
-200,a,-200,,,,,,,,,,,,,,,,,1,0,1,0,10,0,40,3,,,,,,,,,,,,,,,,,,,,,,,,,,,,,a,1,0.417732954025,None,0,4.0,lineorange.gif,go,,,,,,,,,,,,,,,,,,,,,,,,0,0.513609170914,0.000893115997314,0.417732954025,1,a,815.545553923,,,,,,,,,,,,,,,,,,,,,,,,,,,,,,,,,2015_Jul_07_1410,59.8777406285,LearningTask,1,82,
-200,a,-200,,,,,,,,,,,,,,,,,1,0,1,0,10,1,41,3,,,,,,,,,,,,,,,,,,,,,,,,,,,,,a,1,0.434187889099,None,0,1.0,crossgreen.gif,go,,,,,,,,,,,,,,,,,,,,,,,,0,0.514219045639,0.000938892364502,0.434187889099,1,a,818.548941851,,,,,,,,,,,,,,,,,,,,,,,,,,,,,,,,,2015_Jul_07_1410,59.8777406285,LearningTask,1,82,
200,s,-200,,,,,,,,,,,,,,,,,1,0,1,0,10,2,42,2,,,,,,,,,,,,,,,,,,,,,,,,,,,,,s,1,0.384440898895,None,0,0.5,trianglewhite.gif,stop,,,,,,,,,,,,,,,,,,,,,,,,0.55,0.51442193985,0.0174291133881,0.384440898895,1,s,821.553061962,,,,,,,,,,,,,,,,,,,,,,,,,,,,,,,,,2015_Jul_07_1410,59.8777406285,LearningTask,1,82,
200,s,-200,,,,,,,,,,,,,,,,,1,0,1,0,10,3,43,2,,,,,,,,,,,,,,,,,,,,,,,,,,,,,s,1,0.351050138474,None,0,1.0,crossgreen.gif,go,,,,,,,,,,,,,,,,,,,,,,,,1.01,0.513463973999,0.000888109207153,0.351050138474,1,s,824.556028843,,,,,,,,,,,,,,,,,,,,,,,,,,,,,,,,,2015_Jul_07_1410,59.8777406285,LearningTask,1,82,
-200,a,-200,,,,,,,,,,,,,,,,,1,0,1,0,11,0,44,3,,,,,,,,,,,,,,,,,,,,,,,,,,,,,a,1,0.384251117706,None,0,0.5,trianglewhite.gif,stop,,,,,,,,,,,,,,,,,,,,,,,,0.64,0.514245033264,0.000917911529541,0.384251117706,1,a,827.558899879,,,,,,,,,,,,,,,,,,,,,,,,,,,,,,,,,2015_Jul_07_1410,59.8777406285,LearningTask,1,82,
200,s,-200,,,,,,,,,,,,,,,,,1,0,1,0,11,1,45,2,,,,,,,,,,,,,,,,,,,,,,,,,,,,,s,1,0.350946903229,None,0,1.0,hexagoncyan.gif,stop,,,,,,,,,,,,,,,,,,,,,,,,0.91,0.513787031174,0.00164103507996,0.350946903229,1,s,830.562676907,,,,,,,,,,,,,,,,,,,,,,,,,,,,,,,,,2015_Jul_07_1410,59.8777406285,LearningTask,1,82,
-200,q,200,,,,,,,,,,,,,,,,,1,0,1,0,11,2,46,1,,,,,,,,,,,,,,,,,,,,,,,,,,,,,q,1,0.385200977325,None,0,0.5,trianglewhite.gif,stop,,,,,,,,,,,,,,,,,,,,,,,,0,0.514069795609,0.000870943069458,0.385200977325,1,q,833.565945864,,,,,,,,,,,,,,,,,,,,,,,,,,,,,,,,,2015_Jul_07_1410,59.8777406285,LearningTask,1,82,
200,s,-200,,,,,,,,,,,,,,,,,1,0,1,0,11,3,47,2,,,,,,,,,,,,,,,,,,,,,,,,,,,,,s,1,0.367360115051,None,0,2.0,squaremagenta.gif,stop,,,,,,,,,,,,,,,,,,,,,,,,1.92,0.514338970184,0.0689408779144,0.367360115051,1,s,836.56894803,,,,,,,,,,,,,,,,,,,,,,,,,,,,,,,,,2015_Jul_07_1410,59.8777406285,LearningTask,1,82,
200,w,200,,,,,,,,,,,,,,,,,1,0,1,0,12,0,48,0,,,,,,,,,,,,,,,,,,,,,,,,,,,,,w,1,0.350969076157,None,0,2.0,squaremagenta.gif,stop,,,,,,,,,,,,,,,,,,,,,,,,0,0.514559030533,0.000869035720825,0.350969076157,1,w,839.572839022,,,,,,,,,,,,,,,,,,,,,,,,,,,,,,,,,2015_Jul_07_1410,59.8777406285,LearningTask,1,82,
-200,q,200,,,,,,,,,,,,,,,,,1,0,1,0,12,1,49,1,,,,,,,,,,,,,,,,,,,,,,,,,,,,,q,1,0.483959913254,None,0,2.0,circleyellow.gif,go,,,,,,,,,,,,,,,,,,,,,,,,2.11,0.514439105988,0.00130295753479,0.483959913254,1,q,842.576114893,,,,,,,,,,,,,,,,,,,,,,,,,,,,,,,,,2015_Jul_07_1410,59.8777406285,LearningTask,1,82,
-200,q,200,,,,,,,,,,,,,,,,,1,0,1,0,12,2,50,1,,,,,,,,,,,,,,,,,,,,,,,,,,,,,q,1,0.351029872894,None,0,2.0,squaremagenta.gif,stop,,,,,,,,,,,,,,,,,,,,,,,,0,0.514208078384,0.000917911529541,0.351029872894,1,q,845.579254866,,,,,,,,,,,,,,,,,,,,,,,,,,,,,,,,,2015_Jul_07_1410,59.8777406285,LearningTask,1,82,
-200,a,-200,,,,,,,,,,,,,,,,,1,0,1,0,12,3,51,3,,,,,,,,,,,,,,,,,,,,,,,,,,,,,a,1,0.417679071426,None,0,2.0,squaremagenta.gif,stop,,,,,,,,,,,,,,,,,,,,,,,,2.24,0.51442694664,0.00092887878418,0.417679071426,1,a,848.582639933,,,,,,,,,,,,,,,,,,,,,,,,,,,,,,,,,2015_Jul_07_1410,59.8777406285,LearningTask,1,82,
200,w,200,,,,,,,,,,,,,,,,,1,0,1,0,13,0,52,0,,,,,,,,,,,,,,,,,,,,,,,,,,,,,w,1,0.367406129837,None,0,4.0,diamondgray.gif,stop,,,,,,,,,,,,,,,,,,,,,,,,3.84,0.51419210434,0.00126695632935,0.367406129837,1,w,851.586112022,,,,,,,,,,,,,,,,,,,,,,,,,,,,,,,,,2015_Jul_07_1410,59.8777406285,LearningTask,1,82,
200,s,-200,,,,,,,,,,,,,,,,,1,0,1,0,13,1,53,2,,,,,,,,,,,,,,,,,,,,,,,,,,,,,s,1,0.384032964706,None,0,2.0,squaremagenta.gif,stop,,,,,,,,,,,,,,,,,,,,,,,,2.12,0.514373064041,0.000913143157959,0.384032964706,1,s,854.589530945,,,,,,,,,,,,,,,,,,,,,,,,,,,,,,,,,2015_Jul_07_1410,59.8777406285,LearningTask,1,82,
-200,q,200,,,,,,,,,,,,,,,,,1,0,1,0,13,2,54,1,,,,,,,,,,,,,,,,,,,,,,,,,,,,,q,1,0.400429010391,None,0,1.0,crossgreen.gif,go,,,,,,,,,,,,,,,,,,,,,,,,0.89,0.514668941498,0.000910997390747,0.400429010391,1,q,857.592848063,,,,,,,,,,,,,,,,,,,,,,,,,,,,,,,,,2015_Jul_07_1410,59.8777406285,LearningTask,1,82,
-200,q,200,,,,,,,,,,,,,,,,,1,0,1,0,13,3,55,1,,,,,,,,,,,,,,,,,,,,,,,,,,,,,q,1,0.400990009308,None,0,4.0,lineorange.gif,go,,,,,,,,,,,,,,,,,,,,,,,,3.83,0.514410972595,0.00141191482544,0.400990009308,1,q,860.596538067,,,,,,,,,,,,,,,,,,,,,,,,,,,,,,,,,2015_Jul_07_1410,59.8777406285,LearningTask,1,82,
200,w,200,,,,,,,,,,,,,,,,,1,0,1,0,14,0,56,0,,,,,,,,,,,,,,,,,,,,,,,,,,,,,w,1,0.351032972336,None,0,0.5,invertedtriangleblue.gif,go,,,,,,,,,,,,,,,,,,,,,,,,0.36,0.513865947723,0.00088095664978,0.351032972336,1,w,863.599453926,,,,,,,,,,,,,,,,,,,,,,,,,,,,,,,,,2015_Jul_07_1410,59.8777406285,LearningTask,1,82,
-200,a,-200,,,,,,,,,,,,,,,,,1,0,1,0,14,1,57,3,,,,,,,,,,,,,,,,,,,,,,,,,,,,,a,1,0.501627922058,None,0,2.0,squaremagenta.gif,stop,,,,,,,,,,,,,,,,,,,,,,,,0,0.514179944992,0.000911951065063,0.350919008255,0,q,866.603260994,,,0,0.515347957611,0.000935077667236,0.501627922058,1,a,869.606850863,,,,,,,,,,,,,,,,,,,,,,,,2015_Jul_07_1410,59.8777406285,LearningTask,1,82,
200,w,200,,,,,,,,,,,,,,,,,1,0,1,0,14,2,58,0,,,,,,,,,,,,,,,,,,,,,,,,,,,,,w,1,0.333773851395,None,0,0.5,invertedtriangleblue.gif,go,,,,,,,,,,,,,,,,,,,,,,,,0,0.5142390728,0.000874042510986,0.333773851395,1,w,872.609828949,,,,,,,,,,,,,,,,,,,,,,,,,,,,,,,,,2015_Jul_07_1410,59.8777406285,LearningTask,1,82,
-200,q,200,,,,,,,,,,,,,,,,,1,0,1,0,14,3,59,1,,,,,,,,,,,,,,,,,,,,,,,,,,,,,q,1,0.48429107666,None,0,4.0,diamondgray.gif,stop,,,,,,,,,,,,,,,,,,,,,,,,3.81,0.51435303688,0.000909090042114,0.48429107666,1,q,875.613126993,,,,,,,,,,,,,,,,,,,,,,,,,,,,,,,,,2015_Jul_07_1410,59.8777406285,LearningTask,1,82,
-200,q,200,,,,,,,,,,,,,,,,,1,0,1,0,15,0,60,1,,,,,,,,,,,,,,,,,,,,,,,,,,,,,q,1,0.584463119507,None,0,1.0,crossgreen.gif,go,,,,,,,,,,,,,,,,,,,,,,,,0.96,0.51457285881,0.000875949859619,0.584463119507,1,q,878.616705894,,,,,,,,,,,,,,,,,,,,,,,,,,,,,,,,,2015_Jul_07_1410,59.8777406285,LearningTask,1,82,
-200,q,200,,,,,,,,,,,,,,,,,1,0,1,0,15,1,61,1,,,,,,,,,,,,,,,,,,,,,,,,,,,,,q,1,0.602010011673,None,0,0.5,trianglewhite.gif,stop,,,,,,,,,,,,,,,,,,,,,,,,0,0.514050006866,0.000878095626831,0.602010011673,1,q,881.620130062,,,,,,,,,,,,,,,,,,,,,,,,,,,,,,,,,2015_Jul_07_1410,59.8777406285,LearningTask,1,82,
200,s,-200,,,,,,,,,,,,,,,,,1,0,1,0,15,2,62,2,,,,,,,,,,,,,,,,,,,,,,,,,,,,,s,1,0.418209075928,None,0,0.5,trianglewhite.gif,stop,,,,,,,,,,,,,,,,,,,,,,,,0.61,0.514060020447,0.00109791755676,0.418209075928,1,s,884.623612881,,,,,,,,,,,,,,,,,,,,,,,,,,,,,,,,,2015_Jul_07_1410,59.8777406285,LearningTask,1,82,
-200,a,-200,,,,,,,,,,,,,,,,,1,0,1,0,15,3,63,3,,,,,,,,,,,,,,,,,,,,,,,,,,,,,a,1,0.367382049561,None,0,2.0,squaremagenta.gif,stop,,,,,,,,,,,,,,,,,,,,,,,,2.14,0.514193058014,0.000863075256348,0.367382049561,1,a,887.626493931,,,,,,,,,,,,,,,,,,,,,,,,,,,,,,,,,2015_Jul_07_1410,59.8777406285,LearningTask,1,82,
-200,a,-200,,,,,,,,,,,,,,,,,1,0,1,0,16,0,64,3,,,,,,,,,,,,,,,,,,,,,,,,,,,,,a,1,0.450773954391,None,0,2.0,squaremagenta.gif,stop,,,,,,,,,,,,,,,,,,,,,,,,1.85,0.514613866806,0.000884771347046,0.450773954391,1,a,890.630142927,,,,,,,,,,,,,,,,,,,,,,,,,,,,,,,,,2015_Jul_07_1410,59.8777406285,LearningTask,1,82,
-200,q,200,,,,,,,,,,,,,,,,,1,0,1,0,16,1,65,1,,,,,,,,,,,,,,,,,,,,,,,,,,,,,q,1,0.467782020569,None,0,1.0,crossgreen.gif,go,,,,,,,,,,,,,,,,,,,,,,,,1.2,0.513991117477,0.000924110412598,0.467782020569,1,q,893.633486032,,,,,,,,,,,,,,,,,,,,,,,,,,,,,,,,,2015_Jul_07_1410,59.8777406285,LearningTask,1,82,
200,w,200,,,,,,,,,,,,,,,,,1,0,1,0,16,2,66,0,,,,,,,,,,,,,,,,,,,,,,,,,,,,,w,1,0.451057195663,None,0,2.0,circleyellow.gif,go,,,,,,,,,,,,,,,,,,,,,,,,0,0.514559030533,0.000930070877075,0.451057195663,1,w,896.637086868,,,,,,,,,,,,,,,,,,,,,,,,,,,,,,,,,2015_Jul_07_1410,59.8777406285,LearningTask,1,82,
200,s,-200,,,,,,,,,,,,,,,,,1,0,1,0,16,3,67,2,,,,,,,,,,,,,,,,,,,,,,,,,,,,,s,1,0.567414999008,None,0,0.5,invertedtriangleblue.gif,go,,,,,,,,,,,,,,,,,,,,,,,,0.37,0.514303922653,0.000880002975464,0.567414999008,1,s,899.640169859,,,,,,,,,,,,,,,,,,,,,,,,,,,,,,,,,2015_Jul_07_1410,59.8777406285,LearningTask,1,82,
-200,a,-200,,,,,,,,,,,,,,,,,1,0,1,0,17,0,68,3,,,,,,,,,,,,,,,,,,,,,,,,,,,,,a,1,0.434038877487,None,0,4.0,lineorange.gif,go,,,,,,,,,,,,,,,,,,,,,,,,3.94,0.51419711113,0.000885963439941,0.434038877487,1,a,902.643717051,,,,,,,,,,,,,,,,,,,,,,,,,,,,,,,,,2015_Jul_07_1410,59.8777406285,LearningTask,1,82,
200,w,200,,,,,,,,,,,,,,,,,1,0,1,0,17,1,69,0,,,,,,,,,,,,,,,,,,,,,,,,,,,,,w,1,0.400872945786,None,0,1.0,hexagoncyan.gif,stop,,,,,,,,,,,,,,,,,,,,,,,,0.88,0.514028072357,0.000965118408203,0.400872945786,1,w,905.646906853,,,,,,,,,,,,,,,,,,,,,,,,,,,,,,,,,2015_Jul_07_1410,59.8777406285,LearningTask,1,82,
-200,a,-200,,,,,,,,,,,,,,,,,1,0,1,0,17,2,70,3,,,,,,,,,,,,,,,,,,,,,,,,,,,,,a,1,0.41775393486,None,0,4.0,diamondgray.gif,stop,,,,,,,,,,,,,,,,,,,,,,,,3.76,0.514130115509,0.000903129577637,0.41775393486,1,a,908.650794029,,,,,,,,,,,,,,,,,,,,,,,,,,,,,,,,,2015_Jul_07_1410,59.8777406285,LearningTask,1,82,
200,s,-200,,,,,,,,,,,,,,,,,1,0,1,0,17,3,71,2,,,,,,,,,,,,,,,,,,,,,,,,,,,,,s,1,0.735178947449,None,0,1.0,crossgreen.gif,go,,,,,,,,,,,,,,,,,,,,,,,,1.0,0.513794898987,0.00095796585083,0.735178947449,1,s,911.653812885,,,,,,,,,,,,,,,,,,,,,,,,,,,,,,,,,2015_Jul_07_1410,59.8777406285,LearningTask,1,82,
200,w,200,,,,,,,,,,,,,,,,,1,0,1,0,18,0,72,0,,,,,,,,,,,,,,,,,,,,,,,,,,,,,w,1,0.433931112289,None,0,4.0,diamondgray.gif,stop,,,,,,,,,,,,,,,,,,,,,,,,3.95,0.514497995377,0.000877857208252,0.433931112289,1,w,914.65712595,,,,,,,,,,,,,,,,,,,,,,,,,,,,,,,,,2015_Jul_07_1410,59.8777406285,LearningTask,1,82,
200,s,-200,,,,,,,,,,,,,,,,,1,0,1,0,18,1,73,2,,,,,,,,,,,,,,,,,,,,,,,,,,,,,s,1,0.834259986877,None,0,2.0,squaremagenta.gif,stop,,,,,,,,,,,,,,,,,,,,,,,,0,0.5145008564,0.000905990600586,0.834259986877,1,s,917.660552025,,,,,,,,,,,,,,,,,,,,,,,,,,,,,,,,,2015_Jul_07_1410,59.8777406285,LearningTask,1,82,
-200,q,200,,,,,,,,,,,,,,,,,1,0,1,0,18,2,74,1,,,,,,,,,,,,,,,,,,,,,,,,,,,,,q,1,0.451390028,None,0,2.0,circleyellow.gif,go,,,,,,,,,,,,,,,,,,,,,,,,1.88,0.514046192169,0.000879049301147,0.451390028,1,q,920.663873911,,,,,,,,,,,,,,,,,,,,,,,,,,,,,,,,,2015_Jul_07_1410,59.8777406285,LearningTask,1,82,
-200,a,-200,,,,,,,,,,,,,,,,,1,0,1,0,18,3,75,3,,,,,,,,,,,,,,,,,,,,,,,,,,,,,a,1,0.434036016464,None,0,4.0,lineorange.gif,go,,,,,,,,,,,,,,,,,,,,,,,,3.89,0.514262914658,0.00132298469543,0.434036016464,1,a,923.667068005,,,,,,,,,,,,,,,,,,,,,,,,,,,,,,,,,2015_Jul_07_1410,59.8777406285,LearningTask,1,82,
-200,q,200,,,,,,,,,,,,,,,,,1,0,1,0,19,0,76,1,,,,,,,,,,,,,,,,,,,,,,,,,,,,,q,1,0.483928918839,None,0,2.0,circleyellow.gif,go,,,,,,,,,,,,,,,,,,,,,,,,2.0,0.514607191086,0.00090503692627,0.483928918839,1,q,926.670934916,,,,,,,,,,,,,,,,,,,,,,,,,,,,,,,,,2015_Jul_07_1410,59.8777406285,LearningTask,1,82,
-200,a,-200,,,,,,,,,,,,,,,,,1,0,1,0,19,1,77,3,,,,,,,,,,,,,,,,,,,,,,,,,,,,,a,1,0.40102314949,None,0,4.0,diamondgray.gif,stop,,,,,,,,,,,,,,,,,,,,,,,,4.18,0.513922929764,0.000879049301147,0.40102314949,1,a,929.674080849,,,,,,,,,,,,,,,,,,,,,,,,,,,,,,,,,2015_Jul_07_1410,59.8777406285,LearningTask,1,82,
-200,a,-200,,,,,,,,,,,,,,,,,1,0,1,0,19,2,78,3,,,,,,,,,,,,,,,,,,,,,,,,,,,,,a,1,0.484652996063,None,0,2.0,squaremagenta.gif,stop,,,,,,,,,,,,,,,,,,,,,,,,0,0.513916015625,0.00100302696228,0.484652996063,1,a,932.677466869,,,,,,,,,,,,,,,,,,,,,,,,,,,,,,,,,2015_Jul_07_1410,59.8777406285,LearningTask,1,82,
200,w,200,,,,,,,,,,,,,,,,,1,0,1,0,19,3,79,0,,,,,,,,,,,,,,,,,,,,,,,,,,,,,w,1,0.418219089508,None,0,2.0,circleyellow.gif,go,,,,,,,,,,,,,,,,,,,,,,,,2.04,0.514094114304,0.000960111618042,0.418219089508,1,w,935.680552006,,,,,,,,,,,,,,,,,,,,,,,,,,,,,,,,,2015_Jul_07_1410,59.8777406285,LearningTask,1,82,
-200,q,200,,,,,,,,,,,,,,,,,1,0,1,0,20,0,80,1,,,,,,,,,,,,,,,,,,,,,,,,,,,,,q,1,0.450479030609,None,0,0.5,trianglewhite.gif,stop,,,,,,,,,,,,,,,,,,,,,,,,0.61,0.51477599144,0.000883102416992,0.450479030609,1,q,938.68406105,,,,,,,,,,,,,,,,,,,,,,,,,,,,,,,,,2015_Jul_07_1410,59.8777406285,LearningTask,1,82,
200,w,200,,,,,,,,,,,,,,,,,1,0,1,0,20,1,81,0,,,,,,,,,,,,,,,,,,,,,,,,,,,,,w,1,0.50092291832,None,0,0.5,invertedtriangleblue.gif,go,,,,,,,,,,,,,,,,,,,,,,,,0,0.513930082321,0.00091814994812,0.50092291832,1,w,941.687440872,,,,,,,,,,,,,,,,,,,,,,,,,,,,,,,,,2015_Jul_07_1410,59.8777406285,LearningTask,1,82,
200,s,-200,,,,,,,,,,,,,,,,,1,0,1,0,20,2,82,2,,,,,,,,,,,,,,,,,,,,,,,,,,,,,s,1,0.584369182587,None,0,1.0,hexagoncyan.gif,stop,,,,,,,,,,,,,,,,,,,,,,,,1.14,0.514070987701,0.000952005386353,0.584369182587,1,s,944.690870047,,,,,,,,,,,,,,,,,,,,,,,,,,,,,,,,,2015_Jul_07_1410,59.8777406285,LearningTask,1,82,
200,w,200,,,,,,,,,,,,,,,,,1,0,1,0,20,3,83,0,,,,,,,,,,,,,,,,,,,,,,,,,,,,,w,1,0.35095500946,None,0,2.0,squaremagenta.gif,stop,,,,,,,,,,,,,,,,,,,,,,,,1.79,0.514141082764,0.000900983810425,0.35095500946,1,w,947.694017887,,,,,,,,,,,,,,,,,,,,,,,,,,,,,,,,,2015_Jul_07_1410,59.8777406285,LearningTask,1,82,
-200,a,-200,,,,,,,,,,,,,,,,,1,0,1,0,21,0,84,3,,,,,,,,,,,,,,,,,,,,,,,,,,,,,a,1,0.484111070633,None,0,1.0,hexagoncyan.gif,stop,,,,,,,,,,,,,,,,,,,,,,,,1.05,0.514434814453,0.00104188919067,0.484111070633,1,a,950.697980881,,,,,,,,,,,,,,,,,,,,,,,,,,,,,,,,,2015_Jul_07_1410,59.8777406285,LearningTask,1,82,
-200,a,-200,,,,,,,,,,,,,,,,,1,0,1,0,21,1,85,3,,,,,,,,,,,,,,,,,,,,,,,,,,,,,a,1,0.51780796051,None,0,2.0,circleyellow.gif,go,,,,,,,,,,,,,,,,,,,,,,,,2.25,0.513758897781,0.000992774963379,0.51780796051,1,a,953.701076984,,,,,,,,,,,,,,,,,,,,,,,,,,,,,,,,,2015_Jul_07_1410,59.8777406285,LearningTask,1,82,
-200,q,200,,,,,,,,,,,,,,,,,1,0,1,0,21,2,86,1,,,,,,,,,,,,,,,,,,,,,,,,,,,,,q,1,0.350914001465,None,0,0.5,trianglewhite.gif,stop,,,,,,,,,,,,,,,,,,,,,,,,0.7,0.514346122742,0.00087308883667,0.350914001465,1,q,956.704892874,,,,,,,,,,,,,,,,,,,,,,,,,,,,,,,,,2015_Jul_07_1410,59.8777406285,LearningTask,1,82,
-200,a,-200,,,,,,,,,,,,,,,,,1,0,1,0,21,3,87,3,,,,,,,,,,,,,,,,,,,,,,,,,,,,,a,1,0.484688997269,None,0,0.5,trianglewhite.gif,stop,,,,,,,,,,,,,,,,,,,,,,,,0,0.51359295845,0.000876903533936,0.484688997269,1,a,959.707710981,,,,,,,,,,,,,,,,,,,,,,,,,,,,,,,,,2015_Jul_07_1410,59.8777406285,LearningTask,1,82,
200,w,200,,,,,,,,,,,,,,,,,1,0,1,0,22,0,88,0,,,,,,,,,,,,,,,,,,,,,,,,,,,,,w,1,0.350497961044,None,0,1.0,crossgreen.gif,go,,,,,,,,,,,,,,,,,,,,,,,,0,0.514588117599,0.000895977020264,0.350497961044,1,w,962.711091995,,,,,,,,,,,,,,,,,,,,,,,,,,,,,,,,,2015_Jul_07_1410,59.8777406285,LearningTask,1,82,
200,w,200,,,,,,,,,,,,,,,,,1,0,1,0,22,1,89,0,,,,,,,,,,,,,,,,,,,,,,,,,,,,,w,1,0.417538881302,None,0,0.5,invertedtriangleblue.gif,go,,,,,,,,,,,,,,,,,,,,,,,,0,0.51448392868,0.000877141952515,0.417538881302,1,w,965.714585066,,,,,,,,,,,,,,,,,,,,,,,,,,,,,,,,,2015_Jul_07_1410,59.8777406285,LearningTask,1,82,
200,s,-200,,,,,,,,,,,,,,,,,1,0,1,0,22,2,90,2,,,,,,,,,,,,,,,,,,,,,,,,,,,,,s,1,0.601548910141,None,0,0.5,invertedtriangleblue.gif,go,,,,,,,,,,,,,,,,,,,,,,,,0.62,0.513943195343,0.000876188278198,0.601548910141,1,s,968.718430042,,,,,,,,,,,,,,,,,,,,,,,,,,,,,,,,,2015_Jul_07_1410,59.8777406285,LearningTask,1,82,
-200,q,200,,,,,,,,,,,,,,,,,1,0,1,0,22,3,91,1,,,,,,,,,,,,,,,,,,,,,,,,,,,,,q,1,0.650985002518,None,0,1.0,hexagoncyan.gif,stop,,,,,,,,,,,,,,,,,,,,,,,,0,0.513068914413,0.00094199180603,0.517721176147,0,a,971.721637011,,,0.84,0.515423059464,0.00094199180603,0.650985002518,1,q,974.724627972,,,,,,,,,,,,,,,,,,,,,,,,2015_Jul_07_1410,59.8777406285,LearningTask,1,82,
200,s,-200,,,,,,,,,,,,,,,,,1,0,1,0,23,0,92,2,,,,,,,,,,,,,,,,,,,,,,,,,,,,,s,1,0.534856081009,None,0,2.0,squaremagenta.gif,stop,,,,,,,,,,,,,,,,,,,,,,,,2.01,0.514250040054,0.00086498260498,0.534856081009,1,s,977.728126049,,,,,,,,,,,,,,,,,,,,,,,,,,,,,,,,,2015_Jul_07_1410,59.8777406285,LearningTask,1,82,
-200,a,-200,,,,,,,,,,,,,,,,,1,0,1,0,23,1,93,3,,,,,,,,,,,,,,,,,,,,,,,,,,,,,a,1,0.433966159821,None,0,0.5,trianglewhite.gif,stop,,,,,,,,,,,,,,,,,,,,,,,,0,0.514111042023,0.000916957855225,0.433966159821,1,a,980.731320858,,,,,,,,,,,,,,,,,,,,,,,,,,,,,,,,,2015_Jul_07_1410,59.8777406285,LearningTask,1,82,
200,w,200,,,,,,,,,,,,,,,,,1,0,1,0,23,2,94,0,,,,,,,,,,,,,,,,,,,,,,,,,,,,,w,1,0.367520093918,None,0,1.0,crossgreen.gif,go,,,,,,,,,,,,,,,,,,,,,,,,1.06,0.514295816422,0.000923871994019,0.367520093918,1,w,983.735302925,,,,,,,,,,,,,,,,,,,,,,,,,,,,,,,,,2015_Jul_07_1410,59.8777406285,LearningTask,1,82,
-200,a,-200,,,,,,,,,,,,,,,,,1,0,1,0,23,3,95,3,,,,,,,,,,,,,,,,,,,,,,,,,,,,,a,1,0.467911958694,None,0,0.5,invertedtriangleblue.gif,go,,,,,,,,,,,,,,,,,,,,,,,,0,0.513895988464,0.000874996185303,0.467911958694,1,a,986.738216877,,,,,,,,,,,,,,,,,,,,,,,,,,,,,,,,,2015_Jul_07_1410,59.8777406285,LearningTask,1,82,
-200,q,200,,,,,,,,,,,,,,,,,1,0,1,0,24,0,96,1,,,,,,,,,,,,,,,,,,,,,,,,,,,,,q,1,0.484267950058,None,0,4.0,diamondgray.gif,stop,,,,,,,,,,,,,,,,,,,,,,,,3.91,0.513788938522,0.000903844833374,0.484267950058,1,q,989.74147892,,,,,,,,,,,,,,,,,,,,,,,,,,,,,,,,,2015_Jul_07_1410,59.8777406285,LearningTask,1,82,
-200,q,200,,,,,,,,,,,,,,,,,1,0,1,0,24,1,97,1,,,,,,,,,,,,,,,,,,,,,,,,,,,,,q,1,0.483956098557,None,0,0.5,trianglewhite.gif,stop,,,,,,,,,,,,,,,,,,,,,,,,0,0.514341831207,0.000932931900024,0.483956098557,1,q,992.744910955,,,,,,,,,,,,,,,,,,,,,,,,,,,,,,,,,2015_Jul_07_1410,59.8777406285,LearningTask,1,82,
-200,q,200,,,,,,,,,,,,,,,,,1,0,1,0,24,2,98,1,,,,,,,,,,,,,,,,,,,,,,,,,,,,,q,1,0.433954000473,None,0,0.5,trianglewhite.gif,stop,,,,,,,,,,,,,,,,,,,,,,,,0,0.514557123184,0.000923156738281,0.433954000473,1,q,995.748723984,,,,,,,,,,,,,,,,,,,,,,,,,,,,,,,,,2015_Jul_07_1410,59.8777406285,LearningTask,1,82,
-200,q,200,,,,,,,,,,,,,,,,,1,0,1,0,24,3,99,1,,,,,,,,,,,,,,,,,,,,,,,,,,,,,q,1,0.400446891785,None,0,0.5,trianglewhite.gif,stop,,,,,,,,,,,,,,,,,,,,,,,,0.3,0.514002084732,0.000899076461792,0.400446891785,1,q,998.7519629,,,,,,,,,,,,,,,,,,,,,,,,,,,,,,,,,2015_Jul_07_1410,59.8777406285,LearningTask,1,82,
,,,,,,,,,,,,,,,,,,,1,0,1,0,,,,,,,,,,,,,,,,,,,,,,,,,,,,,,,,,,,,,,,,,,,,,,,,,,,,,,,,,,,,,,,,,,,,,,,9,51.5233979225,,,,,,,,,,,,,,,,,,,,,,,,,,,,,,,2015_Jul_07_1410,59.8777406285,LearningTask,1,82,
200,s,-200,,,,,,,,,,,,,,,,,2,0,2,0,0,0,0,2,,,,,,,,,,,,,,,,,,,,,,,,,,,,,s,1,0.701453924179,None,0,4.0,lineorange.gif,go,,,,,,,,,,,,,,,,,,,,,,,,3.9,0.508769989014,0.000960826873779,0.701453924179,1,s,1053.93083906,,,,,,,,,,,,,,,,,,,,,,,,,,,,,,,,,2015_Jul_07_1410,59.8777406285,LearningTask,1,82,
-200,q,200,,,,,,,,,,,,,,,,,2,0,2,0,0,1,1,1,,,,,,,,,,,,,,,,,,,,,,,,,,,,,q,1,0.467816114426,None,0,4.0,diamondgray.gif,stop,,,,,,,,,,,,,,,,,,,,,,,,4.24,0.513498067856,0.000879049301147,0.467816114426,1,q,1056.93385291,,,,,,,,,,,,,,,,,,,,,,,,,,,,,,,,,2015_Jul_07_1410,59.8777406285,LearningTask,1,82,
200,s,-200,,,,,,,,,,,,,,,,,2,0,2,0,0,2,2,2,,,,,,,,,,,,,,,,,,,,,,,,,,,,,s,1,0.601109027863,None,0,0.5,trianglewhite.gif,stop,,,,,,,,,,,,,,,,,,,,,,,,0.49,0.51437497139,0.000874996185303,0.601109027863,1,s,1059.93726492,,,,,,,,,,,,,,,,,,,,,,,,,,,,,,,,,2015_Jul_07_1410,59.8777406285,LearningTask,1,82,
200,w,200,,,,,,,,,,,,,,,,,2,0,2,0,0,3,3,0,,,,,,,,,,,,,,,,,,,,,,,,,,,,,w,1,0.401215076447,None,0,1.0,crossgreen.gif,go,,,,,,,,,,,,,,,,,,,,,,,,1.22,0.514099836349,0.000874996185303,0.401215076447,1,w,1062.94071198,,,,,,,,,,,,,,,,,,,,,,,,,,,,,,,,,2015_Jul_07_1410,59.8777406285,LearningTask,1,82,
-200,q,200,,,,,,,,,,,,,,,,,2,0,2,0,1,0,4,1,,,,,,,,,,,,,,,,,,,,,,,,,,,,,q,1,0.400569915771,None,0,4.0,lineorange.gif,go,,,,,,,,,,,,,,,,,,,,,,,,3.93,0.514297008514,0.000901937484741,0.400569915771,1,q,1065.94400096,,,,,,,,,,,,,,,,,,,,,,,,,,,,,,,,,2015_Jul_07_1410,59.8777406285,LearningTask,1,82,
200,s,-200,,,,,,,,,,,,,,,,,2,0,2,0,1,1,5,2,,,,,,,,,,,,,,,,,,,,,,,,,,,,,s,1,0.601050853729,None,0,0.5,invertedtriangleblue.gif,go,,,,,,,,,,,,,,,,,,,,,,,,0.32,0.51450419426,0.0110061168671,0.601050853729,1,s,1068.94744492,,,,,,,,,,,,,,,,,,,,,,,,,,,,,,,,,2015_Jul_07_1410,59.8777406285,LearningTask,1,82,
200,s,-200,,,,,,,,,,,,,,,,,2,0,2,0,1,2,6,2,,,,,,,,,,,,,,,,,,,,,,,,,,,,,s,1,0.584448814392,None,0,1.0,crossgreen.gif,go,,,,,,,,,,,,,,,,,,,,,,,,1.05,0.514096021652,0.00128817558289,0.584448814392,1,s,1071.950881,,,,,,,,,,,,,,,,,,,,,,,,,,,,,,,,,2015_Jul_07_1410,59.8777406285,LearningTask,1,82,
200,w,200,,,,,,,,,,,,,,,,,2,0,2,0,1,3,7,0,,,,,,,,,,,,,,,,,,,,,,,,,,,,,w,1,0.451418161392,None,0,0.5,invertedtriangleblue.gif,go,,,,,,,,,,,,,,,,,,,,,,,,0,0.513633012772,0.000929117202759,0.451418161392,1,w,1074.95394707,,,,,,,,,,,,,,,,,,,,,,,,,,,,,,,,,2015_Jul_07_1410,59.8777406285,LearningTask,1,82,
200,w,200,,,,,,,,,,,,,,,,,2,0,2,0,2,0,8,0,,,,,,,,,,,,,,,,,,,,,,,,,,,,,w,1,0.483892917633,None,0,4.0,diamondgray.gif,stop,,,,,,,,,,,,,,,,,,,,,,,,3.92,0.51485991478,0.000869989395142,0.483892917633,1,w,1077.95753598,,,,,,,,,,,,,,,,,,,,,,,,,,,,,,,,,2015_Jul_07_1410,59.8777406285,LearningTask,1,82,
-200,q,200,,,,,,,,,,,,,,,,,2,0,2,0,2,1,9,1,,,,,,,,,,,,,,,,,,,,,,,,,,,,,q,1,0.434229135513,None,0,2.0,circleyellow.gif,go,,,,,,,,,,,,,,,,,,,,,,,,0,0.514206886292,0.00136494636536,0.434229135513,1,q,1080.96101093,,,,,,,,,,,,,,,,,,,,,,,,,,,,,,,,,2015_Jul_07_1410,59.8777406285,LearningTask,1,82,
200,s,-200,,,,,,,,,,,,,,,,,2,0,2,0,2,2,10,2,,,,,,,,,,,,,,,,,,,,,,,,,,,,,s,1,0.600983858109,None,0,1.0,hexagoncyan.gif,stop,,,,,,,,,,,,,,,,,,,,,,,,1.24,0.514248847961,0.000933885574341,0.600983858109,1,s,1083.9642179,,,,,,,,,,,,,,,,,,,,,,,,,,,,,,,,,2015_Jul_07_1410,59.8777406285,LearningTask,1,82,
200,w,200,,,,,,,,,,,,,,,,,2,0,2,0,2,3,11,0,,,,,,,,,,,,,,,,,,,,,,,,,,,,,w,1,0.400943040848,None,0,2.0,squaremagenta.gif,stop,,,,,,,,,,,,,,,,,,,,,,,,1.77,0.514206171036,0.00102305412292,0.400943040848,1,w,1086.9684279,,,,,,,,,,,,,,,,,,,,,,,,,,,,,,,,,2015_Jul_07_1410,59.8777406285,LearningTask,1,82,
-200,a,-200,,,,,,,,,,,,,,,,,2,0,2,0,3,0,12,3,,,,,,,,,,,,,,,,,,,,,,,,,,,,,a,1,0.434355974197,None,0,4.0,lineorange.gif,go,,,,,,,,,,,,,,,,,,,,,,,,0,0.513541936874,0.000890970230103,0.434355974197,1,a,1089.97090888,,,,,,,,,,,,,,,,,,,,,,,,,,,,,,,,,2015_Jul_07_1410,59.8777406285,LearningTask,1,82,
-200,q,200,,,,,,,,,,,,,,,,,2,0,2,0,3,1,13,1,,,,,,,,,,,,,,,,,,,,,,,,,,,,,q,1,0.418000936508,None,0,4.0,lineorange.gif,go,,,,,,,,,,,,,,,,,,,,,,,,3.75,0.514110088348,0.000890016555786,0.418000936508,1,q,1092.97432804,,,,,,,,,,,,,,,,,,,,,,,,,,,,,,,,,2015_Jul_07_1410,59.8777406285,LearningTask,1,82,
-200,q,200,,,,,,,,,,,,,,,,,2,0,2,0,3,2,14,1,,,,,,,,,,,,,,,,,,,,,,,,,,,,,q,1,0.418020009995,None,0,4.0,diamondgray.gif,stop,,,,,,,,,,,,,,,,,,,,,,,,4.07,0.513831853867,0.000932931900024,0.418020009995,1,q,1095.97768593,,,,,,,,,,,,,,,,,,,,,,,,,,,,,,,,,2015_Jul_07_1410,59.8777406285,LearningTask,1,82,
-200,a,-200,,,,,,,,,,,,,,,,,2,0,2,0,3,3,15,3,,,,,,,,,,,,,,,,,,,,,,,,,,,,,a,1,0.416908979416,None,0,1.0,crossgreen.gif,go,,,,,,,,,,,,,,,,,,,,,,,,0,0.514925003052,0.000870943069458,0.416908979416,1,a,1098.98140192,,,,,,,,,,,,,,,,,,,,,,,,,,,,,,,,,2015_Jul_07_1410,59.8777406285,LearningTask,1,82,
-200,a,-200,,,,,,,,,,,,,,,,,2,0,2,0,4,0,16,3,,,,,,,,,,,,,,,,,,,,,,,,,,,,,a,1,0.451195001602,None,0,1.0,crossgreen.gif,go,,,,,,,,,,,,,,,,,,,,,,,,0.82,0.513899087906,0.00092601776123,0.451195001602,1,a,1101.9845109,,,,,,,,,,,,,,,,,,,,,,,,,,,,,,,,,2015_Jul_07_1410,59.8777406285,LearningTask,1,82,
-200,a,-200,,,,,,,,,,,,,,,,,2,0,2,0,4,1,17,3,,,,,,,,,,,,,,,,,,,,,,,,,,,,,a,1,0.401571989059,None,0,1.0,hexagoncyan.gif,stop,,,,,,,,,,,,,,,,,,,,,,,,0,0.513566017151,0.000911951065063,0.401571989059,1,a,1104.98773503,,,,,,,,,,,,,,,,,,,,,,,,,,,,,,,,,2015_Jul_07_1410,59.8777406285,LearningTask,1,82,
-200,a,-200,,,,,,,,,,,,,,,,,2,0,2,0,4,2,18,3,,,,,,,,,,,,,,,,,,,,,,,,,,,,,a,1,0.434453010559,None,0,1.0,hexagoncyan.gif,stop,,,,,,,,,,,,,,,,,,,,,,,,0.81,0.51445889473,0.000874996185303,0.434453010559,1,a,1107.99132705,,,,,,,,,,,,,,,,,,,,,,,,,,,,,,,,,2015_Jul_07_1410,59.8777406285,LearningTask,1,82,
200,w,200,,,,,,,,,,,,,,,,,2,0,2,0,4,3,19,0,,,,,,,,,,,,,,,,,,,,,,,,,,,,,w,1,0.384491920471,None,0,0.5,invertedtriangleblue.gif,go,,,,,,,,,,,,,,,,,,,,,,,,0.69,0.514106988907,0.000867128372192,0.384491920471,1,w,1110.9946959,,,,,,,,,,,,,,,,,,,,,,,,,,,,,,,,,2015_Jul_07_1410,59.8777406285,LearningTask,1,82,
-200,q,200,,,,,,,,,,,,,,,,,2,0,2,0,5,0,20,1,,,,,,,,,,,,,,,,,,,,,,,,,,,,,q,1,0.367074966431,None,0,4.0,diamondgray.gif,stop,,,,,,,,,,,,,,,,,,,,,,,,3.8,0.514163970947,0.000917911529541,0.367074966431,1,q,1113.99798799,,,,,,,,,,,,,,,,,,,,,,,,,,,,,,,,,2015_Jul_07_1410,59.8777406285,LearningTask,1,82,
200,w,200,,,,,,,,,,,,,,,,,2,0,2,0,5,1,21,0,,,,,,,,,,,,,,,,,,,,,,,,,,,,,w,1,0.451246976852,None,0,4.0,diamondgray.gif,stop,,,,,,,,,,,,,,,,,,,,,,,,0,0.514132022858,0.000890016555786,0.451246976852,1,w,1117.00157905,,,,,,,,,,,,,,,,,,,,,,,,,,,,,,,,,2015_Jul_07_1410,59.8777406285,LearningTask,1,82,
-200,q,200,,,,,,,,,,,,,,,,,2,0,2,0,5,2,22,1,,,,,,,,,,,,,,,,,,,,,,,,,,,,,q,1,0.317970991135,None,0,4.0,diamondgray.gif,stop,,,,,,,,,,,,,,,,,,,,,,,,4.06,0.513980150223,0.00087308883667,0.317970991135,1,q,1120.00493002,,,,,,,,,,,,,,,,,,,,,,,,,,,,,,,,,2015_Jul_07_1410,59.8777406285,LearningTask,1,82,
200,w,200,,,,,,,,,,,,,,,,,2,0,2,0,5,3,23,0,,,,,,,,,,,,,,,,,,,,,,,,,,,,,w,1,0.350505113602,None,0,1.0,hexagoncyan.gif,stop,,,,,,,,,,,,,,,,,,,,,,,,0,0.514442920685,0.00098991394043,0.350505113602,1,w,1123.00834394,,,,,,,,,,,,,,,,,,,,,,,,,,,,,,,,,2015_Jul_07_1410,59.8777406285,LearningTask,1,82,
200,w,200,,,,,,,,,,,,,,,,,2,0,2,0,6,0,24,0,,,,,,,,,,,,,,,,,,,,,,,,,,,,,w,1,0.434350967407,None,0,0.5,trianglewhite.gif,stop,,,,,,,,,,,,,,,,,,,,,,,,0.61,0.513957977295,0.000986814498901,0.434350967407,1,w,1126.01154685,,,,,,,,,,,,,,,,,,,,,,,,,,,,,,,,,2015_Jul_07_1410,59.8777406285,LearningTask,1,82,
-200,q,200,,,,,,,,,,,,,,,,,2,0,2,0,6,1,25,1,,,,,,,,,,,,,,,,,,,,,,,,,,,,,q,1,0.367206096649,None,0,0.5,invertedtriangleblue.gif,go,,,,,,,,,,,,,,,,,,,,,,,,0.36,0.51487994194,0.000874042510986,0.367206096649,1,q,1129.014961,,,,,,,,,,,,,,,,,,,,,,,,,,,,,,,,,2015_Jul_07_1410,59.8777406285,LearningTask,1,82,
200,s,-200,,,,,,,,,,,,,,,,,2,0,2,0,6,2,26,2,,,,,,,,,,,,,,,,,,,,,,,,,,,,,s,1,0.751374006271,None,0,4.0,lineorange.gif,go,,,,,,,,,,,,,,,,,,,,,,,,3.95,0.514127969742,0.000935077667236,0.751374006271,1,s,1132.01849103,,,,,,,,,,,,,,,,,,,,,,,,,,,,,,,,,2015_Jul_07_1410,59.8777406285,LearningTask,1,82,
200,s,-200,,,,,,,,,,,,,,,,,2,0,2,0,6,3,27,2,,,,,,,,,,,,,,,,,,,,,,,,,,,,,s,1,0.650650024414,None,0,2.0,circleyellow.gif,go,,,,,,,,,,,,,,,,,,,,,,,,2.08,0.514138936996,0.00094199180603,0.650650024414,1,s,1135.02192187,,,,,,,,,,,,,,,,,,,,,,,,,,,,,,,,,2015_Jul_07_1410,59.8777406285,LearningTask,1,82,
200,s,-200,,,,,,,,,,,,,,,,,2,0,2,0,7,0,28,2,,,,,,,,,,,,,,,,,,,,,,,,,,,,,s,1,0.584447145462,None,0,4.0,diamondgray.gif,stop,,,,,,,,,,,,,,,,,,,,,,,,0,0.514004945755,0.000870943069458,0.584447145462,1,s,1138.02519393,,,,,,,,,,,,,,,,,,,,,,,,,,,,,,,,,2015_Jul_07_1410,59.8777406285,LearningTask,1,82,
200,w,200,,,,,,,,,,,,,,,,,2,0,2,0,7,1,29,0,,,,,,,,,,,,,,,,,,,,,,,,,,,,,w,1,0.467418193817,None,0,4.0,diamondgray.gif,stop,,,,,,,,,,,,,,,,,,,,,,,,3.88,0.51438999176,0.000869035720825,0.467418193817,1,w,1141.02820992,,,,,,,,,,,,,,,,,,,,,,,,,,,,,,,,,2015_Jul_07_1410,59.8777406285,LearningTask,1,82,
-200,q,200,,,,,,,,,,,,,,,,,2,0,2,0,7,2,30,1,,,,,,,,,,,,,,,,,,,,,,,,,,,,,q,1,0.434710979462,None,0,1.0,crossgreen.gif,go,,,,,,,,,,,,,,,,,,,,,,,,1.19,0.51417016983,0.000959157943726,0.434710979462,1,q,1144.03184605,,,,,,,,,,,,,,,,,,,,,,,,,,,,,,,,,2015_Jul_07_1410,59.8777406285,LearningTask,1,82,
-200,q,200,,,,,,,,,,,,,,,,,2,0,2,0,7,3,31,1,,,,,,,,,,,,,,,,,,,,,,,,,,,,,q,1,0.434024095535,None,0,1.0,crossgreen.gif,go,,,,,,,,,,,,,,,,,,,,,,,,0,0.514858961105,0.000869035720825,0.434024095535,1,q,1147.03505492,,,,,,,,,,,,,,,,,,,,,,,,,,,,,,,,,2015_Jul_07_1410,59.8777406285,LearningTask,1,82,
200,s,-200,,,,,,,,,,,,,,,,,2,0,2,0,8,0,32,2,,,,,,,,,,,,,,,,,,,,,,,,,,,,,s,1,0.618313074112,None,0,0.5,trianglewhite.gif,stop,,,,,,,,,,,,,,,,,,,,,,,,0.28,0.514189004898,0.000977993011475,0.618313074112,1,s,1150.03853202,,,,,,,,,,,,,,,,,,,,,,,,,,,,,,,,,2015_Jul_07_1410,59.8777406285,LearningTask,1,82,
200,s,-200,,,,,,,,,,,,,,,,,2,0,2,0,8,1,33,2,,,,,,,,,,,,,,,,,,,,,,,,,,,,,s,1,0.650892972946,None,0,4.0,lineorange.gif,go,,,,,,,,,,,,,,,,,,,,,,,,3.84,0.514173984528,0.000881910324097,0.650892972946,1,s,1153.04207993,,,,,,,,,,,,,,,,,,,,,,,,,,,,,,,,,2015_Jul_07_1410,59.8777406285,LearningTask,1,82,
-200,q,200,,,,,,,,,,,,,,,,,2,0,2,0,8,2,34,1,,,,,,,,,,,,,,,,,,,,,,,,,,,,,q,1,0.501013994217,None,0,0.5,trianglewhite.gif,stop,,,,,,,,,,,,,,,,,,,,,,,,0.47,0.513883113861,0.000874042510986,0.501013994217,1,q,1156.04541588,,,,,,,,,,,,,,,,,,,,,,,,,,,,,,,,,2015_Jul_07_1410,59.8777406285,LearningTask,1,82,
200,s,-200,,,,,,,,,,,,,,,,,2,0,2,0,8,3,35,2,,,,,,,,,,,,,,,,,,,,,,,,,,,,,s,1,0.584417104721,None,0,2.0,squaremagenta.gif,stop,,,,,,,,,,,,,,,,,,,,,,,,1.79,0.514173984528,0.000876903533936,0.584417104721,1,s,1159.04933906,,,,,,,,,,,,,,,,,,,,,,,,,,,,,,,,,2015_Jul_07_1410,59.8777406285,LearningTask,1,82,
-200,q,200,,,,,,,,,,,,,,,,,2,0,2,0,9,0,36,1,,,,,,,,,,,,,,,,,,,,,,,,,,,,,q,1,0.501541852951,None,0,2.0,squaremagenta.gif,stop,,,,,,,,,,,,,,,,,,,,,,,,1.75,0.513549089432,0.00092601776123,0.501541852951,1,q,1162.05197597,,,,,,,,,,,,,,,,,,,,,,,,,,,,,,,,,2015_Jul_07_1410,59.8777406285,LearningTask,1,82,
200,w,200,,,,,,,,,,,,,,,,,2,0,2,0,9,1,37,0,,,,,,,,,,,,,,,,,,,,,,,,,,,,,w,1,0.417713165283,None,0,4.0,lineorange.gif,go,,,,,,,,,,,,,,,,,,,,,,,,4.09,0.514250993729,0.000874042510986,0.417713165283,1,w,1165.05551291,,,,,,,,,,,,,,,,,,,,,,,,,,,,,,,,,2015_Jul_07_1410,59.8777406285,LearningTask,1,82,
-200,q,200,,,,,,,,,,,,,,,,,2,0,2,0,9,2,38,1,,,,,,,,,,,,,,,,,,,,,,,,,,,,,q,1,0.383723020554,None,0,2.0,circleyellow.gif,go,,,,,,,,,,,,,,,,,,,,,,,,2.25,0.514595985413,0.000874996185303,0.383723020554,1,q,1168.05871606,,,,,,,,,,,,,,,,,,,,,,,,,,,,,,,,,2015_Jul_07_1410,59.8777406285,LearningTask,1,82,
200,s,-200,,,,,,,,,,,,,,,,,2,0,2,0,9,3,39,2,,,,,,,,,,,,,,,,,,,,,,,,,,,,,s,1,0.484492063522,None,0,1.0,hexagoncyan.gif,stop,,,,,,,,,,,,,,,,,,,,,,,,0.77,0.51424407959,0.000954151153564,0.484492063522,1,s,1171.06220007,,,,,,,,,,,,,,,,,,,,,,,,,,,,,,,,,2015_Jul_07_1410,59.8777406285,LearningTask,1,82,
200,s,-200,,,,,,,,,,,,,,,,,2,0,2,0,10,0,40,2,,,,,,,,,,,,,,,,,,,,,,,,,,,,,s,1,0.951102972031,None,0,2.0,circleyellow.gif,go,,,,,,,,,,,,,,,,,,,,,,,,2.14,0.514345884323,0.00106406211853,0.951102972031,1,s,1174.06524491,,,,,,,,,,,,,,,,,,,,,,,,,,,,,,,,,2015_Jul_07_1410,59.8777406285,LearningTask,1,82,
200,w,200,,,,,,,,,,,,,,,,,2,0,2,0,10,1,41,0,,,,,,,,,,,,,,,,,,,,,,,,,,,,,w,1,0.383840799332,None,0,0.5,invertedtriangleblue.gif,go,,,,,,,,,,,,,,,,,,,,,,,,0.45,0.514772891998,0.00088906288147,0.383840799332,1,w,1177.06883097,,,,,,,,,,,,,,,,,,,,,,,,,,,,,,,,,2015_Jul_07_1410,59.8777406285,LearningTask,1,82,
-200,q,200,,,,,,,,,,,,,,,,,2,0,2,0,10,2,42,1,,,,,,,,,,,,,,,,,,,,,,,,,,,,,q,1,0.417707920074,None,0,1.0,hexagoncyan.gif,stop,,,,,,,,,,,,,,,,,,,,,,,,1.22,0.514131069183,0.000913143157959,0.417707920074,1,q,1180.07246494,,,,,,,,,,,,,,,,,,,,,,,,,,,,,,,,,2015_Jul_07_1410,59.8777406285,LearningTask,1,82,
200,s,-200,,,,,,,,,,,,,,,,,2,0,2,0,10,3,43,2,,,,,,,,,,,,,,,,,,,,,,,,,,,,,s,1,0.568335056305,None,0,0.5,trianglewhite.gif,stop,,,,,,,,,,,,,,,,,,,,,,,,0.3,0.513866901398,0.00095009803772,0.568335056305,1,s,1183.07559586,,,,,,,,,,,,,,,,,,,,,,,,,,,,,,,,,2015_Jul_07_1410,59.8777406285,LearningTask,1,82,
-200,a,-200,,,,,,,,,,,,,,,,,2,0,2,0,11,0,44,3,,,,,,,,,,,,,,,,,,,,,,,,,,,,,a,1,0.500921010971,None,0,1.0,crossgreen.gif,go,,,,,,,,,,,,,,,,,,,,,,,,1.09,0.514676094055,0.000869989395142,0.500921010971,1,a,1186.07921791,,,,,,,,,,,,,,,,,,,,,,,,,,,,,,,,,2015_Jul_07_1410,59.8777406285,LearningTask,1,82,
-200,a,-200,,,,,,,,,,,,,,,,,2,0,2,0,11,1,45,3,,,,,,,,,,,,,,,,,,,,,,,,,,,,,a,1,0.517420053482,None,0,1.0,hexagoncyan.gif,stop,,,,,,,,,,,,,,,,,,,,,,,,1.15,0.514374017715,0.000930070877075,0.517420053482,1,a,1189.08241391,,,,,,,,,,,,,,,,,,,,,,,,,,,,,,,,,2015_Jul_07_1410,59.8777406285,LearningTask,1,82,
-200,q,200,,,,,,,,,,,,,,,,,2,0,2,0,11,2,46,1,,,,,,,,,,,,,,,,,,,,,,,,,,,,,q,1,0.435074806213,None,0,0.5,invertedtriangleblue.gif,go,,,,,,,,,,,,,,,,,,,,,,,,0.6,0.513832807541,0.000971794128418,0.435074806213,1,q,1192.08569789,,,,,,,,,,,,,,,,,,,,,,,,,,,,,,,,,2015_Jul_07_1410,59.8777406285,LearningTask,1,82,
-200,a,-200,,,,,,,,,,,,,,,,,2,0,2,0,11,3,47,3,,,,,,,,,,,,,,,,,,,,,,,,,,,,,a,1,0.601105928421,None,0,2.0,circleyellow.gif,go,,,,,,,,,,,,,,,,,,,,,,,,1.78,0.514415979385,0.000871896743774,0.601105928421,1,a,1195.08923197,,,,,,,,,,,,,,,,,,,,,,,,,,,,,,,,,2015_Jul_07_1410,59.8777406285,LearningTask,1,82,
-200,a,-200,,,,,,,,,,,,,,,,,2,0,2,0,12,0,48,3,,,,,,,,,,,,,,,,,,,,,,,,,,,,,a,1,0.401258945465,None,0,0.5,trianglewhite.gif,stop,,,,,,,,,,,,,,,,,,,,,,,,0.68,0.514194011688,0.000880002975464,0.401258945465,1,a,1198.09280705,,,,,,,,,,,,,,,,,,,,,,,,,,,,,,,,,2015_Jul_07_1410,59.8777406285,LearningTask,1,82,
-200,a,-200,,,,,,,,,,,,,,,,,2,0,2,0,12,1,49,3,,,,,,,,,,,,,,,,,,,,,,,,,,,,,a,1,0.500982999802,None,0,2.0,squaremagenta.gif,stop,,,,,,,,,,,,,,,,,,,,,,,,0,0.513875007629,0.000885963439941,0.500982999802,1,a,1201.09600997,,,,,,,,,,,,,,,,,,,,,,,,,,,,,,,,,2015_Jul_07_1410,59.8777406285,LearningTask,1,82,
200,w,200,,,,,,,,,,,,,,,,,2,0,2,0,12,2,50,0,,,,,,,,,,,,,,,,,,,,,,,,,,,,,w,1,0.367582082748,None,0,1.0,hexagoncyan.gif,stop,,,,,,,,,,,,,,,,,,,,,,,,0.78,0.514251947403,0.000882148742676,0.367582082748,1,w,1204.09930897,,,,,,,,,,,,,,,,,,,,,,,,,,,,,,,,,2015_Jul_07_1410,59.8777406285,LearningTask,1,82,
-200,a,-200,,,,,,,,,,,,,,,,,2,0,2,0,12,3,51,3,,,,,,,,,,,,,,,,,,,,,,,,,,,,,a,1,0.417781114578,None,0,1.0,hexagoncyan.gif,stop,,,,,,,,,,,,,,,,,,,,,,,,0.92,0.514087915421,0.000889778137207,0.417781114578,1,a,1207.10292387,,,,,,,,,,,,,,,,,,,,,,,,,,,,,,,,,2015_Jul_07_1410,59.8777406285,LearningTask,1,82,
200,w,200,,,,,,,,,,,,,,,,,2,0,2,0,13,0,52,0,,,,,,,,,,,,,,,,,,,,,,,,,,,,,w,1,0.416846036911,None,0,2.0,circleyellow.gif,go,,,,,,,,,,,,,,,,,,,,,,,,2.21,0.514446973801,0.000958919525146,0.416846036911,1,w,1210.10602403,,,,,,,,,,,,,,,,,,,,,,,,,,,,,,,,,2015_Jul_07_1410,59.8777406285,LearningTask,1,82,
-200,q,200,,,,,,,,,,,,,,,,,2,0,2,0,13,1,53,1,,,,,,,,,,,,,,,,,,,,,,,,,,,,,q,1,0.46767616272,None,0,2.0,squaremagenta.gif,stop,,,,,,,,,,,,,,,,,,,,,,,,2.12,0.514278888702,0.000868082046509,0.46767616272,1,q,1213.10928893,,,,,,,,,,,,,,,,,,,,,,,,,,,,,,,,,2015_Jul_07_1410,59.8777406285,LearningTask,1,82,
-200,a,-200,,,,,,,,,,,,,,,,,2,0,2,0,13,2,54,3,,,,,,,,,,,,,,,,,,,,,,,,,,,,,a,1,0.401036977768,None,0,0.5,trianglewhite.gif,stop,,,,,,,,,,,,,,,,,,,,,,,,0.54,0.514523983002,0.000916004180908,0.401036977768,1,a,1216.11280894,,,,,,,,,,,,,,,,,,,,,,,,,,,,,,,,,2015_Jul_07_1410,59.8777406285,LearningTask,1,82,
-200,q,200,,,,,,,,,,,,,,,,,2,0,2,0,13,3,55,1,,,,,,,,,,,,,,,,,,,,,,,,,,,,,q,1,0.38427901268,None,0,4.0,diamondgray.gif,stop,,,,,,,,,,,,,,,,,,,,,,,,4.14,0.514054775238,0.000913858413696,0.38427901268,1,q,1219.1160109,,,,,,,,,,,,,,,,,,,,,,,,,,,,,,,,,2015_Jul_07_1410,59.8777406285,LearningTask,1,82,
-200,a,-200,,,,,,,,,,,,,,,,,2,0,2,0,14,0,56,3,,,,,,,,,,,,,,,,,,,,,,,,,,,,,a,1,0.384140014648,None,0,2.0,circleyellow.gif,go,,,,,,,,,,,,,,,,,,,,,,,,2.08,0.514559030533,0.000936031341553,0.384140014648,1,a,1222.11993194,,,,,,,,,,,,,,,,,,,,,,,,,,,,,,,,,2015_Jul_07_1410,59.8777406285,LearningTask,1,82,
200,s,-200,,,,,,,,,,,,,,,,,2,0,2,0,14,1,57,2,,,,,,,,,,,,,,,,,,,,,,,,,,,,,s,1,0.551126003265,None,0,0.5,invertedtriangleblue.gif,go,,,,,,,,,,,,,,,,,,,,,,,,0.72,0.514364004135,0.000874042510986,0.551126003265,1,s,1225.12291694,,,,,,,,,,,,,,,,,,,,,,,,,,,,,,,,,2015_Jul_07_1410,59.8777406285,LearningTask,1,82,
200,w,200,,,,,,,,,,,,,,,,,2,0,2,0,14,2,58,0,,,,,,,,,,,,,,,,,,,,,,,,,,,,,w,1,0.351129055023,None,0,0.5,trianglewhite.gif,stop,,,,,,,,,,,,,,,,,,,,,,,,0.4,0.513927936554,0.000875949859619,0.351129055023,1,w,1228.12629199,,,,,,,,,,,,,,,,,,,,,,,,,,,,,,,,,2015_Jul_07_1410,59.8777406285,LearningTask,1,82,
200,s,-200,,,,,,,,,,,,,,,,,2,0,2,0,14,3,59,2,,,,,,,,,,,,,,,,,,,,,,,,,,,,,s,1,0.568089962006,None,0,4.0,lineorange.gif,go,,,,,,,,,,,,,,,,,,,,,,,,3.76,0.514012098312,0.000994920730591,0.568089962006,1,s,1231.12971091,,,,,,,,,,,,,,,,,,,,,,,,,,,,,,,,,2015_Jul_07_1410,59.8777406285,LearningTask,1,82,
200,s,-200,,,,,,,,,,,,,,,,,2,0,2,0,15,0,60,2,,,,,,,,,,,,,,,,,,,,,,,,,,,,,s,1,0.451375007629,None,0,1.0,hexagoncyan.gif,stop,,,,,,,,,,,,,,,,,,,,,,,,1.16,0.51410984993,0.000890970230103,0.451375007629,1,s,1234.13339686,,,,,,,,,,,,,,,,,,,,,,,,,,,,,,,,,2015_Jul_07_1410,59.8777406285,LearningTask,1,82,
200,s,-200,,,,,,,,,,,,,,,,,2,0,2,0,15,1,61,2,,,,,,,,,,,,,,,,,,,,,,,,,,,,,s,1,0.500618934631,None,0,1.0,crossgreen.gif,go,,,,,,,,,,,,,,,,,,,,,,,,1.02,0.514007091522,0.000874042510986,0.500618934631,1,s,1237.13712692,,,,,,,,,,,,,,,,,,,,,,,,,,,,,,,,,2015_Jul_07_1410,59.8777406285,LearningTask,1,82,
200,s,-200,,,,,,,,,,,,,,,,,2,0,2,0,15,2,62,2,,,,,,,,,,,,,,,,,,,,,,,,,,,,,s,1,0.433214902878,None,0,1.0,hexagoncyan.gif,stop,,,,,,,,,,,,,,,,,,,,,,,,1.17,0.513883113861,0.000880002975464,0.433214902878,1,s,1240.14018393,,,,,,,,,,,,,,,,,,,,,,,,,,,,,,,,,2015_Jul_07_1410,59.8777406285,LearningTask,1,82,
-200,q,200,,,,,,,,,,,,,,,,,2,0,2,0,15,3,63,1,,,,,,,,,,,,,,,,,,,,,,,,,,,,,q,1,0.400429010391,None,0,4.0,lineorange.gif,go,,,,,,,,,,,,,,,,,,,,,,,,4.15,0.51392698288,0.000869035720825,0.400429010391,1,q,1243.14332104,,,,,,,,,,,,,,,,,,,,,,,,,,,,,,,,,2015_Jul_07_1410,59.8777406285,LearningTask,1,82,
-200,a,-200,,,,,,,,,,,,,,,,,2,0,2,0,16,0,64,3,,,,,,,,,,,,,,,,,,,,,,,,,,,,,a,1,0.400794029236,None,0,0.5,invertedtriangleblue.gif,go,,,,,,,,,,,,,,,,,,,,,,,,0.48,0.514178037643,0.000877857208252,0.400794029236,1,a,1246.1473279,,,,,,,,,,,,,,,,,,,,,,,,,,,,,,,,,2015_Jul_07_1410,59.8777406285,LearningTask,1,82,
200,w,200,,,,,,,,,,,,,,,,,2,0,2,0,16,1,65,0,,,,,,,,,,,,,,,,,,,,,,,,,,,,,w,1,0.367370128632,None,0,2.0,squaremagenta.gif,stop,,,,,,,,,,,,,,,,,,,,,,,,0,0.513364076614,0.000909090042114,0.367370128632,1,w,1249.14984584,,,,,,,,,,,,,,,,,,,,,,,,,,,,,,,,,2015_Jul_07_1410,59.8777406285,LearningTask,1,82,
-200,a,-200,,,,,,,,,,,,,,,,,2,0,2,0,16,2,66,3,,,,,,,,,,,,,,,,,,,,,,,,,,,,,a,1,0.500282049179,None,0,1.0,crossgreen.gif,go,,,,,,,,,,,,,,,,,,,,,,,,1.19,0.514867067337,0.000876188278198,0.500282049179,1,a,1252.15347695,,,,,,,,,,,,,,,,,,,,,,,,,,,,,,,,,2015_Jul_07_1410,59.8777406285,LearningTask,1,82,
200,w,200,,,,,,,,,,,,,,,,,2,0,2,0,16,3,67,0,,,,,,,,,,,,,,,,,,,,,,,,,,,,,w,1,0.434064865112,None,0,4.0,diamondgray.gif,stop,,,,,,,,,,,,,,,,,,,,,,,,3.89,0.51414513588,0.000871181488037,0.434064865112,1,w,1255.15692496,,,,,,,,,,,,,,,,,,,,,,,,,,,,,,,,,2015_Jul_07_1410,59.8777406285,LearningTask,1,82,
-200,a,-200,,,,,,,,,,,,,,,,,2,0,2,0,17,0,68,3,,,,,,,,,,,,,,,,,,,,,,,,,,,,,a,1,0.61795592308,None,0,0.5,trianglewhite.gif,stop,,,,,,,,,,,,,,,,,,,,,,,,0,0.513976097107,0.00090503692627,0.61795592308,1,a,1258.16032791,,,,,,,,,,,,,,,,,,,,,,,,,,,,,,,,,2015_Jul_07_1410,59.8777406285,LearningTask,1,82,
200,w,200,,,,,,,,,,,,,,,,,2,0,2,0,17,1,69,0,,,,,,,,,,,,,,,,,,,,,,,,,,,,,w,1,0.401168107986,None,0,4.0,diamondgray.gif,stop,,,,,,,,,,,,,,,,,,,,,,,,3.86,0.514199018478,0.00105810165405,0.401168107986,1,w,1261.1633029,,,,,,,,,,,,,,,,,,,,,,,,,,,,,,,,,2015_Jul_07_1410,59.8777406285,LearningTask,1,82,
200,s,-200,,,,,,,,,,,,,,,,,2,0,2,0,17,2,70,2,,,,,,,,,,,,,,,,,,,,,,,,,,,,,s,1,0.60093998909,None,0,2.0,squaremagenta.gif,stop,,,,,,,,,,,,,,,,,,,,,,,,2.2,0.514508008957,0.000877857208252,0.60093998909,1,s,1264.16689491,,,,,,,,,,,,,,,,,,,,,,,,,,,,,,,,,2015_Jul_07_1410,59.8777406285,LearningTask,1,82,
-200,a,-200,,,,,,,,,,,,,,,,,2,0,2,0,17,3,71,3,,,,,,,,,,,,,,,,,,,,,,,,,,,,,a,1,0.434235095978,None,0,2.0,circleyellow.gif,go,,,,,,,,,,,,,,,,,,,,,,,,1.83,0.514101982117,0.000910043716431,0.434235095978,1,a,1267.17024803,,,,,,,,,,,,,,,,,,,,,,,,,,,,,,,,,2015_Jul_07_1410,59.8777406285,LearningTask,1,82,
200,s,-200,,,,,,,,,,,,,,,,,2,0,2,0,18,0,72,2,,,,,,,,,,,,,,,,,,,,,,,,,,,,,s,1,0.53505897522,None,0,2.0,circleyellow.gif,go,,,,,,,,,,,,,,,,,,,,,,,,2.1,0.51406288147,0.00128602981567,0.53505897522,1,s,1270.17384601,,,,,,,,,,,,,,,,,,,,,,,,,,,,,,,,,2015_Jul_07_1410,59.8777406285,LearningTask,1,82,
200,w,200,,,,,,,,,,,,,,,,,2,0,2,0,18,1,73,0,,,,,,,,,,,,,,,,,,,,,,,,,,,,,w,1,0.467502117157,None,0,4.0,lineorange.gif,go,,,,,,,,,,,,,,,,,,,,,,,,3.81,0.514252901077,0.000869035720825,0.467502117157,1,w,1273.17705393,,,,,,,,,,,,,,,,,,,,,,,,,,,,,,,,,2015_Jul_07_1410,59.8777406285,LearningTask,1,82,
-200,q,200,,,,,,,,,,,,,,,,,2,0,2,0,18,2,74,1,,,,,,,,,,,,,,,,,,,,,,,,,,,,,q,1,0.400398015976,None,0,4.0,lineorange.gif,go,,,,,,,,,,,,,,,,,,,,,,,,3.87,0.514449119568,0.000869989395142,0.400398015976,1,q,1276.18044591,,,,,,,,,,,,,,,,,,,,,,,,,,,,,,,,,2015_Jul_07_1410,59.8777406285,LearningTask,1,82,
200,s,-200,,,,,,,,,,,,,,,,,2,0,2,0,18,3,75,2,,,,,,,,,,,,,,,,,,,,,,,,,,,,,s,1,0.568103075027,None,0,4.0,lineorange.gif,go,,,,,,,,,,,,,,,,,,,,,,,,3.78,0.513671875,0.00295901298523,0.568103075027,1,s,1279.1837399,,,,,,,,,,,,,,,,,,,,,,,,,,,,,,,,,2015_Jul_07_1410,59.8777406285,LearningTask,1,82,
200,w,200,,,,,,,,,,,,,,,,,2,0,2,0,19,0,76,0,,,,,,,,,,,,,,,,,,,,,,,,,,,,,w,1,0.417798995972,None,0,1.0,crossgreen.gif,go,,,,,,,,,,,,,,,,,,,,,,,,0,0.514127969742,0.000861167907715,0.417798995972,1,w,1282.18736291,,,,,,,,,,,,,,,,,,,,,,,,,,,,,,,,,2015_Jul_07_1410,59.8777406285,LearningTask,1,82,
200,w,200,,,,,,,,,,,,,,,,,2,0,2,0,19,1,77,0,,,,,,,,,,,,,,,,,,,,,,,,,,,,,w,1,0.367281198502,None,0,2.0,circleyellow.gif,go,,,,,,,,,,,,,,,,,,,,,,,,0,0.514208078384,0.00087308883667,0.367281198502,1,w,1285.19071293,,,,,,,,,,,,,,,,,,,,,,,,,,,,,,,,,2015_Jul_07_1410,59.8777406285,LearningTask,1,82,
-200,q,200,,,,,,,,,,,,,,,,,2,0,2,0,19,2,78,1,,,,,,,,,,,,,,,,,,,,,,,,,,,,,q,1,0.417526006699,None,0,4.0,lineorange.gif,go,,,,,,,,,,,,,,,,,,,,,,,,3.9,0.513592004776,0.000961780548096,0.417526006699,1,q,1288.193887,,,,,,,,,,,,,,,,,,,,,,,,,,,,,,,,,2015_Jul_07_1410,59.8777406285,LearningTask,1,82,
-200,a,-200,,,,,,,,,,,,,,,,,2,0,2,0,19,3,79,3,,,,,,,,,,,,,,,,,,,,,,,,,,,,,a,1,0.417207956314,None,0,2.0,squaremagenta.gif,stop,,,,,,,,,,,,,,,,,,,,,,,,1.89,0.514909029007,0.000859022140503,0.417207956314,1,a,1291.19734097,,,,,,,,,,,,,,,,,,,,,,,,,,,,,,,,,2015_Jul_07_1410,59.8777406285,LearningTask,1,82,
-200,a,-200,,,,,,,,,,,,,,,,,2,0,2,0,20,0,80,3,,,,,,,,,,,,,,,,,,,,,,,,,,,,,a,1,0.517965078354,None,0,4.0,diamondgray.gif,stop,,,,,,,,,,,,,,,,,,,,,,,,4.1,0.513908147812,0.000910043716431,0.517965078354,1,a,1294.2006669,,,,,,,,,,,,,,,,,,,,,,,,,,,,,,,,,2015_Jul_07_1410,59.8777406285,LearningTask,1,82,
200,w,200,,,,,,,,,,,,,,,,,2,0,2,0,20,1,81,0,,,,,,,,,,,,,,,,,,,,,,,,,,,,,w,1,0.417788982391,None,0,1.0,crossgreen.gif,go,,,,,,,,,,,,,,,,,,,,,,,,0.77,0.514579057693,0.000921010971069,0.417788982391,1,w,1297.20454288,,,,,,,,,,,,,,,,,,,,,,,,,,,,,,,,,2015_Jul_07_1410,59.8777406285,LearningTask,1,82,
-200,a,-200,,,,,,,,,,,,,,,,,2,0,2,0,20,2,82,3,,,,,,,,,,,,,,,,,,,,,,,,,,,,,a,1,0.434465169907,None,0,2.0,squaremagenta.gif,stop,,,,,,,,,,,,,,,,,,,,,,,,1.93,0.513531923294,0.00092601776123,0.434465169907,1,a,1300.20764494,,,,,,,,,,,,,,,,,,,,,,,,,,,,,,,,,2015_Jul_07_1410,59.8777406285,LearningTask,1,82,
200,w,200,,,,,,,,,,,,,,,,,2,0,2,0,20,3,83,0,,,,,,,,,,,,,,,,,,,,,,,,,,,,,w,1,0.334599971771,None,0,1.0,hexagoncyan.gif,stop,,,,,,,,,,,,,,,,,,,,,,,,0,0.514025211334,0.000899076461792,0.334599971771,1,w,1303.21083784,,,,,,,,,,,,,,,,,,,,,,,,,,,,,,,,,2015_Jul_07_1410,59.8777406285,LearningTask,1,82,
-200,a,-200,,,,,,,,,,,,,,,,,2,0,2,0,21,0,84,3,,,,,,,,,,,,,,,,,,,,,,,,,,,,,a,1,0.433974027634,None,0,1.0,hexagoncyan.gif,stop,,,,,,,,,,,,,,,,,,,,,,,,0.9,0.514303922653,0.000929117202759,0.433974027634,1,a,1306.21391296,,,,,,,,,,,,,,,,,,,,,,,,,,,,,,,,,2015_Jul_07_1410,59.8777406285,LearningTask,1,82,
200,w,200,,,,,,,,,,,,,,,,,2,0,2,0,21,1,85,0,,,,,,,,,,,,,,,,,,,,,,,,,,,,,w,1,0.451689004898,None,0,4.0,diamondgray.gif,stop,,,,,,,,,,,,,,,,,,,,,,,,4.06,0.514344930649,0.000890016555786,0.451689004898,1,w,1309.21816707,,,,,,,,,,,,,,,,,,,,,,,,,,,,,,,,,2015_Jul_07_1410,59.8777406285,LearningTask,1,82,
200,s,-200,,,,,,,,,,,,,,,,,2,0,2,0,21,2,86,2,,,,,,,,,,,,,,,,,,,,,,,,,,,,,s,1,0.600771903992,None,0,0.5,invertedtriangleblue.gif,go,,,,,,,,,,,,,,,,,,,,,,,,0.69,0.51358795166,0.000881910324097,0.600771903992,1,s,1312.22074294,,,,,,,,,,,,,,,,,,,,,,,,,,,,,,,,,2015_Jul_07_1410,59.8777406285,LearningTask,1,82,
-200,a,-200,,,,,,,,,,,,,,,,,2,0,2,0,21,3,87,3,,,,,,,,,,,,,,,,,,,,,,,,,,,,,a,1,0.484656095505,None,0,0.5,trianglewhite.gif,stop,,,,,,,,,,,,,,,,,,,,,,,,0.51,0.514053106308,0.000887155532837,0.484656095505,1,a,1315.22453284,,,,,,,,,,,,,,,,,,,,,,,,,,,,,,,,,2015_Jul_07_1410,59.8777406285,LearningTask,1,82,
200,s,-200,,,,,,,,,,,,,,,,,2,0,2,0,22,0,88,2,,,,,,,,,,,,,,,,,,,,,,,,,,,,,s,1,0.568205118179,None,0,4.0,diamondgray.gif,stop,,,,,,,,,,,,,,,,,,,,,,,,4.2,0.51394701004,0.000868082046509,0.568205118179,1,s,1318.22784495,,,,,,,,,,,,,,,,,,,,,,,,,,,,,,,,,2015_Jul_07_1410,59.8777406285,LearningTask,1,82,
-200,q,200,,,,,,,,,,,,,,,,,2,0,2,0,22,1,89,1,,,,,,,,,,,,,,,,,,,,,,,,,,,,,q,1,0.384073972702,None,0,0.5,invertedtriangleblue.gif,go,,,,,,,,,,,,,,,,,,,,,,,,0.61,0.514324903488,0.00088095664978,0.384073972702,1,q,1321.23123503,,,,,,,,,,,,,,,,,,,,,,,,,,,,,,,,,2015_Jul_07_1410,59.8777406285,LearningTask,1,82,
-200,a,-200,,,,,,,,,,,,,,,,,2,0,2,0,22,2,90,3,,,,,,,,,,,,,,,,,,,,,,,,,,,,,a,1,0.434154987335,None,0,2.0,squaremagenta.gif,stop,,,,,,,,,,,,,,,,,,,,,,,,0,0.514089107513,0.000992059707642,0.434154987335,1,a,1324.23422885,,,,,,,,,,,,,,,,,,,,,,,,,,,,,,,,,2015_Jul_07_1410,59.8777406285,LearningTask,1,82,
200,w,200,,,,,,,,,,,,,,,,,2,0,2,0,22,3,91,0,,,,,,,,,,,,,,,,,,,,,,,,,,,,,w,1,0.334228992462,None,0,0.5,trianglewhite.gif,stop,,,,,,,,,,,,,,,,,,,,,,,,0,0.514667987823,0.000931978225708,0.334228992462,1,w,1327.23837304,,,,,,,,,,,,,,,,,,,,,,,,,,,,,,,,,2015_Jul_07_1410,59.8777406285,LearningTask,1,82,
-200,q,200,,,,,,,,,,,,,,,,,2,0,2,0,23,0,92,1,,,,,,,,,,,,,,,,,,,,,,,,,,,,,q,1,0.400619029999,None,0,0.5,invertedtriangleblue.gif,go,,,,,,,,,,,,,,,,,,,,,,,,0.61,0.513884067535,0.000874996185303,0.400619029999,1,q,1330.2413919,,,,,,,,,,,,,,,,,,,,,,,,,,,,,,,,,2015_Jul_07_1410,59.8777406285,LearningTask,1,82,
200,s,-200,,,,,,,,,,,,,,,,,2,0,2,0,23,1,93,2,,,,,,,,,,,,,,,,,,,,,,,,,,,,,s,1,0.601102113724,None,0,4.0,lineorange.gif,go,,,,,,,,,,,,,,,,,,,,,,,,4.22,0.513902902603,0.000933885574341,0.601102113724,1,s,1333.24450684,,,,,,,,,,,,,,,,,,,,,,,,,,,,,,,,,2015_Jul_07_1410,59.8777406285,LearningTask,1,82,
-200,a,-200,,,,,,,,,,,,,,,,,2,0,2,0,23,2,94,3,,,,,,,,,,,,,,,,,,,,,,,,,,,,,a,1,0.417184114456,None,0,4.0,diamondgray.gif,stop,,,,,,,,,,,,,,,,,,,,,,,,4.11,0.514580011368,0.000872135162354,0.417184114456,1,a,1336.24783301,,,,,,,,,,,,,,,,,,,,,,,,,,,,,,,,,2015_Jul_07_1410,59.8777406285,LearningTask,1,82,
-200,q,200,,,,,,,,,,,,,,,,,2,0,2,0,23,3,95,1,,,,,,,,,,,,,,,,,,,,,,,,,,,,,q,1,0.351020097733,None,0,2.0,squaremagenta.gif,stop,,,,,,,,,,,,,,,,,,,,,,,,1.97,0.514706850052,0.000869035720825,0.351020097733,1,q,1339.25131893,,,,,,,,,,,,,,,,,,,,,,,,,,,,,,,,,2015_Jul_07_1410,59.8777406285,LearningTask,1,82,
-200,q,200,,,,,,,,,,,,,,,,,2,0,2,0,24,0,96,1,,,,,,,,,,,,,,,,,,,,,,,,,,,,,q,1,0.40100812912,None,0,2.0,squaremagenta.gif,stop,,,,,,,,,,,,,,,,,,,,,,,,0,0.513911962509,0.000877141952515,0.48464012146,0,a,1342.25478792,,,1.79,0.515335083008,0.000931024551392,0.40100812912,1,q,1345.25865889,,,,,,,,,,,,,,,,,,,,,,,,2015_Jul_07_1410,59.8777406285,LearningTask,1,82,
-200,q,200,,,,,,,,,,,,,,,,,2,0,2,0,24,1,97,1,,,,,,,,,,,,,,,,,,,,,,,,,,,,,q,1,0.384334087372,None,0,0.5,invertedtriangleblue.gif,go,,,,,,,,,,,,,,,,,,,,,,,,0,0.513351917267,0.000891923904419,0.384334087372,1,q,1348.26176786,,,,,,,,,,,,,,,,,,,,,,,,,,,,,,,,,2015_Jul_07_1410,59.8777406285,LearningTask,1,82,
-200,a,-200,,,,,,,,,,,,,,,,,2,0,2,0,24,2,98,3,,,,,,,,,,,,,,,,,,,,,,,,,,,,,a,1,0.40047287941,None,0,4.0,lineorange.gif,go,,,,,,,,,,,,,,,,,,,,,,,,3.9,0.513813018799,0.00089693069458,0.40047287941,1,a,1351.26488805,,,,,,,,,,,,,,,,,,,,,,,,,,,,,,,,,2015_Jul_07_1410,59.8777406285,LearningTask,1,82,
200,w,200,,,,,,,,,,,,,,,,,2,0,2,0,24,3,99,0,,,,,,,,,,,,,,,,,,,,,,,,,,,,,w,1,0.451169013977,None,0,1.0,crossgreen.gif,go,,,,,,,,,,,,,,,,,,,,,,,,0.81,0.514158010483,0.000916004180908,0.451169013977,1,w,1354.268332,,,,,,,,,,,,,,,,,,,,,,,,,,,,,,,,,2015_Jul_07_1410,59.8777406285,LearningTask,1,82,
,,,,,,,,,,,,,,,,,,,2,0,2,0,,,,,,,,,,,,,,,,,,,,,,,,,,,,,,,,,,,,,,,,,,,,,,,,,,,,,,,,,,,,,,,,,,,,,,,9,60.4236299992,,,,,,,,,,,,,,,,,,,,,,,,,,,,,,,2015_Jul_07_1410,59.8777406285,LearningTask,1,82,
-200,a,-200,,,,,,,,,,,,,,,,,3,0,3,0,0,0,0,3,,,,,,,,,,,,,,,,,,,,,,,,,,,,,a,1,0.450531005859,None,0,2.0,circleyellow.gif,go,,,,,,,,,,,,,,,,,,,,,,,,2.24,0.510668039322,0.000879049301147,0.450531005859,1,a,1418.52467299,,,,,,,,,,,,,,,,,,,,,,,,,,,,,,,,,2015_Jul_07_1410,59.8777406285,LearningTask,1,82,
200,w,200,,,,,,,,,,,,,,,,,3,0,3,0,0,1,1,0,,,,,,,,,,,,,,,,,,,,,,,,,,,,,w,1,0.36759018898,None,0,4.0,lineorange.gif,go,,,,,,,,,,,,,,,,,,,,,,,,3.85,0.513293981552,0.000870943069458,0.36759018898,1,w,1421.527529,,,,,,,,,,,,,,,,,,,,,,,,,,,,,,,,,2015_Jul_07_1410,59.8777406285,LearningTask,1,82,
200,s,-200,,,,,,,,,,,,,,,,,3,0,3,0,0,2,2,2,,,,,,,,,,,,,,,,,,,,,,,,,,,,,s,1,0.551356077194,None,0,0.5,trianglewhite.gif,stop,,,,,,,,,,,,,,,,,,,,,,,,0.37,0.514009952545,0.000938892364502,0.551356077194,1,s,1424.53035688,,,,,,,,,,,,,,,,,,,,,,,,,,,,,,,,,2015_Jul_07_1410,59.8777406285,LearningTask,1,82,
