	xPos	corrAns	yPos	corrGoResp	yPosGoStim	xPosGoStim	pracTrials.thisRepN	pracTrials.thisTrialN	pracTrials.thisN	pracTrials.thisIndex	ReDoLoopPrac.thisRepN	ReDoLoopPrac.thisTrialN	ReDoLoopPrac.thisN	ReDoLoopPrac.thisIndex	ReDoLoopPrac.thisTrial	pracStopTrials.thisRepN	pracStopTrials.thisTrialN	pracStopTrials.thisN	pracStopTrials.thisIndex	Blocks.thisRepN	Blocks.thisTrialN	Blocks.thisN	Blocks.thisIndex	trials.thisRepN	trials.thisTrialN	trials.thisN	trials.thisIndex	ReDoLoopMain.thisRepN	ReDoLoopMain.thisTrialN	ReDoLoopMain.thisN	ReDoLoopMain.thisIndex	ReDoLoopMain.thisTrial	StopBlocks.thisRepN	StopBlocks.thisTrialN	StopBlocks.thisN	StopBlocks.thisIndex	StopTrials.thisRepN	StopTrials.thisTrialN	StopTrials.thisN	StopTrials.thisIndex	auctionBlocks.thisRepN	auctionBlocks.thisTrialN	auctionBlocks.thisN	auctionBlocks.thisIndex	auctionTrials.thisRepN	auctionTrials.thisTrialN	auctionTrials.thisN	auctionTrials.thisIndex	learningTrialList	learningPracTrialList	stopTrialList	stopPracTrialList	auctionTrialList	ok1.keys	ok1.rt	resp.keys	resp.corr	feedbackResp.keys	feedbackResp.corr	feedbackResp.rt	currentReward	currentStimulus	currentStimType	firstPracComputedRewardOutput	firstPracLearningStimOnset	firstPracLearningFixOnset	firstPracPresentationRT	firstPracPresentationAcc	firstPracPresentationResp	firstPracEndTrialTimeStamp	resp.rt	secondPracComputedRewardOutput	secondPracLearningStimOnset	secondPracLearningFixOnset	secondPracPresentationRT	secondPracPresentationAcc	secondPracPresentationResp	secondPracEndTrialTimeStamp	StartTrialTimeStamp	trialType	goStim	stimType	stopStimValue	goResp.keys	goResp.corr	goResp.rt	key_resp_9.keys	key_resp_9.corr	fixStopOnset	goStimOnset	stopSignalOnset	EndTrialTimeStamp	key_resp_3.keys	key_resp_3.rt	firstComputedRewardOutput	firstLearningStimOnset	firstLearningFixOnset	firstPresentationRT	firstPresentationAcc	firstPresentationResp	firstEndTrialTimeStamp	secondComputedRewardOutput	secondLearningStimOnset	secondLearningFixOnset	secondPresentationRT	secondPresentationAcc	secondPresentationResp	secondEndTrialTimeStamp	key_resp_7.keys	key_resp_7.rt	beginningSSD	EndingSSD	key_resp_9.rt	key_resp_4.keys	key_resp_4.rt	auctionResponse.keys	auctionResponse.rt	auctionStimDuration	auctionStim	auctionAmounts	auctionStimValue	auctionCondition	chosenAuctionAmount	key_resp_5.keys	key_resp_5.rt	shuffledRewardList	chosenReward1	chosenReward2	chosenReward3	chosenReward4	chosenReward5	key_resp_6.keys	key_resp_6.rt	date	frameRate	expName	session	participant	Unnamed: 138
0																																																	[]	[]	[]	[]	[]	9.0	69.9812579155																																																																															2015_Jun_23_1355	60.055727217299996	LearningTask	1	62	
1	-200.0	q	200.0				0.0	0.0	0.0	9.0																																														q	1.0	None	0.0	0.0573179721832	0.5	invertedtriangleorange.gif	stop	0.0	0.507023096085	0.0029489994049099995	[]	0.0	None	83.6209959984	0.434503078461	0.0	0.515316009521	0.0012400150299100002	0.434503078461	1.0	q	86.62409687040001																																																								2015_Jun_23_1355	60.055727217299996	LearningTask	1	62	
2	200.0	w	200.0				0.0	1.0	1.0	8.0																																														w	1.0	None	0.0		1.0	diamondcyan.gif	stop	1.09	0.514873981476	0.00149512290955	0.400847196579	1.0	w	89.6271297932	0.400847196579																																																															2015_Jun_23_1355	60.055727217299996	LearningTask	1	62	
3	200.0	s	-200.0				0.0	2.0	2.0	6.0																																														s	1.0	None	0.0		1.0	diamondcyan.gif	stop	1.23	0.51523399353	0.0008869171142580001	0.434075117111	1.0	s	92.6303389072	0.434075117111																																																															2015_Jun_23_1355	60.055727217299996	LearningTask	1	62	
4	200.0	w	200.0				0.0	3.0	3.0	0.0																																														w	1.0	None	0.0		4.0	trianglegray.gif	stop	0.0	0.515028953552	0.0013570785522500001	0.501169919968	1.0	w	95.63409495350001	0.501169919968																																																															2015_Jun_23_1355	60.055727217299996	LearningTask	1	62	
5	-200.0	q	200.0				0.0	4.0	4.0	5.0																																														q	1.0	None	0.0		1.0	diamondcyan.gif	stop	1.11	0.515152931213	0.00110101699829	0.45100402832	1.0	q	98.6373128891	0.45100402831999997																																																															2015_Jun_23_1355	60.055727217299996	LearningTask	1	62	
6	-200.0	a	-200.0				0.0	5.0	5.0	3.0																																														a	1.0	None	0.0		2.0	lineblue.gif	stop	2.13	0.515258073807	0.00134491920471	0.400406837463	1.0	a	101.64090395	0.400406837463																																																															2015_Jun_23_1355	60.055727217299996	LearningTask	1	62	
7	-200.0	a	-200.0				0.0	6.0	6.0	7.0																																														a	1.0	None	0.0		1.0	diamondcyan.gif	stop	0.78	0.514746189117	0.0008959770202639998	0.351405858994	1.0	a	104.64394688600001	0.351405858994																																																															2015_Jun_23_1355	60.055727217299996	LearningTask	1	62	
8	-200.0	q	200.0				0.0	7.0	7.0	1.0																																														q	1.0	None	0.0		1.0	diamondcyan.gif	stop	0.78	0.514870166779	0.0009520053863530001	0.350708961487	1.0	q	107.647243977	0.350708961487																																																															2015_Jun_23_1355	60.055727217299996	LearningTask	1	62	
9	200.0	s	-200.0				0.0	8.0	8.0	2.0																																														s	1.0	None	0.0		2.0	lineblue.gif	stop	1.92	0.515282869339	0.000962018966675	0.384811878204	1.0	s	110.650702	0.384811878204																																																															2015_Jun_23_1355	60.055727217299996	LearningTask	1	62	
10	200.0	w	200.0				0.0	9.0	9.0	4.0																																														w	1.0	None	0.0		0.5	squaregreen.gif	go	0.0	0.515615940094	0.00129008293152	0.350402832031	1.0	w	113.654066801	0.35040283203100003																																																															2015_Jun_23_1355	60.055727217299996	LearningTask	1	62	
11				z	0.0	-200.0										0.0	0.0	0.0	0.0																																																												182.536314964	stop	lineblue.gif	stop	2.0	z	1.0	0.38384318351700003	None	0.0	0.0012888908386199998	0.510603904724	0.7609429359440001	185.534756899																																										2015_Jun_23_1355	60.055727217299996	LearningTask	1	62	
12				z	0.0	-200.0										0.0	1.0	1.0	0.0																																																												185.53515386599997	go	crossyellow.gif	go	2.0	z	1.0	0.517780065536	None	0.0	0.00182199478149	0.5152070522309999		188.537497997																																										2015_Jun_23_1355	60.055727217299996	LearningTask	1	62	
13				m	0.0	200.0										1.0	0.0	2.0	1.0																																																												188.538088799	go	hexagonmagenta.gif	go	1.0	m	1.0	0.384119033813	None	0.0	0.0018110275268599998	0.515667200089		191.54063296299998																																										2015_Jun_23_1355	60.055727217299996	LearningTask	1	62	
14				z	0.0	-200.0										1.0	1.0	3.0	0.0																																																												191.541001797	go	circlewhite.gif	go	4.0	z	1.0	0.467970132828	None	0.0	0.00137209892273	0.516075134277		194.544338942																																										2015_Jun_23_1355	60.055727217299996	LearningTask	1	62	
15				m	0.0	200.0										2.0	0.0	4.0	1.0																																																												194.54476690299998	go	squaregreen.gif	go	0.5	m	1.0	0.500338792801	None	0.0	0.000943899154663	0.515866041183		197.547648907																																										2015_Jun_23_1355	60.055727217299996	LearningTask	1	62	
16				z	0.0	-200.0										2.0	1.0	5.0	0.0																																																												197.548017979	go	squaregreen.gif	go	0.5	z	1.0	0.634108066559	None	0.0	0.00101089477539	0.5160868167880001		200.551196814																																										2015_Jun_23_1355	60.055727217299996	LearningTask	1	62	
17				m	0.0	200.0										3.0	0.0	6.0	1.0																																																												200.551567793	go	crossyellow.gif	go	2.0	m	1.0	0.40045809745800004	None	0.0	0.0009751319885249999	0.5159311294560001		203.554411888																																										2015_Jun_23_1355	60.055727217299996	LearningTask	1	62	
18				m	0.0	200.0										3.0	1.0	7.0	1.0																																																												203.554775953	go	squaregreen.gif	go	0.5	m	1.0	0.48477101326000005	None	0.0	0.0009479522705080001	0.515653133392		206.557973862																																										2015_Jun_23_1355	60.055727217299996	LearningTask	1	62	
19				m	0.0	200.0										4.0	0.0	8.0	1.0																																																												206.558338881	stop	diamondcyan.gif	stop	1.0	m	1.0	0.40079784393299994	None	0.0	0.00109195709229	0.515492916107	0.765722990036	209.560813904																																										2015_Jun_23_1355	60.055727217299996	LearningTask	1	62	
20				z	0.0	-200.0										4.0	1.0	9.0	0.0																																																												209.561266899	go	crossyellow.gif	go	2.0	z	1.0	0.4676458835600001	None	0.0	0.000941038131714	0.515991926193		212.56434989																																										2015_Jun_23_1355	60.055727217299996	LearningTask	1	62	
21																																																																																													9.0	8.71985507011																																								2015_Jun_23_1355	60.055727217299996	LearningTask	1	62	
22																																																						9.0	79.6225609779																																																																															2015_Jun_23_1355	60.055727217299996	LearningTask	1	62	
23	-200.0	q	200.0																	0.0	0.0	0.0	0.0	0.0	0.0	0.0	1.0																													q	1.0	None	0.0		4.0	trianglegray.gif	stop								0.46776890754699996																								3.86	0.5082101821899999	0.0008859634399410001	0.467768907547	1.0	q	304.051252842																																	2015_Jun_23_1355	60.055727217299996	LearningTask	1	62	
24	-200.0	q	200.0																	0.0	0.0	0.0	0.0	0.0	1.0	1.0	1.0																													q	1.0	None	0.0		4.0	circlewhite.gif	go								0.41775393486																								3.81	0.513850927353	0.0008838176727290001	0.41775393486	1.0	q	307.05411601099996																																	2015_Jun_23_1355	60.055727217299996	LearningTask	1	62	
25	200.0	w	200.0																	0.0	0.0	0.0	0.0	0.0	2.0	2.0	0.0																													w	1.0	None	0.0		1.0	hexagonmagenta.gif	go								0.38415288925200003																								1.12	0.514224767685	0.000951766967773	0.384152889252	1.0	w	310.057446957																																	2015_Jun_23_1355	60.055727217299996	LearningTask	1	62	
26	200.0	w	200.0																	0.0	0.0	0.0	0.0	0.0	3.0	3.0	0.0																													w	1.0	None	0.0		4.0	circlewhite.gif	go								0.400460004807																								4.18	0.514350175858	0.000909090042114	0.400460004807	1.0	w	313.060830832																																	2015_Jun_23_1355	60.055727217299996	LearningTask	1	62	
27	-200.0	q	200.0																	0.0	0.0	0.0	0.0	1.0	0.0	4.0	1.0																													q	1.0	None	0.0		4.0	trianglegray.gif	stop								0.351181983948																								0.0	0.514506101608	0.0009059906005860001	0.351181983948	1.0	q	316.064247847																																	2015_Jun_23_1355	60.055727217299996	LearningTask	1	62	
28	-200.0	q	200.0																	0.0	0.0	0.0	0.0	1.0	1.0	5.0	1.0																													q	1.0	None	0.0		1.0	hexagonmagenta.gif	go								0.35073900222800003																								0.91	0.5140450000760001	0.00094199180603	0.350739002228	1.0	q	319.06783080099996																																	2015_Jun_23_1355	60.055727217299996	LearningTask	1	62	
29	200.0	s	-200.0																	0.0	0.0	0.0	0.0	1.0	2.0	6.0	2.0																													s	1.0	None	0.0		0.5	squaregreen.gif	go								0.31809091568000003																								0.55	0.513756990433	0.0009150505065920001	0.31809091568	1.0	s	322.070813894																																	2015_Jun_23_1355	60.055727217299996	LearningTask	1	62	
30	200.0	w	200.0																	0.0	0.0	0.0	0.0	1.0	3.0	7.0	0.0																													w	1.0	None	0.0		2.0	lineblue.gif	stop								0.43364906311000007																								1.84	0.515059947968	0.0010659694671599999	0.43364906311	1.0	w	325.07475280799997																																	2015_Jun_23_1355	60.055727217299996	LearningTask	1	62	
31	-200.0	q	200.0																	0.0	0.0	0.0	0.0	2.0	0.0	8.0	1.0																													q	1.0	None	0.0		4.0	trianglegray.gif	stop								0.417895078659																								0.0	0.5137720108030001	0.0009129047393799999	0.417895078659	1.0	q	328.07777094799997																																	2015_Jun_23_1355	60.055727217299996	LearningTask	1	62	
32	200.0	w	200.0																	0.0	0.0	0.0	0.0	2.0	1.0	9.0	0.0																													w	1.0	None	0.0		0.5	squaregreen.gif	go								0.367795944214																								0.68	0.514101982117	0.000900030136108	0.367795944214	1.0	w	331.080925941																																	2015_Jun_23_1355	60.055727217299996	LearningTask	1	62	
33	-200.0	a	-200.0																	0.0	0.0	0.0	0.0	2.0	2.0	10.0	3.0																													a	1.0	None	0.0		2.0	lineblue.gif	stop								0.350805997849																								0.0	0.514543056488	0.00105500221252	0.350805997849	1.0	a	334.084707975																																	2015_Jun_23_1355	60.055727217299996	LearningTask	1	62	
34	200.0	w	200.0																	0.0	0.0	0.0	0.0	2.0	3.0	11.0	0.0																													w	1.0	None	0.0		0.5	squaregreen.gif	go								0.385056972504																								0.41	0.5136349201199999	0.0011758804321300002	0.385056972504	1.0	w	337.08745098099996																																	2015_Jun_23_1355	60.055727217299996	LearningTask	1	62	
35	-200.0	q	200.0																	0.0	0.0	0.0	0.0	3.0	0.0	12.0	1.0																													q	1.0	None	0.0		2.0	crossyellow.gif	go								0.300799846649																								0.0	0.514506816864	0.0009198188781739999	0.300799846649	1.0	q	340.090982914																																	2015_Jun_23_1355	60.055727217299996	LearningTask	1	62	
36	-200.0	q	200.0																	0.0	0.0	0.0	0.0	3.0	1.0	13.0	1.0																													q	1.0	None	0.0		0.5	squaregreen.gif	go								0.333853006363																								0.0	0.514327049255	0.0009279251098630001	0.333853006363	1.0	q	343.094432831																																	2015_Jun_23_1355	60.055727217299996	LearningTask	1	62	
37	-200.0	a	-200.0																	0.0	0.0	0.0	0.0	3.0	2.0	14.0	3.0																													a	1.0	None	0.0		1.0	hexagonmagenta.gif	go								0.384244918823																								1.0	0.51423406601	0.0008959770202639998	0.384244918823	1.0	a	346.097656965																																	2015_Jun_23_1355	60.055727217299996	LearningTask	1	62	
38	200.0	w	200.0																	0.0	0.0	0.0	0.0	3.0	3.0	15.0	0.0																													w	1.0	None	0.0		2.0	crossyellow.gif	go								0.301060914993																								1.92	0.514410972595	0.00104904174805	0.301060914993	1.0	w	349.10113477699997																																	2015_Jun_23_1355	60.055727217299996	LearningTask	1	62	
39	-200.0	a	-200.0																	0.0	0.0	0.0	0.0	4.0	0.0	16.0	3.0																													a	1.0	None	0.0		1.0	hexagonmagenta.gif	go								0.350811004639																								1.21	0.5140311717989999	0.0009100437164310001	0.350811004639	1.0	a	352.10450887699994																																	2015_Jun_23_1355	60.055727217299996	LearningTask	1	62	
40	200.0	s	-200.0																	0.0	0.0	0.0	0.0	4.0	1.0	17.0	2.0																													s	1.0	None	0.0		1.0	hexagonmagenta.gif	go								0.40109205246																								0.0	0.514307022095	0.000907897949219	0.40109205246	1.0	s	355.107759953																																	2015_Jun_23_1355	60.055727217299996	LearningTask	1	62	
41	200.0	w	200.0																	0.0	0.0	0.0	0.0	4.0	2.0	18.0	0.0																													w	1.0	None	0.0		1.0	diamondcyan.gif	stop								0.40080690383900003																								1.04	0.514277935028	0.00095009803772	0.400806903839	1.0	w	358.111383915																																	2015_Jun_23_1355	60.055727217299996	LearningTask	1	62	
42	-200.0	q	200.0																	0.0	0.0	0.0	0.0	4.0	3.0	19.0	1.0																													q	1.0	None	0.0		1.0	diamondcyan.gif	stop								0.317353963852																								1.15	0.5138390064239999	0.00100588798523	0.317353963852	1.0	q	361.11456584900003																																	2015_Jun_23_1355	60.055727217299996	LearningTask	1	62	
43	200.0	s	-200.0																	0.0	0.0	0.0	0.0	5.0	0.0	20.0	2.0																													s	1.0	None	0.0		0.5	invertedtriangleorange.gif	stop								0.334238052368																								0.26	0.514060974121	0.0009019374847410001	0.334238052368	1.0	s	364.11783385300004																																	2015_Jun_23_1355	60.055727217299996	LearningTask	1	62	
44	200.0	s	-200.0																	0.0	0.0	0.0	0.0	5.0	1.0	21.0	2.0																													s	1.0	None	0.0		0.5	squaregreen.gif	go								0.333842992783																								0.48	0.5142738819120001	0.000902891159058	0.333842992783	1.0	s	367.12137985199996																																	2015_Jun_23_1355	60.055727217299996	LearningTask	1	62	
45	-200.0	a	-200.0																	0.0	0.0	0.0	0.0	5.0	2.0	22.0	3.0																													a	1.0	None	0.0		1.0	hexagonmagenta.gif	go								0.35108590126																								0.95	0.514167070389	0.0008940696716310001	0.35108590126	1.0	a	370.12455081900004																																	2015_Jun_23_1355	60.055727217299996	LearningTask	1	62	
46	-200.0	a	-200.0																	0.0	0.0	0.0	0.0	5.0	3.0	23.0	3.0																													a	1.0	None	0.0		2.0	crossyellow.gif	go								0.317951917648																								2.07	0.5143339633940001	0.000900983810425	0.317951917648	1.0	a	373.12835884099997																																	2015_Jun_23_1355	60.055727217299996	LearningTask	1	62	
47	200.0	s	-200.0																	0.0	0.0	0.0	0.0	6.0	0.0	24.0	2.0																													s	1.0	None	0.0		2.0	lineblue.gif	stop								0.317371845245																								2.06	0.513864040375	0.0009379386901860002	0.317371845245	1.0	s	376.131455898																																	2015_Jun_23_1355	60.055727217299996	LearningTask	1	62	
48	200.0	w	200.0																	0.0	0.0	0.0	0.0	6.0	1.0	25.0	0.0																													w	1.0	None	0.0		0.5	invertedtriangleorange.gif	stop								0.317704916																								0.65	0.5141639709470001	0.0008938312530519999	0.317704916	1.0	w	379.1346488																																	2015_Jun_23_1355	60.055727217299996	LearningTask	1	62	
49	-200.0	q	200.0																	0.0	0.0	0.0	0.0	6.0	2.0	26.0	1.0																													q	1.0	None	0.0		4.0	circlewhite.gif	go								0.35107612609899996																								4.0	0.514189004898	0.0009608268737789999	0.351076126099	1.0	q	382.138392925																																	2015_Jun_23_1355	60.055727217299996	LearningTask	1	62	
50	200.0	w	200.0																	0.0	0.0	0.0	0.0	6.0	3.0	27.0	0.0																													w	1.0	None	0.0		0.5	invertedtriangleorange.gif	stop								0.450945854187																								0.7	0.51379108429	0.0009760856628420001	0.450945854187	1.0	w	385.14130091699997																																	2015_Jun_23_1355	60.055727217299996	LearningTask	1	62	
51	-200.0	q	200.0																	0.0	0.0	0.0	0.0	7.0	0.0	28.0	1.0																													q	1.0	None	0.0		1.0	hexagonmagenta.gif	go								0.400848150253																								1.13	0.51441693306	0.000913858413696	0.400848150253	1.0	q	388.14454984699995																																	2015_Jun_23_1355	60.055727217299996	LearningTask	1	62	
52	-200.0	q	200.0																	0.0	0.0	0.0	0.0	7.0	1.0	29.0	1.0																													q	1.0	None	0.0		0.5	squaregreen.gif	go								0.35097908973700004																								0.41	0.514511108398	0.0009479522705080001	0.350979089737	1.0	q	391.148187876																																	2015_Jun_23_1355	60.055727217299996	LearningTask	1	62	
53	-200.0	a	-200.0																	0.0	0.0	0.0	0.0	7.0	2.0	30.0	3.0																													a	1.0	None	0.0		0.5	invertedtriangleorange.gif	stop								0.333889007568																								0.55	0.514409065247	0.000900030136108	0.333889007568	1.0	a	394.15137887																																	2015_Jun_23_1355	60.055727217299996	LearningTask	1	62	
54	-200.0	a	-200.0																	0.0	0.0	0.0	0.0	7.0	3.0	31.0	3.0																													a	1.0	None	0.0		0.5	squaregreen.gif	go								0.400166988373																								0.34	0.514597892761	0.00110292434692	0.400166988373	1.0	a	397.15481782																																	2015_Jun_23_1355	60.055727217299996	LearningTask	1	62	
55	200.0	w	200.0																	0.0	0.0	0.0	0.0	8.0	0.0	32.0	0.0																													w	1.0	None	0.0		1.0	diamondcyan.gif	stop								0.467973947525																								0.8	0.513920068741	0.0013849735260000001	0.467973947525	1.0	w	400.157956839																																	2015_Jun_23_1355	60.055727217299996	LearningTask	1	62	
56	200.0	s	-200.0																	0.0	0.0	0.0	0.0	8.0	1.0	33.0	2.0																													s	1.0	None	0.0		4.0	circlewhite.gif	go								0.384316921234																								0.0	0.514365911484	0.0009047985076900001	0.384316921234	1.0	s	403.16174793199997																																	2015_Jun_23_1355	60.055727217299996	LearningTask	1	62	
57	-200.0	q	200.0																	0.0	0.0	0.0	0.0	8.0	2.0	34.0	1.0																													q	1.0	None	0.0		4.0	trianglegray.gif	stop								0.334086894989																								4.14	0.513844966888	0.000968933105469	0.334086894989	1.0	q	406.164925814																																	2015_Jun_23_1355	60.055727217299996	LearningTask	1	62	
58	200.0	s	-200.0																	0.0	0.0	0.0	0.0	8.0	3.0	35.0	2.0																													s	1.0	None	0.0		2.0	crossyellow.gif	go								0.334563970566																								2.16	0.5138368606570001	0.0008938312530519999	0.334563970566	1.0	s	409.168262005																																	2015_Jun_23_1355	60.055727217299996	LearningTask	1	62	
59	200.0	w	200.0																	0.0	0.0	0.0	0.0	9.0	0.0	36.0	0.0																													w	1.0	None	0.0		0.5	invertedtriangleorange.gif	stop								0.45124006271399997																								0.33	0.5142509937290001	0.0008978843688960001	0.451240062714	1.0	w	412.171614885																																	2015_Jun_23_1355	60.055727217299996	LearningTask	1	62	
60	-200.0	a	-200.0																	0.0	0.0	0.0	0.0	9.0	1.0	37.0	3.0																													a	1.0	None	0.0		0.5	squaregreen.gif	go								0.350732803345																								0.62	0.51395201683	0.0009129047393799999	0.350732803345	1.0	a	415.17493701																																	2015_Jun_23_1355	60.055727217299996	LearningTask	1	62	
61	200.0	s	-200.0																	0.0	0.0	0.0	0.0	9.0	2.0	38.0	2.0																													s	1.0	None	0.0		1.0	diamondcyan.gif	stop								0.401352882385																								0.0	0.514073133469	0.000908136367798	0.468013048172	0.0	w	418.17812895800006	0.0	0.515693902969	0.0009710788726810001	0.401352882385	1.0	s	421.182190895																										2015_Jun_23_1355	60.055727217299996	LearningTask	1	62	
62	200.0	s	-200.0																	0.0	0.0	0.0	0.0	9.0	3.0	39.0	2.0																													s	1.0	None	0.0		0.5	squaregreen.gif	go								0.350667953491																								0.48	0.513414859772	0.0009169578552250001	0.350667953491	1.0	s	424.18513798699996																																	2015_Jun_23_1355	60.055727217299996	LearningTask	1	62	
63	-200.0	q	200.0																	0.0	0.0	0.0	0.0	10.0	0.0	40.0	1.0																													q	1.0	None	0.0		0.5	invertedtriangleorange.gif	stop								0.417175769806																								0.33	0.5140309333799999	0.000890016555786	0.417175769806	1.0	q	427.18832588199996																																	2015_Jun_23_1355	60.055727217299996	LearningTask	1	62	
64	-200.0	a	-200.0																	0.0	0.0	0.0	0.0	10.0	1.0	41.0	3.0																													a	1.0	None	0.0		1.0	hexagonmagenta.gif	go								0.351007938385																								1.18	0.5143198966979999	0.0009200572967529999	0.351007938385	1.0	a	430.192273855																																	2015_Jun_23_1355	60.055727217299996	LearningTask	1	62	
65	200.0	w	200.0																	0.0	0.0	0.0	0.0	10.0	2.0	42.0	0.0																													w	1.0	None	0.0		0.5	squaregreen.gif	go								0.38422799110399997																								0.59	0.51363992691	0.0009019374847410001	0.384227991104	1.0	w	433.194947004																																	2015_Jun_23_1355	60.055727217299996	LearningTask	1	62	
66	-200.0	q	200.0																	0.0	0.0	0.0	0.0	10.0	3.0	43.0	1.0																													q	1.0	None	0.0		1.0	hexagonmagenta.gif	go								0.350877046585																								1.1	0.514401912689	0.000898838043213	0.350877046585	1.0	q	436.198418856																																	2015_Jun_23_1355	60.055727217299996	LearningTask	1	62	
67	200.0	w	200.0																	0.0	0.0	0.0	0.0	11.0	0.0	44.0	0.0																													w	1.0	None	0.0		1.0	diamondcyan.gif	stop								0.434034824371																								0.0	0.51432800293	0.000946044921875	0.434034824371	1.0	w	439.20181489																																	2015_Jun_23_1355	60.055727217299996	LearningTask	1	62	
68	200.0	s	-200.0																	0.0	0.0	0.0	0.0	11.0	1.0	45.0	2.0																													s	1.0	None	0.0		1.0	hexagonmagenta.gif	go								0.367972135544																								0.87	0.514288902283	0.0011630058288599999	0.367972135544	1.0	s	442.20507788699996																																	2015_Jun_23_1355	60.055727217299996	LearningTask	1	62	
69	200.0	w	200.0																	0.0	0.0	0.0	0.0	11.0	2.0	46.0	0.0																													w	1.0	None	0.0		0.5	invertedtriangleorange.gif	stop								0.46716189384499995																								0.0	0.514593839645	0.0010769367217999999	0.467161893845	1.0	w	445.208279848																																	2015_Jun_23_1355	60.055727217299996	LearningTask	1	62	
70	-200.0	q	200.0																	0.0	0.0	0.0	0.0	11.0	3.0	47.0	1.0																													q	1.0	None	0.0		4.0	circlewhite.gif	go								0.35104990005500003																								0.0	0.514225959778	0.000988006591797	0.351049900055	1.0	q	448.211753845																																	2015_Jun_23_1355	60.055727217299996	LearningTask	1	62	
71	-200.0	a	-200.0																	0.0	0.0	0.0	0.0	12.0	0.0	48.0	3.0																													a	1.0	None	0.0		2.0	crossyellow.gif	go								0.283872842789																								1.97	0.514484882355	0.0009400844573969999	0.283872842789	1.0	a	451.215004921																																	2015_Jun_23_1355	60.055727217299996	LearningTask	1	62	
72	-200.0	q	200.0																	0.0	0.0	0.0	0.0	12.0	1.0	49.0	1.0																													q	1.0	None	0.0		4.0	circlewhite.gif	go								0.401011943817																								0.0	0.5141551494600001	0.00105810165405	0.401011943817	1.0	q	454.21860384900003																																	2015_Jun_23_1355	60.055727217299996	LearningTask	1	62	
73	-200.0	a	-200.0																	0.0	0.0	0.0	0.0	12.0	2.0	50.0	3.0																													a	1.0	None	0.0		0.5	squaregreen.gif	go								0.417449951172																								0.54	0.514245033264	0.0009100437164310001	0.417449951172	1.0	a	457.22203087800006																																	2015_Jun_23_1355	60.055727217299996	LearningTask	1	62	
74	200.0	w	200.0																	0.0	0.0	0.0	0.0	12.0	3.0	51.0	0.0																													w	1.0	None	0.0		2.0	lineblue.gif	stop								0.400500059128																								1.87	0.514287948608	0.0009119510650630002	0.400500059128	1.0	w	460.225381851																																	2015_Jun_23_1355	60.055727217299996	LearningTask	1	62	
75	-200.0	q	200.0																	0.0	0.0	0.0	0.0	13.0	0.0	52.0	1.0																													q	1.0	None	0.0		4.0	trianglegray.gif	stop								0.434138774872																								4.2	0.51406788826	0.0009448528289790001	0.434138774872	1.0	q	463.22875785800005																																	2015_Jun_23_1355	60.055727217299996	LearningTask	1	62	
76	200.0	s	-200.0																	0.0	0.0	0.0	0.0	13.0	1.0	53.0	2.0																													s	1.0	None	0.0		4.0	circlewhite.gif	go								0.367464065552																								4.09	0.514244794846	0.0009019374847410001	0.367464065552	1.0	s	466.23178696599996																																	2015_Jun_23_1355	60.055727217299996	LearningTask	1	62	
77	200.0	s	-200.0																	0.0	0.0	0.0	0.0	13.0	2.0	54.0	2.0																													s	1.0	None	0.0		2.0	lineblue.gif	stop								0.534691095352																								1.8	0.51459813118	0.0008912086486819999	0.534691095352	1.0	s	469.236013889																																	2015_Jun_23_1355	60.055727217299996	LearningTask	1	62	
78	200.0	w	200.0																	0.0	0.0	0.0	0.0	13.0	3.0	55.0	0.0																													w	1.0	None	0.0		0.5	squaregreen.gif	go								0.501228094101																								0.57	0.5135500431059999	0.0008950233459470001	0.501228094101	1.0	w	472.239008904																																	2015_Jun_23_1355	60.055727217299996	LearningTask	1	62	
79	200.0	s	-200.0																	0.0	0.0	0.0	0.0	14.0	0.0	56.0	2.0																													s	1.0	None	0.0		0.5	invertedtriangleorange.gif	stop								0.38423705100999994																								0.31	0.513974189758	0.000907182693481	0.38423705101	1.0	s	475.24196696300004																																	2015_Jun_23_1355	60.055727217299996	LearningTask	1	62	
80	200.0	w	200.0																	0.0	0.0	0.0	0.0	14.0	1.0	57.0	0.0																													w	1.0	None	0.0		2.0	crossyellow.gif	go								0.40044593810999995																								1.91	0.514689922333	0.00100302696228	0.40044593811	1.0	w	478.245724916																																	2015_Jun_23_1355	60.055727217299996	LearningTask	1	62	
81	-200.0	a	-200.0																	0.0	0.0	0.0	0.0	14.0	2.0	58.0	3.0																													a	1.0	None	0.0		2.0	lineblue.gif	stop								0.367403030396																								0.0	0.513654947281	0.000923871994019	0.367403030396	1.0	a	481.24875879300004																																	2015_Jun_23_1355	60.055727217299996	LearningTask	1	62	
82	-200.0	a	-200.0																	0.0	0.0	0.0	0.0	14.0	3.0	59.0	3.0																													a	1.0	None	0.0		1.0	hexagonmagenta.gif	go								0.367906093597																								0.0	0.514297962189	0.000907897949219	0.367906093597	1.0	a	484.25196289999997																																	2015_Jun_23_1355	60.055727217299996	LearningTask	1	62	
83	-200.0	q	200.0																	0.0	0.0	0.0	0.0	15.0	0.0	60.0	1.0																													q	1.0	None	0.0		1.0	hexagonmagenta.gif	go								0.36708211898800003																								1.22	0.514514923096	0.0010278224945099999	0.367082118988	1.0	q	487.25557994800005																																	2015_Jun_23_1355	60.055727217299996	LearningTask	1	62	
84	-200.0	a	-200.0																	0.0	0.0	0.0	0.0	15.0	1.0	61.0	3.0																													a	1.0	None	0.0		2.0	crossyellow.gif	go								0.434164047241																								1.81	0.5142011642459999	0.0009100437164310001	0.434164047241	1.0	a	490.258788824																																	2015_Jun_23_1355	60.055727217299996	LearningTask	1	62	
85	-200.0	q	200.0																	0.0	0.0	0.0	0.0	15.0	2.0	62.0	1.0																													q	1.0	None	0.0		0.5	squaregreen.gif	go								0.38408613205																								0.0	0.5143949985499999	0.0012578964233399999	0.38408613205	1.0	q	493.26223588																																	2015_Jun_23_1355	60.055727217299996	LearningTask	1	62	
86	200.0	s	-200.0																	0.0	0.0	0.0	0.0	15.0	3.0	63.0	2.0																													s	1.0	None	0.0		2.0	crossyellow.gif	go								0.318174123764																								0.0	0.5139780044560001	0.000902891159058	0.318174123764	1.0	s	496.265332937																																	2015_Jun_23_1355	60.055727217299996	LearningTask	1	62	
87	-200.0	a	-200.0																	0.0	0.0	0.0	0.0	16.0	0.0	64.0	3.0																													a	1.0	None	0.0		4.0	trianglegray.gif	stop								0.333925008774																								4.07	0.514986038208	0.0009469985961910001	0.333925008774	1.0	a	499.268826962																																	2015_Jun_23_1355	60.055727217299996	LearningTask	1	62	
88	200.0	s	-200.0																	0.0	0.0	0.0	0.0	16.0	1.0	65.0	2.0																													s	1.0	None	0.0		1.0	diamondcyan.gif	stop								0.367687940598																								0.92	0.514156103134	0.0009479522705080001	0.367687940598	1.0	s	502.272472858																																	2015_Jun_23_1355	60.055727217299996	LearningTask	1	62	
89	200.0	w	200.0																	0.0	0.0	0.0	0.0	16.0	2.0	66.0	0.0																													w	1.0	None	0.0		0.5	squaregreen.gif	go								0.334270000458																								0.58	0.5140399932859999	0.000890016555786	0.334270000458	1.0	w	505.27571082099996																																	2015_Jun_23_1355	60.055727217299996	LearningTask	1	62	
90	200.0	w	200.0																	0.0	0.0	0.0	0.0	16.0	3.0	67.0	0.0																													w	1.0	None	0.0		2.0	crossyellow.gif	go								0.40053296089199997																								0.0	0.514361858368	0.0008909702301030001	0.350826978683	0.0	s	508.27942299800003	2.02	0.515122890472	0.000999927520752	0.40053296089199997	1.0	w	511.282367945																										2015_Jun_23_1355	60.055727217299996	LearningTask	1	62	
91	-200.0	a	-200.0																	0.0	0.0	0.0	0.0	17.0	0.0	68.0	3.0																													a	1.0	None	0.0		1.0	hexagonmagenta.gif	go								0.45107793807999996																								0.0	0.514479160309	0.000904083251953	0.45107793808	1.0	a	514.28589201																																	2015_Jun_23_1355	60.055727217299996	LearningTask	1	62	
92	-200.0	a	-200.0																	0.0	0.0	0.0	0.0	17.0	1.0	69.0	3.0																													a	1.0	None	0.0		1.0	hexagonmagenta.gif	go								0.46741890907300004																								0.76	0.514084100723	0.0008909702301030001	0.467418909073	1.0	a	517.289280891																																	2015_Jun_23_1355	60.055727217299996	LearningTask	1	62	
93	-200.0	q	200.0																	0.0	0.0	0.0	0.0	17.0	2.0	70.0	1.0																													q	1.0	None	0.0		0.5	squaregreen.gif	go								0.401204824448																								0.3	0.513686180115	0.0009059906005860001	0.401204824448	1.0	q	520.2926387790001																																	2015_Jun_23_1355	60.055727217299996	LearningTask	1	62	
94	200.0	s	-200.0																	0.0	0.0	0.0	0.0	17.0	3.0	71.0	2.0																													s	1.0	None	0.0		0.5	squaregreen.gif	go								0.367434978485																								0.0	0.5139110088350001	0.0009291172027589999	0.367434978485	1.0	s	523.295806885																																	2015_Jun_23_1355	60.055727217299996	LearningTask	1	62	
95	200.0	w	200.0																	0.0	0.0	0.0	0.0	18.0	0.0	72.0	0.0																													w	1.0	None	0.0		4.0	trianglegray.gif	stop								0.384194135666																								0.0	0.51429605484	0.0009570121765139998	0.384194135666	1.0	w	526.299198866																																	2015_Jun_23_1355	60.055727217299996	LearningTask	1	62	
96	200.0	s	-200.0																	0.0	0.0	0.0	0.0	18.0	1.0	73.0	2.0																													s	1.0	None	0.0		0.5	invertedtriangleorange.gif	stop								0.417462110519																								0.41	0.514167070389	0.0008959770202639998	0.417462110519	1.0	s	529.302491903																																	2015_Jun_23_1355	60.055727217299996	LearningTask	1	62	
97	-200.0	q	200.0																	0.0	0.0	0.0	0.0	18.0	2.0	74.0	1.0																													q	1.0	None	0.0		4.0	trianglegray.gif	stop								0.368217945099																								3.84	0.514293909073	0.0009019374847410001	0.368217945099	1.0	q	532.305777788																																	2015_Jun_23_1355	60.055727217299996	LearningTask	1	62	
98	200.0	w	200.0																	0.0	0.0	0.0	0.0	18.0	3.0	75.0	0.0																													w	1.0	None	0.0		0.5	invertedtriangleorange.gif	stop								0.517546892166																								0.6	0.514284849167	0.000969886779785	0.517546892166	1.0	w	535.309248924																																	2015_Jun_23_1355	60.055727217299996	LearningTask	1	62	
99	-200.0	a	-200.0																	0.0	0.0	0.0	0.0	19.0	0.0	76.0	3.0																													a	1.0	None	0.0		1.0	hexagonmagenta.gif	go								0.350743055344																								0.0	0.514245033264	0.000904083251953	0.350743055344	1.0	a	538.31256485																																	2015_Jun_23_1355	60.055727217299996	LearningTask	1	62	
100	200.0	s	-200.0																	0.0	0.0	0.0	0.0	19.0	1.0	77.0	2.0																													s	1.0	None	0.0		2.0	lineblue.gif	stop								0.3343770504																								1.9	0.5140080451969999	0.0011768341064500002	0.3343770504	1.0	s	541.31594491																																	2015_Jun_23_1355	60.055727217299996	LearningTask	1	62	
101	-200.0	a	-200.0																	0.0	0.0	0.0	0.0	19.0	2.0	78.0	3.0																													a	1.0	None	0.0		1.0	diamondcyan.gif	stop								0.36788105964699996																								0.78	0.513999938965	0.0009109973907470001	0.367881059647	1.0	a	544.31911993																																	2015_Jun_23_1355	60.055727217299996	LearningTask	1	62	
102	-200.0	a	-200.0																	0.0	0.0	0.0	0.0	19.0	3.0	79.0	3.0																													a	1.0	None	0.0		2.0	lineblue.gif	stop								0.36777114868199995																								1.96	0.514492034912	0.000913143157959	0.367771148682	1.0	a	547.322525978																																	2015_Jun_23_1355	60.055727217299996	LearningTask	1	62	
103	-200.0	q	200.0																	0.0	0.0	0.0	0.0	20.0	0.0	80.0	1.0																													q	1.0	None	0.0		0.5	invertedtriangleorange.gif	stop								0.43496012687700003																								0.61	0.514266967773	0.0009629726409910001	0.434960126877	1.0	q	550.32612586																																	2015_Jun_23_1355	60.055727217299996	LearningTask	1	62	
104	-200.0	a	-200.0																	0.0	0.0	0.0	0.0	20.0	1.0	81.0	3.0																													a	1.0	None	0.0		4.0	circlewhite.gif	go								0.35027599334700005																								4.15	0.5142171382899999	0.00090503692627	0.350275993347	1.0	a	553.329188824																																	2015_Jun_23_1355	60.055727217299996	LearningTask	1	62	
105	-200.0	q	200.0																	0.0	0.0	0.0	0.0	20.0	2.0	82.0	1.0																													q	1.0	None	0.0		4.0	circlewhite.gif	go								0.434716939926																								3.91	0.514693021774	0.000892162322998	0.434716939926	1.0	q	556.3327407840001																																	2015_Jun_23_1355	60.055727217299996	LearningTask	1	62	
106	200.0	s	-200.0																	0.0	0.0	0.0	0.0	20.0	3.0	83.0	2.0																													s	1.0	None	0.0		2.0	crossyellow.gif	go								0.350786924362																								1.76	0.514204025269	0.000909090042114	0.350786924362	1.0	s	559.336105824																																	2015_Jun_23_1355	60.055727217299996	LearningTask	1	62	
107	200.0	w	200.0																	0.0	0.0	0.0	0.0	21.0	0.0	84.0	0.0																													w	1.0	None	0.0		4.0	trianglegray.gif	stop								0.383891105652																								3.95	0.5141499042509999	0.0009047985076900001	0.383891105652	1.0	w	562.339473009																																	2015_Jun_23_1355	60.055727217299996	LearningTask	1	62	
108	200.0	w	200.0																	0.0	0.0	0.0	0.0	21.0	1.0	85.0	0.0																													w	1.0	None	0.0		2.0	crossyellow.gif	go								0.38458490371699994																								2.06	0.514177083969	0.0008959770202639998	0.384584903717	1.0	w	565.343132973																																	2015_Jun_23_1355	60.055727217299996	LearningTask	1	62	
109	-200.0	q	200.0																	0.0	0.0	0.0	0.0	21.0	2.0	86.0	1.0																													q	1.0	None	0.0		1.0	hexagonmagenta.gif	go								0.366782188416																								0.95	0.5143098831180001	0.0009069442749019998	0.366782188416	1.0	q	568.346235991																																	2015_Jun_23_1355	60.055727217299996	LearningTask	1	62	
110	200.0	s	-200.0																	0.0	0.0	0.0	0.0	21.0	3.0	87.0	2.0																													s	1.0	None	0.0		0.5	squaregreen.gif	go								0.350829124451																								0.0	0.5142149925230001	0.000904083251953	0.350829124451	1.0	s	571.3494279380001																																	2015_Jun_23_1355	60.055727217299996	LearningTask	1	62	
111	-200.0	a	-200.0																	0.0	0.0	0.0	0.0	22.0	0.0	88.0	3.0																													a	1.0	None	0.0		2.0	crossyellow.gif	go								0.36691117286700003																								0.0	0.514602184296	0.00103521347046	0.366911172867	1.0	a	574.3529648780001																																	2015_Jun_23_1355	60.055727217299996	LearningTask	1	62	
112	200.0	s	-200.0																	0.0	0.0	0.0	0.0	22.0	1.0	89.0	2.0																													s	1.0	None	0.0		4.0	trianglegray.gif	stop								0.317301034927																								3.8	0.514044046402	0.000909090042114	0.317301034927	1.0	s	577.356082916																																	2015_Jun_23_1355	60.055727217299996	LearningTask	1	62	
113	200.0	s	-200.0																	0.0	0.0	0.0	0.0	22.0	2.0	90.0	2.0																													s	1.0	None	0.0		0.5	invertedtriangleorange.gif	stop								0.434417009354																								0.32	0.5142300128939999	0.0009031295776369999	0.434417009354	1.0	s	580.359605789																																	2015_Jun_23_1355	60.055727217299996	LearningTask	1	62	
114	-200.0	a	-200.0																	0.0	0.0	0.0	0.0	22.0	3.0	91.0	3.0																													a	1.0	None	0.0		0.5	squaregreen.gif	go								0.433959960938																								0.44	0.514241933823	0.0009369850158689999	0.433959960938	1.0	a	583.362880945																																	2015_Jun_23_1355	60.055727217299996	LearningTask	1	62	
115	200.0	s	-200.0																	0.0	0.0	0.0	0.0	23.0	0.0	92.0	2.0																													s	1.0	None	0.0		4.0	trianglegray.gif	stop								0.366937875748																								4.24	0.514337062836	0.00089693069458	0.366937875748	1.0	s	586.366342783																																	2015_Jun_23_1355	60.055727217299996	LearningTask	1	62	
116	-200.0	q	200.0																	0.0	0.0	0.0	0.0	23.0	1.0	93.0	1.0																													q	1.0	None	0.0		4.0	trianglegray.gif	stop								0.384163856506																								4.13	0.51450586319	0.00115895271301	0.384163856506	1.0	q	589.3696258069999																																	2015_Jun_23_1355	60.055727217299996	LearningTask	1	62	
117	200.0	s	-200.0																	0.0	0.0	0.0	0.0	23.0	2.0	94.0	2.0																													s	1.0	None	0.0		4.0	circlewhite.gif	go								0.368105888367																								0.0	0.513944864273	0.000922918319702	0.368105888367	1.0	s	592.372874975																																	2015_Jun_23_1355	60.055727217299996	LearningTask	1	62	
118	-200.0	a	-200.0																	0.0	0.0	0.0	0.0	23.0	3.0	95.0	3.0																													a	1.0	None	0.0		2.0	lineblue.gif	stop								0.367913007736																								2.19	0.514453172684	0.0008931159973139998	0.367913007736	1.0	a	595.37626791																																	2015_Jun_23_1355	60.055727217299996	LearningTask	1	62	
119	200.0	w	200.0																	0.0	0.0	0.0	0.0	24.0	0.0	96.0	0.0																													w	1.0	None	0.0		4.0	trianglegray.gif	stop								0.40143084526100004																								3.83	0.514183998108	0.000942945480347	0.401430845261	1.0	w	598.3798918719999																																	2015_Jun_23_1355	60.055727217299996	LearningTask	1	62	
120	-200.0	a	-200.0																	0.0	0.0	0.0	0.0	24.0	1.0	97.0	3.0																													a	1.0	None	0.0		1.0	hexagonmagenta.gif	go								0.31725692749																								1.25	0.514075040817	0.000904083251953	0.31725692749	1.0	a	601.38295579																																	2015_Jun_23_1355	60.055727217299996	LearningTask	1	62	
121	200.0	w	200.0																	0.0	0.0	0.0	0.0	24.0	2.0	98.0	0.0																													w	1.0	None	0.0		2.0	crossyellow.gif	go								0.41730093956000003																								2.15	0.51464009285	0.0009019374847410001	0.41730093956	1.0	w	604.386330843																																	2015_Jun_23_1355	60.055727217299996	LearningTask	1	62	
122	200.0	s	-200.0																	0.0	0.0	0.0	0.0	24.0	3.0	99.0	2.0																													s	1.0	None	0.0		4.0	trianglegray.gif	stop								0.40103411674500006																								3.84	0.514219045639	0.000949144363403	0.401034116745	1.0	s	607.389751911																																	2015_Jun_23_1355	60.055727217299996	LearningTask	1	62	
123																				0.0	0.0	0.0	0.0																																																																																						9.0	21.775166034699996																								2015_Jun_23_1355	60.055727217299996	LearningTask	1	62	
124	200.0	w	200.0																	1.0	0.0	1.0	0.0	0.0	0.0	0.0	0.0																													w	1.0	None	0.0		4.0	circlewhite.gif	go								0.417450904846																								4.23	0.509650945663	0.00089693069458	0.417450904846	1.0	w	632.618486881																																	2015_Jun_23_1355	60.055727217299996	LearningTask	1	62	
125	-200.0	q	200.0																	1.0	0.0	1.0	0.0	0.0	1.0	1.0	1.0																													q	1.0	None	0.0		2.0	crossyellow.gif	go								0.367631912231																								0.0	0.513746976852	0.0009069442749019998	0.367631912231	1.0	q	635.621332884																																	2015_Jun_23_1355	60.055727217299996	LearningTask	1	62	
126	-200.0	q	200.0																	1.0	0.0	1.0	0.0	0.0	2.0	2.0	1.0																													q	1.0	None	0.0		4.0	trianglegray.gif	stop								0.534688949585																								3.87	0.514388799667	0.000900030136108	0.534688949585	1.0	q	638.624534845																																	2015_Jun_23_1355	60.055727217299996	LearningTask	1	62	
127	200.0	w	200.0																	1.0	0.0	1.0	0.0	0.0	3.0	3.0	0.0																													w	1.0	None	0.0		0.5	invertedtriangleorange.gif	stop								0.434674978256																								0.74	0.513989925385	0.000931024551392	0.434674978256	1.0	w	641.6280307769999																																	2015_Jun_23_1355	60.055727217299996	LearningTask	1	62	
128	-200.0	a	-200.0																	1.0	0.0	1.0	0.0	1.0	0.0	4.0	3.0																													a	1.0	None	0.0		1.0	diamondcyan.gif	stop								0.36760282516500004																								1.06	0.5144078731539999	0.000900983810425	0.367602825165	1.0	a	644.631251812																																	2015_Jun_23_1355	60.055727217299996	LearningTask	1	62	
129	200.0	s	-200.0																	1.0	0.0	1.0	0.0	1.0	1.0	5.0	2.0																													s	1.0	None	0.0		2.0	crossyellow.gif	go								0.301154851913																								0.0	0.514288187027	0.000900030136108	0.301154851913	1.0	s	647.634986877																																	2015_Jun_23_1355	60.055727217299996	LearningTask	1	62	
130	200.0	w	200.0																	1.0	0.0	1.0	0.0	1.0	2.0	6.0	0.0																													w	1.0	None	0.0		2.0	crossyellow.gif	go								0.401308059692																								1.86	0.513852834702	0.000917911529541	0.401308059692	1.0	w	650.638192892																																	2015_Jun_23_1355	60.055727217299996	LearningTask	1	62	
131	-200.0	a	-200.0																	1.0	0.0	1.0	0.0	1.0	3.0	7.0	3.0																													a	1.0	None	0.0		1.0	diamondcyan.gif	stop								0.36792206764200003																								0.93	0.5142171382899999	0.0009059906005860001	0.367922067642	1.0	a	653.641774893																																	2015_Jun_23_1355	60.055727217299996	LearningTask	1	62	
132	-200.0	q	200.0																	1.0	0.0	1.0	0.0	2.0	0.0	8.0	1.0																													q	1.0	None	0.0		4.0	trianglegray.gif	stop								0.43464016914399994																								3.82	0.513833999634	0.000949144363403	0.434640169144	1.0	q	656.645282984																																	2015_Jun_23_1355	60.055727217299996	LearningTask	1	62	
133	-200.0	a	-200.0																	1.0	0.0	1.0	0.0	2.0	1.0	9.0	3.0																													a	1.0	None	0.0		0.5	invertedtriangleorange.gif	stop								0.40088987350500005																								0.46	0.513768196106	0.000904083251953	0.400889873505	1.0	a	659.648075819																																	2015_Jun_23_1355	60.055727217299996	LearningTask	1	62	
134	-200.0	a	-200.0																	1.0	0.0	1.0	0.0	2.0	2.0	10.0	3.0																													a	1.0	None	0.0		1.0	diamondcyan.gif	stop								0.384194135666																								0.82	0.5144438743590001	0.0008938312530519999	0.384194135666	1.0	a	662.651655912																																	2015_Jun_23_1355	60.055727217299996	LearningTask	1	62	
135	200.0	w	200.0																	1.0	0.0	1.0	0.0	2.0	3.0	11.0	0.0																													w	1.0	None	0.0		1.0	hexagonmagenta.gif	go								0.400866031647																								0.91	0.513818025589	0.0010199546814	0.400866031647	1.0	w	665.655115843																																	2015_Jun_23_1355	60.055727217299996	LearningTask	1	62	
136	200.0	w	200.0																	1.0	0.0	1.0	0.0	3.0	0.0	12.0	0.0																													w	1.0	None	0.0		2.0	lineblue.gif	stop								0.41743183136																								2.09	0.514147996902	0.00088906288147	0.41743183136	1.0	w	668.658135891																																	2015_Jun_23_1355	60.055727217299996	LearningTask	1	62	
137	200.0	w	200.0																	1.0	0.0	1.0	0.0	3.0	1.0	13.0	0.0																													w	1.0	None	0.0		2.0	crossyellow.gif	go								0.384543895721																								2.13	0.51435303688	0.0013849735260000001	0.384543895721	1.0	w	671.662195921																																	2015_Jun_23_1355	60.055727217299996	LearningTask	1	62	
138	200.0	s	-200.0																	1.0	0.0	1.0	0.0	3.0	2.0	14.0	2.0																													s	1.0	None	0.0		4.0	circlewhite.gif	go								0.367062091827																								0.0	0.51396894455	0.000900030136108	0.367062091827	1.0	s	674.664964914																																	2015_Jun_23_1355	60.055727217299996	LearningTask	1	62	
139	200.0	w	200.0																	1.0	0.0	1.0	0.0	3.0	3.0	15.0	0.0																													w	1.0	None	0.0		2.0	lineblue.gif	stop								0.417358160019																								1.88	0.514441013336	0.0008940696716310001	0.417358160019	1.0	w	677.668257952																																	2015_Jun_23_1355	60.055727217299996	LearningTask	1	62	
140	-200.0	a	-200.0																	1.0	0.0	1.0	0.0	4.0	0.0	16.0	3.0																													a	1.0	None	0.0		1.0	hexagonmagenta.gif	go								0.384049892426																								1.01	0.513982057571	0.0009589195251460001	0.384049892426	1.0	a	680.671656847																																	2015_Jun_23_1355	60.055727217299996	LearningTask	1	62	
141	-200.0	q	200.0																	1.0	0.0	1.0	0.0	4.0	1.0	17.0	1.0																													q	1.0	None	0.0		0.5	invertedtriangleorange.gif	stop								0.417921066284																								0.0	0.514368057251	0.000885009765625	0.417921066284	1.0	q	683.674889803																																	2015_Jun_23_1355	60.055727217299996	LearningTask	1	62	
142	200.0	w	200.0																	1.0	0.0	1.0	0.0	4.0	2.0	18.0	0.0																													w	1.0	None	0.0		4.0	trianglegray.gif	stop								0.35090994834899997																								3.81	0.514457941055	0.0008740425109860002	0.350909948349	1.0	w	686.678122997																																	2015_Jun_23_1355	60.055727217299996	LearningTask	1	62	
143	200.0	w	200.0																	1.0	0.0	1.0	0.0	4.0	3.0	19.0	0.0																													w	1.0	None	0.0		2.0	crossyellow.gif	go								0.38435292244																								1.82	0.514205932617	0.000909090042114	0.38435292244	1.0	w	689.6817579269999																																	2015_Jun_23_1355	60.055727217299996	LearningTask	1	62	
144	200.0	w	200.0																	1.0	0.0	1.0	0.0	5.0	0.0	20.0	0.0																													w	1.0	None	0.0		2.0	lineblue.gif	stop								0.40084910392800005																								0.0	0.514242887497	0.0008788108825680001	0.400849103928	1.0	w	692.6849899289999																																	2015_Jun_23_1355	60.055727217299996	LearningTask	1	62	
145	-200.0	q	200.0																	1.0	0.0	1.0	0.0	5.0	1.0	21.0	1.0																													q	1.0	None	0.0		1.0	diamondcyan.gif	stop								0.31786608695999996																								1.17	0.514361143112	0.000877141952515	0.31786608696	1.0	q	695.688563824																																	2015_Jun_23_1355	60.055727217299996	LearningTask	1	62	
146	-200.0	a	-200.0																	1.0	0.0	1.0	0.0	5.0	2.0	22.0	3.0																													a	1.0	None	0.0		4.0	circlewhite.gif	go								0.534327030182																								4.1	0.513675928116	0.0008919239044189998	0.534327030182	1.0	a	698.691864967																																	2015_Jun_23_1355	60.055727217299996	LearningTask	1	62	
147	200.0	w	200.0																	1.0	0.0	1.0	0.0	5.0	3.0	23.0	0.0																													w	1.0	None	0.0		4.0	trianglegray.gif	stop								0.333674907684																								3.8	0.514517068863	0.0011239051818800001	0.333674907684	1.0	w	701.6952569480001																																	2015_Jun_23_1355	60.055727217299996	LearningTask	1	62	
148	200.0	s	-200.0																	1.0	0.0	1.0	0.0	6.0	0.0	24.0	2.0																													s	1.0	None	0.0		1.0	diamondcyan.gif	stop								0.40086007118199996																								0.0	0.514076948166	0.000938892364502	0.400860071182	1.0	s	704.6990249160001																																	2015_Jun_23_1355	60.055727217299996	LearningTask	1	62	
149	200.0	s	-200.0																	1.0	0.0	1.0	0.0	6.0	1.0	25.0	2.0																													s	1.0	None	0.0		0.5	invertedtriangleorange.gif	stop								0.33399009704599997																								0.61	0.513610839844	0.0008978843688960001	0.333990097046	1.0	s	707.701883793																																	2015_Jun_23_1355	60.055727217299996	LearningTask	1	62	
150	-200.0	q	200.0																	1.0	0.0	1.0	0.0	6.0	2.0	26.0	1.0																													q	1.0	None	0.0		0.5	squaregreen.gif	go								0.434242010117																								0.68	0.514187097549	0.00088095664978	0.434242010117	1.0	q	710.705147982																																	2015_Jun_23_1355	60.055727217299996	LearningTask	1	62	
151	-200.0	q	200.0																	1.0	0.0	1.0	0.0	6.0	3.0	27.0	1.0																													q	1.0	None	0.0		4.0	circlewhite.gif	go								0.367449045181																								3.88	0.5141270160679999	0.0009279251098630001	0.367449045181	1.0	q	713.70853591																																	2015_Jun_23_1355	60.055727217299996	LearningTask	1	62	
152	200.0	s	-200.0																	1.0	0.0	1.0	0.0	7.0	0.0	28.0	2.0																													s	1.0	None	0.0		2.0	crossyellow.gif	go								0.334305047989																								1.97	0.5143609046940001	0.00088095664978	0.334305047989	1.0	s	716.712158918																																	2015_Jun_23_1355	60.055727217299996	LearningTask	1	62	
153	-200.0	a	-200.0																	1.0	0.0	1.0	0.0	7.0	1.0	29.0	3.0																													a	1.0	None	0.0		0.5	invertedtriangleorange.gif	stop								0.317112922668																								0.31	0.5142760276789999	0.0010359287262	0.317112922668	1.0	a	719.71556592																																	2015_Jun_23_1355	60.055727217299996	LearningTask	1	62	
154	-200.0	q	200.0																	1.0	0.0	1.0	0.0	7.0	2.0	30.0	1.0																													q	1.0	None	0.0		4.0	trianglegray.gif	stop								0.41740989685099994																								4.13	0.514178991318	0.00090503692627	0.417409896851	1.0	q	722.71863389																																	2015_Jun_23_1355	60.055727217299996	LearningTask	1	62	
155	200.0	s	-200.0																	1.0	0.0	1.0	0.0	7.0	3.0	31.0	2.0																													s	1.0	None	0.0		0.5	squaregreen.gif	go								0.400662899017																								0.32	0.51433300972	0.000877141952515	0.400662899017	1.0	s	725.721938848																																	2015_Jun_23_1355	60.055727217299996	LearningTask	1	62	
156	200.0	s	-200.0																	1.0	0.0	1.0	0.0	8.0	0.0	32.0	2.0																													s	1.0	None	0.0		2.0	crossyellow.gif	go								0.417685031891																								0.0	0.51403594017	0.000949859619141	0.417685031891	1.0	s	728.7254447939999																																	2015_Jun_23_1355	60.055727217299996	LearningTask	1	62	
157	-200.0	a	-200.0																	1.0	0.0	1.0	0.0	8.0	1.0	33.0	3.0																													a	1.0	None	0.0		4.0	circlewhite.gif	go								0.367837905884																								3.86	0.514033079147	0.0008759498596189999	0.367837905884	1.0	a	731.728662968																																	2015_Jun_23_1355	60.055727217299996	LearningTask	1	62	
158	-200.0	q	200.0																	1.0	0.0	1.0	0.0	8.0	2.0	34.0	1.0																													q	1.0	None	0.0		0.5	squaregreen.gif	go								0.383875846863																								0.0	0.51443195343	0.00087308883667	0.383875846863	1.0	q	734.7324609760001																																	2015_Jun_23_1355	60.055727217299996	LearningTask	1	62	
159	-200.0	q	200.0																	1.0	0.0	1.0	0.0	8.0	3.0	35.0	1.0																													q	1.0	None	0.0		1.0	diamondcyan.gif	stop								0.36736011505099997																								0.0	0.513206005096	0.00089693069458	0.384711027145	0.0	a	737.735391855	1.21	0.515496969223	0.0009601116180419999	0.36736011505099997	1.0	q	740.738738775																										2015_Jun_23_1355	60.055727217299996	LearningTask	1	62	
160	200.0	s	-200.0																	1.0	0.0	1.0	0.0	9.0	0.0	36.0	2.0																													s	1.0	None	0.0		2.0	lineblue.gif	stop								0.384140014648																								0.0	0.514256954193	0.00090217590332	0.384140014648	1.0	s	743.7424337860001																																	2015_Jun_23_1355	60.055727217299996	LearningTask	1	62	
161	-200.0	q	200.0																	1.0	0.0	1.0	0.0	9.0	1.0	37.0	1.0																													q	1.0	None	0.0		2.0	crossyellow.gif	go								0.38428807258599995																								1.96	0.513798952103	0.0008938312530519999	0.384288072586	1.0	q	746.7457268239999																																	2015_Jun_23_1355	60.055727217299996	LearningTask	1	62	
162	200.0	s	-200.0																	1.0	0.0	1.0	0.0	9.0	2.0	38.0	2.0																													s	1.0	None	0.0		0.5	invertedtriangleorange.gif	stop								0.383966207504																								0.0	0.5141868591309999	0.000902891159058	0.383966207504	1.0	s	749.74878788																																	2015_Jun_23_1355	60.055727217299996	LearningTask	1	62	
163	-200.0	a	-200.0																	1.0	0.0	1.0	0.0	9.0	3.0	39.0	3.0																													a	1.0	None	0.0		4.0	circlewhite.gif	go								0.400967121124																								4.23	0.514198064804	0.00092601776123	0.400967121124	1.0	a	752.7527418139999																																	2015_Jun_23_1355	60.055727217299996	LearningTask	1	62	
164	200.0	s	-200.0																	1.0	0.0	1.0	0.0	10.0	0.0	40.0	2.0																													s	1.0	None	0.0		4.0	trianglegray.gif	stop								0.46748900413500005																								4.21	0.513661146164	0.000900030136108	0.467489004135	1.0	s	755.755574942																																	2015_Jun_23_1355	60.055727217299996	LearningTask	1	62	
165	200.0	s	-200.0																	1.0	0.0	1.0	0.0	10.0	1.0	41.0	2.0																													s	1.0	None	0.0		2.0	crossyellow.gif	go								0.46811914443999997																								1.8	0.514070987701	0.0008840560913089999	0.46811914444	1.0	s	758.7588129039999																																	2015_Jun_23_1355	60.055727217299996	LearningTask	1	62	
166	200.0	s	-200.0																	1.0	0.0	1.0	0.0	10.0	2.0	42.0	2.0																													s	1.0	None	0.0		0.5	invertedtriangleorange.gif	stop								0.434602022171																								0.38	0.51412987709	0.000942945480347	0.434602022171	1.0	s	761.762423992																																	2015_Jun_23_1355	60.055727217299996	LearningTask	1	62	
167	-200.0	q	200.0																	1.0	0.0	1.0	0.0	10.0	3.0	43.0	1.0																													q	1.0	None	0.0		0.5	invertedtriangleorange.gif	stop								0.400631904602																								0.32	0.513867139816	0.00107502937317	0.400631904602	1.0	q	764.7657628060001																																	2015_Jun_23_1355	60.055727217299996	LearningTask	1	62	
168	200.0	s	-200.0																	1.0	0.0	1.0	0.0	11.0	0.0	44.0	2.0																													s	1.0	None	0.0		4.0	trianglegray.gif	stop								0.41703104972800004																								3.85	0.514584064484	0.0010311603546100002	0.417031049728	1.0	s	767.76867795																																	2015_Jun_23_1355	60.055727217299996	LearningTask	1	62	
169	-200.0	q	200.0																	1.0	0.0	1.0	0.0	11.0	1.0	45.0	1.0																													q	1.0	None	0.0		1.0	hexagonmagenta.gif	go								0.41750407218900004																								1.2	0.514602899551	0.000892877578735	0.417504072189	1.0	q	770.772346973																																	2015_Jun_23_1355	60.055727217299996	LearningTask	1	62	
170	200.0	w	200.0																	1.0	0.0	1.0	0.0	11.0	2.0	46.0	0.0																													w	1.0	None	0.0		2.0	lineblue.gif	stop								0.501241922379																								0.0	0.514379024506	0.000882863998413	0.501241922379	1.0	w	773.775764942																																	2015_Jun_23_1355	60.055727217299996	LearningTask	1	62	
171	200.0	w	200.0																	1.0	0.0	1.0	0.0	11.0	3.0	47.0	0.0																													w	1.0	None	0.0		2.0	lineblue.gif	stop								0.467636108398																								1.82	0.514055013657	0.000938892364502	0.467636108398	1.0	w	776.7790818210001																																	2015_Jun_23_1355	60.055727217299996	LearningTask	1	62	
172	-200.0	a	-200.0																	1.0	0.0	1.0	0.0	12.0	0.0	48.0	3.0																													a	1.0	None	0.0		1.0	hexagonmagenta.gif	go								0.40090394020099995																								0.8	0.514514923096	0.0008919239044189998	0.400903940201	1.0	a	779.782512903																																	2015_Jun_23_1355	60.055727217299996	LearningTask	1	62	
173	-200.0	q	200.0																	1.0	0.0	1.0	0.0	12.0	1.0	49.0	1.0																													q	1.0	None	0.0		4.0	circlewhite.gif	go								0.384085178375																								4.25	0.514183998108	0.000888109207153	0.384085178375	1.0	q	782.786098003																																	2015_Jun_23_1355	60.055727217299996	LearningTask	1	62	
174	-200.0	a	-200.0																	1.0	0.0	1.0	0.0	12.0	2.0	50.0	3.0																													a	1.0	None	0.0		4.0	circlewhite.gif	go								0.5511839389800001																								3.97	0.513374090195	0.0009169578552250001	0.55118393898	1.0	a	785.789153814																																	2015_Jun_23_1355	60.055727217299996	LearningTask	1	62	
175	200.0	s	-200.0																	1.0	0.0	1.0	0.0	12.0	3.0	51.0	2.0																													s	1.0	None	0.0		4.0	circlewhite.gif	go								0.400759935379																								4.03	0.514178991318	0.000881910324097	0.400759935379	1.0	s	788.7923598289999																																	2015_Jun_23_1355	60.055727217299996	LearningTask	1	62	
176	200.0	w	200.0																	1.0	0.0	1.0	0.0	13.0	0.0	52.0	0.0																													w	1.0	None	0.0		2.0	crossyellow.gif	go								0.48452401161200004																								1.97	0.5144081115720001	0.0009200572967529999	0.484524011612	1.0	w	791.795707941																																	2015_Jun_23_1355	60.055727217299996	LearningTask	1	62	
177	-200.0	a	-200.0																	1.0	0.0	1.0	0.0	13.0	1.0	53.0	3.0																													a	1.0	None	0.0		0.5	squaregreen.gif	go								0.46739411354099997																								0.0	0.513803958893	0.0008831024169919999	0.467394113541	1.0	a	794.799277782																																	2015_Jun_23_1355	60.055727217299996	LearningTask	1	62	
178	-200.0	q	200.0																	1.0	0.0	1.0	0.0	13.0	2.0	54.0	1.0																													q	1.0	None	0.0		1.0	diamondcyan.gif	stop								0.417450904846																								0.75	0.514240026474	0.0008780956268310002	0.417450904846	1.0	q	797.8027198310001																																	2015_Jun_23_1355	60.055727217299996	LearningTask	1	62	
179	-200.0	q	200.0																	1.0	0.0	1.0	0.0	13.0	3.0	55.0	1.0																													q	1.0	None	0.0		2.0	lineblue.gif	stop								0.484947919846																								0.0	0.5139060020449999	0.0009160041809079999	0.484947919846	1.0	q	800.806392908																																	2015_Jun_23_1355	60.055727217299996	LearningTask	1	62	
180	200.0	s	-200.0																	1.0	0.0	1.0	0.0	14.0	0.0	56.0	2.0																													s	1.0	None	0.0		4.0	circlewhite.gif	go								0.417789936066																								4.05	0.513761043549	0.0009100437164310001	0.417789936066	1.0	s	803.8093259330001																																	2015_Jun_23_1355	60.055727217299996	LearningTask	1	62	
181	200.0	s	-200.0																	1.0	0.0	1.0	0.0	14.0	1.0	57.0	2.0																													s	1.0	None	0.0		2.0	lineblue.gif	stop								0.518126010895																								2.22	0.514063119888	0.000880002975464	0.518126010895	1.0	s	806.81244278																																	2015_Jun_23_1355	60.055727217299996	LearningTask	1	62	
182	-200.0	q	200.0																	1.0	0.0	1.0	0.0	14.0	2.0	58.0	1.0																													q	1.0	None	0.0		0.5	invertedtriangleorange.gif	stop								0.43477916717500004																								0.0	0.5142300128939999	0.0009520053863530001	0.434779167175	1.0	q	809.8159458639999																																	2015_Jun_23_1355	60.055727217299996	LearningTask	1	62	
183	200.0	w	200.0																	1.0	0.0	1.0	0.0	14.0	3.0	59.0	0.0																													w	1.0	None	0.0		1.0	diamondcyan.gif	stop								0.466871023178																								1.12	0.514465093613	0.0008821487426760002	0.466871023178	1.0	w	812.81942296																																	2015_Jun_23_1355	60.055727217299996	LearningTask	1	62	
184	200.0	s	-200.0																	1.0	0.0	1.0	0.0	15.0	0.0	60.0	2.0																													s	1.0	None	0.0		1.0	hexagonmagenta.gif	go								0.500775098801																								0.0	0.514272928238	0.0009360313415529999	0.500775098801	1.0	s	815.8225839139999																																	2015_Jun_23_1355	60.055727217299996	LearningTask	1	62	
185	-200.0	a	-200.0																	1.0	0.0	1.0	0.0	15.0	1.0	61.0	3.0																													a	1.0	None	0.0		4.0	trianglegray.gif	stop								0.400349140167																								4.2	0.514417886734	0.000881910324097	0.400349140167	1.0	a	818.82611084																																	2015_Jun_23_1355	60.055727217299996	LearningTask	1	62	
186	200.0	s	-200.0																	1.0	0.0	1.0	0.0	15.0	2.0	62.0	2.0																													s	1.0	None	0.0		1.0	hexagonmagenta.gif	go								0.467684030533																								1.23	0.514115095139	0.000890016555786	0.467684030533	1.0	s	821.8292880060001																																	2015_Jun_23_1355	60.055727217299996	LearningTask	1	62	
187	-200.0	a	-200.0																	1.0	0.0	1.0	0.0	15.0	3.0	63.0	3.0																													a	1.0	None	0.0		1.0	hexagonmagenta.gif	go								0.417620897293																								0.0	0.514032125473	0.0012400150299100002	0.417620897293	1.0	a	824.833126783																																	2015_Jun_23_1355	60.055727217299996	LearningTask	1	62	
188	200.0	w	200.0																	1.0	0.0	1.0	0.0	16.0	0.0	64.0	0.0																													w	1.0	None	0.0		1.0	diamondcyan.gif	stop								0.451231002808																								0.0	0.513928890228	0.000898838043213	0.451231002808	1.0	w	827.836121798																																	2015_Jun_23_1355	60.055727217299996	LearningTask	1	62	
189	-200.0	a	-200.0																	1.0	0.0	1.0	0.0	16.0	1.0	65.0	3.0																													a	1.0	None	0.0		2.0	lineblue.gif	stop								0.401380062103																								0.0	0.514184951782	0.0008759498596189999	0.401380062103	1.0	a	830.839520931																																	2015_Jun_23_1355	60.055727217299996	LearningTask	1	62	
190	-200.0	a	-200.0																	1.0	0.0	1.0	0.0	16.0	2.0	66.0	3.0																													a	1.0	None	0.0		0.5	squaregreen.gif	go								0.38432002067599996																								0.52	0.513693094254	0.000904083251953	0.384320020676	1.0	a	833.842940807																																	2015_Jun_23_1355	60.055727217299996	LearningTask	1	62	
191	200.0	w	200.0																	1.0	0.0	1.0	0.0	16.0	3.0	67.0	0.0																													w	1.0	None	0.0		4.0	circlewhite.gif	go								0.434244155884																								0.0	0.514488935471	0.000881910324097	0.434244155884	1.0	w	836.846014977																																	2015_Jun_23_1355	60.055727217299996	LearningTask	1	62	
192	-200.0	a	-200.0																	1.0	0.0	1.0	0.0	17.0	0.0	68.0	3.0																													a	1.0	None	0.0		1.0	hexagonmagenta.gif	go								0.434638023376																								0.83	0.514266014099	0.0008931159973139998	0.434638023376	1.0	a	839.849449873																																	2015_Jun_23_1355	60.055727217299996	LearningTask	1	62	
193	200.0	s	-200.0																	1.0	0.0	1.0	0.0	17.0	1.0	69.0	2.0																													s	1.0	None	0.0		2.0	crossyellow.gif	go								0.401473045349																								1.91	0.5137941837309999	0.0009520053863530001	0.401473045349	1.0	s	842.8530027869999																																	2015_Jun_23_1355	60.055727217299996	LearningTask	1	62	
194	-200.0	a	-200.0																	1.0	0.0	1.0	0.0	17.0	2.0	70.0	3.0																													a	1.0	None	0.0		1.0	diamondcyan.gif	stop								0.451131105423																								0.92	0.5140209198	0.0008740425109860002	0.451131105423	1.0	a	845.8560209269999																																	2015_Jun_23_1355	60.055727217299996	LearningTask	1	62	
195	200.0	s	-200.0																	1.0	0.0	1.0	0.0	17.0	3.0	71.0	2.0																													s	1.0	None	0.0		2.0	lineblue.gif	stop								0.4509370327																								0.0	0.514457941055	0.0009338855743410001	0.484528064728	0.0	w	848.860244989	2.18	0.514936923981	0.0009799003601070001	0.4509370327	1.0	s	851.8628449439999																										2015_Jun_23_1355	60.055727217299996	LearningTask	1	62	
196	-200.0	q	200.0																	1.0	0.0	1.0	0.0	18.0	0.0	72.0	1.0																													q	1.0	None	0.0		2.0	lineblue.gif	stop								0.417742013931																								2.14	0.514487981796	0.000871181488037	0.417742013931	1.0	q	854.8662209510001																																	2015_Jun_23_1355	60.055727217299996	LearningTask	1	62	
197	-200.0	a	-200.0																	1.0	0.0	1.0	0.0	18.0	1.0	73.0	3.0																													a	1.0	None	0.0		4.0	trianglegray.gif	stop								0.484414815903																								3.82	0.514364004135	0.0010859966278099998	0.484414815903	1.0	a	857.869575977																																	2015_Jun_23_1355	60.055727217299996	LearningTask	1	62	
198	200.0	s	-200.0																	1.0	0.0	1.0	0.0	18.0	2.0	74.0	2.0																													s	1.0	None	0.0		1.0	hexagonmagenta.gif	go								0.48415994644199994																								1.03	0.5142760276789999	0.0008909702301030001	0.484159946442	1.0	s	860.8732109069999																																	2015_Jun_23_1355	60.055727217299996	LearningTask	1	62	
199	-200.0	q	200.0																	1.0	0.0	1.0	0.0	18.0	3.0	75.0	1.0																													q	1.0	None	0.0		4.0	circlewhite.gif	go								0.517838001251																								4.14	0.5139620304110001	0.00100588798523	0.517838001251	1.0	q	863.876607895																																	2015_Jun_23_1355	60.055727217299996	LearningTask	1	62	
200	-200.0	q	200.0																	1.0	0.0	1.0	0.0	19.0	0.0	76.0	1.0																													q	1.0	None	0.0		2.0	crossyellow.gif	go								0.534003019333																								1.84	0.514245033264	0.0008862018585209999	0.534003019333	1.0	q	866.879722834																																	2015_Jun_23_1355	60.055727217299996	LearningTask	1	62	
201	200.0	s	-200.0																	1.0	0.0	1.0	0.0	19.0	1.0	77.0	2.0																													s	1.0	None	0.0		1.0	diamondcyan.gif	stop								0.384015083313																								1.11	0.514347076416	0.0009059906005860001	0.384015083313	1.0	s	869.882961988																																	2015_Jun_23_1355	60.055727217299996	LearningTask	1	62	
202	-200.0	q	200.0																	1.0	0.0	1.0	0.0	19.0	2.0	78.0	1.0																													q	1.0	None	0.0		2.0	lineblue.gif	stop								0.617712974548																								2.22	0.514225959778	0.00109505653381	0.617712974548	1.0	q	872.88675189																																	2015_Jun_23_1355	60.055727217299996	LearningTask	1	62	
203	200.0	w	200.0																	1.0	0.0	1.0	0.0	19.0	3.0	79.0	0.0																													w	1.0	None	0.0		2.0	lineblue.gif	stop								0.534181833267																								0.0	0.514194965363	0.00088906288147	0.534181833267	1.0	w	875.889855862																																	2015_Jun_23_1355	60.055727217299996	LearningTask	1	62	
204	-200.0	a	-200.0																	1.0	0.0	1.0	0.0	20.0	0.0	80.0	3.0																													a	1.0	None	0.0		2.0	lineblue.gif	stop								0.401192188263																								1.91	0.514253854752	0.000877857208252	0.401192188263	1.0	a	878.8932888510001																																	2015_Jun_23_1355	60.055727217299996	LearningTask	1	62	
205	200.0	s	-200.0																	1.0	0.0	1.0	0.0	20.0	1.0	81.0	2.0																													s	1.0	None	0.0		2.0	crossyellow.gif	go								0.36738514900200003																								2.24	0.513953924179	0.000959873199463	0.367385149002	1.0	s	881.89672184																																	2015_Jun_23_1355	60.055727217299996	LearningTask	1	62	
206	200.0	w	200.0																	1.0	0.0	1.0	0.0	20.0	2.0	82.0	0.0																													w	1.0	None	0.0		2.0	crossyellow.gif	go								0.501095056534																								1.96	0.514248847961	0.000873804092407	0.501095056534	1.0	w	884.8999028210001																																	2015_Jun_23_1355	60.055727217299996	LearningTask	1	62	
207	-200.0	a	-200.0																	1.0	0.0	1.0	0.0	20.0	3.0	83.0	3.0																													a	1.0	None	0.0		1.0	hexagonmagenta.gif	go								0.7177731990809999																								1.05	0.514354944229	0.00088906288147	0.717773199081	1.0	a	887.903102875																																	2015_Jun_23_1355	60.055727217299996	LearningTask	1	62	
208	-200.0	a	-200.0																	1.0	0.0	1.0	0.0	21.0	0.0	84.0	3.0																													a	1.0	None	0.0		4.0	circlewhite.gif	go								0.468048095703																								4.17	0.514009952545	0.000890016555786	0.468048095703	1.0	a	890.906898975																																	2015_Jun_23_1355	60.055727217299996	LearningTask	1	62	
209	200.0	s	-200.0																	1.0	0.0	1.0	0.0	21.0	1.0	85.0	2.0																													s	1.0	None	0.0		4.0	trianglegray.gif	stop								0.433857917786																								4.11	0.51416182518	0.0008740425109860002	0.433857917786	1.0	s	893.910181999																																	2015_Jun_23_1355	60.055727217299996	LearningTask	1	62	
210	200.0	w	200.0																	1.0	0.0	1.0	0.0	21.0	2.0	86.0	0.0																													w	1.0	None	0.0		1.0	hexagonmagenta.gif	go								0.501471042633																								1.18	0.513962984085	0.00093412399292	0.501471042633	1.0	w	896.913796902																																	2015_Jun_23_1355	60.055727217299996	LearningTask	1	62	
211	200.0	w	200.0																	1.0	0.0	1.0	0.0	21.0	3.0	87.0	0.0																													w	1.0	None	0.0		4.0	trianglegray.gif	stop								0.584052085876																								0.0	0.513704061508	0.0009100437164310001	0.584052085876	1.0	w	899.916452885																																	2015_Jun_23_1355	60.055727217299996	LearningTask	1	62	
212	-200.0	q	200.0																	1.0	0.0	1.0	0.0	22.0	0.0	88.0	1.0																													q	1.0	None	0.0		4.0	trianglegray.gif	stop								0.467963933945																								4.21	0.514392137527	0.0008981227874760001	0.467963933945	1.0	q	902.919963837																																	2015_Jun_23_1355	60.055727217299996	LearningTask	1	62	
213	200.0	w	200.0																	1.0	0.0	1.0	0.0	22.0	1.0	89.0	0.0																													w	1.0	None	0.0		0.5	squaregreen.gif	go								0.584599971771																								0.64	0.5140831470489999	0.0009529590606689998	0.584599971771	1.0	w	905.923399925																																	2015_Jun_23_1355	60.055727217299996	LearningTask	1	62	
214	-200.0	a	-200.0																	1.0	0.0	1.0	0.0	22.0	2.0	90.0	3.0																													a	1.0	None	0.0		1.0	diamondcyan.gif	stop								0.434772968292																								1.05	0.5142149925230001	0.00088095664978	0.434772968292	1.0	a	908.9268319610001																																	2015_Jun_23_1355	60.055727217299996	LearningTask	1	62	
215	-200.0	q	200.0																	1.0	0.0	1.0	0.0	22.0	3.0	91.0	1.0																													q	1.0	None	0.0		0.5	squaregreen.gif	go								0.48503899574299997																								0.51	0.5141971111300001	0.00100803375244	0.485038995743	1.0	q	911.930613995																																	2015_Jun_23_1355	60.055727217299996	LearningTask	1	62	
216	-200.0	a	-200.0																	1.0	0.0	1.0	0.0	23.0	0.0	92.0	3.0																													a	1.0	None	0.0		0.5	invertedtriangleorange.gif	stop								0.417384147644																								0.69	0.51393198967	0.0008740425109860002	0.417384147644	1.0	a	914.9335169789999																																	2015_Jun_23_1355	60.055727217299996	LearningTask	1	62	
217	200.0	s	-200.0																	1.0	0.0	1.0	0.0	23.0	1.0	93.0	2.0																													s	1.0	None	0.0		4.0	circlewhite.gif	go								0.384443998337																								4.04	0.514271020889	0.000885009765625	0.384443998337	1.0	s	917.936749935																																	2015_Jun_23_1355	60.055727217299996	LearningTask	1	62	
218	200.0	w	200.0																	1.0	0.0	1.0	0.0	23.0	2.0	94.0	0.0																													w	1.0	None	0.0		4.0	trianglegray.gif	stop								0.41756606102																								4.12	0.513792991638	0.000996112823486	0.41756606102	1.0	w	920.940292835																																	2015_Jun_23_1355	60.055727217299996	LearningTask	1	62	
219	200.0	w	200.0																	1.0	0.0	1.0	0.0	23.0	3.0	95.0	0.0																													w	1.0	None	0.0		2.0	lineblue.gif	stop								0.551650047302																								2.13	0.513772964478	0.0009570121765139998	0.551650047302	1.0	w	923.943571806																																	2015_Jun_23_1355	60.055727217299996	LearningTask	1	62	
220	200.0	w	200.0																	1.0	0.0	1.0	0.0	24.0	0.0	96.0	0.0																													w	1.0	None	0.0		4.0	circlewhite.gif	go								0.483952999115																								3.94	0.514477968216	0.00088095664978	0.483952999115	1.0	w	926.9467208389999																																	2015_Jun_23_1355	60.055727217299996	LearningTask	1	62	
221	-200.0	a	-200.0																	1.0	0.0	1.0	0.0	24.0	1.0	97.0	3.0																													a	1.0	None	0.0		0.5	squaregreen.gif	go								0.46814894676200003																								0.37	0.514008998871	0.000953912734985	0.468148946762	1.0	a	929.950475931																																	2015_Jun_23_1355	60.055727217299996	LearningTask	1	62	
222	-200.0	q	200.0																	1.0	0.0	1.0	0.0	24.0	2.0	98.0	1.0																													q	1.0	None	0.0		0.5	invertedtriangleorange.gif	stop								0.41765308380099997																								0.52	0.513944149017	0.0008840560913089999	0.417653083801	1.0	q	932.953495979																																	2015_Jun_23_1355	60.055727217299996	LearningTask	1	62	
223	-200.0	q	200.0																	1.0	0.0	1.0	0.0	24.0	3.0	99.0	1.0																													q	1.0	None	0.0		0.5	invertedtriangleorange.gif	stop								0.434452056885																								0.38	0.514342069626	0.0008718967437739999	0.434452056885	1.0	q	935.956957817																																	2015_Jun_23_1355	60.055727217299996	LearningTask	1	62	
224																				1.0	0.0	1.0	0.0																																																																																						9.0	13.5684521198																								2015_Jun_23_1355	60.055727217299996	LearningTask	1	62	
225	-200.0	q	200.0																	2.0	0.0	2.0	0.0	0.0	0.0	0.0	1.0																													q	1.0	None	0.0		0.5	invertedtriangleorange.gif	stop								0.501209020615																								0.52	0.508276939392	0.00115609169006	0.501209020615	1.0	q	953.243339777																																	2015_Jun_23_1355	60.055727217299996	LearningTask	1	62	
226	200.0	s	-200.0																	2.0	0.0	2.0	0.0	0.0	1.0	1.0	2.0																													s	1.0	None	0.0		1.0	hexagonmagenta.gif	go								0.38441896438600004																								0.85	0.513509988785	0.00122499465942	0.384418964386	1.0	s	956.2461428639999																																	2015_Jun_23_1355	60.055727217299996	LearningTask	1	62	
227	-200.0	a	-200.0																	2.0	0.0	2.0	0.0	0.0	2.0	2.0	3.0																													a	1.0	None	0.0		2.0	lineblue.gif	stop								0.38405585289000005																								2.09	0.5146961212160001	0.00112795829773	0.38405585289	1.0	a	959.249712944																																	2015_Jun_23_1355	60.055727217299996	LearningTask	1	62	
228	-200.0	q	200.0																	2.0	0.0	2.0	0.0	0.0	3.0	3.0	1.0																													q	1.0	None	0.0		1.0	hexagonmagenta.gif	go								0.450956106186																								1.15	0.5142970085140001	0.0008790493011469999	0.450956106186	1.0	q	962.253011942																																	2015_Jun_23_1355	60.055727217299996	LearningTask	1	62	
229	200.0	s	-200.0																	2.0	0.0	2.0	0.0	1.0	0.0	4.0	2.0																													s	1.0	None	0.0		2.0	crossyellow.gif	go								0.451222896576																								1.82	0.51425409317	0.00132608413696	0.451222896576	1.0	s	965.256270885																																	2015_Jun_23_1355	60.055727217299996	LearningTask	1	62	
230	-200.0	q	200.0																	2.0	0.0	2.0	0.0	1.0	1.0	5.0	1.0																													q	1.0	None	0.0		1.0	diamondcyan.gif	stop								0.467526197433																								1.14	0.5145418643949999	0.00129699707031	0.467526197433	1.0	q	968.259643793																																	2015_Jun_23_1355	60.055727217299996	LearningTask	1	62	
231	-200.0	a	-200.0																	2.0	0.0	2.0	0.0	1.0	2.0	6.0	3.0																													a	1.0	None	0.0		2.0	crossyellow.gif	go								0.451251029968																								0.0	0.514272928238	0.0008919239044189998	0.451251029968	1.0	a	971.262868881																																	2015_Jun_23_1355	60.055727217299996	LearningTask	1	62	
232	-200.0	a	-200.0																	2.0	0.0	2.0	0.0	1.0	3.0	7.0	3.0																													a	1.0	None	0.0		1.0	hexagonmagenta.gif	go								0.417160987854																								0.92	0.514716863632	0.0010659694671599999	0.417160987854	1.0	a	974.266427994																																	2015_Jun_23_1355	60.055727217299996	LearningTask	1	62	
233	-200.0	a	-200.0																	2.0	0.0	2.0	0.0	2.0	0.0	8.0	3.0																													a	1.0	None	0.0		1.0	diamondcyan.gif	stop								0.434807062149																								1.18	0.514034986496	0.0008759498596189999	0.434807062149	1.0	a	977.2696778769999																																	2015_Jun_23_1355	60.055727217299996	LearningTask	1	62	
234	-200.0	q	200.0																	2.0	0.0	2.0	0.0	2.0	1.0	9.0	1.0																													q	1.0	None	0.0		4.0	trianglegray.gif	stop								0.484378814697																								4.18	0.51437997818	0.00160217285156	0.484378814697	1.0	q	980.272951841																																	2015_Jun_23_1355	60.055727217299996	LearningTask	1	62	
235	200.0	w	200.0																	2.0	0.0	2.0	0.0	2.0	2.0	10.0	0.0																													w	1.0	None	0.0		4.0	circlewhite.gif	go								0.433963060379																								4.07	0.5142221450810001	0.00131916999817	0.433963060379	1.0	w	983.2764198780001																																	2015_Jun_23_1355	60.055727217299996	LearningTask	1	62	
236	200.0	s	-200.0																	2.0	0.0	2.0	0.0	2.0	3.0	11.0	2.0																													s	1.0	None	0.0		0.5	invertedtriangleorange.gif	stop								0.40061712265																								0.5	0.514143943787	0.00087308883667	0.40061712265	1.0	s	986.2797269819999																																	2015_Jun_23_1355	60.055727217299996	LearningTask	1	62	
237	-200.0	a	-200.0																	2.0	0.0	2.0	0.0	3.0	0.0	12.0	3.0																													a	1.0	None	0.0		0.5	squaregreen.gif	go								0.45166993141199996																								0.0	0.5141940116879999	0.00128197669983	0.451669931412	1.0	a	989.283187866																																	2015_Jun_23_1355	60.055727217299996	LearningTask	1	62	
238	200.0	s	-200.0																	2.0	0.0	2.0	0.0	3.0	1.0	13.0	2.0																													s	1.0	None	0.0		0.5	squaregreen.gif	go								0.40095996856700006																								0.7	0.513759851456	0.000880002975464	0.400959968567	1.0	s	992.2868089680001																																	2015_Jun_23_1355	60.055727217299996	LearningTask	1	62	
239	200.0	s	-200.0																	2.0	0.0	2.0	0.0	3.0	2.0	14.0	2.0																													s	1.0	None	0.0		4.0	circlewhite.gif	go								0.401007890701																								0.0	0.514189958572	0.0008718967437739999	0.401007890701	1.0	s	995.289790869																																	2015_Jun_23_1355	60.055727217299996	LearningTask	1	62	
240	200.0	s	-200.0																	2.0	0.0	2.0	0.0	3.0	3.0	15.0	2.0																													s	1.0	None	0.0		1.0	hexagonmagenta.gif	go								0.36745285987899995																								1.11	0.5144309997559999	0.0008749961853029999	0.367452859879	1.0	s	998.293591976																																	2015_Jun_23_1355	60.055727217299996	LearningTask	1	62	
241	200.0	w	200.0																	2.0	0.0	2.0	0.0	4.0	0.0	16.0	0.0																													w	1.0	None	0.0		2.0	crossyellow.gif	go								0.46765398979199996																								1.86	0.5137410163880001	0.0008838176727290001	0.467653989792	1.0	w	1001.29660583																																	2015_Jun_23_1355	60.055727217299996	LearningTask	1	62	
242	200.0	s	-200.0																	2.0	0.0	2.0	0.0	4.0	1.0	17.0	2.0																													s	1.0	None	0.0		2.0	lineblue.gif	stop								0.38431596755999997																								2.25	0.5141859054569999	0.0009210109710689999	0.38431596756	1.0	s	1004.3001367999999																																	2015_Jun_23_1355	60.055727217299996	LearningTask	1	62	
243	200.0	s	-200.0																	2.0	0.0	2.0	0.0	4.0	2.0	18.0	2.0																													s	1.0	None	0.0		2.0	crossyellow.gif	go								0.350838184357																								1.82	0.5143928527830001	0.0008728504180910001	0.350838184357	1.0	s	1007.30341578																																	2015_Jun_23_1355	60.055727217299996	LearningTask	1	62	
244	200.0	w	200.0																	2.0	0.0	2.0	0.0	4.0	3.0	19.0	0.0																													w	1.0	None	0.0		0.5	squaregreen.gif	go								0.501321077347																								0.56	0.514364957809	0.00086784362793	0.501321077347	1.0	w	1010.30674481																																	2015_Jun_23_1355	60.055727217299996	LearningTask	1	62	
245	200.0	w	200.0																	2.0	0.0	2.0	0.0	5.0	0.0	20.0	0.0																													w	1.0	None	0.0		0.5	squaregreen.gif	go								0.5007820129389999																								0.53	0.514378070831	0.0009369850158689999	0.500782012939	1.0	w	1013.31050086																																	2015_Jun_23_1355	60.055727217299996	LearningTask	1	62	
246	-200.0	a	-200.0																	2.0	0.0	2.0	0.0	5.0	1.0	21.0	3.0																													a	1.0	None	0.0		2.0	lineblue.gif	stop								0.401164054871																								1.82	0.513877153397	0.00087308883667	0.401164054871	1.0	a	1016.31347084																																	2015_Jun_23_1355	60.055727217299996	LearningTask	1	62	
247	-200.0	q	200.0																	2.0	0.0	2.0	0.0	5.0	2.0	22.0	1.0																													q	1.0	None	0.0		4.0	trianglegray.gif	stop								0.450886011124																								3.87	0.5142011642459999	0.00090217590332	0.450886011124	1.0	q	1019.31647992																																	2015_Jun_23_1355	60.055727217299996	LearningTask	1	62	
248	-200.0	a	-200.0																	2.0	0.0	2.0	0.0	5.0	3.0	23.0	3.0																													a	1.0	None	0.0		1.0	diamondcyan.gif	stop								0.417799949646																								0.0	0.514575004578	0.00112700462341	0.417799949646	1.0	a	1022.32019091																																	2015_Jun_23_1355	60.055727217299996	LearningTask	1	62	
249	200.0	w	200.0																	2.0	0.0	2.0	0.0	6.0	0.0	24.0	0.0																													w	1.0	None	0.0		0.5	invertedtriangleorange.gif	stop								0.45095705986																								0.0	0.514424085617	0.0008780956268310002	0.45095705986	1.0	w	1025.32343984																																	2015_Jun_23_1355	60.055727217299996	LearningTask	1	62	
250	-200.0	q	200.0																	2.0	0.0	2.0	0.0	6.0	1.0	25.0	1.0																													q	1.0	None	0.0		0.5	invertedtriangleorange.gif	stop								0.45080304145800004																								0.6	0.514405965805	0.000909090042114	0.450803041458	1.0	q	1028.32668686																																	2015_Jun_23_1355	60.055727217299996	LearningTask	1	62	
251	-200.0	a	-200.0																	2.0	0.0	2.0	0.0	6.0	2.0	26.0	3.0																													a	1.0	None	0.0		0.5	squaregreen.gif	go								0.434468984604																								0.29	0.5140461921689999	0.00142812728882	0.434468984604	1.0	a	1031.33017087																																	2015_Jun_23_1355	60.055727217299996	LearningTask	1	62	
252	200.0	s	-200.0																	2.0	0.0	2.0	0.0	6.0	3.0	27.0	2.0																													s	1.0	None	0.0		4.0	trianglegray.gif	stop								0.38439798355099997																								4.25	0.51454615593	0.0008831024169919999	0.384397983551	1.0	s	1034.33386183																																	2015_Jun_23_1355	60.055727217299996	LearningTask	1	62	
253	200.0	w	200.0																	2.0	0.0	2.0	0.0	7.0	0.0	28.0	0.0																													w	1.0	None	0.0		1.0	diamondcyan.gif	stop								0.418119192123																								0.0	0.513769865036	0.0008718967437739999	0.418119192123	1.0	w	1037.3370688																																	2015_Jun_23_1355	60.055727217299996	LearningTask	1	62	
254	200.0	w	200.0																	2.0	0.0	2.0	0.0	7.0	1.0	29.0	0.0																													w	1.0	None	0.0		0.5	squaregreen.gif	go								0.48427796363799996																								0.59	0.513944864273	0.000921964645386	0.484277963638	1.0	w	1040.34019399																																	2015_Jun_23_1355	60.055727217299996	LearningTask	1	62	
255	-200.0	q	200.0																	2.0	0.0	2.0	0.0	7.0	2.0	30.0	1.0																													q	1.0	None	0.0		2.0	lineblue.gif	stop								0.400408983231																								1.94	0.514667987823	0.0008728504180910001	0.400408983231	1.0	q	1043.34374785																																	2015_Jun_23_1355	60.055727217299996	LearningTask	1	62	
256	200.0	w	200.0																	2.0	0.0	2.0	0.0	7.0	3.0	31.0	0.0																													w	1.0	None	0.0		0.5	squaregreen.gif	go								0.41788387298600005																								0.25	0.514094829559	0.00086498260498	0.417883872986	1.0	w	1046.34779286																																	2015_Jun_23_1355	60.055727217299996	LearningTask	1	62	
257	-200.0	a	-200.0																	2.0	0.0	2.0	0.0	8.0	0.0	32.0	3.0																													a	1.0	None	0.0		0.5	invertedtriangleorange.gif	stop								0.367422103882																								0.6	0.513458013535	0.000880002975464	0.367422103882	1.0	a	1049.35008788																																	2015_Jun_23_1355	60.055727217299996	LearningTask	1	62	
258	-200.0	a	-200.0																	2.0	0.0	2.0	0.0	8.0	1.0	33.0	3.0																													a	1.0	None	0.0		1.0	diamondcyan.gif	stop								0.38421797752400005																								0.0	0.51442193985	0.0008940696716310001	0.384217977524	1.0	a	1052.35384679																																	2015_Jun_23_1355	60.055727217299996	LearningTask	1	62	
259	200.0	s	-200.0																	2.0	0.0	2.0	0.0	8.0	2.0	34.0	2.0																													s	1.0	None	0.0		2.0	lineblue.gif	stop								0.384823083878																								1.92	0.514211893082	0.0008709430694580001	0.384823083878	1.0	s	1055.35714483																																	2015_Jun_23_1355	60.055727217299996	LearningTask	1	62	
260	200.0	s	-200.0																	2.0	0.0	2.0	0.0	8.0	3.0	35.0	2.0																													s	1.0	None	0.0		1.0	hexagonmagenta.gif	go								0.467955112457																								1.23	0.514286994934	0.000982999801636	0.467955112457	1.0	s	1058.36037993																																	2015_Jun_23_1355	60.055727217299996	LearningTask	1	62	
261	-200.0	q	200.0																	2.0	0.0	2.0	0.0	9.0	0.0	36.0	1.0																													q	1.0	None	0.0		1.0	hexagonmagenta.gif	go								0.334359884262																								0.0	0.514295816422	0.0009119510650630002	0.367329835892	0.0	a	1061.36364794	0.0	0.515487909317	0.000984907150269	0.334359884262	1.0	q	1064.36742783																										2015_Jun_23_1355	60.055727217299996	LearningTask	1	62	
262	-200.0	a	-200.0																	2.0	0.0	2.0	0.0	9.0	1.0	37.0	3.0																													a	1.0	None	0.0		4.0	circlewhite.gif	go								0.384468078613																								3.9	0.513914823532	0.0010449886322	0.384468078613	1.0	a	1067.37039185																																	2015_Jun_23_1355	60.055727217299996	LearningTask	1	62	
263	-200.0	a	-200.0																	2.0	0.0	2.0	0.0	9.0	2.0	38.0	3.0																													a	1.0	None	0.0		1.0	diamondcyan.gif	stop								0.383843898773																								1.2	0.514540195465	0.0009372234344480001	0.383843898773	1.0	a	1070.37391782																																	2015_Jun_23_1355	60.055727217299996	LearningTask	1	62	
264	-200.0	q	200.0																	2.0	0.0	2.0	0.0	9.0	3.0	39.0	1.0																													q	1.0	None	0.0		2.0	crossyellow.gif	go								0.43449306488000006																								0.0	0.5139710903170001	0.0008831024169919999	0.43449306488	1.0	q	1073.37732387																																	2015_Jun_23_1355	60.055727217299996	LearningTask	1	62	
265	-200.0	q	200.0																	2.0	0.0	2.0	0.0	10.0	0.0	40.0	1.0																													q	1.0	None	0.0		4.0	trianglegray.gif	stop								0.417008876801																								3.99	0.514197826385	0.000926971435547	0.417008876801	1.0	q	1076.38046694																																	2015_Jun_23_1355	60.055727217299996	LearningTask	1	62	
266	-200.0	q	200.0																	2.0	0.0	2.0	0.0	10.0	1.0	41.0	1.0																													q	1.0	None	0.0		2.0	lineblue.gif	stop								0.417939901352																								2.17	0.514077186584	0.000921964645386	0.417939901352	1.0	q	1079.38382101																																	2015_Jun_23_1355	60.055727217299996	LearningTask	1	62	
267	-200.0	q	200.0																	2.0	0.0	2.0	0.0	10.0	2.0	42.0	1.0																													q	1.0	None	0.0		2.0	crossyellow.gif	go								0.400768995285																								1.76	0.514515161514	0.0008759498596189999	0.400768995285	1.0	q	1082.38722992																																	2015_Jun_23_1355	60.055727217299996	LearningTask	1	62	
268	-200.0	q	200.0																	2.0	0.0	2.0	0.0	10.0	3.0	43.0	1.0																													q	1.0	None	0.0		2.0	lineblue.gif	stop								0.40157699585																								0.0	0.514009952545	0.000890016555786	0.40157699585	1.0	q	1085.39070892																																	2015_Jun_23_1355	60.055727217299996	LearningTask	1	62	
269	-200.0	a	-200.0																	2.0	0.0	2.0	0.0	11.0	0.0	44.0	3.0																													a	1.0	None	0.0		2.0	crossyellow.gif	go								0.41729593276999993																								2.19	0.514034986496	0.0009059906005860001	0.41729593277	1.0	a	1088.39405894																																	2015_Jun_23_1355	60.055727217299996	LearningTask	1	62	
270	-200.0	q	200.0																	2.0	0.0	2.0	0.0	11.0	1.0	45.0	1.0																													q	1.0	None	0.0		1.0	hexagonmagenta.gif	go								0.48435997963																								0.91	0.514337062836	0.0008859634399410001	0.48435997963	1.0	q	1091.3973999000002																																	2015_Jun_23_1355	60.055727217299996	LearningTask	1	62	
271	200.0	s	-200.0																	2.0	0.0	2.0	0.0	11.0	2.0	46.0	2.0																													s	1.0	None	0.0		0.5	invertedtriangleorange.gif	stop								0.434475898743																								0.46	0.514120101929	0.0008840560913089999	0.434475898743	1.0	s	1094.4009377999998																																	2015_Jun_23_1355	60.055727217299996	LearningTask	1	62	
272	200.0	s	-200.0																	2.0	0.0	2.0	0.0	11.0	3.0	47.0	2.0																													s	1.0	None	0.0		1.0	hexagonmagenta.gif	go								0.567431926727																								0.0	0.514153957367	0.0008840560913089999	0.567431926727	1.0	s	1097.40405679																																	2015_Jun_23_1355	60.055727217299996	LearningTask	1	62	
273	200.0	w	200.0																	2.0	0.0	2.0	0.0	12.0	0.0	48.0	0.0																													w	1.0	None	0.0		2.0	lineblue.gif	stop								0.417459964752																								1.75	0.514413118362	0.0008780956268310002	0.417459964752	1.0	w	1100.40756679																																	2015_Jun_23_1355	60.055727217299996	LearningTask	1	62	
274	200.0	s	-200.0																	2.0	0.0	2.0	0.0	12.0	1.0	49.0	2.0																													s	1.0	None	0.0		4.0	circlewhite.gif	go								0.467356920242																								3.92	0.5143351554869999	0.00113105773926	0.467356920242	1.0	s	1103.41092682																																	2015_Jun_23_1355	60.055727217299996	LearningTask	1	62	
275	200.0	s	-200.0																	2.0	0.0	2.0	0.0	12.0	2.0	50.0	2.0																													s	1.0	None	0.0		4.0	circlewhite.gif	go								0.38399696350100004																								3.99	0.51424407959	0.00088906288147	0.383996963501	1.0	s	1106.41407681																																	2015_Jun_23_1355	60.055727217299996	LearningTask	1	62	
276	-200.0	q	200.0																	2.0	0.0	2.0	0.0	12.0	3.0	51.0	1.0																													q	1.0	None	0.0		4.0	circlewhite.gif	go								0.417339086533																								3.99	0.514289855957	0.0010008811950700002	0.417339086533	1.0	q	1109.41752887																																	2015_Jun_23_1355	60.055727217299996	LearningTask	1	62	
277	-200.0	a	-200.0																	2.0	0.0	2.0	0.0	13.0	0.0	52.0	3.0																													a	1.0	None	0.0		1.0	diamondcyan.gif	stop								0.46773791313199997																								1.25	0.514355182648	0.0008790493011469999	0.467737913132	1.0	a	1112.42094779																																	2015_Jun_23_1355	60.055727217299996	LearningTask	1	62	
278	-200.0	a	-200.0																	2.0	0.0	2.0	0.0	13.0	1.0	53.0	3.0																													a	1.0	None	0.0		1.0	hexagonmagenta.gif	go								0.450675964355																								1.1	0.514241933823	0.0009400844573969999	0.450675964355	1.0	a	1115.42418385																																	2015_Jun_23_1355	60.055727217299996	LearningTask	1	62	
279	200.0	w	200.0																	2.0	0.0	2.0	0.0	13.0	2.0	54.0	0.0																													w	1.0	None	0.0		4.0	circlewhite.gif	go								0.467665910721																								3.89	0.514215946198	0.00095796585083	0.467665910721	1.0	w	1118.42762494																																	2015_Jun_23_1355	60.055727217299996	LearningTask	1	62	
280	200.0	w	200.0																	2.0	0.0	2.0	0.0	13.0	3.0	55.0	0.0																													w	1.0	None	0.0		4.0	trianglegray.gif	stop								0.484255075455																								3.77	0.514326095581	0.000880002975464	0.484255075455	1.0	w	1121.43088388																																	2015_Jun_23_1355	60.055727217299996	LearningTask	1	62	
281	-200.0	q	200.0																	2.0	0.0	2.0	0.0	14.0	0.0	56.0	1.0																													q	1.0	None	0.0		4.0	circlewhite.gif	go								0.400536060333																								3.76	0.514335870743	0.000993967056274	0.400536060333	1.0	q	1124.43417001																																	2015_Jun_23_1355	60.055727217299996	LearningTask	1	62	
