	xPos	corrAns	yPos	corrGoResp	yPosGoStim	xPosGoStim	pracTrials.thisRepN	pracTrials.thisTrialN	pracTrials.thisN	pracTrials.thisIndex	ReDoLoopPrac.thisRepN	ReDoLoopPrac.thisTrialN	ReDoLoopPrac.thisN	ReDoLoopPrac.thisIndex	ReDoLoopPrac.thisTrial	pracStopTrials.thisRepN	pracStopTrials.thisTrialN	pracStopTrials.thisN	pracStopTrials.thisIndex	Blocks.thisRepN	Blocks.thisTrialN	Blocks.thisN	Blocks.thisIndex	trials.thisRepN	trials.thisTrialN	trials.thisN	trials.thisIndex	ReDoLoopMain.thisRepN	ReDoLoopMain.thisTrialN	ReDoLoopMain.thisN	ReDoLoopMain.thisIndex	ReDoLoopMain.thisTrial	StopBlocks.thisRepN	StopBlocks.thisTrialN	StopBlocks.thisN	StopBlocks.thisIndex	StopTrials.thisRepN	StopTrials.thisTrialN	StopTrials.thisN	StopTrials.thisIndex	auctionBlocks.thisRepN	auctionBlocks.thisTrialN	auctionBlocks.thisN	auctionBlocks.thisIndex	auctionTrials.thisRepN	auctionTrials.thisTrialN	auctionTrials.thisN	auctionTrials.thisIndex	learningTrialList	learningPracTrialList	stopTrialList	stopPracTrialList	auctionTrialList	ok1.keys	ok1.rt	resp.keys	resp.corr	resp.rt	feedbackResp.keys	feedbackResp.corr	currentReward	currentStimulus	currentStimType	firstPracComputedRewardOutput	firstPracLearningStimOnset	firstPracLearningFixOnset	firstPracPresentationRT	firstPracPresentationAcc	firstPracPresentationResp	firstPracEndTrialTimeStamp	StartTrialTimeStamp	trialType	goStim	stimType	stopStimValue	goResp.keys	goResp.corr	goResp.rt	key_resp_9.keys	key_resp_9.corr	fixStopOnset	goStimOnset	EndTrialTimeStamp	stopSignalOnset	key_resp_3.keys	key_resp_3.rt	firstComputedRewardOutput	firstLearningStimOnset	firstLearningFixOnset	firstPresentationRT	firstPresentationAcc	firstPresentationResp	firstEndTrialTimeStamp	secondComputedRewardOutput	secondLearningStimOnset	secondLearningFixOnset	secondPresentationRT	secondPresentationAcc	secondPresentationResp	secondEndTrialTimeStamp	key_resp_7.keys	key_resp_7.rt	feedbackResp.rt	beginningSSD	EndingSSD	key_resp_9.rt	key_resp_4.keys	key_resp_4.rt	auctionResponse.keys	auctionResponse.rt	auctionStimDuration	auctionStim	auctionAmounts	auctionStimValue	auctionCondition	chosenAuctionAmount	key_resp_5.keys	key_resp_5.rt	shuffledRewardList	chosenReward1	chosenReward2	chosenReward3	chosenReward4	chosenReward5	key_resp_6.keys	key_resp_6.rt	date	frameRate	expName	session	participant	Unnamed: 131
0																																																	[]	[]	[]	[]	[]	9.0	74.46285510060001																																																																								2015_Jul_08_1003	59.9063905516	LearningTask	1	83	
1	200.0	w	200.0				0.0	0.0	0.0	0.0																																														w	1.0	0.767940044403	None	0.0	1.0	circlecyan.gif	go	0.0	0.512317895889	0.03733086586	0.767940044403	1.0	w	133.881783009																																																									2015_Jul_08_1003	59.9063905516	LearningTask	1	83	
2	200.0	w	200.0				0.0	1.0	1.0	4.0																																														w	1.0	0.600857019424	None	0.0	4.0	invertedtrianglegreen.gif	stop	4.06	0.514694929123	0.0121779441833	0.600857019424	1.0	w	136.884718895																																																									2015_Jul_08_1003	59.9063905516	LearningTask	1	83	
3	200.0	s	-200.0				0.0	2.0	2.0	2.0																																														s	1.0	0.46718502044699994	None	0.0	2.0	squareblue.gif	go	1.79	0.5150589942930001	0.0144040584564	0.46718502044699994	1.0	s	139.8880229																																																									2015_Jul_08_1003	59.9063905516	LearningTask	1	83	
4	-200.0	a	-200.0				0.0	3.0	3.0	7.0																																														a	1.0	0.5845072269439999	None	0.0	4.0	invertedtrianglegreen.gif	stop	0.0	0.5152189731600001	0.0008931159973139998	0.5845072269439999	1.0	a	142.891196966																																																									2015_Jul_08_1003	59.9063905516	LearningTask	1	83	
5	-200.0	q	200.0				0.0	4.0	4.0	9.0																																														q	1.0	0.43394184112499995	None	0.0	4.0	invertedtrianglegreen.gif	stop	3.99	0.51547908783	0.000892877578735	0.43394184112499995	1.0	q	145.895097971																																																									2015_Jul_08_1003	59.9063905516	LearningTask	1	83	
6	-200.0	a	-200.0				0.0	5.0	5.0	3.0																																														a	1.0	0.5176331996920001	None	0.0	0.5	diamondgray.gif	stop	0.3	0.515085935593	0.0094039440155	0.5176331996920001	1.0	a	148.898142815																																																									2015_Jul_08_1003	59.9063905516	LearningTask	1	83	
7	200.0	s	-200.0				0.0	6.0	6.0	6.0																																														s	1.0	0.48457407951399994	None	0.0	2.0	squareblue.gif	go	1.99	0.515305995941	0.0010199546814	0.48457407951399994	1.0	s	151.901718855																																																									2015_Jul_08_1003	59.9063905516	LearningTask	1	83	
8	200.0	w	200.0				0.0	7.0	7.0	8.0																																														w	1.0	0.401578187943	None	0.0	1.0	hexagonwhite.gif	stop	0.0	0.514941930771	0.043042898178099996	0.401578187943	1.0	w	154.904816866																																																									2015_Jul_08_1003	59.9063905516	LearningTask	1	83	
9	-200.0	q	200.0				0.0	8.0	8.0	5.0																																														q	1.0	0.38429689407300005	None	0.0	2.0	triangleyellow.gif	stop	2.2	0.515187978745	0.00949001312256	0.38429689407300005	1.0	q	157.90807294799998																																																									2015_Jul_08_1003	59.9063905516	LearningTask	1	83	
10	-200.0	q	200.0				0.0	9.0	9.0	1.0																																														q	1.0	0.484499931335	None	0.0	4.0	invertedtrianglegreen.gif	stop	3.8	0.514980077744	0.00113916397095	0.484499931335	1.0	q	160.911505938																																																									2015_Jul_08_1003	59.9063905516	LearningTask	1	83	
11				z	0.0	-200.0										0.0	0.0	0.0	0.0																																																				209.871600866	go	crossmagenta.gif	go	0.5	z	1.0	0.567473173141	None	0.0	0.0178301334381	0.510869979858	212.870352983																																												2015_Jul_08_1003	59.9063905516	LearningTask	1	83	
12				m	0.0	200.0										0.0	1.0	1.0	1.0																																																				212.87074399	stop	hexagonwhite.gif	stop	1.0	m	1.0	0.434172153473	None	0.0	0.0009601116180419999	0.5151569843289999	215.87316393900002	0.76521897316																																											2015_Jul_08_1003	59.9063905516	LearningTask	1	83	
13				z	0.0	-200.0										1.0	0.0	2.0	0.0																																																				215.87353301	go	lineorange.gif	go	4.0	z	1.0	0.41751694679300005	None	0.0	0.0341949462891	0.515811920166	218.876529932																																												2015_Jul_08_1003	59.9063905516	LearningTask	1	83	
14				z	0.0	-200.0										1.0	1.0	3.0	0.0																																																				218.87692284599999	go	crossmagenta.gif	go	0.5	z	1.0	0.40131282806400004	None	0.0	0.0009489059448239998	0.5157489776609999	221.879691839																																												2015_Jul_08_1003	59.9063905516	LearningTask	1	83	
15				m	0.0	200.0										2.0	0.0	4.0	1.0																																																				221.880059958	stop	triangleyellow.gif	stop	2.0	m	1.0	0.367882966995	None	0.0	0.00108289718628	0.5160498619080001	224.883311987	0.766300916672																																											2015_Jul_08_1003	59.9063905516	LearningTask	1	83	
16				m	0.0	200.0										2.0	1.0	5.0	1.0																																																				224.88367700599997	stop	hexagonwhite.gif	stop	1.0	m	1.0	0.451248168945	None	0.0	0.000946044921875	0.5155768394470001	227.886905909	0.766134023666																																											2015_Jul_08_1003	59.9063905516	LearningTask	1	83	
17				m	0.0	200.0										3.0	0.0	6.0	1.0																																																				227.88726902	stop	invertedtrianglegreen.gif	stop	4.0	m	1.0	0.534273147583	None	0.0	0.000978946685791	0.516020059586	230.890022993	0.7657260894779999																																											2015_Jul_08_1003	59.9063905516	LearningTask	1	83	
18				z	0.0	-200.0										3.0	1.0	7.0	0.0																																																				230.890388966	stop	diamondgray.gif	stop	0.5	z	1.0	0.40097784995999997	None	0.0	0.00105595588684	0.515865087509	233.893420935	0.766264915466																																											2015_Jul_08_1003	59.9063905516	LearningTask	1	83	
19				m	0.0	200.0										4.0	0.0	8.0	1.0																																																				233.89378404599998	go	lineorange.gif	go	4.0	m	1.0	0.367222070694	None	0.0	0.00095009803772	0.515798091888	236.89700388900002																																												2015_Jul_08_1003	59.9063905516	LearningTask	1	83	
20				z	0.0	-200.0										4.0	1.0	9.0	0.0																																																				236.89741683	stop	hexagonwhite.gif	stop	1.0	z	1.0	0.317473173141	None	0.0	0.00098705291748	0.515413045883	239.900360823	0.766000986099																																											2015_Jul_08_1003	59.9063905516	LearningTask	1	83	
21																																																																																					9.0	92.501760006																																									2015_Jul_08_1003	59.9063905516	LearningTask	1	83	
22																																																						9.0	2.9038438797																																																																								2015_Jul_08_1003	59.9063905516	LearningTask	1	83	
23	-200.0	q	200.0																	0.0	0.0	0.0	0.0	0.0	0.0	0.0	1.0																													q	1.0	0.534712076187	None	0.0	4.0	invertedtrianglegreen.gif	stop																								4.0	0.514346122742	0.000900983810425	0.534712076187	1.0	q	338.478682995																																		2015_Jul_08_1003	59.9063905516	LearningTask	1	83	
24	-200.0	a	-200.0																	0.0	0.0	0.0	0.0	0.0	1.0	1.0	3.0																													a	1.0	0.45072388648999995	None	0.0	4.0	invertedtrianglegreen.gif	stop																								4.03	0.514037132263	0.0008981227874760001	0.45072388649	1.0	a	341.48162484200003																																		2015_Jul_08_1003	59.9063905516	LearningTask	1	83	
25	-200.0	a	-200.0																	0.0	0.0	0.0	0.0	0.0	2.0	2.0	3.0																													a	1.0	0.48430204391500004	None	0.0	1.0	circlecyan.gif	go																								0.0	0.5146970748899999	0.0008971691131589999	0.484302043915	1.0	a	344.48541498199995																																		2015_Jul_08_1003	59.9063905516	LearningTask	1	83	
26	-200.0	a	-200.0																	0.0	0.0	0.0	0.0	0.0	3.0	3.0	3.0																													a	1.0	0.46784901618999997	None	0.0	4.0	lineorange.gif	go																								4.17	0.513543844223	0.000998973846436	0.46784901619	1.0	a	347.488561869																																		2015_Jul_08_1003	59.9063905516	LearningTask	1	83	
27	200.0	s	-200.0																	0.0	0.0	0.0	0.0	1.0	0.0	4.0	2.0																													s	1.0	0.501188993454	None	0.0	2.0	squareblue.gif	go																								2.07	0.5142738819120001	0.000900030136108	0.501188993454	1.0	s	350.49184393900003																																		2015_Jul_08_1003	59.9063905516	LearningTask	1	83	
28	-200.0	a	-200.0																	0.0	0.0	0.0	0.0	1.0	1.0	5.0	3.0																													a	1.0	0.468027114868	None	0.0	2.0	triangleyellow.gif	stop																								1.99	0.514380931854	0.000900983810425	0.468027114868	1.0	a	353.495280981																																		2015_Jul_08_1003	59.9063905516	LearningTask	1	83	
29	200.0	s	-200.0																	0.0	0.0	0.0	0.0	1.0	2.0	6.0	2.0																													s	1.0	0.551490068436	None	0.0	1.0	hexagonwhite.gif	stop																								1.19	0.514014959335	0.000941038131714	0.551490068436	1.0	s	356.498452902																																		2015_Jul_08_1003	59.9063905516	LearningTask	1	83	
30	-200.0	a	-200.0																	0.0	0.0	0.0	0.0	1.0	3.0	7.0	3.0																													a	1.0	0.38441085815399995	None	0.0	2.0	triangleyellow.gif	stop																								0.0	0.514400959015	0.0009489059448239998	0.384410858154	1.0	a	359.502373934																																		2015_Jul_08_1003	59.9063905516	LearningTask	1	83	
31	200.0	w	200.0																	0.0	0.0	0.0	0.0	2.0	0.0	8.0	0.0																													w	1.0	0.484603881836	None	0.0	4.0	lineorange.gif	go																								4.1	0.51401591301	0.000943899154663	0.484603881836	1.0	w	362.50542402300005																																		2015_Jul_08_1003	59.9063905516	LearningTask	1	83	
32	-200.0	q	200.0																	0.0	0.0	0.0	0.0	2.0	1.0	9.0	1.0																													q	1.0	0.51752614975	None	0.0	2.0	squareblue.gif	go																								2.14	0.514405965805	0.0011789798736600002	0.51752614975	1.0	q	365.508635044																																		2015_Jul_08_1003	59.9063905516	LearningTask	1	83	
33	200.0	w	200.0																	0.0	0.0	0.0	0.0	2.0	2.0	10.0	0.0																													w	1.0	0.38491916656499997	None	0.0	2.0	squareblue.gif	go																								2.24	0.5139210224149999	0.00116395950317	0.384919166565	1.0	w	368.51199603099997																																		2015_Jul_08_1003	59.9063905516	LearningTask	1	83	
34	200.0	s	-200.0																	0.0	0.0	0.0	0.0	2.0	3.0	11.0	2.0																													s	1.0	0.384609937668	None	0.0	2.0	squareblue.gif	go																								2.02	0.514415025711	0.0009069442749019998	0.384609937668	1.0	s	371.51551604300005																																		2015_Jul_08_1003	59.9063905516	LearningTask	1	83	
35	200.0	s	-200.0																	0.0	0.0	0.0	0.0	3.0	0.0	12.0	2.0																													s	1.0	0.400754928589	None	0.0	1.0	circlecyan.gif	go																								0.8	0.51420712471	0.0009329319000239999	0.400754928589	1.0	s	374.51879787400003																																		2015_Jul_08_1003	59.9063905516	LearningTask	1	83	
36	200.0	s	-200.0																	0.0	0.0	0.0	0.0	3.0	1.0	13.0	2.0																													s	1.0	0.41709280014	None	0.0	2.0	squareblue.gif	go																								2.14	0.514308929443	0.000982999801636	0.41709280014	1.0	s	377.522125006																																		2015_Jul_08_1003	59.9063905516	LearningTask	1	83	
37	200.0	s	-200.0																	0.0	0.0	0.0	0.0	3.0	2.0	14.0	2.0																													s	1.0	0.417455911636	None	0.0	0.5	diamondgray.gif	stop																								0.36	0.514479160309	0.000946044921875	0.417455911636	1.0	s	380.525614977																																		2015_Jul_08_1003	59.9063905516	LearningTask	1	83	
38	-200.0	q	200.0																	0.0	0.0	0.0	0.0	3.0	3.0	15.0	1.0																													q	1.0	0.43411183357199995	None	0.0	0.5	diamondgray.gif	stop																								0.47	0.5143201351169999	0.00090217590332	0.434111833572	1.0	q	383.52942681300004																																		2015_Jul_08_1003	59.9063905516	LearningTask	1	83	
39	200.0	w	200.0																	0.0	0.0	0.0	0.0	4.0	0.0	16.0	0.0																													w	1.0	0.45067882537799997	None	0.0	4.0	lineorange.gif	go																								4.07	0.5138158798219999	0.0009350776672360002	0.450678825378	1.0	w	386.532184839																																		2015_Jul_08_1003	59.9063905516	LearningTask	1	83	
40	-200.0	q	200.0																	0.0	0.0	0.0	0.0	4.0	1.0	17.0	1.0																													q	1.0	0.384691953659	None	0.0	4.0	lineorange.gif	go																								4.06	0.51433801651	0.00089693069458	0.384691953659	1.0	q	389.535763025																																		2015_Jul_08_1003	59.9063905516	LearningTask	1	83	
41	-200.0	a	-200.0																	0.0	0.0	0.0	0.0	4.0	2.0	18.0	3.0																													a	1.0	0.33433294296300003	None	0.0	0.5	crossmagenta.gif	go																								0.25	0.514086008072	0.0009069442749019998	0.334332942963	1.0	a	392.539338827																																		2015_Jul_08_1003	59.9063905516	LearningTask	1	83	
42	-200.0	a	-200.0																	0.0	0.0	0.0	0.0	4.0	3.0	19.0	3.0																													a	1.0	0.501190900803	None	0.0	2.0	triangleyellow.gif	stop																								1.75	0.514136075974	0.0009560585021970001	0.501190900803	1.0	a	395.54240489																																		2015_Jul_08_1003	59.9063905516	LearningTask	1	83	
43	-200.0	q	200.0																	0.0	0.0	0.0	0.0	5.0	0.0	20.0	1.0																													q	1.0	0.450417041779	None	0.0	4.0	lineorange.gif	go																								3.97	0.514425992966	0.0008997917175289999	0.450417041779	1.0	q	398.545691013																																		2015_Jul_08_1003	59.9063905516	LearningTask	1	83	
44	200.0	w	200.0																	0.0	0.0	0.0	0.0	5.0	1.0	21.0	0.0																													w	1.0	0.48425412178000005	None	0.0	4.0	invertedtrianglegreen.gif	stop																								4.0	0.514548063278	0.0009560585021970001	0.48425412178	1.0	w	401.54942584																																		2015_Jul_08_1003	59.9063905516	LearningTask	1	83	
45	-200.0	q	200.0																	0.0	0.0	0.0	0.0	5.0	2.0	22.0	1.0																													q	1.0	0.401038885117	None	0.0	2.0	triangleyellow.gif	stop																								2.1	0.513884067535	0.0008978843688960001	0.401038885117	1.0	q	404.552523851																																		2015_Jul_08_1003	59.9063905516	LearningTask	1	83	
46	-200.0	a	-200.0																	0.0	0.0	0.0	0.0	5.0	3.0	23.0	3.0																													a	1.0	0.484673976898	None	0.0	1.0	hexagonwhite.gif	stop																								1.03	0.5146141052250001	0.00123310089111	0.484673976898	1.0	a	407.55605983699996																																		2015_Jul_08_1003	59.9063905516	LearningTask	1	83	
47	-200.0	q	200.0																	0.0	0.0	0.0	0.0	6.0	0.0	24.0	1.0																													q	1.0	0.41751408577	None	0.0	1.0	circlecyan.gif	go																								1.2	0.514328956604	0.0009198188781739999	0.41751408577	1.0	q	410.559639931																																		2015_Jul_08_1003	59.9063905516	LearningTask	1	83	
48	-200.0	a	-200.0																	0.0	0.0	0.0	0.0	6.0	1.0	25.0	3.0																													a	1.0	0.45054388046300003	None	0.0	1.0	circlecyan.gif	go																								0.87	0.514256954193	0.0008981227874760001	0.450543880463	1.0	a	413.562623024																																		2015_Jul_08_1003	59.9063905516	LearningTask	1	83	
49	-200.0	a	-200.0																	0.0	0.0	0.0	0.0	6.0	2.0	26.0	3.0																													a	1.0	0.450520992279	None	0.0	2.0	triangleyellow.gif	stop																								2.13	0.514984130859	0.00093412399292	0.450520992279	1.0	a	416.56584787400004																																		2015_Jul_08_1003	59.9063905516	LearningTask	1	83	
50	-200.0	q	200.0																	0.0	0.0	0.0	0.0	6.0	3.0	27.0	1.0																													q	1.0	0.351222038269	None	0.0	4.0	invertedtrianglegreen.gif	stop																								3.78	0.514567136765	0.000908136367798	0.351222038269	1.0	q	419.56959986699997																																		2015_Jul_08_1003	59.9063905516	LearningTask	1	83	
51	200.0	w	200.0																	0.0	0.0	0.0	0.0	7.0	0.0	28.0	0.0																													w	1.0	0.468492031097	None	0.0	2.0	squareblue.gif	go																								2.05	0.513889074326	0.00102996826172	0.468492031097	1.0	w	422.572916985																																		2015_Jul_08_1003	59.9063905516	LearningTask	1	83	
52	-200.0	a	-200.0																	0.0	0.0	0.0	0.0	7.0	1.0	29.0	3.0																													a	1.0	0.433979034424	None	0.0	4.0	invertedtrianglegreen.gif	stop																								3.75	0.513916969299	0.0009529590606689998	0.433979034424	1.0	a	425.576161861																																		2015_Jul_08_1003	59.9063905516	LearningTask	1	83	
53	200.0	s	-200.0																	0.0	0.0	0.0	0.0	7.0	2.0	30.0	2.0																													s	1.0	0.45104193687399996	None	0.0	4.0	lineorange.gif	go																								4.09	0.514575958252	0.0009019374847410001	0.451041936874	1.0	s	428.579525948																																		2015_Jul_08_1003	59.9063905516	LearningTask	1	83	
54	200.0	w	200.0																	0.0	0.0	0.0	0.0	7.0	3.0	31.0	0.0																													w	1.0	0.468101978302	None	0.0	2.0	triangleyellow.gif	stop																								2.06	0.514317989349	0.000909090042114	0.468101978302	1.0	w	431.58366394																																		2015_Jul_08_1003	59.9063905516	LearningTask	1	83	
55	-200.0	q	200.0																	0.0	0.0	0.0	0.0	8.0	0.0	32.0	1.0																													q	1.0	0.501188993454	None	0.0	1.0	circlecyan.gif	go																								1.18	0.513209819794	0.0009858608245850002	0.501188993454	1.0	q	434.58669900900003																																		2015_Jul_08_1003	59.9063905516	LearningTask	1	83	
56	200.0	w	200.0																	0.0	0.0	0.0	0.0	8.0	1.0	33.0	0.0																													w	1.0	0.434309959412	None	0.0	0.5	diamondgray.gif	stop																								0.0	0.5140600204469999	0.0009059906005860001	0.434309959412	1.0	w	437.589733839																																		2015_Jul_08_1003	59.9063905516	LearningTask	1	83	
57	200.0	w	200.0																	0.0	0.0	0.0	0.0	8.0	2.0	34.0	0.0																													w	1.0	0.400892972946	None	0.0	2.0	squareblue.gif	go																								1.9	0.5141630172730001	0.0009100437164310001	0.400892972946	1.0	w	440.593154907																																		2015_Jul_08_1003	59.9063905516	LearningTask	1	83	
58	200.0	s	-200.0																	0.0	0.0	0.0	0.0	8.0	3.0	35.0	2.0																													s	1.0	0.50110411644	None	0.0	4.0	lineorange.gif	go																								0.0	0.5139420032500001	0.00121402740479	0.50110411644	1.0	s	443.59639096300003																																		2015_Jul_08_1003	59.9063905516	LearningTask	1	83	
59	200.0	w	200.0																	0.0	0.0	0.0	0.0	9.0	0.0	36.0	0.0																													w	1.0	0.434807062149	None	0.0	4.0	invertedtrianglegreen.gif	stop																								4.17	0.514450073242	0.0010430812835700001	0.434807062149	1.0	w	446.600005865																																		2015_Jul_08_1003	59.9063905516	LearningTask	1	83	
60	200.0	s	-200.0																	0.0	0.0	0.0	0.0	9.0	1.0	37.0	2.0																													s	1.0	0.434594869614	None	0.0	1.0	hexagonwhite.gif	stop																								1.11	0.514133930206	0.0009291172027589999	0.434594869614	1.0	s	449.60327696800005																																		2015_Jul_08_1003	59.9063905516	LearningTask	1	83	
61	-200.0	a	-200.0																	0.0	0.0	0.0	0.0	9.0	2.0	38.0	3.0																													a	1.0	0.48368597030599997	None	0.0	2.0	triangleyellow.gif	stop																								2.09	0.514533996582	0.000902891159058	0.483685970306	1.0	a	452.60653495800005																																		2015_Jul_08_1003	59.9063905516	LearningTask	1	83	
62	-200.0	q	200.0																	0.0	0.0	0.0	0.0	9.0	3.0	39.0	1.0																													q	1.0	0.43440294265699997	None	0.0	1.0	hexagonwhite.gif	stop																								1.14	0.514029026031	0.000986814498901	0.434402942657	1.0	q	455.61007404300005																																		2015_Jul_08_1003	59.9063905516	LearningTask	1	83	
63	200.0	w	200.0																	0.0	0.0	0.0	0.0	10.0	0.0	40.0	0.0																													w	1.0	0.467696905136	None	0.0	4.0	invertedtrianglegreen.gif	stop																								4.06	0.514245033264	0.0009129047393799999	0.467696905136	1.0	w	458.61344099																																		2015_Jul_08_1003	59.9063905516	LearningTask	1	83	
64	-200.0	a	-200.0																	0.0	0.0	0.0	0.0	10.0	1.0	41.0	3.0																													a	1.0	0.501167058945	None	0.0	1.0	circlecyan.gif	go																								0.98	0.514147043228	0.0009059906005860001	0.501167058945	1.0	a	461.61661005																																		2015_Jul_08_1003	59.9063905516	LearningTask	1	83	
65	-200.0	q	200.0																	0.0	0.0	0.0	0.0	10.0	2.0	42.0	1.0																													q	1.0	0.417140007019	None	0.0	0.5	crossmagenta.gif	go																								0.46	0.514391899109	0.00090503692627	0.417140007019	1.0	q	464.62007784800005																																		2015_Jul_08_1003	59.9063905516	LearningTask	1	83	
66	-200.0	a	-200.0																	0.0	0.0	0.0	0.0	10.0	3.0	43.0	3.0																													a	1.0	0.467438936234	None	0.0	2.0	squareblue.gif	go																								2.12	0.514519929886	0.000894784927368	0.467438936234	1.0	a	467.623510838																																		2015_Jul_08_1003	59.9063905516	LearningTask	1	83	
67	200.0	s	-200.0																	0.0	0.0	0.0	0.0	11.0	0.0	44.0	2.0																													s	1.0	0.384203910828	None	0.0	0.5	diamondgray.gif	stop																								0.65	0.51441192627	0.0009357929229739999	0.384203910828	1.0	s	470.62696003900004																																		2015_Jul_08_1003	59.9063905516	LearningTask	1	83	
68	-200.0	a	-200.0																	0.0	0.0	0.0	0.0	11.0	1.0	45.0	3.0																													a	1.0	0.45112490654	None	0.0	4.0	invertedtrianglegreen.gif	stop																								3.81	0.513967990875	0.0009357929229739999	0.45112490654	1.0	a	473.629959822																																		2015_Jul_08_1003	59.9063905516	LearningTask	1	83	
69	200.0	w	200.0																	0.0	0.0	0.0	0.0	11.0	2.0	46.0	0.0																													w	1.0	0.36742591857900003	None	0.0	1.0	hexagonwhite.gif	stop																								0.82	0.514807224274	0.0009031295776369999	0.367425918579	1.0	w	476.63364481900004																																		2015_Jul_08_1003	59.9063905516	LearningTask	1	83	
70	-200.0	a	-200.0																	0.0	0.0	0.0	0.0	11.0	3.0	47.0	3.0																													a	1.0	0.33425784110999995	None	0.0	2.0	squareblue.gif	go																								1.91	0.514351129532	0.0009860992431639998	0.33425784111	1.0	a	479.63749790199995																																		2015_Jul_08_1003	59.9063905516	LearningTask	1	83	
71	-200.0	a	-200.0																	0.0	0.0	0.0	0.0	12.0	0.0	48.0	3.0																													a	1.0	0.417513847351	None	0.0	2.0	squareblue.gif	go																								1.86	0.513525009155	0.000995874404907	0.417513847351	1.0	a	482.640523911																																		2015_Jul_08_1003	59.9063905516	LearningTask	1	83	
72	-200.0	q	200.0																	0.0	0.0	0.0	0.0	12.0	1.0	49.0	1.0																													q	1.0	0.451053142548	None	0.0	4.0	lineorange.gif	go																								0.0	0.5143198966979999	0.000949859619141	0.451053142548	1.0	q	485.643620014																																		2015_Jul_08_1003	59.9063905516	LearningTask	1	83	
73	-200.0	a	-200.0																	0.0	0.0	0.0	0.0	12.0	2.0	50.0	3.0																													a	1.0	0.417684078217	None	0.0	1.0	circlecyan.gif	go																								0.78	0.514529943466	0.0009031295776369999	0.417684078217	1.0	a	488.646996975																																		2015_Jul_08_1003	59.9063905516	LearningTask	1	83	
74	200.0	s	-200.0																	0.0	0.0	0.0	0.0	12.0	3.0	51.0	2.0																													s	1.0	0.434607982635	None	0.0	1.0	hexagonwhite.gif	stop																								0.0	0.514145851135	0.0009508132934569999	0.434607982635	1.0	s	491.650418997																																		2015_Jul_08_1003	59.9063905516	LearningTask	1	83	
75	-200.0	q	200.0																	0.0	0.0	0.0	0.0	13.0	0.0	52.0	1.0																													q	1.0	0.467274904251	None	0.0	1.0	hexagonwhite.gif	stop																								0.82	0.514539957047	0.00113391876221	0.467274904251	1.0	q	494.653899908																																		2015_Jul_08_1003	59.9063905516	LearningTask	1	83	
76	200.0	s	-200.0																	0.0	0.0	0.0	0.0	13.0	1.0	53.0	2.0																													s	1.0	0.417438030243	None	0.0	0.5	crossmagenta.gif	go																								0.0	0.51437497139	0.000907897949219	0.417438030243	1.0	s	497.65733790400003																																		2015_Jul_08_1003	59.9063905516	LearningTask	1	83	
77	-200.0	q	200.0																	0.0	0.0	0.0	0.0	13.0	2.0	54.0	1.0																													q	1.0	0.36816596984899996	None	0.0	1.0	hexagonwhite.gif	stop																								1.22	0.514133930206	0.0009551048278810001	0.368165969849	1.0	q	500.66057181400004																																		2015_Jul_08_1003	59.9063905516	LearningTask	1	83	
78	-200.0	q	200.0																	0.0	0.0	0.0	0.0	13.0	3.0	55.0	1.0																													q	1.0	0.518000125885	None	0.0	4.0	lineorange.gif	go																								0.0	0.51384806633	0.000997066497803	0.40158700943	0.0	a	503.663939953	3.94	0.515542030334	0.0009541511535639998	0.518000125885	1.0	q	506.667654037																											2015_Jul_08_1003	59.9063905516	LearningTask	1	83	
79	-200.0	a	-200.0																	0.0	0.0	0.0	0.0	14.0	0.0	56.0	3.0																													a	1.0	0.518037080765	None	0.0	0.5	diamondgray.gif	stop																								0.27	0.513912916183	0.0008959770202639998	0.518037080765	1.0	a	509.670684814																																		2015_Jul_08_1003	59.9063905516	LearningTask	1	83	
80	200.0	w	200.0																	0.0	0.0	0.0	0.0	14.0	1.0	57.0	0.0																													w	1.0	0.417732000351	None	0.0	0.5	diamondgray.gif	stop																								0.41	0.514385938644	0.000898838043213	0.417732000351	1.0	w	512.674034834																																		2015_Jul_08_1003	59.9063905516	LearningTask	1	83	
81	200.0	s	-200.0																	0.0	0.0	0.0	0.0	14.0	2.0	58.0	2.0																													s	1.0	0.450911998749	None	0.0	2.0	squareblue.gif	go																								1.78	0.514596939087	0.000881910324097	0.450911998749	1.0	s	515.6774058340001																																		2015_Jul_08_1003	59.9063905516	LearningTask	1	83	
82	200.0	w	200.0																	0.0	0.0	0.0	0.0	14.0	3.0	59.0	0.0																													w	1.0	0.467694997787	None	0.0	1.0	hexagonwhite.gif	stop																								1.23	0.514204978943	0.0009357929229739999	0.467694997787	1.0	w	518.681311846																																		2015_Jul_08_1003	59.9063905516	LearningTask	1	83	
83	200.0	s	-200.0																	0.0	0.0	0.0	0.0	15.0	0.0	60.0	2.0																													s	1.0	0.46831703186000007	None	0.0	0.5	crossmagenta.gif	go																								0.72	0.513746023178	0.000962018966675	0.46831703186	1.0	s	521.684044838																																		2015_Jul_08_1003	59.9063905516	LearningTask	1	83	
84	200.0	s	-200.0																	0.0	0.0	0.0	0.0	15.0	1.0	61.0	2.0																													s	1.0	0.63399720192	None	0.0	0.5	diamondgray.gif	stop																								0.25	0.514669895172	0.0008938312530519999	0.63399720192	1.0	s	524.687683821																																		2015_Jul_08_1003	59.9063905516	LearningTask	1	83	
85	-200.0	q	200.0																	0.0	0.0	0.0	0.0	15.0	2.0	62.0	1.0																													q	1.0	0.40080404281599996	None	0.0	2.0	squareblue.gif	go																								2.13	0.5141940116879999	0.000902891159058	0.400804042816	1.0	q	527.691104889																																		2015_Jul_08_1003	59.9063905516	LearningTask	1	83	
86	-200.0	a	-200.0																	0.0	0.0	0.0	0.0	15.0	3.0	63.0	3.0																													a	1.0	0.417411088943	None	0.0	2.0	squareblue.gif	go																								1.84	0.514442920685	0.000961065292358	0.417411088943	1.0	a	530.6943218709999																																		2015_Jul_08_1003	59.9063905516	LearningTask	1	83	
87	200.0	w	200.0																	0.0	0.0	0.0	0.0	16.0	0.0	64.0	0.0																													w	1.0	0.517505884171	None	0.0	4.0	lineorange.gif	go																								4.16	0.5144081115720001	0.0009779930114750001	0.517505884171	1.0	w	533.697657824																																		2015_Jul_08_1003	59.9063905516	LearningTask	1	83	
88	-200.0	a	-200.0																	0.0	0.0	0.0	0.0	16.0	1.0	65.0	3.0																													a	1.0	0.584666013718	None	0.0	0.5	diamondgray.gif	stop																								0.32	0.514434099197	0.000890016555786	0.584666013718	1.0	a	536.701341867																																		2015_Jul_08_1003	59.9063905516	LearningTask	1	83	
89	-200.0	a	-200.0																	0.0	0.0	0.0	0.0	16.0	2.0	66.0	3.0																													a	1.0	0.518076896667	None	0.0	0.5	crossmagenta.gif	go																								0.38	0.5135729312899999	0.00102090835571	0.518076896667	1.0	a	539.704522848																																		2015_Jul_08_1003	59.9063905516	LearningTask	1	83	
90	-200.0	a	-200.0																	0.0	0.0	0.0	0.0	16.0	3.0	67.0	3.0																													a	1.0	0.467557191849	None	0.0	0.5	crossmagenta.gif	go																								0.58	0.514116048813	0.0011100769043	0.467557191849	1.0	a	542.707830906																																		2015_Jul_08_1003	59.9063905516	LearningTask	1	83	
91	200.0	w	200.0																	0.0	0.0	0.0	0.0	17.0	0.0	68.0	0.0																													w	1.0	0.41748905181900003	None	0.0	1.0	circlecyan.gif	go																								1.21	0.5143609046940001	0.0008959770202639998	0.417489051819	1.0	w	545.7114439009999																																		2015_Jul_08_1003	59.9063905516	LearningTask	1	83	
92	-200.0	q	200.0																	0.0	0.0	0.0	0.0	17.0	1.0	69.0	1.0																													q	1.0	0.417422056198	None	0.0	2.0	triangleyellow.gif	stop																								1.78	0.514039039612	0.000908136367798	0.417422056198	1.0	q	548.714756966																																		2015_Jul_08_1003	59.9063905516	LearningTask	1	83	
93	200.0	w	200.0																	0.0	0.0	0.0	0.0	17.0	2.0	70.0	0.0																													w	1.0	0.500788927078	None	0.0	1.0	circlecyan.gif	go																								1.11	0.5136158466340001	0.0009198188781739999	0.500788927078	1.0	w	551.7181928159999																																		2015_Jul_08_1003	59.9063905516	LearningTask	1	83	
94	-200.0	a	-200.0																	0.0	0.0	0.0	0.0	17.0	3.0	71.0	3.0																													a	1.0	0.6679341793060001	None	0.0	1.0	circlecyan.gif	go																								0.83	0.514184951782	0.0008990764617919999	0.667934179306	1.0	a	554.721390963																																		2015_Jul_08_1003	59.9063905516	LearningTask	1	83	
95	200.0	s	-200.0																	0.0	0.0	0.0	0.0	18.0	0.0	72.0	2.0																													s	1.0	0.450772047043	None	0.0	4.0	invertedtrianglegreen.gif	stop																								3.88	0.514410018921	0.0008931159973139998	0.450772047043	1.0	s	557.724653959																																		2015_Jul_08_1003	59.9063905516	LearningTask	1	83	
96	200.0	s	-200.0																	0.0	0.0	0.0	0.0	18.0	1.0	73.0	2.0																													s	1.0	0.46783423423799997	None	0.0	0.5	diamondgray.gif	stop																								0.51	0.514317035675	0.000962018966675	0.467834234238	1.0	s	560.7280750269999																																		2015_Jul_08_1003	59.9063905516	LearningTask	1	83	
97	200.0	w	200.0																	0.0	0.0	0.0	0.0	18.0	2.0	74.0	0.0																													w	1.0	0.467560052872	None	0.0	1.0	circlecyan.gif	go																								0.83	0.51423406601	0.0008990764617919999	0.467560052872	1.0	w	563.731459856																																		2015_Jul_08_1003	59.9063905516	LearningTask	1	83	
98	200.0	w	200.0																	0.0	0.0	0.0	0.0	18.0	3.0	75.0	0.0																													w	1.0	0.518064975739	None	0.0	1.0	circlecyan.gif	go																								1.23	0.514216899872	0.000904083251953	0.518064975739	1.0	w	566.7348690030001																																		2015_Jul_08_1003	59.9063905516	LearningTask	1	83	
99	200.0	s	-200.0																	0.0	0.0	0.0	0.0	19.0	0.0	76.0	2.0																													s	1.0	0.417495965958	None	0.0	2.0	squareblue.gif	go																								0.0	0.514154911041	0.0009608268737789999	0.417495965958	1.0	s	569.738576889																																		2015_Jul_08_1003	59.9063905516	LearningTask	1	83	
100	-200.0	q	200.0																	0.0	0.0	0.0	0.0	19.0	1.0	77.0	1.0																													q	1.0	0.551750898361	None	0.0	4.0	invertedtrianglegreen.gif	stop																								4.14	0.513894081116	0.0009109973907470001	0.551750898361	1.0	q	572.741538048																																		2015_Jul_08_1003	59.9063905516	LearningTask	1	83	
101	200.0	s	-200.0																	0.0	0.0	0.0	0.0	19.0	2.0	78.0	2.0																													s	1.0	0.450828075409	None	0.0	1.0	circlecyan.gif	go																								0.86	0.514508008957	0.0009059906005860001	0.450828075409	1.0	s	575.744968891																																		2015_Jul_08_1003	59.9063905516	LearningTask	1	83	
102	200.0	w	200.0																	0.0	0.0	0.0	0.0	19.0	3.0	79.0	0.0																													w	1.0	0.43467998504600003	None	0.0	2.0	squareblue.gif	go																								1.85	0.5140759944919999	0.000988006591797	0.434679985046	1.0	w	578.748306036																																		2015_Jul_08_1003	59.9063905516	LearningTask	1	83	
103	-200.0	q	200.0																	0.0	0.0	0.0	0.0	20.0	0.0	80.0	1.0																													q	1.0	0.435127973557	None	0.0	4.0	invertedtrianglegreen.gif	stop																								3.93	0.514174938202	0.00100994110107	0.435127973557	1.0	q	581.752347946																																		2015_Jul_08_1003	59.9063905516	LearningTask	1	83	
104	200.0	s	-200.0																	0.0	0.0	0.0	0.0	20.0	1.0	81.0	2.0																													s	1.0	0.485086917877	None	0.0	2.0	triangleyellow.gif	stop																								2.04	0.513600111008	0.000900030136108	0.485086917877	1.0	s	584.755179882																																		2015_Jul_08_1003	59.9063905516	LearningTask	1	83	
105	-200.0	a	-200.0																	0.0	0.0	0.0	0.0	20.0	2.0	82.0	3.0																													a	1.0	0.7514011859890001	None	0.0	0.5	crossmagenta.gif	go																								0.43	0.513998031616	0.00092601776123	0.751401185989	1.0	a	587.758416891																																		2015_Jul_08_1003	59.9063905516	LearningTask	1	83	
106	-200.0	q	200.0																	0.0	0.0	0.0	0.0	20.0	3.0	83.0	1.0																													q	1.0	0.46745800971999996	None	0.0	2.0	squareblue.gif	go																								2.14	0.514096975327	0.00096607208252	0.46745800972	1.0	q	590.761934042																																		2015_Jul_08_1003	59.9063905516	LearningTask	1	83	
107	200.0	s	-200.0																	0.0	0.0	0.0	0.0	21.0	0.0	84.0	2.0																													s	1.0	0.485044956207	None	0.0	0.5	diamondgray.gif	stop																								0.7	0.514261960983	0.0008950233459470001	0.485044956207	1.0	s	593.765172958																																		2015_Jul_08_1003	59.9063905516	LearningTask	1	83	
108	200.0	s	-200.0																	0.0	0.0	0.0	0.0	21.0	1.0	85.0	2.0																													s	1.0	0.501136064529	None	0.0	2.0	squareblue.gif	go																								1.79	0.514332056046	0.000913143157959	0.501136064529	1.0	s	596.7685739990001																																		2015_Jul_08_1003	59.9063905516	LearningTask	1	83	
109	-200.0	q	200.0																	0.0	0.0	0.0	0.0	21.0	2.0	86.0	1.0																													q	1.0	0.517287015915	None	0.0	4.0	lineorange.gif	go																								4.25	0.514288187027	0.0009250640869139999	0.517287015915	1.0	q	599.7721419330001																																		2015_Jul_08_1003	59.9063905516	LearningTask	1	83	
110	-200.0	q	200.0																	0.0	0.0	0.0	0.0	21.0	3.0	87.0	1.0																													q	1.0	0.45169806480400004	None	0.0	4.0	lineorange.gif	go																								4.24	0.5141630172730001	0.000900030136108	0.451698064804	1.0	q	602.775554895																																		2015_Jul_08_1003	59.9063905516	LearningTask	1	83	
111	200.0	w	200.0																	0.0	0.0	0.0	0.0	22.0	0.0	88.0	0.0																													w	1.0	0.45092582702600004	None	0.0	4.0	invertedtrianglegreen.gif	stop																								4.06	0.514090061188	0.0009059906005860001	0.450925827026	1.0	w	605.77895999																																		2015_Jul_08_1003	59.9063905516	LearningTask	1	83	
112	-200.0	q	200.0																	0.0	0.0	0.0	0.0	22.0	1.0	89.0	1.0																													q	1.0	0.617780923843	None	0.0	4.0	invertedtrianglegreen.gif	stop																								4.05	0.513937950134	0.0009589195251460001	0.617780923843	1.0	q	608.781903982																																		2015_Jul_08_1003	59.9063905516	LearningTask	1	83	
113	200.0	w	200.0																	0.0	0.0	0.0	0.0	22.0	2.0	90.0	0.0																													w	1.0	0.41745615005500003	None	0.0	0.5	crossmagenta.gif	go																								0.39	0.514668941498	0.0009100437164310001	0.417456150055	1.0	w	611.785624981																																		2015_Jul_08_1003	59.9063905516	LearningTask	1	83	
114	-200.0	q	200.0																	0.0	0.0	0.0	0.0	22.0	3.0	91.0	1.0																													q	1.0	0.483840942383	None	0.0	1.0	circlecyan.gif	go																								0.0	0.514515161514	0.0009441375732419999	0.483840942383	1.0	q	614.788988829																																		2015_Jul_08_1003	59.9063905516	LearningTask	1	83	
115	200.0	s	-200.0																	0.0	0.0	0.0	0.0	23.0	0.0	92.0	2.0																													s	1.0	0.45051407813999994	None	0.0	4.0	invertedtrianglegreen.gif	stop																								3.96	0.514538049698	0.00097918510437	0.45051407814	1.0	s	617.7922348980001																																		2015_Jul_08_1003	59.9063905516	LearningTask	1	83	
116	200.0	w	200.0																	0.0	0.0	0.0	0.0	23.0	1.0	93.0	0.0																													w	1.0	0.434191942215	None	0.0	2.0	triangleyellow.gif	stop																								2.03	0.514271974564	0.000917911529541	0.434191942215	1.0	w	620.795624018																																		2015_Jul_08_1003	59.9063905516	LearningTask	1	83	
117	200.0	w	200.0																	0.0	0.0	0.0	0.0	23.0	2.0	94.0	0.0																													w	1.0	0.400705099106	None	0.0	1.0	hexagonwhite.gif	stop																								0.0	0.514485120773	0.000900030136108	0.400705099106	1.0	w	623.799124002																																		2015_Jul_08_1003	59.9063905516	LearningTask	1	83	
118	200.0	w	200.0																	0.0	0.0	0.0	0.0	23.0	3.0	95.0	0.0																													w	1.0	0.468079090118	None	0.0	2.0	squareblue.gif	go																								0.0	0.5138540267939999	0.000902891159058	0.468079090118	1.0	w	626.802759886																																		2015_Jul_08_1003	59.9063905516	LearningTask	1	83	
119	200.0	s	-200.0																	0.0	0.0	0.0	0.0	24.0	0.0	96.0	2.0																													s	1.0	0.41753506660499995	None	0.0	1.0	hexagonwhite.gif	stop																								0.91	0.513897180557	0.000984191894531	0.417535066605	1.0	s	629.805881023																																		2015_Jul_08_1003	59.9063905516	LearningTask	1	83	
120	-200.0	q	200.0																	0.0	0.0	0.0	0.0	24.0	1.0	97.0	1.0																													q	1.0	0.36732196807899997	None	0.0	0.5	crossmagenta.gif	go																								0.54	0.514217853546	0.0028269290924099995	0.367321968079	1.0	q	632.809093952																																		2015_Jul_08_1003	59.9063905516	LearningTask	1	83	
121	200.0	w	200.0																	0.0	0.0	0.0	0.0	24.0	2.0	98.0	0.0																													w	1.0	0.467584133148	None	0.0	1.0	hexagonwhite.gif	stop																								0.91	0.514298915863	0.0008997917175289999	0.467584133148	1.0	w	635.812260866																																		2015_Jul_08_1003	59.9063905516	LearningTask	1	83	
122	200.0	s	-200.0																	0.0	0.0	0.0	0.0	24.0	3.0	99.0	2.0																													s	1.0	0.417689800262	None	0.0	1.0	hexagonwhite.gif	stop																								0.0	0.514165878296	0.000977039337158	0.417689800262	1.0	s	638.815753937																																		2015_Jul_08_1003	59.9063905516	LearningTask	1	83	
123																				0.0	0.0	0.0	0.0																																																																														9.0	12.6019639969																									2015_Jul_08_1003	59.9063905516	LearningTask	1	83	
124	200.0	w	200.0																	1.0	0.0	1.0	0.0	0.0	0.0	0.0	0.0																													w	1.0	0.45144104957599995	None	0.0	2.0	triangleyellow.gif	stop																								1.98	0.509996175766	0.000892162322998	0.451441049576	1.0	w	654.868405819																																		2015_Jul_08_1003	59.9063905516	LearningTask	1	83	
125	200.0	s	-200.0																	1.0	0.0	1.0	0.0	0.0	1.0	1.0	2.0																													s	1.0	0.417787075043	None	0.0	0.5	crossmagenta.gif	go																								0.67	0.51287817955	0.0009150505065920001	0.417787075043	1.0	s	657.870576859																																		2015_Jul_08_1003	59.9063905516	LearningTask	1	83	
126	-200.0	q	200.0																	1.0	0.0	1.0	0.0	0.0	2.0	2.0	1.0																													q	1.0	0.36748194694499997	None	0.0	1.0	hexagonwhite.gif	stop																								0.78	0.514461994171	0.0009069442749019998	0.367481946945	1.0	q	660.874061823																																		2015_Jul_08_1003	59.9063905516	LearningTask	1	83	
127	200.0	s	-200.0																	1.0	0.0	1.0	0.0	0.0	3.0	3.0	2.0																													s	1.0	0.451491832733	None	0.0	4.0	invertedtrianglegreen.gif	stop																								3.75	0.514536857605	0.000900030136108	0.451491832733	1.0	s	663.87735486																																		2015_Jul_08_1003	59.9063905516	LearningTask	1	83	
128	200.0	s	-200.0																	1.0	0.0	1.0	0.0	1.0	0.0	4.0	2.0																													s	1.0	0.38434100151100004	None	0.0	1.0	hexagonwhite.gif	stop																								0.88	0.514178991318	0.00090503692627	0.384341001511	1.0	s	666.880692959																																		2015_Jul_08_1003	59.9063905516	LearningTask	1	83	
129	200.0	s	-200.0																	1.0	0.0	1.0	0.0	1.0	1.0	5.0	2.0																													s	1.0	0.41749691963200003	None	0.0	0.5	crossmagenta.gif	go																								0.0	0.514352083206	0.0009751319885249999	0.417496919632	1.0	s	669.884425879																																		2015_Jul_08_1003	59.9063905516	LearningTask	1	83	
130	200.0	w	200.0																	1.0	0.0	1.0	0.0	1.0	2.0	6.0	0.0																													w	1.0	0.318112134933	None	0.0	2.0	triangleyellow.gif	stop																								2.16	0.513675928116	0.0009169578552250001	0.318112134933	1.0	w	672.887634993																																		2015_Jul_08_1003	59.9063905516	LearningTask	1	83	
131	200.0	s	-200.0																	1.0	0.0	1.0	0.0	1.0	3.0	7.0	2.0																													s	1.0	0.433501958847	None	0.0	0.5	diamondgray.gif	stop																								0.41	0.514539957047	0.0008940696716310001	0.433501958847	1.0	s	675.890838861																																		2015_Jul_08_1003	59.9063905516	LearningTask	1	83	
132	200.0	w	200.0																	1.0	0.0	1.0	0.0	2.0	0.0	8.0	0.0																													w	1.0	0.40024900436399996	None	0.0	2.0	triangleyellow.gif	stop																								0.0	0.514133930206	0.00111198425293	0.400249004364	1.0	w	678.894184828																																		2015_Jul_08_1003	59.9063905516	LearningTask	1	83	
133	200.0	s	-200.0																	1.0	0.0	1.0	0.0	2.0	1.0	9.0	2.0																													s	1.0	0.35106086730999997	None	0.0	1.0	hexagonwhite.gif	stop																								0.0	0.5146050453190001	0.000907897949219	0.35106086731	1.0	s	681.897698879																																		2015_Jul_08_1003	59.9063905516	LearningTask	1	83	
134	200.0	s	-200.0																	1.0	0.0	1.0	0.0	2.0	2.0	10.0	2.0																													s	1.0	0.43425989151	None	0.0	1.0	circlecyan.gif	go																								0.0	0.5141270160679999	0.000902891159058	0.43425989151	1.0	s	684.9013798240001																																		2015_Jul_08_1003	59.9063905516	LearningTask	1	83	
135	-200.0	q	200.0																	1.0	0.0	1.0	0.0	2.0	3.0	11.0	1.0																													q	1.0	0.551558971405	None	0.0	4.0	lineorange.gif	go																								0.0	0.5133650302889999	0.000969171524048	0.551558971405	1.0	q	687.9049019810001																																		2015_Jul_08_1003	59.9063905516	LearningTask	1	83	
136	200.0	w	200.0																	1.0	0.0	1.0	0.0	3.0	0.0	12.0	0.0																													w	1.0	0.517668008804	None	0.0	0.5	diamondgray.gif	stop																								0.0	0.5142121315	0.0009140968322749999	[]	0.0	None	690.90793395	0.25	0.515397071838	0.000959873199463	0.517668008804	1.0	w	693.911831856			0.0253798961639																								2015_Jul_08_1003	59.9063905516	LearningTask	1	83	
137	-200.0	a	-200.0																	1.0	0.0	1.0	0.0	3.0	1.0	13.0	3.0																													a	1.0	0.584537029266	None	0.0	4.0	lineorange.gif	go																								4.19	0.513524770737	0.0009069442749019998	0.584537029266	1.0	a	696.914502859																																		2015_Jul_08_1003	59.9063905516	LearningTask	1	83	
138	-200.0	q	200.0																	1.0	0.0	1.0	0.0	3.0	2.0	14.0	1.0																													q	1.0	0.417684078217	None	0.0	0.5	crossmagenta.gif	go																								0.44	0.514310836792	0.0009019374847410001	0.417684078217	1.0	q	699.918028831																																		2015_Jul_08_1003	59.9063905516	LearningTask	1	83	
139	-200.0	q	200.0																	1.0	0.0	1.0	0.0	3.0	3.0	15.0	1.0																													q	1.0	0.41825699806199995	None	0.0	4.0	lineorange.gif	go																								3.88	0.5138609409329999	0.000902891159058	0.418256998062	1.0	q	702.921353817																																		2015_Jul_08_1003	59.9063905516	LearningTask	1	83	
140	-200.0	a	-200.0																	1.0	0.0	1.0	0.0	4.0	0.0	16.0	3.0																													a	1.0	0.467669963837	None	0.0	1.0	circlecyan.gif	go																								1.23	0.514611959457	0.0008981227874760001	0.467669963837	1.0	a	705.924626827																																		2015_Jul_08_1003	59.9063905516	LearningTask	1	83	
141	200.0	w	200.0																	1.0	0.0	1.0	0.0	4.0	1.0	17.0	0.0																													w	1.0	0.35084486007700005	None	0.0	1.0	circlecyan.gif	go																								0.0	0.514294147491	0.0009291172027589999	0.350844860077	1.0	w	708.927819967																																		2015_Jul_08_1003	59.9063905516	LearningTask	1	83	
142	-200.0	a	-200.0																	1.0	0.0	1.0	0.0	4.0	2.0	18.0	3.0																													a	1.0	0.500907897949	None	0.0	0.5	crossmagenta.gif	go																								0.0	0.514581918716	0.0008769035339360002	0.500907897949	1.0	a	711.931489944																																		2015_Jul_08_1003	59.9063905516	LearningTask	1	83	
143	200.0	w	200.0																	1.0	0.0	1.0	0.0	4.0	3.0	19.0	0.0																													w	1.0	0.45125913619999997	None	0.0	1.0	circlecyan.gif	go																								0.0	0.514292001724	0.0008821487426760002	0.4512591362	1.0	w	714.934916019																																		2015_Jul_08_1003	59.9063905516	LearningTask	1	83	
144	200.0	s	-200.0																	1.0	0.0	1.0	0.0	5.0	0.0	20.0	2.0																													s	1.0	0.551054000854	None	0.0	0.5	diamondgray.gif	stop																								0.45	0.5141048431399999	0.000940799713135	0.551054000854	1.0	s	717.93827486																																		2015_Jul_08_1003	59.9063905516	LearningTask	1	83	
145	-200.0	q	200.0																	1.0	0.0	1.0	0.0	5.0	1.0	21.0	1.0																													q	1.0	0.4505560398100001	None	0.0	0.5	crossmagenta.gif	go																								0.41	0.514490127563	0.000885009765625	0.45055603981	1.0	q	720.941730976																																		2015_Jul_08_1003	59.9063905516	LearningTask	1	83	
146	-200.0	q	200.0																	1.0	0.0	1.0	0.0	5.0	2.0	22.0	1.0																													q	1.0	0.484133958817	None	0.0	0.5	diamondgray.gif	stop																								0.69	0.514213085175	0.0008790493011469999	0.484133958817	1.0	q	723.94472599																																		2015_Jul_08_1003	59.9063905516	LearningTask	1	83	
147	200.0	w	200.0																	1.0	0.0	1.0	0.0	5.0	3.0	23.0	0.0																													w	1.0	0.41795396804799995	None	0.0	1.0	hexagonwhite.gif	stop																								0.0	0.514242887497	0.0009338855743410001	0.417953968048	1.0	w	726.9481730460001																																		2015_Jul_08_1003	59.9063905516	LearningTask	1	83	
148	-200.0	a	-200.0																	1.0	0.0	1.0	0.0	6.0	0.0	24.0	3.0																													a	1.0	0.45123219490099997	None	0.0	0.5	diamondgray.gif	stop																								0.54	0.514298915863	0.0008790493011469999	0.451232194901	1.0	a	729.951865911																																		2015_Jul_08_1003	59.9063905516	LearningTask	1	83	
149	200.0	w	200.0																	1.0	0.0	1.0	0.0	6.0	1.0	25.0	0.0																													w	1.0	0.38410305976899994	None	0.0	0.5	crossmagenta.gif	go																								0.48	0.514270067215	0.0008761882781980001	0.384103059769	1.0	w	732.95544982																																		2015_Jul_08_1003	59.9063905516	LearningTask	1	83	
150	-200.0	a	-200.0																	1.0	0.0	1.0	0.0	6.0	2.0	26.0	3.0																													a	1.0	0.517305850983	None	0.0	2.0	triangleyellow.gif	stop																								2.24	0.5139498710629999	0.00119709968567	0.517305850983	1.0	a	735.9584980010001																																		2015_Jul_08_1003	59.9063905516	LearningTask	1	83	
151	-200.0	a	-200.0																	1.0	0.0	1.0	0.0	6.0	3.0	27.0	3.0																													a	1.0	0.534203052521	None	0.0	2.0	triangleyellow.gif	stop																								2.12	0.51446390152	0.0008749961853029999	0.534203052521	1.0	a	738.9618439669999																																		2015_Jul_08_1003	59.9063905516	LearningTask	1	83	
152	-200.0	a	-200.0																	1.0	0.0	1.0	0.0	7.0	0.0	28.0	3.0																													a	1.0	0.501502990723	None	0.0	2.0	triangleyellow.gif	stop																								2.25	0.514117002487	0.0008981227874760001	0.501502990723	1.0	a	741.9655480380001																																		2015_Jul_08_1003	59.9063905516	LearningTask	1	83	
153	-200.0	a	-200.0																	1.0	0.0	1.0	0.0	7.0	1.0	29.0	3.0																													a	1.0	0.550857067108	None	0.0	1.0	hexagonwhite.gif	stop																								0.0	0.513648033142	0.0009100437164310001	0.550857067108	1.0	a	744.9685330389999																																		2015_Jul_08_1003	59.9063905516	LearningTask	1	83	
154	200.0	s	-200.0																	1.0	0.0	1.0	0.0	7.0	2.0	30.0	2.0																													s	1.0	0.484541893005	None	0.0	2.0	triangleyellow.gif	stop																								2.13	0.5145030021670001	0.000877857208252	0.484541893005	1.0	s	747.971985817																																		2015_Jul_08_1003	59.9063905516	LearningTask	1	83	
155	-200.0	a	-200.0																	1.0	0.0	1.0	0.0	7.0	3.0	31.0	3.0																													a	1.0	0.534352064133	None	0.0	0.5	crossmagenta.gif	go																								0.34	0.514235019684	0.0008790493011469999	0.534352064133	1.0	a	750.975528955																																		2015_Jul_08_1003	59.9063905516	LearningTask	1	83	
156	200.0	w	200.0																	1.0	0.0	1.0	0.0	8.0	0.0	32.0	0.0																													w	1.0	0.41733789443999997	None	0.0	2.0	triangleyellow.gif	stop																								1.83	0.514110088348	0.000885009765625	0.41733789444	1.0	w	753.9786150460001																																		2015_Jul_08_1003	59.9063905516	LearningTask	1	83	
157	-200.0	a	-200.0																	1.0	0.0	1.0	0.0	8.0	1.0	33.0	3.0																													a	1.0	0.500962018967	None	0.0	1.0	circlecyan.gif	go																								1.03	0.51433801651	0.00107097625732	0.500962018967	1.0	a	756.982549906																																		2015_Jul_08_1003	59.9063905516	LearningTask	1	83	
158	-200.0	q	200.0																	1.0	0.0	1.0	0.0	8.0	2.0	34.0	1.0																													q	1.0	0.401388883591	None	0.0	0.5	diamondgray.gif	stop																								0.45	0.51374578476	0.000877857208252	0.401388883591	1.0	q	759.985451937																																		2015_Jul_08_1003	59.9063905516	LearningTask	1	83	
159	200.0	s	-200.0																	1.0	0.0	1.0	0.0	8.0	3.0	35.0	2.0																													s	1.0	0.383795976639	None	0.0	1.0	hexagonwhite.gif	stop																								0.0	0.514378070831	0.000961065292358	0.383795976639	1.0	s	762.988713026																																		2015_Jul_08_1003	59.9063905516	LearningTask	1	83	
160	-200.0	q	200.0																	1.0	0.0	1.0	0.0	9.0	0.0	36.0	1.0																													q	1.0	0.38452196121200005	None	0.0	2.0	triangleyellow.gif	stop																								1.84	0.514126062393	0.0009379386901860002	0.384521961212	1.0	q	765.9921																																		2015_Jul_08_1003	59.9063905516	LearningTask	1	83	
161	200.0	w	200.0																	1.0	0.0	1.0	0.0	9.0	1.0	37.0	0.0																													w	1.0	0.400650024414	None	0.0	4.0	lineorange.gif	go																								3.81	0.514568805695	0.0008769035339360002	0.400650024414	1.0	w	768.99552393																																		2015_Jul_08_1003	59.9063905516	LearningTask	1	83	
162	-200.0	q	200.0																	1.0	0.0	1.0	0.0	9.0	2.0	38.0	1.0																													q	1.0	0.433901071548	None	0.0	1.0	hexagonwhite.gif	stop																								1.07	0.514548063278	0.0008831024169919999	0.433901071548	1.0	q	771.998749018																																		2015_Jul_08_1003	59.9063905516	LearningTask	1	83	
163	200.0	s	-200.0																	1.0	0.0	1.0	0.0	9.0	3.0	39.0	2.0																													s	1.0	0.550867080688	None	0.0	4.0	invertedtrianglegreen.gif	stop																								4.13	0.514802932739	0.000934839248657	0.550867080688	1.0	s	775.002059937																																		2015_Jul_08_1003	59.9063905516	LearningTask	1	83	
164	-200.0	q	200.0																	1.0	0.0	1.0	0.0	10.0	0.0	40.0	1.0																													q	1.0	0.38407206535300004	None	0.0	4.0	invertedtrianglegreen.gif	stop																								4.2	0.5147490501399999	0.0008838176727290001	0.384072065353	1.0	q	778.005756855																																		2015_Jul_08_1003	59.9063905516	LearningTask	1	83	
165	-200.0	a	-200.0																	1.0	0.0	1.0	0.0	10.0	1.0	41.0	3.0																													a	1.0	0.45086407661399996	None	0.0	4.0	invertedtrianglegreen.gif	stop																								3.82	0.514183998108	0.0008959770202639998	0.450864076614	1.0	a	781.00920105																																		2015_Jul_08_1003	59.9063905516	LearningTask	1	83	
166	200.0	w	200.0																	1.0	0.0	1.0	0.0	10.0	2.0	42.0	0.0																													w	1.0	0.383950948715	None	0.0	0.5	diamondgray.gif	stop																								0.56	0.513851165771	0.0009710788726810001	0.383950948715	1.0	w	784.012424946																																		2015_Jul_08_1003	59.9063905516	LearningTask	1	83	
167	-200.0	q	200.0																	1.0	0.0	1.0	0.0	10.0	3.0	43.0	1.0																													q	1.0	0.551624059677	None	0.0	4.0	invertedtrianglegreen.gif	stop																								3.76	0.513998031616	0.000880002975464	0.551624059677	1.0	q	787.015568972																																		2015_Jul_08_1003	59.9063905516	LearningTask	1	83	
168	200.0	w	200.0																	1.0	0.0	1.0	0.0	11.0	0.0	44.0	0.0																													w	1.0	0.7174568176270001	None	0.0	4.0	lineorange.gif	go																								3.98	0.51472902298	0.0008790493011469999	0.717456817627	1.0	w	790.0197539330001																																		2015_Jul_08_1003	59.9063905516	LearningTask	1	83	
169	200.0	s	-200.0																	1.0	0.0	1.0	0.0	11.0	1.0	45.0	2.0																													s	1.0	0.534604072571	None	0.0	4.0	lineorange.gif	go																								3.78	0.513458967209	0.0008831024169919999	0.534604072571	1.0	s	793.022560835																																		2015_Jul_08_1003	59.9063905516	LearningTask	1	83	
170	-200.0	q	200.0																	1.0	0.0	1.0	0.0	11.0	2.0	46.0	1.0																													q	1.0	0.434682130814	None	0.0	0.5	crossmagenta.gif	go																								0.27	0.514379024506	0.0009329319000239999	0.434682130814	1.0	q	796.025720835																																		2015_Jul_08_1003	59.9063905516	LearningTask	1	83	
171	200.0	w	200.0																	1.0	0.0	1.0	0.0	11.0	3.0	47.0	0.0																													w	1.0	0.400635004044	None	0.0	0.5	diamondgray.gif	stop																								0.7	0.514669179916	0.000888109207153	0.400635004044	1.0	w	799.0292959210001																																		2015_Jul_08_1003	59.9063905516	LearningTask	1	83	
172	200.0	w	200.0																	1.0	0.0	1.0	0.0	12.0	0.0	48.0	0.0																													w	1.0	0.45144605636600005	None	0.0	0.5	crossmagenta.gif	go																								0.63	0.514307975769	0.000888109207153	0.451446056366	1.0	w	802.033264875																																		2015_Jul_08_1003	59.9063905516	LearningTask	1	83	
173	-200.0	a	-200.0																	1.0	0.0	1.0	0.0	12.0	1.0	49.0	3.0																													a	1.0	0.7181329727169999	None	0.0	0.5	crossmagenta.gif	go																								0.29	0.5132269859309999	0.00102186203003	0.718132972717	1.0	a	805.0362489219999																																		2015_Jul_08_1003	59.9063905516	LearningTask	1	83	
174	-200.0	q	200.0																	1.0	0.0	1.0	0.0	12.0	2.0	50.0	1.0																													q	1.0	0.484560012817	None	0.0	0.5	diamondgray.gif	stop																								0.46	0.513954162598	0.000930070877075	0.484560012817	1.0	q	808.0394709110001																																		2015_Jul_08_1003	59.9063905516	LearningTask	1	83	
175	200.0	s	-200.0																	1.0	0.0	1.0	0.0	12.0	3.0	51.0	2.0																													s	1.0	0.434719800949	None	0.0	4.0	invertedtrianglegreen.gif	stop																								4.15	0.514400005341	0.0008838176727290001	0.434719800949	1.0	s	811.042724848																																		2015_Jul_08_1003	59.9063905516	LearningTask	1	83	
176	200.0	w	200.0																	1.0	0.0	1.0	0.0	13.0	0.0	52.0	0.0																													w	1.0	0.367624998093	None	0.0	1.0	circlecyan.gif	go																								0.94	0.5142149925230001	0.0010039806366	0.367624998093	1.0	w	814.046113968																																		2015_Jul_08_1003	59.9063905516	LearningTask	1	83	
177	200.0	w	200.0																	1.0	0.0	1.0	0.0	13.0	1.0	53.0	0.0																													w	1.0	0.401443004608	None	0.0	2.0	squareblue.gif	go																								2.08	0.514497041702	0.0008749961853029999	0.401443004608	1.0	w	817.0500190260001																																		2015_Jul_08_1003	59.9063905516	LearningTask	1	83	
178	-200.0	a	-200.0																	1.0	0.0	1.0	0.0	13.0	2.0	54.0	3.0																													a	1.0	0.5509397983550001	None	0.0	1.0	hexagonwhite.gif	stop																								0.89	0.513784885406	0.000881910324097	0.550939798355	1.0	a	820.053133965																																		2015_Jul_08_1003	59.9063905516	LearningTask	1	83	
179	200.0	s	-200.0																	1.0	0.0	1.0	0.0	13.0	3.0	55.0	2.0																													s	1.0	0.40054607391400004	None	0.0	0.5	crossmagenta.gif	go																								0.33	0.514198064804	0.0009431838989260002	0.400546073914	1.0	s	823.05644393																																		2015_Jul_08_1003	59.9063905516	LearningTask	1	83	
180	200.0	s	-200.0																	1.0	0.0	1.0	0.0	14.0	0.0	56.0	2.0																													s	1.0	0.48439788818400004	None	0.0	4.0	lineorange.gif	go																								0.0	0.5139951705929999	0.000907182693481	0.484397888184	1.0	s	826.059643984																																		2015_Jul_08_1003	59.9063905516	LearningTask	1	83	
181	-200.0	a	-200.0																	1.0	0.0	1.0	0.0	14.0	1.0	57.0	3.0																													a	1.0	0.5510959625240001	None	0.0	4.0	lineorange.gif	go																								4.15	0.514231920242	0.00117492675781	0.551095962524	1.0	a	829.0636060239999																																		2015_Jul_08_1003	59.9063905516	LearningTask	1	83	
182	200.0	w	200.0																	1.0	0.0	1.0	0.0	14.0	2.0	58.0	0.0																													w	1.0	0.517663002014	None	0.0	1.0	circlecyan.gif	go																								0.0	0.5134010314940001	0.0009379386901860002	0.517663002014	1.0	w	832.0663950439999																																		2015_Jul_08_1003	59.9063905516	LearningTask	1	83	
183	200.0	w	200.0																	1.0	0.0	1.0	0.0	14.0	3.0	59.0	0.0																													w	1.0	0.483889818192	None	0.0	0.5	diamondgray.gif	stop																								0.48	0.514678001404	0.00090217590332	0.483889818192	1.0	w	835.0698068139999																																		2015_Jul_08_1003	59.9063905516	LearningTask	1	83	
184	200.0	w	200.0																	1.0	0.0	1.0	0.0	15.0	0.0	60.0	0.0																													w	1.0	0.485006093979	None	0.0	1.0	circlecyan.gif	go																								1.16	0.514071941376	0.0008909702301030001	0.485006093979	1.0	w	838.073559046																																		2015_Jul_08_1003	59.9063905516	LearningTask	1	83	
185	-200.0	q	200.0																	1.0	0.0	1.0	0.0	15.0	1.0	61.0	1.0																													q	1.0	0.41725897789000005	None	0.0	0.5	diamondgray.gif	stop																								0.56	0.514271020889	0.0008759498596189999	0.41725897789	1.0	q	841.076586962																																		2015_Jul_08_1003	59.9063905516	LearningTask	1	83	
186	200.0	s	-200.0																	1.0	0.0	1.0	0.0	15.0	2.0	62.0	2.0																													s	1.0	0.36712312698399996	None	0.0	2.0	triangleyellow.gif	stop																								1.77	0.514372110367	0.00098705291748	0.367123126984	1.0	s	844.0799908639999																																		2015_Jul_08_1003	59.9063905516	LearningTask	1	83	
187	-200.0	q	200.0																	1.0	0.0	1.0	0.0	15.0	3.0	63.0	1.0																													q	1.0	0.517884016037	None	0.0	0.5	crossmagenta.gif	go																								0.34	0.514112949371	0.0008749961853029999	0.517884016037	1.0	q	847.0834980010001																																		2015_Jul_08_1003	59.9063905516	LearningTask	1	83	
188	-200.0	a	-200.0																	1.0	0.0	1.0	0.0	16.0	0.0	64.0	3.0																													a	1.0	0.467292070389	None	0.0	4.0	lineorange.gif	go																								4.24	0.514219045639	0.000885009765625	0.467292070389	1.0	a	850.086606979																																		2015_Jul_08_1003	59.9063905516	LearningTask	1	83	
189	200.0	s	-200.0																	1.0	0.0	1.0	0.0	16.0	1.0	65.0	2.0																													s	1.0	0.48410701751699997	None	0.0	4.0	lineorange.gif	go																								4.05	0.514456033707	0.0009479522705080001	0.484107017517	1.0	s	853.089970827																																		2015_Jul_08_1003	59.9063905516	LearningTask	1	83	
190	-200.0	q	200.0																	1.0	0.0	1.0	0.0	16.0	2.0	66.0	1.0																													q	1.0	0.368390083313	None	0.0	1.0	circlecyan.gif	go																								0.81	0.514235019684	0.0008940696716310001	0.368390083313	1.0	q	856.0935390000001																																		2015_Jul_08_1003	59.9063905516	LearningTask	1	83	
191	200.0	s	-200.0																	1.0	0.0	1.0	0.0	16.0	3.0	67.0	2.0																													s	1.0	0.45077419281000003	None	0.0	4.0	invertedtrianglegreen.gif	stop																								4.04	0.514408826828	0.000881910324097	0.45077419281	1.0	s	859.096542835																																		2015_Jul_08_1003	59.9063905516	LearningTask	1	83	
192	200.0	s	-200.0																	1.0	0.0	1.0	0.0	17.0	0.0	68.0	2.0																													s	1.0	0.5011298656459999	None	0.0	2.0	triangleyellow.gif	stop																								1.82	0.514245986938	0.000922918319702	0.501129865646	1.0	s	862.099979877																																		2015_Jul_08_1003	59.9063905516	LearningTask	1	83	
193	200.0	s	-200.0																	1.0	0.0	1.0	0.0	17.0	1.0	69.0	2.0																													s	1.0	0.48408412933300005	None	0.0	1.0	circlecyan.gif	go																								0.0	0.514773130417	0.00090503692627	0.484084129333	1.0	s	865.1035749910001																																		2015_Jul_08_1003	59.9063905516	LearningTask	1	83	
194	-200.0	q	200.0																	1.0	0.0	1.0	0.0	17.0	2.0	70.0	1.0																													q	1.0	0.43387413024899996	None	0.0	4.0	invertedtrianglegreen.gif	stop																								4.04	0.5145039558410001	0.000882863998413	0.433874130249	1.0	q	868.1075110439999																																		2015_Jul_08_1003	59.9063905516	LearningTask	1	83	
195	-200.0	a	-200.0																	1.0	0.0	1.0	0.0	17.0	3.0	71.0	3.0																													a	1.0	0.534127950668	None	0.0	4.0	invertedtrianglegreen.gif	stop																								3.87	0.513752937317	0.00088095664978	0.534127950668	1.0	a	871.110365868																																		2015_Jul_08_1003	59.9063905516	LearningTask	1	83	
196	200.0	w	200.0																	1.0	0.0	1.0	0.0	18.0	0.0	72.0	0.0																													w	1.0	0.517754793167	None	0.0	4.0	lineorange.gif	go																								3.79	0.514308929443	0.0008759498596189999	0.517754793167	1.0	w	874.1134889130001																																		2015_Jul_08_1003	59.9063905516	LearningTask	1	83	
197	200.0	w	200.0																	1.0	0.0	1.0	0.0	18.0	1.0	73.0	0.0																													w	1.0	0.53462100029	None	0.0	0.5	crossmagenta.gif	go																								0.66	0.514357089996	0.0008840560913089999	0.53462100029	1.0	w	877.117233992																																		2015_Jul_08_1003	59.9063905516	LearningTask	1	83	
198	-200.0	a	-200.0																	1.0	0.0	1.0	0.0	18.0	2.0	74.0	3.0																													a	1.0	0.551625967026	None	0.0	2.0	triangleyellow.gif	stop																								2.0	0.513514995575	0.0009031295776369999	0.551625967026	1.0	a	880.120492935																																		2015_Jul_08_1003	59.9063905516	LearningTask	1	83	
199	-200.0	q	200.0																	1.0	0.0	1.0	0.0	18.0	3.0	75.0	1.0																													q	1.0	0.5011789798740001	None	0.0	1.0	hexagonwhite.gif	stop																								0.0	0.514290094376	0.0008840560913089999	0.501178979874	1.0	q	883.1237299439999																																		2015_Jul_08_1003	59.9063905516	LearningTask	1	83	
200	-200.0	q	200.0																	1.0	0.0	1.0	0.0	19.0	0.0	76.0	1.0																													q	1.0	0.45087194442699996	None	0.0	0.5	crossmagenta.gif	go																								0.31	0.5146219730380001	0.000888109207153	0.450871944427	1.0	q	886.127462864																																		2015_Jul_08_1003	59.9063905516	LearningTask	1	83	
201	200.0	w	200.0																	1.0	0.0	1.0	0.0	19.0	1.0	77.0	0.0																													w	1.0	0.45120096206699994	None	0.0	0.5	diamondgray.gif	stop																								0.39	0.514133930206	0.00088095664978	0.451200962067	1.0	w	889.1303248410001																																		2015_Jul_08_1003	59.9063905516	LearningTask	1	83	
202	-200.0	a	-200.0																	1.0	0.0	1.0	0.0	19.0	2.0	78.0	3.0																													a	1.0	0.5175819396970001	None	0.0	2.0	squareblue.gif	go																								2.19	0.512385845184	0.000921964645386	0.517581939697	1.0	a	892.134254932																																		2015_Jul_08_1003	59.9063905516	LearningTask	1	83	
203	-200.0	q	200.0																	1.0	0.0	1.0	0.0	19.0	3.0	79.0	1.0																													q	1.0	0.484315872192	None	0.0	4.0	lineorange.gif	go																								4.25	0.513989925385	0.000869989395142	0.484315872192	1.0	q	895.137370825																																		2015_Jul_08_1003	59.9063905516	LearningTask	1	83	
204	-200.0	a	-200.0																	1.0	0.0	1.0	0.0	20.0	0.0	80.0	3.0																													a	1.0	0.484204053879	None	0.0	0.5	crossmagenta.gif	go																								0.56	0.514378070831	0.000900983810425	0.484204053879	1.0	a	898.1404509539999																																		2015_Jul_08_1003	59.9063905516	LearningTask	1	83	
205	200.0	w	200.0																	1.0	0.0	1.0	0.0	20.0	1.0	81.0	0.0																													w	1.0	0.417752981186	None	0.0	4.0	invertedtrianglegreen.gif	stop																								3.78	0.514204978943	0.00108194351196	0.417752981186	1.0	w	901.144037962																																		2015_Jul_08_1003	59.9063905516	LearningTask	1	83	
206	-200.0	a	-200.0																	1.0	0.0	1.0	0.0	20.0	2.0	82.0	3.0																													a	1.0	0.7178430557250001	None	0.0	1.0	hexagonwhite.gif	stop																								0.79	0.514400005341	0.0008869171142580001	0.717843055725	1.0	a	904.1476018430001																																		2015_Jul_08_1003	59.9063905516	LearningTask	1	83	
207	-200.0	q	200.0																	1.0	0.0	1.0	0.0	20.0	3.0	83.0	1.0																													q	1.0	0.45075511932400003	None	0.0	1.0	hexagonwhite.gif	stop																								0.0	0.514175891876	0.0008790493011469999	0.450755119324	1.0	q	907.150599003																																		2015_Jul_08_1003	59.9063905516	LearningTask	1	83	
208	-200.0	a	-200.0																	1.0	0.0	1.0	0.0	21.0	0.0	84.0	3.0																													a	1.0	0.56729388237	None	0.0	0.5	crossmagenta.gif	go																								0.31	0.5145130157469999	0.000946044921875	0.56729388237	1.0	a	910.154593945																																		2015_Jul_08_1003	59.9063905516	LearningTask	1	83	
209	-200.0	a	-200.0																	1.0	0.0	1.0	0.0	21.0	1.0	85.0	3.0																													a	1.0	0.43400120735200004	None	0.0	4.0	invertedtrianglegreen.gif	stop																								4.04	0.513875961304	0.00116801261902	0.434001207352	1.0	a	913.157579899																																		2015_Jul_08_1003	59.9063905516	LearningTask	1	83	
210	200.0	w	200.0																	1.0	0.0	1.0	0.0	21.0	2.0	86.0	0.0																													w	1.0	0.6010921001430001	None	0.0	1.0	circlecyan.gif	go																								0.86	0.514206886292	0.0008831024169919999	0.601092100143	1.0	w	916.1613140110001																																		2015_Jul_08_1003	59.9063905516	LearningTask	1	83	
211	-200.0	q	200.0																	1.0	0.0	1.0	0.0	21.0	3.0	87.0	1.0																													q	1.0	0.551867008209	w	0.0	1.0	circlecyan.gif	go																								0.86	0.513798952103	0.000913858413696	0.551867008209	1.0	q	919.1643218989999										0.842138051987																								2015_Jul_08_1003	59.9063905516	LearningTask	1	83	
212	200.0	s	-200.0																	1.0	0.0	1.0	0.0	22.0	0.0	88.0	2.0																													s	1.0	0.5337820053100001	None	0.0	1.0	circlecyan.gif	go																								0.95	0.5145988464360001	0.000962018966675	0.53378200531	1.0	s	922.1679038999999																																		2015_Jul_08_1003	59.9063905516	LearningTask	1	83	
213	-200.0	q	200.0																	1.0	0.0	1.0	0.0	22.0	1.0	89.0	1.0																													q	1.0	0.467107057571	None	0.0	2.0	squareblue.gif	go																								2.11	0.514440059662	0.0008761882781980001	0.467107057571	1.0	q	925.1712679860001																																		2015_Jul_08_1003	59.9063905516	LearningTask	1	83	
214	200.0	w	200.0																	1.0	0.0	1.0	0.0	22.0	2.0	90.0	0.0																													w	1.0	0.401463985443	None	0.0	2.0	squareblue.gif	go																								2.06	0.513768911362	0.0008740425109860002	0.401463985443	1.0	w	928.174480915																																		2015_Jul_08_1003	59.9063905516	LearningTask	1	83	
215	-200.0	a	-200.0																	1.0	0.0	1.0	0.0	22.0	3.0	91.0	3.0																													a	1.0	0.417532920837	None	0.0	4.0	invertedtrianglegreen.gif	stop																								3.97	0.514433145523	0.0008950233459470001	0.417532920837	1.0	a	931.17772603																																		2015_Jul_08_1003	59.9063905516	LearningTask	1	83	
216	200.0	s	-200.0																	1.0	0.0	1.0	0.0	23.0	0.0	92.0	2.0																													s	1.0	0.38449716568000003	None	0.0	1.0	circlecyan.gif	go																								0.77	0.514339923859	0.0009200572967529999	0.38449716568	1.0	s	934.181490898																																		2015_Jul_08_1003	59.9063905516	LearningTask	1	83	
217	200.0	s	-200.0																	1.0	0.0	1.0	0.0	23.0	1.0	93.0	2.0																													s	1.0	0.48409199714699996	None	0.0	4.0	invertedtrianglegreen.gif	stop																								0.0	0.51426410675	0.000890016555786	0.484091997147	1.0	s	937.184674978																																		2015_Jul_08_1003	59.9063905516	LearningTask	1	83	
218	200.0	s	-200.0																	1.0	0.0	1.0	0.0	23.0	2.0	94.0	2.0																													s	1.0	0.617238044739	None	0.0	2.0	triangleyellow.gif	stop																								2.0	0.514311075211	0.0009391307830810002	0.617238044739	1.0	s	940.187829971																																		2015_Jul_08_1003	59.9063905516	LearningTask	1	83	
219	-200.0	a	-200.0																	1.0	0.0	1.0	0.0	23.0	3.0	95.0	3.0																													a	1.0	0.7841460704800001	None	0.0	4.0	lineorange.gif	go																								4.1	0.514744997025	0.0009860992431639998	0.78414607048	1.0	a	943.1913950439999																																		2015_Jul_08_1003	59.9063905516	LearningTask	1	83	
220	-200.0	a	-200.0																	1.0	0.0	1.0	0.0	24.0	0.0	96.0	3.0																													a	1.0	0.46769785881000003	None	0.0	4.0	invertedtrianglegreen.gif	stop																								4.24	0.514480113983	0.000887155532837	0.46769785881	1.0	a	946.1946458819999																																		2015_Jul_08_1003	59.9063905516	LearningTask	1	83	
221	-200.0	q	200.0																	1.0	0.0	1.0	0.0	24.0	1.0	97.0	1.0																													q	1.0	0.467945098877	None	0.0	1.0	circlecyan.gif	go																								1.07	0.513894081116	0.00099515914917	0.467945098877	1.0	q	949.197886944																																		2015_Jul_08_1003	59.9063905516	LearningTask	1	83	
222	-200.0	q	200.0																	1.0	0.0	1.0	0.0	24.0	2.0	98.0	1.0																													q	1.0	0.467558860779	None	0.0	2.0	squareblue.gif	go																								2.17	0.5145778656009999	0.0008950233459470001	0.467558860779	1.0	q	952.201367855																																		2015_Jul_08_1003	59.9063905516	LearningTask	1	83	
223	200.0	s	-200.0																	1.0	0.0	1.0	0.0	24.0	3.0	99.0	2.0																													s	1.0	0.43434095382700005	None	0.0	2.0	squareblue.gif	go																								2.06	0.514497995377	0.00088095664978	0.434340953827	1.0	s	955.204985857																																		2015_Jul_08_1003	59.9063905516	LearningTask	1	83	
224																				1.0	0.0	1.0	0.0																																																																														9.0	39.1331579685																									2015_Jul_08_1003	59.9063905516	LearningTask	1	83	
225	-200.0	a	-200.0																	2.0	0.0	2.0	0.0	0.0	0.0	0.0	3.0																													a	1.0	0.617491960526	None	0.0	0.5	diamondgray.gif	stop																								0.52	0.509737968445	0.000909090042114	0.617491960526	1.0	a	998.0367028710001																																		2015_Jul_08_1003	59.9063905516	LearningTask	1	83	
226	-200.0	q	200.0																	2.0	0.0	2.0	0.0	0.0	1.0	1.0	1.0																													q	1.0	0.417803049088	None	0.0	0.5	crossmagenta.gif	go																								0.0	0.513673067093	0.0008790493011469999	0.417803049088	1.0	q	1001.03969288																																		2015_Jul_08_1003	59.9063905516	LearningTask	1	83	
227	-200.0	q	200.0																	2.0	0.0	2.0	0.0	0.0	2.0	2.0	1.0																													q	1.0	0.467680931091	None	0.0	0.5	crossmagenta.gif	go																								0.0	0.514477968216	0.000877857208252	0.467680931091	1.0	q	1004.04375005																																		2015_Jul_08_1003	59.9063905516	LearningTask	1	83	
228	-200.0	a	-200.0																	2.0	0.0	2.0	0.0	0.0	3.0	3.0	3.0																													a	1.0	0.38419008255000003	None	0.0	4.0	lineorange.gif	go																								4.07	0.513273000717	0.00102210044861	0.38419008255	1.0	a	1007.04654598																																		2015_Jul_08_1003	59.9063905516	LearningTask	1	83	
229	-200.0	a	-200.0																	2.0	0.0	2.0	0.0	1.0	0.0	4.0	3.0																													a	1.0	0.467834949493	None	0.0	2.0	squareblue.gif	go																								0.0	0.514079093933	0.0008769035339360002	0.467834949493	1.0	a	1010.0497178999999																																		2015_Jul_08_1003	59.9063905516	LearningTask	1	83	
230	200.0	w	200.0																	2.0	0.0	2.0	0.0	1.0	1.0	5.0	0.0																													w	1.0	0.534821987152	None	0.0	4.0	invertedtrianglegreen.gif	stop																								4.19	0.514290094376	0.000882863998413	0.534821987152	1.0	w	1013.05341101																																		2015_Jul_08_1003	59.9063905516	LearningTask	1	83	
231	-200.0	a	-200.0																	2.0	0.0	2.0	0.0	1.0	2.0	6.0	3.0																													a	1.0	0.517766952515	None	0.0	0.5	diamondgray.gif	stop																								0.74	0.5137758255	0.0008838176727290001	0.517766952515	1.0	a	1016.05646205																																		2015_Jul_08_1003	59.9063905516	LearningTask	1	83	
232	200.0	w	200.0																	2.0	0.0	2.0	0.0	1.0	3.0	7.0	0.0																													w	1.0	0.634574174881	None	0.0	4.0	invertedtrianglegreen.gif	stop																								4.08	0.5145778656009999	0.000931024551392	0.634574174881	1.0	w	1019.05993199																																		2015_Jul_08_1003	59.9063905516	LearningTask	1	83	
233	200.0	s	-200.0																	2.0	0.0	2.0	0.0	2.0	0.0	8.0	2.0																													s	1.0	0.451369047165	None	0.0	1.0	hexagonwhite.gif	stop																								0.79	0.514218091965	0.00093412399292	0.451369047165	1.0	s	1022.06348205																																		2015_Jul_08_1003	59.9063905516	LearningTask	1	83	
234	200.0	w	200.0																	2.0	0.0	2.0	0.0	2.0	1.0	9.0	0.0																													w	1.0	0.534348964691	None	0.0	4.0	invertedtrianglegreen.gif	stop																								3.97	0.5142750740049999	0.0008831024169919999	0.534348964691	1.0	w	1025.06669784																																		2015_Jul_08_1003	59.9063905516	LearningTask	1	83	
235	200.0	w	200.0																	2.0	0.0	2.0	0.0	2.0	2.0	10.0	0.0																													w	1.0	0.433885097504	None	0.0	2.0	squareblue.gif	go																								2.17	0.514450073242	0.00127601623535	0.433885097504	1.0	w	1028.07012296																																		2015_Jul_08_1003	59.9063905516	LearningTask	1	83	
236	200.0	s	-200.0																	2.0	0.0	2.0	0.0	2.0	3.0	11.0	2.0																													s	1.0	0.384597063065	None	0.0	0.5	crossmagenta.gif	go																								0.75	0.51390004158	0.00088095664978	0.384597063065	1.0	s	1031.07372403																																		2015_Jul_08_1003	59.9063905516	LearningTask	1	83	
237	200.0	s	-200.0																	2.0	0.0	2.0	0.0	3.0	0.0	12.0	2.0																													s	1.0	0.40039110183700005	None	0.0	4.0	lineorange.gif	go																								4.2	0.5139930248260001	0.0008780956268310002	0.400391101837	1.0	s	1034.07690096																																		2015_Jul_08_1003	59.9063905516	LearningTask	1	83	
238	-200.0	a	-200.0																	2.0	0.0	2.0	0.0	3.0	1.0	13.0	3.0																													a	1.0	0.43434214592	None	0.0	2.0	triangleyellow.gif	stop																								0.0	0.514018058777	0.000909090042114	0.43434214592	1.0	a	1037.08017802																																		2015_Jul_08_1003	59.9063905516	LearningTask	1	83	
239	200.0	s	-200.0																	2.0	0.0	2.0	0.0	3.0	2.0	14.0	2.0																													s	1.0	0.46742010116599997	None	0.0	2.0	squareblue.gif	go																								2.14	0.514380931854	0.00087308883667	0.467420101166	1.0	s	1040.08340287																																		2015_Jul_08_1003	59.9063905516	LearningTask	1	83	
240	200.0	w	200.0																	2.0	0.0	2.0	0.0	3.0	3.0	15.0	0.0																													w	1.0	0.38400292396499996	None	0.0	4.0	lineorange.gif	go																								4.0	0.5146920681	0.00173497200012	0.384002923965	1.0	w	1043.08670592																																		2015_Jul_08_1003	59.9063905516	LearningTask	1	83	
241	200.0	w	200.0																	2.0	0.0	2.0	0.0	4.0	0.0	16.0	0.0																													w	1.0	0.46802020072899997	None	0.0	0.5	crossmagenta.gif	go																								0.0	0.514206886292	0.00092601776123	0.468020200729	1.0	w	1046.09045887																																		2015_Jul_08_1003	59.9063905516	LearningTask	1	83	
242	200.0	w	200.0																	2.0	0.0	2.0	0.0	4.0	1.0	17.0	0.0																													w	1.0	0.434267997742	None	0.0	0.5	crossmagenta.gif	go																								0.55	0.514265060425	0.0008790493011469999	0.434267997742	1.0	w	1049.09360385																																		2015_Jul_08_1003	59.9063905516	LearningTask	1	83	
243	-200.0	q	200.0																	2.0	0.0	2.0	0.0	4.0	2.0	18.0	1.0																													q	1.0	0.46733188629199995	None	0.0	1.0	circlecyan.gif	go																								0.76	0.514804840088	0.0008759498596189999	0.467331886292	1.0	q	1052.09773803																																		2015_Jul_08_1003	59.9063905516	LearningTask	1	83	
244	200.0	s	-200.0																	2.0	0.0	2.0	0.0	4.0	3.0	19.0	2.0																													s	1.0	0.45089793205300005	None	0.0	4.0	lineorange.gif	go																								4.09	0.513716936111	0.0008878707885739998	0.450897932053	1.0	s	1055.10067797																																		2015_Jul_08_1003	59.9063905516	LearningTask	1	83	
245	200.0	s	-200.0																	2.0	0.0	2.0	0.0	5.0	0.0	20.0	2.0																													s	1.0	0.43514990806599996	None	0.0	0.5	diamondgray.gif	stop																								0.74	0.513864994049	0.000977039337158	0.435149908066	1.0	s	1058.10399199																																		2015_Jul_08_1003	59.9063905516	LearningTask	1	83	
246	-200.0	q	200.0																	2.0	0.0	2.0	0.0	5.0	1.0	21.0	1.0																													q	1.0	0.501093864441	None	0.0	1.0	hexagonwhite.gif	stop																								0.94	0.5139570236209999	0.0011079311370799998	0.501093864441	1.0	q	1061.10758781																																		2015_Jul_08_1003	59.9063905516	LearningTask	1	83	
247	200.0	s	-200.0																	2.0	0.0	2.0	0.0	5.0	2.0	22.0	2.0																													s	1.0	0.401108026505	None	0.0	2.0	triangleyellow.gif	stop																								1.87	0.513831138611	0.0008740425109860002	0.401108026505	1.0	s	1064.11091805																																		2015_Jul_08_1003	59.9063905516	LearningTask	1	83	
248	-200.0	q	200.0																	2.0	0.0	2.0	0.0	5.0	3.0	23.0	1.0																													q	1.0	0.48459005355800006	None	0.0	0.5	diamondgray.gif	stop																								0.0	0.51398897171	0.0011968612670899999	0.484590053558	1.0	q	1067.11432004																																		2015_Jul_08_1003	59.9063905516	LearningTask	1	83	
249	200.0	w	200.0																	2.0	0.0	2.0	0.0	6.0	0.0	24.0	0.0																													w	1.0	0.500803947449	None	0.0	0.5	crossmagenta.gif	go																								0.43	0.5139210224149999	0.0008978843688960001	0.500803947449	1.0	w	1070.11735702																																		2015_Jul_08_1003	59.9063905516	LearningTask	1	83	
250	-200.0	a	-200.0																	2.0	0.0	2.0	0.0	6.0	1.0	25.0	3.0																													a	1.0	0.48454689979599996	None	0.0	4.0	lineorange.gif	go																								3.94	0.514352083206	0.0009369850158689999	0.484546899796	1.0	a	1073.1207149																																		2015_Jul_08_1003	59.9063905516	LearningTask	1	83	
251	200.0	w	200.0																	2.0	0.0	2.0	0.0	6.0	2.0	26.0	0.0																													w	1.0	0.41762208938600004	None	0.0	2.0	triangleyellow.gif	stop																								2.05	0.51406788826	0.00105094909668	0.417622089386	1.0	w	1076.12455297																																		2015_Jul_08_1003	59.9063905516	LearningTask	1	83	
252	200.0	s	-200.0																	2.0	0.0	2.0	0.0	6.0	3.0	27.0	2.0																													s	1.0	0.45088505744900004	None	0.0	0.5	crossmagenta.gif	go																								0.0	0.513881921768	0.0009369850158689999	0.450885057449	1.0	s	1079.12749004																																		2015_Jul_08_1003	59.9063905516	LearningTask	1	83	
253	200.0	s	-200.0																	2.0	0.0	2.0	0.0	7.0	0.0	28.0	2.0																													s	1.0	0.40078186988799996	None	0.0	2.0	triangleyellow.gif	stop																								1.85	0.514168024063	0.00092887878418	0.400781869888	1.0	s	1082.13121295																																		2015_Jul_08_1003	59.9063905516	LearningTask	1	83	
254	200.0	s	-200.0																	2.0	0.0	2.0	0.0	7.0	1.0	29.0	2.0																													s	1.0	0.48461318016099997	None	0.0	2.0	squareblue.gif	go																								1.76	0.5132608413699999	0.000888824462891	0.484613180161	1.0	s	1085.13438797																																		2015_Jul_08_1003	59.9063905516	LearningTask	1	83	
255	200.0	s	-200.0																	2.0	0.0	2.0	0.0	7.0	2.0	30.0	2.0																													s	1.0	0.417797088623	None	0.0	0.5	diamondgray.gif	stop																								0.56	0.513987064362	0.0009129047393799999	0.417797088623	1.0	s	1088.13746786																																		2015_Jul_08_1003	59.9063905516	LearningTask	1	83	
256	-200.0	q	200.0																	2.0	0.0	2.0	0.0	7.0	3.0	31.0	1.0																													q	1.0	0.46798992156999997	None	0.0	0.5	crossmagenta.gif	go																								0.65	0.514287233353	0.0008840560913089999	0.46798992157	1.0	q	1091.14153004																																		2015_Jul_08_1003	59.9063905516	LearningTask	1	83	
257	200.0	s	-200.0																	2.0	0.0	2.0	0.0	8.0	0.0	32.0	2.0																													s	1.0	0.534462928772	None	0.0	1.0	hexagonwhite.gif	stop																								1.0	0.513554096222	0.0009140968322749999	0.534462928772	1.0	s	1094.14455199																																		2015_Jul_08_1003	59.9063905516	LearningTask	1	83	
258	200.0	w	200.0																	2.0	0.0	2.0	0.0	8.0	1.0	33.0	0.0																													w	1.0	0.433770895004	None	0.0	2.0	triangleyellow.gif	stop																								1.75	0.514456987381	0.0008840560913089999	0.433770895004	1.0	w	1097.14763284																																		2015_Jul_08_1003	59.9063905516	LearningTask	1	83	
259	-200.0	q	200.0																	2.0	0.0	2.0	0.0	8.0	2.0	34.0	1.0																													q	1.0	0.46731710433999996	None	0.0	1.0	hexagonwhite.gif	stop																								1.01	0.51456785202	0.0010619163513200002	0.46731710434	1.0	q	1100.15135384																																		2015_Jul_08_1003	59.9063905516	LearningTask	1	83	
260	200.0	w	200.0																	2.0	0.0	2.0	0.0	8.0	3.0	35.0	0.0																													w	1.0	0.40081310272200005	None	0.0	1.0	hexagonwhite.gif	stop																								1.12	0.514097929001	0.0009679794311519998	0.400813102722	1.0	w	1103.154634																																		2015_Jul_08_1003	59.9063905516	LearningTask	1	83	
261	-200.0	a	-200.0																	2.0	0.0	2.0	0.0	9.0	0.0	36.0	3.0																													a	1.0	0.66799902916	None	0.0	2.0	squareblue.gif	go																								1.96	0.5138978958129999	0.000907897949219	0.66799902916	1.0	a	1106.157727																																		2015_Jul_08_1003	59.9063905516	LearningTask	1	83	
262	-200.0	a	-200.0																	2.0	0.0	2.0	0.0	9.0	1.0	37.0	3.0																													a	1.0	0.48469805717500003	None	0.0	0.5	diamondgray.gif	stop																								0.0	0.5144591331480001	0.0011210441589400001	0.484698057175	1.0	a	1109.16137695																																		2015_Jul_08_1003	59.9063905516	LearningTask	1	83	
263	200.0	s	-200.0																	2.0	0.0	2.0	0.0	9.0	2.0	38.0	2.0																													s	1.0	0.483905076981	None	0.0	4.0	lineorange.gif	go																								3.89	0.5143899917600001	0.0008740425109860002	0.483905076981	1.0	s	1112.16491795																																		2015_Jul_08_1003	59.9063905516	LearningTask	1	83	
264	-200.0	q	200.0																	2.0	0.0	2.0	0.0	9.0	3.0	39.0	1.0																													q	1.0	0.40138697624200004	None	0.0	0.5	diamondgray.gif	stop																								0.35	0.513568162918	0.0009391307830810002	0.401386976242	1.0	q	1115.16835093																																		2015_Jul_08_1003	59.9063905516	LearningTask	1	83	
265	200.0	s	-200.0																	2.0	0.0	2.0	0.0	10.0	0.0	40.0	2.0																													s	1.0	0.484405994415	None	0.0	2.0	triangleyellow.gif	stop																								2.21	0.513742923737	0.0008790493011469999	0.484405994415	1.0	s	1118.17132902																																		2015_Jul_08_1003	59.9063905516	LearningTask	1	83	
266	-200.0	q	200.0																	2.0	0.0	2.0	0.0	10.0	1.0	41.0	1.0																													q	1.0	0.41854691505400005	None	0.0	2.0	triangleyellow.gif	stop																								1.8	0.514110088348	0.0008780956268310002	0.418546915054	1.0	q	1121.17474198																																		2015_Jul_08_1003	59.9063905516	LearningTask	1	83	
267	-200.0	a	-200.0																	2.0	0.0	2.0	0.0	10.0	2.0	42.0	3.0																													a	1.0	0.468549013138	None	0.0	0.5	crossmagenta.gif	go																								0.51	0.513952970505	0.0009448528289790001	0.468549013138	1.0	a	1124.17789483																																		2015_Jul_08_1003	59.9063905516	LearningTask	1	83	
268	200.0	s	-200.0																	2.0	0.0	2.0	0.0	10.0	3.0	43.0	2.0																													s	1.0	0.401076793671	None	0.0	2.0	triangleyellow.gif	stop																								2.16	0.5146918296809999	0.0008869171142580001	0.401076793671	1.0	s	1127.1818099000002																																		2015_Jul_08_1003	59.9063905516	LearningTask	1	83	
269	-200.0	a	-200.0																	2.0	0.0	2.0	0.0	11.0	0.0	44.0	3.0																													a	1.0	0.41729092598000006	None	0.0	1.0	hexagonwhite.gif	stop																								1.17	0.514126062393	0.000880002975464	0.41729092598	1.0	a	1130.18497205																																		2015_Jul_08_1003	59.9063905516	LearningTask	1	83	
270	-200.0	q	200.0																	2.0	0.0	2.0	0.0	11.0	1.0	45.0	1.0																													q	1.0	0.417450904846	None	0.0	0.5	crossmagenta.gif	go																								0.56	0.51397895813	0.0008909702301030001	0.417450904846	1.0	q	1133.18850493																																		2015_Jul_08_1003	59.9063905516	LearningTask	1	83	
271	-200.0	a	-200.0																	2.0	0.0	2.0	0.0	11.0	2.0	46.0	3.0																													a	1.0	0.45154595375100004	None	0.0	0.5	diamondgray.gif	stop																								0.34	0.513781070709	0.00088095664978	0.451545953751	1.0	a	1136.19158387																																		2015_Jul_08_1003	59.9063905516	LearningTask	1	83	
272	200.0	s	-200.0																	2.0	0.0	2.0	0.0	11.0	3.0	47.0	2.0																													s	1.0	0.434110164642	None	0.0	4.0	invertedtrianglegreen.gif	stop																								3.76	0.514292001724	0.000890016555786	0.434110164642	1.0	s	1139.1953609000002																																		2015_Jul_08_1003	59.9063905516	LearningTask	1	83	
273	-200.0	a	-200.0																	2.0	0.0	2.0	0.0	12.0	0.0	48.0	3.0																													a	1.0	0.53410410881	None	0.0	0.5	crossmagenta.gif	go																								0.29	0.514180898666	0.0008978843688960001	0.53410410881	1.0	a	1142.19853497																																		2015_Jul_08_1003	59.9063905516	LearningTask	1	83	
274	200.0	w	200.0																	2.0	0.0	2.0	0.0	12.0	1.0	49.0	0.0																													w	1.0	0.517874956131	None	0.0	0.5	diamondgray.gif	stop																								0.6	0.514271020889	0.0008769035339360002	0.517874956131	1.0	w	1145.20175791																																		2015_Jul_08_1003	59.9063905516	LearningTask	1	83	
275	200.0	w	200.0																	2.0	0.0	2.0	0.0	12.0	2.0	50.0	0.0																													w	1.0	0.48367190361	None	0.0	2.0	squareblue.gif	go																								1.88	0.514686107635	0.0009541511535639998	0.48367190361	1.0	w	1148.20504904																																		2015_Jul_08_1003	59.9063905516	LearningTask	1	83	
276	200.0	w	200.0																	2.0	0.0	2.0	0.0	12.0	3.0	51.0	0.0																													w	1.0	0.384817838669	None	0.0	2.0	triangleyellow.gif	stop																								0.0	0.514073133469	0.0008790493011469999	0.384817838669	1.0	w	1151.2085669																																		2015_Jul_08_1003	59.9063905516	LearningTask	1	83	
277	200.0	w	200.0																	2.0	0.0	2.0	0.0	13.0	0.0	52.0	0.0																													w	1.0	0.451011180878	None	0.0	1.0	hexagonwhite.gif	stop																								0.0	0.514213085175	0.0010092258453400001	0.451011180878	1.0	w	1154.21167183																																		2015_Jul_08_1003	59.9063905516	LearningTask	1	83	
278	200.0	s	-200.0																	2.0	0.0	2.0	0.0	13.0	1.0	53.0	2.0																													s	1.0	0.43440508842500003	None	0.0	4.0	invertedtrianglegreen.gif	stop																								3.95	0.51465511322	0.0009241104125980002	0.434405088425	1.0	s	1157.215307																																		2015_Jul_08_1003	59.9063905516	LearningTask	1	83	
279	200.0	w	200.0																	2.0	0.0	2.0	0.0	13.0	2.0	54.0	0.0																													w	1.0	0.434240102768	None	0.0	2.0	squareblue.gif	go																								2.15	0.514203071594	0.0008780956268310002	0.434240102768	1.0	w	1160.21864986																																		2015_Jul_08_1003	59.9063905516	LearningTask	1	83	
280	200.0	w	200.0																	2.0	0.0	2.0	0.0	13.0	3.0	55.0	0.0																													w	1.0	0.334644079208	None	0.0	0.5	diamondgray.gif	stop																								0.52	0.513827085495	0.0009479522705080001	0.334644079208	1.0	w	1163.22188997																																		2015_Jul_08_1003	59.9063905516	LearningTask	1	83	
281	-200.0	q	200.0																	2.0	0.0	2.0	0.0	14.0	0.0	56.0	1.0																													q	1.0	0.4679210186	None	0.0	0.5	crossmagenta.gif	go																								0.0	0.513999938965	0.00088095664978	0.4679210186	1.0	q	1166.22539091																																		2015_Jul_08_1003	59.9063905516	LearningTask	1	83	
282	-200.0	q	200.0																	2.0	0.0	2.0	0.0	14.0	1.0	57.0	1.0																													q	1.0	0.36756682395900003	None	0.0	4.0	lineorange.gif	go																								4.18	0.514492034912	0.00141191482544	0.367566823959	1.0	q	1169.22868085																																		2015_Jul_08_1003	59.9063905516	LearningTask	1	83	
283	200.0	s	-200.0																	2.0	0.0	2.0	0.0	14.0	2.0	58.0	2.0																													s	1.0	0.45136022567699996	None	0.0	0.5	crossmagenta.gif	go																								0.67	0.513912916183	0.0009140968322749999	0.451360225677	1.0	s	1172.23219991																																		2015_Jul_08_1003	59.9063905516	LearningTask	1	83	
284	-200.0	a	-200.0																	2.0	0.0	2.0	0.0	14.0	3.0	59.0	3.0																													a	1.0	0.40123915672300003	None	0.0	1.0	circlecyan.gif	go																								0.95	0.514288902283	0.0008859634399410001	0.401239156723	1.0	a	1175.23556185																																		2015_Jul_08_1003	59.9063905516	LearningTask	1	83	
285	-200.0	q	200.0																	2.0	0.0	2.0	0.0	15.0	0.0	60.0	1.0																													q	1.0	0.551050901413	None	0.0	4.0	invertedtrianglegreen.gif	stop																								3.9	0.514404058456	0.0008831024169919999	0.551050901413	1.0	q	1178.23936582																																		2015_Jul_08_1003	59.9063905516	LearningTask	1	83	
286	-200.0	q	200.0																	2.0	0.0	2.0	0.0	15.0	1.0	61.0	1.0																													q	1.0	0.451637983322	None	0.0	2.0	triangleyellow.gif	stop																								0.0	0.513797998428	0.000880002975464	0.451637983322	1.0	q	1181.24236083																																		2015_Jul_08_1003	59.9063905516	LearningTask	1	83	
287	-200.0	a	-200.0																	2.0	0.0	2.0	0.0	15.0	2.0	62.0	3.0																													a	1.0	0.48363804817199996	None	0.0	4.0	lineorange.gif	go																								0.0	0.514508008957	0.0008759498596189999	0.483638048172	1.0	a	1184.24600196																																		2015_Jul_08_1003	59.9063905516	LearningTask	1	83	
288	-200.0	q	200.0																	2.0	0.0	2.0	0.0	15.0	3.0	63.0	1.0																													q	1.0	0.483944177628	None	0.0	2.0	squareblue.gif	go																								1.83	0.514358043671	0.000938177108765	0.483944177628	1.0	q	1187.24936104																																		2015_Jul_08_1003	59.9063905516	LearningTask	1	83	
289	-200.0	q	200.0																	2.0	0.0	2.0	0.0	16.0	0.0	64.0	1.0																													q	1.0	0.550863027573	None	0.0	4.0	lineorange.gif	go																								4.18	0.514100074768	0.0008790493011469999	0.550863027573	1.0	q	1190.2524569																																		2015_Jul_08_1003	59.9063905516	LearningTask	1	83	
290	-200.0	q	200.0																	2.0	0.0	2.0	0.0	16.0	1.0	65.0	1.0																													q	1.0	0.417240142822	None	0.0	4.0	invertedtrianglegreen.gif	stop																								3.87	0.5145478248600001	0.000881910324097	0.417240142822	1.0	q	1193.25576687																																		2015_Jul_08_1003	59.9063905516	LearningTask	1	83	
291	200.0	w	200.0																	2.0	0.0	2.0	0.0	16.0	2.0	66.0	0.0																													w	1.0	0.417953014374	None	0.0	0.5	diamondgray.gif	stop																								0.39	0.514195203781	0.0011231899261500001	0.417953014374	1.0	w	1196.25949383																																		2015_Jul_08_1003	59.9063905516	LearningTask	1	83	
292	-200.0	q	200.0																	2.0	0.0	2.0	0.0	16.0	3.0	67.0	1.0																													q	1.0	0.451761007309	None	0.0	4.0	lineorange.gif	go																								3.9	0.513772964478	0.0009379386901860002	0.451761007309	1.0	q	1199.26276088																																		2015_Jul_08_1003	59.9063905516	LearningTask	1	83	
