	xPos	corrAns	yPos	corrGoResp	yPosGoStim	xPosGoStim	pracTrials.thisRepN	pracTrials.thisTrialN	pracTrials.thisN	pracTrials.thisIndex	ReDoLoopPrac.thisRepN	ReDoLoopPrac.thisTrialN	ReDoLoopPrac.thisN	ReDoLoopPrac.thisIndex	ReDoLoopPrac.thisTrial	pracStopTrials.thisRepN	pracStopTrials.thisTrialN	pracStopTrials.thisN	pracStopTrials.thisIndex	Blocks.thisRepN	Blocks.thisTrialN	Blocks.thisN	Blocks.thisIndex	trials.thisRepN	trials.thisTrialN	trials.thisN	trials.thisIndex	ReDoLoopMain.thisRepN	ReDoLoopMain.thisTrialN	ReDoLoopMain.thisN	ReDoLoopMain.thisIndex	ReDoLoopMain.thisTrial	StopBlocks.thisRepN	StopBlocks.thisTrialN	StopBlocks.thisN	StopBlocks.thisIndex	StopTrials.thisRepN	StopTrials.thisTrialN	StopTrials.thisN	StopTrials.thisIndex	auctionBlocks.thisRepN	auctionBlocks.thisTrialN	auctionBlocks.thisN	auctionBlocks.thisIndex	auctionTrials.thisRepN	auctionTrials.thisTrialN	auctionTrials.thisN	auctionTrials.thisIndex	learningTrialList	learningPracTrialList	stopTrialList	stopPracTrialList	auctionTrialList	ok1.keys	ok1.rt	resp.keys	resp.corr	feedbackResp.keys	feedbackResp.corr	feedbackResp.rt	currentReward	currentStimulus	currentStimType	firstPracComputedRewardOutput	firstPracLearningStimOnset	firstPracLearningFixOnset	firstPracPresentationRT	firstPracPresentationAcc	firstPracPresentationResp	firstPracEndTrialTimeStamp	resp.rt	secondPracComputedRewardOutput	secondPracLearningStimOnset	secondPracLearningFixOnset	secondPracPresentationRT	secondPracPresentationAcc	secondPracPresentationResp	secondPracEndTrialTimeStamp	StartTrialTimeStamp	trialType	goStim	stimType	stopStimValue	goResp.keys	goResp.corr	key_resp_9.keys	key_resp_9.corr	fixStopOnset	goStimOnset	stopSignalOnset	EndTrialTimeStamp	goResp.rt	key_resp_3.keys	key_resp_3.rt	firstComputedRewardOutput	firstLearningStimOnset	firstLearningFixOnset	firstPresentationRT	firstPresentationAcc	firstPresentationResp	firstEndTrialTimeStamp	key_resp_7.keys	key_resp_7.rt	secondComputedRewardOutput	secondLearningStimOnset	secondLearningFixOnset	secondPresentationRT	secondPresentationAcc	secondPresentationResp	secondEndTrialTimeStamp	beginningSSD	EndingSSD	key_resp_9.rt	key_resp_4.keys	key_resp_4.rt	auctionResponse.keys	auctionStimDuration	auctionStim	auctionAmounts	auctionStimValue	auctionCondition	chosenAuctionAmount	auctionResponse.rt	key_resp_5.keys	key_resp_5.rt	shuffledRewardList	chosenReward1	chosenReward2	chosenReward3	chosenReward4	chosenReward5	key_resp_6.keys	key_resp_6.rt	date	frameRate	expName	session	participant	Unnamed: 138
0																																																	[]	[]	[]	[]	[]	9.0	68.68618988989999																																																																															2015_Jun_23_1223	59.791102691000006	LearningTask	1	56	
1	-200.0	q	200.0				0.0	0.0	0.0	1.0																																														q	1.0	None	0.0	0.35806512832599996	2.0	circleorange.gif	stop	0.0	0.5069439411159999	0.00326490402222	[]	0.0	None	91.2983491421	0.7009971141820001	0.0	0.515561103821	0.0011739730835000001	0.7009971141820001	1.0	q	94.3013341427																																																								2015_Jun_23_1223	59.791102691000006	LearningTask	1	56	
2	-200.0	a	-200.0				0.0	1.0	1.0	3.0																																														a	1.0	None	0.0		2.0	circleorange.gif	stop	1.99	0.514779090881	0.0009250640869139999	0.417505979538	1.0	a	97.30460309979999	0.417505979538																																																															2015_Jun_23_1223	59.791102691000006	LearningTask	1	56	
3	200.0	w	200.0				0.0	2.0	2.0	8.0																																														w	1.0	None	0.0		2.0	diamondmagenta.gif	go	1.79	0.5150370597839999	0.00129318237305	0.384371042252	1.0	w	100.308423042	0.384371042252																																																															2015_Jun_23_1223	59.791102691000006	LearningTask	1	56	
4	200.0	s	-200.0				0.0	3.0	3.0	2.0																																														s	1.0	None	0.0		0.5	hexagonyellow.gif	stop	0.67	0.514522790909	0.00129985809326	0.351141929626	1.0	s	103.31154418	0.351141929626																																																															2015_Jun_23_1223	59.791102691000006	LearningTask	1	56	
5	200.0	s	-200.0				0.0	4.0	4.0	6.0																																														s	1.0	None	0.0		2.0	diamondmagenta.gif	go	2.14	0.515211105347	0.000921964645386	0.450469017029	1.0	s	106.314629078	0.450469017029																																																															2015_Jun_23_1223	59.791102691000006	LearningTask	1	56	
6	-200.0	q	200.0				0.0	5.0	5.0	9.0																																														q	1.0	None	0.0		1.0	squareblue.gif	stop	0.0	0.515161037445	0.0012888908386199998	0.35057592392	1.0	q	109.31795716299999	0.35057592392																																																															2015_Jun_23_1223	59.791102691000006	LearningTask	1	56	
7	200.0	w	200.0				0.0	6.0	6.0	0.0																																														w	1.0	None	0.0		4.0	linegray.gif	stop	3.75	0.515239953995	0.00187993049622	0.366970062256	1.0	w	112.321427107	0.366970062256																																																															2015_Jun_23_1223	59.791102691000006	LearningTask	1	56	
8	-200.0	q	200.0				0.0	7.0	7.0	5.0																																														q	1.0	None	0.0		1.0	squareblue.gif	stop	1.05	0.515315055847	0.0008940696716310001	0.383862018585	1.0	q	115.32461404799999	0.38386201858499996																																																															2015_Jun_23_1223	59.791102691000006	LearningTask	1	56	
9	200.0	w	200.0				0.0	8.0	8.0	4.0																																														w	1.0	None	0.0		1.0	invertedtrianglegreen.gif	go	0.0	0.5152888298030001	0.00128698348999	0.384452819824	1.0	w	118.328684092	0.384452819824																																																															2015_Jun_23_1223	59.791102691000006	LearningTask	1	56	
10	-200.0	a	-200.0				0.0	9.0	9.0	7.0																																														a	1.0	None	0.0		4.0	linegray.gif	stop	4.1	0.514648914337	0.0009191036224369998	0.384031057358	1.0	a	121.331896067	0.38403105735799997																																																															2015_Jun_23_1223	59.791102691000006	LearningTask	1	56	
11				z	0.0	-200.0										0.0	0.0	0.0	0.0																																																												177.58271002799998	stop	squareblue.gif	stop	1.0	None	0.0	None	0.0	0.00132608413696	0.510586977005	0.7611300945280001	180.580965042																																											2015_Jun_23_1223	59.791102691000006	LearningTask	1	56	
12				m	0.0	200.0										0.0	1.0	1.0	1.0																																																												180.581355095	go	invertedtrianglegreen.gif	go	1.0	m	1.0	None	0.0	0.00094199180603	0.515905857086		183.584017992	0.617403030396																																										2015_Jun_23_1223	59.791102691000006	LearningTask	1	56	
13				m	0.0	200.0										1.0	0.0	2.0	1.0																																																												183.58467006700002	stop	squareblue.gif	stop	1.0	m	1.0	None	0.0	0.00102996826172	0.5155048370359999	0.7658488750460001	186.587319136	0.417428016663																																										2015_Jun_23_1223	59.791102691000006	LearningTask	1	56	
14				z	0.0	-200.0										1.0	1.0	3.0	0.0																																																												186.587680101	stop	circleorange.gif	stop	2.0	None	0.0	None	0.0	0.000949144363403	0.516031980515	0.766394138336	189.59082913400002																																											2015_Jun_23_1223	59.791102691000006	LearningTask	1	56	
15				z	0.0	-200.0										2.0	0.0	4.0	0.0																																																												189.59118509299998	stop	circleorange.gif	stop	2.0	None	0.0	None	0.0	0.000953912734985	0.515754938126	0.7663869857790001	192.594176054																																											2015_Jun_23_1223	59.791102691000006	LearningTask	1	56	
16				m	0.0	200.0										2.0	1.0	5.0	1.0																																																												192.594536066	go	invertedtrianglegreen.gif	go	1.0	m	1.0	None	0.0	0.00105905532837	0.5158281326290001		195.597617149	0.53440618515																																										2015_Jun_23_1223	59.791102691000006	LearningTask	1	56	
17				z	0.0	-200.0										3.0	0.0	6.0	0.0																																																												195.59805822400003	go	crosscyan.gif	go	0.5	z	1.0	None	0.0	0.0013279914856	0.515652894974		198.600968122	0.667876958847																																										2015_Jun_23_1223	59.791102691000006	LearningTask	1	56	
18				m	0.0	200.0										3.0	1.0	7.0	1.0																																																												198.601332188	stop	hexagonyellow.gif	stop	0.5	None	0.0	None	0.0	0.000998020172119	0.516230106354	0.766077041626	201.60421419099998																																											2015_Jun_23_1223	59.791102691000006	LearningTask	1	56	
19				m	0.0	200.0										4.0	0.0	8.0	1.0																																																												201.60458016400003	stop	hexagonyellow.gif	stop	0.5	None	0.0	None	0.0	0.0009589195251460001	0.5159089565280001	0.765872955322	204.607711077																																											2015_Jun_23_1223	59.791102691000006	LearningTask	1	56	
20				z	0.0	-200.0										4.0	1.0	9.0	0.0																																																												204.608257055	go	diamondmagenta.gif	go	2.0	z	1.0	None	0.0	0.0009520053863530001	0.515311956406		207.610938072	0.651489973068																																										2015_Jun_23_1223	59.791102691000006	LearningTask	1	56	
21																																																																																													9.0	28.8405330181																																								2015_Jun_23_1223	59.791102691000006	LearningTask	1	56	
22																																																						9.0	6.0735578537																																																																															2015_Jun_23_1223	59.791102691000006	LearningTask	1	56	
23	200.0	s	-200.0																	0.0	0.0	0.0	0.0	0.0	0.0	0.0	2.0																													s	1.0	None	0.0		2.0	diamondmagenta.gif	go								0.46781206131																								2.09	0.508594036102	0.00095009803772	0.46781206131	1.0	s	245.671861172																																	2015_Jun_23_1223	59.791102691000006	LearningTask	1	56	
24	-200.0	q	200.0																	0.0	0.0	0.0	0.0	0.0	1.0	1.0	1.0																													q	1.0	None	0.0		1.0	invertedtrianglegreen.gif	go								0.367572069168																								0.79	0.513534069061	0.0008862018585209999	0.367572069168	1.0	q	248.674322128																																	2015_Jun_23_1223	59.791102691000006	LearningTask	1	56	
25	-200.0	a	-200.0																	0.0	0.0	0.0	0.0	0.0	2.0	2.0	3.0																													a	1.0	None	0.0		1.0	invertedtrianglegreen.gif	go								0.36763691902199996																								0.81	0.514316082001	0.0009391307830810002	0.367636919022	1.0	a	251.677676201																																	2015_Jun_23_1223	59.791102691000006	LearningTask	1	56	
26	200.0	w	200.0																	0.0	0.0	0.0	0.0	0.0	3.0	3.0	0.0																													w	1.0	None	0.0		0.5	hexagonyellow.gif	stop								0.40077090263400006																								0.4	0.514309167862	0.00090217590332	0.400770902634	1.0	w	254.681606054																																	2015_Jun_23_1223	59.791102691000006	LearningTask	1	56	
27	200.0	s	-200.0																	0.0	0.0	0.0	0.0	1.0	0.0	4.0	2.0																													s	1.0	None	0.0		0.5	crosscyan.gif	go								0.351181030273																								0.34	0.5135729312899999	0.000890016555786	0.351181030273	1.0	s	257.684188128																																	2015_Jun_23_1223	59.791102691000006	LearningTask	1	56	
28	-200.0	q	200.0																	0.0	0.0	0.0	0.0	1.0	1.0	5.0	1.0																													q	1.0	None	0.0		1.0	squareblue.gif	stop								0.317300081253																								0.75	0.5142891407010001	0.00092601776123	0.317300081253	1.0	q	260.687621117																																	2015_Jun_23_1223	59.791102691000006	LearningTask	1	56	
29	-200.0	q	200.0																	0.0	0.0	0.0	0.0	1.0	2.0	6.0	1.0																													q	1.0	None	0.0		1.0	invertedtrianglegreen.gif	go								0.38420915603600003																								0.8	0.514286994934	0.000890016555786	0.384209156036	1.0	q	263.691062212																																	2015_Jun_23_1223	59.791102691000006	LearningTask	1	56	
30	-200.0	q	200.0																	0.0	0.0	0.0	0.0	1.0	3.0	7.0	1.0																													q	1.0	None	0.0		1.0	invertedtrianglegreen.gif	go								0.35085606575000006																								0.0	0.514224052429	0.000904083251953	0.35085606575	1.0	q	266.694365025																																	2015_Jun_23_1223	59.791102691000006	LearningTask	1	56	
31	-200.0	q	200.0																	0.0	0.0	0.0	0.0	2.0	0.0	8.0	1.0																													q	1.0	None	0.0		4.0	trianglewhite.gif	go								0.317427158356																								3.91	0.5142588615420001	0.00147294998169	0.317427158356	1.0	q	269.697649002																																	2015_Jun_23_1223	59.791102691000006	LearningTask	1	56	
32	200.0	w	200.0																	0.0	0.0	0.0	0.0	2.0	1.0	9.0	0.0																													w	1.0	None	0.0		4.0	trianglewhite.gif	go								0.467746973038																								4.1	0.514409065247	0.000900983810425	0.467746973038	1.0	w	272.701347113																																	2015_Jun_23_1223	59.791102691000006	LearningTask	1	56	
33	-200.0	a	-200.0																	0.0	0.0	0.0	0.0	2.0	2.0	10.0	3.0																													a	1.0	None	0.0		2.0	diamondmagenta.gif	go								0.41766905784599995																								1.9	0.5137510299679999	0.0010359287262	0.417669057846	1.0	a	275.704546213																																	2015_Jun_23_1223	59.791102691000006	LearningTask	1	56	
34	-200.0	q	200.0																	0.0	0.0	0.0	0.0	2.0	3.0	11.0	1.0																													q	1.0	None	0.0		4.0	trianglewhite.gif	go								0.317478895187																								0.0	0.5140910148619999	0.00118684768677	0.317478895187	1.0	q	278.70820808400003																																	2015_Jun_23_1223	59.791102691000006	LearningTask	1	56	
35	200.0	s	-200.0																	0.0	0.0	0.0	0.0	3.0	0.0	12.0	2.0																													s	1.0	None	0.0		4.0	linegray.gif	stop								0.38418507576																								4.16	0.513771057129	0.0008931159973139998	0.38418507576	1.0	s	281.711072206																																	2015_Jun_23_1223	59.791102691000006	LearningTask	1	56	
36	-200.0	q	200.0																	0.0	0.0	0.0	0.0	3.0	1.0	13.0	1.0																													q	1.0	None	0.0		0.5	hexagonyellow.gif	stop								0.401116132736																								0.35	0.514517068863	0.00089693069458	0.401116132736	1.0	q	284.714561224																																	2015_Jun_23_1223	59.791102691000006	LearningTask	1	56	
37	200.0	w	200.0																	0.0	0.0	0.0	0.0	3.0	2.0	14.0	0.0																													w	1.0	None	0.0		0.5	hexagonyellow.gif	stop								0.351789951324																								0.33	0.513777017593	0.0009150505065920001	0.351789951324	1.0	w	287.717725039																																	2015_Jun_23_1223	59.791102691000006	LearningTask	1	56	
38	200.0	s	-200.0																	0.0	0.0	0.0	0.0	3.0	3.0	15.0	2.0																													s	1.0	None	0.0		2.0	circleorange.gif	stop								0.33408498764																								0.0	0.514437913895	0.000907897949219	0.33408498764	1.0	s	290.72101306900004																																	2015_Jun_23_1223	59.791102691000006	LearningTask	1	56	
39	200.0	w	200.0																	0.0	0.0	0.0	0.0	4.0	0.0	16.0	0.0																													w	1.0	None	0.0		2.0	circleorange.gif	stop								0.351233959198																								2.2	0.5145850181580001	0.0008959770202639998	0.351233959198	1.0	w	293.724664211																																	2015_Jun_23_1223	59.791102691000006	LearningTask	1	56	
40	-200.0	q	200.0																	0.0	0.0	0.0	0.0	4.0	1.0	17.0	1.0																													q	1.0	None	0.0		4.0	trianglewhite.gif	go								0.267326116562																								3.96	0.51385807991	0.00090503692627	0.267326116562	1.0	q	296.72791719400004																																	2015_Jun_23_1223	59.791102691000006	LearningTask	1	56	
41	-200.0	a	-200.0																	0.0	0.0	0.0	0.0	4.0	2.0	18.0	3.0																													a	1.0	None	0.0		4.0	trianglewhite.gif	go								0.41746091842699995																								3.84	0.5143249034880001	0.000938892364502	0.417460918427	1.0	a	299.731280088																																	2015_Jun_23_1223	59.791102691000006	LearningTask	1	56	
42	200.0	s	-200.0																	0.0	0.0	0.0	0.0	4.0	3.0	19.0	2.0																													s	1.0	None	0.0		1.0	squareblue.gif	stop								0.333999156952																								0.84	0.514339923859	0.000885009765625	0.333999156952	1.0	s	302.735261202																																	2015_Jun_23_1223	59.791102691000006	LearningTask	1	56	
43	200.0	w	200.0																	0.0	0.0	0.0	0.0	5.0	0.0	20.0	0.0																													w	1.0	None	0.0		0.5	hexagonyellow.gif	stop								0.467939138412																								0.0	0.513790130615	0.000896215438843	0.467939138412	1.0	w	305.73793602																																	2015_Jun_23_1223	59.791102691000006	LearningTask	1	56	
44	200.0	s	-200.0																	0.0	0.0	0.0	0.0	5.0	1.0	21.0	2.0																													s	1.0	None	0.0		0.5	hexagonyellow.gif	stop								0.367686033249																								0.46	0.514116048813	0.000922918319702	0.367686033249	1.0	s	308.741176128																																	2015_Jun_23_1223	59.791102691000006	LearningTask	1	56	
45	200.0	w	200.0																	0.0	0.0	0.0	0.0	5.0	2.0	22.0	0.0																													w	1.0	None	0.0		4.0	linegray.gif	stop								0.367645025253																								4.19	0.514528036118	0.000907182693481	0.367645025253	1.0	w	311.744790077																																	2015_Jun_23_1223	59.791102691000006	LearningTask	1	56	
46	200.0	w	200.0																	0.0	0.0	0.0	0.0	5.0	3.0	23.0	0.0																													w	1.0	None	0.0		2.0	circleorange.gif	stop								0.384110212326																								2.02	0.51433801651	0.0011351108550999999	0.384110212326	1.0	w	314.748286009																																	2015_Jun_23_1223	59.791102691000006	LearningTask	1	56	
47	200.0	w	200.0																	0.0	0.0	0.0	0.0	6.0	0.0	24.0	0.0																													w	1.0	None	0.0		0.5	crosscyan.gif	go								0.383857011795																								0.0	0.514063835144	0.000997066497803	0.383857011795	1.0	w	317.751346111																																	2015_Jun_23_1223	59.791102691000006	LearningTask	1	56	
48	-200.0	a	-200.0																	0.0	0.0	0.0	0.0	6.0	1.0	25.0	3.0																													a	1.0	None	0.0		1.0	squareblue.gif	stop								0.417749881744																								0.85	0.514353990555	0.0008821487426760002	0.417749881744	1.0	a	320.754743099																																	2015_Jun_23_1223	59.791102691000006	LearningTask	1	56	
49	-200.0	q	200.0																	0.0	0.0	0.0	0.0	6.0	2.0	26.0	1.0																													q	1.0	None	0.0		0.5	hexagonyellow.gif	stop								0.31739616394000003																								0.55	0.514236927032	0.0008959770202639998	0.31739616394	1.0	q	323.75837016099996																																	2015_Jun_23_1223	59.791102691000006	LearningTask	1	56	
50	-200.0	q	200.0																	0.0	0.0	0.0	0.0	6.0	3.0	27.0	1.0																													q	1.0	None	0.0		4.0	linegray.gif	stop								0.351125001907																								0.0	0.5138700008389999	0.00104999542236	0.351125001907	1.0	q	326.7614851																																	2015_Jun_23_1223	59.791102691000006	LearningTask	1	56	
51	-200.0	a	-200.0																	0.0	0.0	0.0	0.0	7.0	0.0	28.0	3.0																													a	1.0	None	0.0		4.0	trianglewhite.gif	go								0.384311914444																								4.09	0.514413118362	0.0008831024169919999	0.384311914444	1.0	a	329.764803171																																	2015_Jun_23_1223	59.791102691000006	LearningTask	1	56	
52	-200.0	a	-200.0																	0.0	0.0	0.0	0.0	7.0	1.0	29.0	3.0																													a	1.0	None	0.0		0.5	crosscyan.gif	go								0.40083694458																								0.6	0.514594078064	0.000938892364502	0.40083694458	1.0	a	332.76843118700003																																	2015_Jun_23_1223	59.791102691000006	LearningTask	1	56	
53	-200.0	a	-200.0																	0.0	0.0	0.0	0.0	7.0	2.0	30.0	3.0																													a	1.0	None	0.0		1.0	squareblue.gif	stop								0.384958982468																								0.99	0.513463973999	0.0008978843688960001	0.384958982468	1.0	a	335.771525145																																	2015_Jun_23_1223	59.791102691000006	LearningTask	1	56	
54	200.0	w	200.0																	0.0	0.0	0.0	0.0	7.0	3.0	31.0	0.0																													w	1.0	None	0.0		0.5	crosscyan.gif	go								0.434787988663																								0.0	0.514310121536	0.0009150505065920001	0.434787988663	1.0	w	338.774765015																																	2015_Jun_23_1223	59.791102691000006	LearningTask	1	56	
55	-200.0	a	-200.0																	0.0	0.0	0.0	0.0	8.0	0.0	32.0	3.0																													a	1.0	None	0.0		1.0	squareblue.gif	stop								0.41736292839100003																								0.98	0.514620065689	0.000885009765625	0.417362928391	1.0	a	341.778510094																																	2015_Jun_23_1223	59.791102691000006	LearningTask	1	56	
56	200.0	w	200.0																	0.0	0.0	0.0	0.0	8.0	1.0	33.0	0.0																													w	1.0	None	0.0		1.0	invertedtrianglegreen.gif	go								0.400179862976																								0.0	0.513790130615	0.0009360313415529999	0.400179862976	1.0	w	344.78177309																																	2015_Jun_23_1223	59.791102691000006	LearningTask	1	56	
57	200.0	s	-200.0																	0.0	0.0	0.0	0.0	8.0	2.0	34.0	2.0																													s	1.0	None	0.0		0.5	crosscyan.gif	go								0.35121202468900004																								0.38	0.514112949371	0.000941038131714	0.351212024689	1.0	s	347.784949064																																	2015_Jun_23_1223	59.791102691000006	LearningTask	1	56	
58	-200.0	q	200.0																	0.0	0.0	0.0	0.0	8.0	3.0	35.0	1.0																													q	1.0	None	0.0		1.0	invertedtrianglegreen.gif	go								0.367564201355																								1.1	0.514271974564	0.0008950233459470001	0.367564201355	1.0	q	350.788594007																																	2015_Jun_23_1223	59.791102691000006	LearningTask	1	56	
59	-200.0	q	200.0																	0.0	0.0	0.0	0.0	9.0	0.0	36.0	1.0																													q	1.0	None	0.0		2.0	circleorange.gif	stop								0.383890151978																								1.84	0.513932943344	0.0009129047393799999	0.383890151978	1.0	q	353.791566133																																	2015_Jun_23_1223	59.791102691000006	LearningTask	1	56	
60	200.0	w	200.0																	0.0	0.0	0.0	0.0	9.0	1.0	37.0	0.0																													w	1.0	None	0.0		0.5	crosscyan.gif	go								0.417801856995																								0.63	0.514528036118	0.00095796585083	0.417801856995	1.0	w	356.794970036																																	2015_Jun_23_1223	59.791102691000006	LearningTask	1	56	
61	-200.0	a	-200.0																	0.0	0.0	0.0	0.0	9.0	2.0	38.0	3.0																													a	1.0	None	0.0		0.5	crosscyan.gif	go								0.334251880646																								0.69	0.514329195023	0.0009241104125980002	0.334251880646	1.0	a	359.798581123																																	2015_Jun_23_1223	59.791102691000006	LearningTask	1	56	
62	-200.0	q	200.0																	0.0	0.0	0.0	0.0	9.0	3.0	39.0	1.0																													q	1.0	None	0.0		2.0	circleorange.gif	stop								0.283973932266																								2.17	0.514425039291	0.000908851623535	0.283973932266	1.0	q	362.80195617699997																																	2015_Jun_23_1223	59.791102691000006	LearningTask	1	56	
63	-200.0	q	200.0																	0.0	0.0	0.0	0.0	10.0	0.0	40.0	1.0																													q	1.0	None	0.0		1.0	invertedtrianglegreen.gif	go								0.350864887238																								1.2	0.514174938202	0.0010318756103500002	0.350864887238	1.0	q	365.80498409300003																																	2015_Jun_23_1223	59.791102691000006	LearningTask	1	56	
64	200.0	s	-200.0																	0.0	0.0	0.0	0.0	10.0	1.0	41.0	2.0																													s	1.0	None	0.0		2.0	diamondmagenta.gif	go								0.400897979736																								1.86	0.514437198639	0.0008912086486819999	0.400897979736	1.0	s	368.80847907099997																																	2015_Jun_23_1223	59.791102691000006	LearningTask	1	56	
65	-200.0	a	-200.0																	0.0	0.0	0.0	0.0	10.0	2.0	42.0	3.0																													a	1.0	None	0.0		1.0	squareblue.gif	stop								0.40042710304300005																								1.05	0.5147919654850001	0.0008878707885739998	0.400427103043	1.0	a	371.811949015																																	2015_Jun_23_1223	59.791102691000006	LearningTask	1	56	
66	-200.0	q	200.0																	0.0	0.0	0.0	0.0	10.0	3.0	43.0	1.0																													q	1.0	None	0.0		0.5	crosscyan.gif	go								0.351293087006																								0.74	0.5138900279999999	0.00097918510437	0.351293087006	1.0	q	374.815333128																																	2015_Jun_23_1223	59.791102691000006	LearningTask	1	56	
67	-200.0	a	-200.0																	0.0	0.0	0.0	0.0	11.0	0.0	44.0	3.0																													a	1.0	None	0.0		1.0	invertedtrianglegreen.gif	go								0.350908041																								0.0	0.513725042343	0.00105500221252	0.350908041	1.0	a	377.81863808599996																																	2015_Jun_23_1223	59.791102691000006	LearningTask	1	56	
68	200.0	s	-200.0																	0.0	0.0	0.0	0.0	11.0	1.0	45.0	2.0																													s	1.0	None	0.0		4.0	trianglewhite.gif	go								0.400278091431																								0.0	0.514816045761	0.00088906288147	0.400278091431	1.0	s	380.82198405300005																																	2015_Jun_23_1223	59.791102691000006	LearningTask	1	56	
69	-200.0	a	-200.0																	0.0	0.0	0.0	0.0	11.0	2.0	46.0	3.0																													a	1.0	None	0.0		2.0	diamondmagenta.gif	go								0.38426685333300004																								1.86	0.514076948166	0.0009119510650630002	0.384266853333	1.0	a	383.825146198																																	2015_Jun_23_1223	59.791102691000006	LearningTask	1	56	
70	200.0	w	200.0																	0.0	0.0	0.0	0.0	11.0	3.0	47.0	0.0																													w	1.0	None	0.0		1.0	squareblue.gif	stop								0.384590864182																								0.0	0.514445781708	0.0009279251098630001	0.384590864182	1.0	w	386.82849121099997																																	2015_Jun_23_1223	59.791102691000006	LearningTask	1	56	
71	-200.0	a	-200.0																	0.0	0.0	0.0	0.0	12.0	0.0	48.0	3.0																													a	1.0	None	0.0		0.5	crosscyan.gif	go								0.451112985611																								0.0	0.514322042465	0.0008859634399410001	0.451112985611	1.0	a	389.832042217																																	2015_Jun_23_1223	59.791102691000006	LearningTask	1	56	
72	-200.0	a	-200.0																	0.0	0.0	0.0	0.0	12.0	1.0	49.0	3.0																													a	1.0	None	0.0		1.0	invertedtrianglegreen.gif	go								0.451420068741																								1.22	0.513776063919	0.0009210109710689999	0.451420068741	1.0	a	392.835252047																																	2015_Jun_23_1223	59.791102691000006	LearningTask	1	56	
73	-200.0	a	-200.0																	0.0	0.0	0.0	0.0	12.0	2.0	50.0	3.0																													a	1.0	None	0.0		0.5	crosscyan.gif	go								0.417809009552																								0.0	0.514461040497	0.000961065292358	0.417809009552	1.0	a	395.83871603																																	2015_Jun_23_1223	59.791102691000006	LearningTask	1	56	
74	-200.0	q	200.0																	0.0	0.0	0.0	0.0	12.0	3.0	51.0	1.0																													q	1.0	None	0.0		1.0	invertedtrianglegreen.gif	go								0.43491101265																								0.79	0.5139620304110001	0.000885009765625	0.43491101265	1.0	q	398.84242510800004																																	2015_Jun_23_1223	59.791102691000006	LearningTask	1	56	
75	-200.0	q	200.0																	0.0	0.0	0.0	0.0	13.0	0.0	52.0	1.0																													q	1.0	None	0.0		0.5	hexagonyellow.gif	stop								0.351026058197																								0.0	0.513767957687	0.0011579990387	0.351026058197	1.0	q	401.84524822199995																																	2015_Jun_23_1223	59.791102691000006	LearningTask	1	56	
76	200.0	w	200.0																	0.0	0.0	0.0	0.0	13.0	1.0	53.0	0.0																													w	1.0	None	0.0		2.0	circleorange.gif	stop								0.351041793823																								0.0	0.514395952225	0.0009591579437260001	0.351041793823	1.0	w	404.848865032																																	2015_Jun_23_1223	59.791102691000006	LearningTask	1	56	
77	-200.0	q	200.0																	0.0	0.0	0.0	0.0	13.0	2.0	54.0	1.0																													q	1.0	None	0.0		1.0	invertedtrianglegreen.gif	go								0.434543848038																								1.09	0.514267206192	0.00090217590332	0.434543848038	1.0	q	407.852310181																																	2015_Jun_23_1223	59.791102691000006	LearningTask	1	56	
78	200.0	s	-200.0																	0.0	0.0	0.0	0.0	13.0	3.0	55.0	2.0																													s	1.0	None	0.0		0.5	crosscyan.gif	go								0.400718927383																								0.0	0.51424407959	0.0008940696716310001	0.400718927383	1.0	s	410.855430126																																	2015_Jun_23_1223	59.791102691000006	LearningTask	1	56	
79	200.0	s	-200.0																	0.0	0.0	0.0	0.0	14.0	0.0	56.0	2.0																													s	1.0	None	0.0		1.0	squareblue.gif	stop								0.384104013443																								1.01	0.514468193054	0.00131607055664	0.384104013443	1.0	s	413.85863018																																	2015_Jun_23_1223	59.791102691000006	LearningTask	1	56	
80	200.0	s	-200.0																	0.0	0.0	0.0	0.0	14.0	1.0	57.0	2.0																													s	1.0	None	0.0		2.0	circleorange.gif	stop								0.45114898681599996																								1.83	0.514446973801	0.0009109973907470001	0.451148986816	1.0	s	416.86209201800006																																	2015_Jun_23_1223	59.791102691000006	LearningTask	1	56	
81	200.0	s	-200.0																	0.0	0.0	0.0	0.0	14.0	2.0	58.0	2.0																													s	1.0	None	0.0		1.0	invertedtrianglegreen.gif	go								0.36763691902199996																								0.83	0.5143840312960001	0.000917911529541	0.367636919022	1.0	s	419.86569309199996																																	2015_Jun_23_1223	59.791102691000006	LearningTask	1	56	
82	200.0	s	-200.0																	0.0	0.0	0.0	0.0	14.0	3.0	59.0	2.0																													s	1.0	None	0.0		4.0	trianglewhite.gif	go								0.383939027786																								3.94	0.5139122009279999	0.000982999801636	0.383939027786	1.0	s	422.868782997																																	2015_Jun_23_1223	59.791102691000006	LearningTask	1	56	
83	-200.0	q	200.0																	0.0	0.0	0.0	0.0	15.0	0.0	60.0	1.0																													q	1.0	None	0.0		4.0	trianglewhite.gif	go								0.434287071228																								0.0	0.5142331123349999	0.0009469985961910001	0.434287071228	1.0	q	425.87225604099996																																	2015_Jun_23_1223	59.791102691000006	LearningTask	1	56	
84	200.0	w	200.0																	0.0	0.0	0.0	0.0	15.0	1.0	61.0	0.0																													w	1.0	None	0.0		4.0	trianglewhite.gif	go								0.417593002319																								4.09	0.5141270160679999	0.000892162322998	0.417593002319	1.0	w	428.87575221099996																																	2015_Jun_23_1223	59.791102691000006	LearningTask	1	56	
85	-200.0	a	-200.0																	0.0	0.0	0.0	0.0	15.0	2.0	62.0	3.0																													a	1.0	None	0.0		1.0	squareblue.gif	stop								0.367741107941																								0.0	0.51374578476	0.0009160041809079999	0.367741107941	1.0	a	431.87888908400004																																	2015_Jun_23_1223	59.791102691000006	LearningTask	1	56	
86	-200.0	q	200.0																	0.0	0.0	0.0	0.0	15.0	3.0	63.0	1.0																													q	1.0	None	0.0		4.0	linegray.gif	stop								0.46743392944300005																								0.0	0.513754844666	0.00128102302551	0.467433929443	1.0	q	434.882174015																																	2015_Jun_23_1223	59.791102691000006	LearningTask	1	56	
87	200.0	w	200.0																	0.0	0.0	0.0	0.0	16.0	0.0	64.0	0.0																													w	1.0	None	0.0		4.0	trianglewhite.gif	go								0.383857965469																								3.76	0.514740943909	0.0012888908386199998	0.383857965469	1.0	w	437.885607004																																	2015_Jun_23_1223	59.791102691000006	LearningTask	1	56	
88	200.0	w	200.0																	0.0	0.0	0.0	0.0	16.0	1.0	65.0	0.0																													w	1.0	None	0.0		2.0	circleorange.gif	stop								0.334167003632																								2.14	0.514002084732	0.0012850761413599999	0.334167003632	1.0	w	440.88897419																																	2015_Jun_23_1223	59.791102691000006	LearningTask	1	56	
89	200.0	s	-200.0																	0.0	0.0	0.0	0.0	16.0	2.0	66.0	2.0																													s	1.0	None	0.0		1.0	squareblue.gif	stop								0.45138502121000007																								0.0	0.514455080032	0.0016059875488299998	0.45138502121	1.0	s	443.89282012																																	2015_Jun_23_1223	59.791102691000006	LearningTask	1	56	
90	-200.0	a	-200.0																	0.0	0.0	0.0	0.0	16.0	3.0	67.0	3.0																													a	1.0	None	0.0		4.0	linegray.gif	stop								0.36759686469999997																								4.22	0.513758182526	0.000900030136108	0.3675968647	1.0	a	446.89619708099997																																	2015_Jun_23_1223	59.791102691000006	LearningTask	1	56	
91	-200.0	a	-200.0																	0.0	0.0	0.0	0.0	17.0	0.0	68.0	3.0																													a	1.0	None	0.0		4.0	linegray.gif	stop								0.351157188416																								3.88	0.513847112656	0.0009069442749019998	0.351157188416	1.0	a	449.899023056																																	2015_Jun_23_1223	59.791102691000006	LearningTask	1	56	
92	-200.0	a	-200.0																	0.0	0.0	0.0	0.0	17.0	1.0	69.0	3.0																													a	1.0	None	0.0		2.0	diamondmagenta.gif	go								0.434460163116																								0.0	0.514056921005	0.00140285491943	0.434460163116	1.0	a	452.902372122																																	2015_Jun_23_1223	59.791102691000006	LearningTask	1	56	
93	200.0	s	-200.0																	0.0	0.0	0.0	0.0	17.0	2.0	70.0	2.0																													s	1.0	None	0.0		2.0	diamondmagenta.gif	go								0.401166200638																								0.0	0.5143568515779999	0.0008919239044189998	0.401166200638	1.0	s	455.90585613300004																																	2015_Jun_23_1223	59.791102691000006	LearningTask	1	56	
94	-200.0	a	-200.0																	0.0	0.0	0.0	0.0	17.0	3.0	71.0	3.0																													a	1.0	None	0.0		1.0	squareblue.gif	stop								0.400846004486																								0.0	0.514270067215	0.000877141952515	0.400846004486	1.0	a	458.90912914300003																																	2015_Jun_23_1223	59.791102691000006	LearningTask	1	56	
95	-200.0	a	-200.0																	0.0	0.0	0.0	0.0	18.0	0.0	72.0	3.0																													a	1.0	None	0.0		2.0	circleorange.gif	stop								0.367316007614																								1.94	0.514328956604	0.00120282173157	0.367316007614	1.0	a	461.912343025																																	2015_Jun_23_1223	59.791102691000006	LearningTask	1	56	
96	-200.0	q	200.0																	0.0	0.0	0.0	0.0	18.0	1.0	73.0	1.0																													q	1.0	None	0.0		4.0	trianglewhite.gif	go								0.333980083466																								3.75	0.514595031738	0.000930070877075	0.333980083466	1.0	q	464.915859222																																	2015_Jun_23_1223	59.791102691000006	LearningTask	1	56	
97	200.0	w	200.0																	0.0	0.0	0.0	0.0	18.0	2.0	74.0	0.0																													w	1.0	None	0.0		2.0	circleorange.gif	stop								0.40091300010700004																								1.81	0.514362096786	0.0008859634399410001	0.400913000107	1.0	w	467.919304132																																	2015_Jun_23_1223	59.791102691000006	LearningTask	1	56	
98	200.0	w	200.0																	0.0	0.0	0.0	0.0	18.0	3.0	75.0	0.0																													w	1.0	None	0.0		2.0	circleorange.gif	stop								0.41788482666																								1.78	0.5140361785890001	0.00105714797974	0.41788482666	1.0	w	470.92237711																																	2015_Jun_23_1223	59.791102691000006	LearningTask	1	56	
99	200.0	w	200.0																	0.0	0.0	0.0	0.0	19.0	0.0	76.0	0.0																													w	1.0	None	0.0		4.0	linegray.gif	stop								0.400429964066																								0.0	0.5147659778589999	0.0009520053863530001	0.400429964066	1.0	w	473.925886154																																	2015_Jun_23_1223	59.791102691000006	LearningTask	1	56	
100	-200.0	q	200.0																	0.0	0.0	0.0	0.0	19.0	1.0	77.0	1.0																													q	1.0	None	0.0		1.0	invertedtrianglegreen.gif	go								0.38460111618																								0.0	0.514456987381	0.0012691020965599998	0.38460111618	1.0	q	476.929265022																																	2015_Jun_23_1223	59.791102691000006	LearningTask	1	56	
101	200.0	s	-200.0																	0.0	0.0	0.0	0.0	19.0	2.0	78.0	2.0																													s	1.0	None	0.0		2.0	diamondmagenta.gif	go								0.40099811554																								0.0	0.513930082321	0.000931024551392	0.40099811554	1.0	s	479.93250703800004																																	2015_Jun_23_1223	59.791102691000006	LearningTask	1	56	
102	200.0	w	200.0																	0.0	0.0	0.0	0.0	19.0	3.0	79.0	0.0																													w	1.0	None	0.0		1.0	invertedtrianglegreen.gif	go								0.367510080338																								1.03	0.514481067657	0.0008981227874760001	0.367510080338	1.0	w	482.935924053																																	2015_Jun_23_1223	59.791102691000006	LearningTask	1	56	
103	-200.0	q	200.0																	0.0	0.0	0.0	0.0	20.0	0.0	80.0	1.0																													q	1.0	None	0.0		4.0	trianglewhite.gif	go								0.40104699134800004																								3.93	0.514414072037	0.0009059906005860001	0.401046991348	1.0	q	485.93955707599997																																	2015_Jun_23_1223	59.791102691000006	LearningTask	1	56	
104	200.0	w	200.0																	0.0	0.0	0.0	0.0	20.0	1.0	81.0	0.0																													w	1.0	None	0.0		2.0	circleorange.gif	stop								0.43492102623																								1.84	0.513872861862	0.00092887878418	0.43492102623	1.0	w	488.942717075																																	2015_Jun_23_1223	59.791102691000006	LearningTask	1	56	
105	-200.0	a	-200.0																	0.0	0.0	0.0	0.0	20.0	2.0	82.0	3.0																													a	1.0	None	0.0		1.0	squareblue.gif	stop								0.50121307373																								0.0	0.514485120773	0.0009641647338869999	0.50121307373	1.0	a	491.946087122																																	2015_Jun_23_1223	59.791102691000006	LearningTask	1	56	
106	200.0	s	-200.0																	0.0	0.0	0.0	0.0	20.0	3.0	83.0	2.0																													s	1.0	None	0.0		2.0	circleorange.gif	stop								0.36780691146899996																								2.1	0.514141082764	0.00089693069458	0.367806911469	1.0	s	494.94971799900003																																	2015_Jun_23_1223	59.791102691000006	LearningTask	1	56	
107	200.0	w	200.0																	0.0	0.0	0.0	0.0	21.0	0.0	84.0	0.0																													w	1.0	None	0.0		2.0	circleorange.gif	stop								0.367547988892																								0.0	0.513941049576	0.0008950233459470001	0.367547988892	1.0	w	497.952676058																																	2015_Jun_23_1223	59.791102691000006	LearningTask	1	56	
108	-200.0	q	200.0																	0.0	0.0	0.0	0.0	21.0	1.0	85.0	1.0																													q	1.0	None	0.0		2.0	diamondmagenta.gif	go								0.350937843323																								2.22	0.5142390728	0.00094199180603	0.350937843323	1.0	q	500.95639705699995																																	2015_Jun_23_1223	59.791102691000006	LearningTask	1	56	
109	200.0	s	-200.0																	0.0	0.0	0.0	0.0	21.0	2.0	86.0	2.0																													s	1.0	None	0.0		4.0	linegray.gif	stop								0.450926065445																								4.18	0.514187097549	0.00089693069458	0.450926065445	1.0	s	503.95967412																																	2015_Jun_23_1223	59.791102691000006	LearningTask	1	56	
110	200.0	s	-200.0																	0.0	0.0	0.0	0.0	21.0	3.0	87.0	2.0																													s	1.0	None	0.0		4.0	linegray.gif	stop								0.384170055389																								4.15	0.514173030853	0.000902891159058	0.384170055389	1.0	s	506.96303606																																	2015_Jun_23_1223	59.791102691000006	LearningTask	1	56	
111	-200.0	a	-200.0																	0.0	0.0	0.0	0.0	22.0	0.0	88.0	3.0																													a	1.0	None	0.0		1.0	squareblue.gif	stop								0.400996923447																								1.24	0.513967037201	0.00132703781128	0.400996923447	1.0	a	509.96610117																																	2015_Jun_23_1223	59.791102691000006	LearningTask	1	56	
112	200.0	s	-200.0																	0.0	0.0	0.0	0.0	22.0	1.0	89.0	2.0																													s	1.0	None	0.0		2.0	diamondmagenta.gif	go								0.400788068771																								1.93	0.5145690441130001	0.0008959770202639998	0.400788068771	1.0	s	512.969601154																																	2015_Jun_23_1223	59.791102691000006	LearningTask	1	56	
113	200.0	w	200.0																	0.0	0.0	0.0	0.0	22.0	2.0	90.0	0.0																													w	1.0	None	0.0		0.5	crosscyan.gif	go								0.40097403526299996																								0.29	0.514212846756	0.00128793716431	0.400974035263	1.0	w	515.972993135																																	2015_Jun_23_1223	59.791102691000006	LearningTask	1	56	
114	200.0	s	-200.0																	0.0	0.0	0.0	0.0	22.0	3.0	91.0	2.0																													s	1.0	None	0.0		4.0	linegray.gif	stop								0.333787202835																								3.92	0.514092922211	0.0009560585021970001	0.333787202835	1.0	s	518.976268053																																	2015_Jun_23_1223	59.791102691000006	LearningTask	1	56	
115	200.0	s	-200.0																	0.0	0.0	0.0	0.0	23.0	0.0	92.0	2.0																													s	1.0	None	0.0		4.0	trianglewhite.gif	go								0.384167909622																								0.0	0.514410018921	0.000892877578735	0.384167909622	1.0	s	521.979705095																																	2015_Jun_23_1223	59.791102691000006	LearningTask	1	56	
116	-200.0	a	-200.0																	0.0	0.0	0.0	0.0	23.0	1.0	93.0	3.0																													a	1.0	None	0.0		0.5	hexagonyellow.gif	stop								0.451169013977																								0.28	0.5139210224149999	0.00130796432495	0.451169013977	1.0	a	524.982964039																																	2015_Jun_23_1223	59.791102691000006	LearningTask	1	56	
117	200.0	s	-200.0																	0.0	0.0	0.0	0.0	23.0	2.0	94.0	2.0																													s	1.0	None	0.0		2.0	circleorange.gif	stop								0.385015010834																								2.24	0.513847112656	0.0009291172027589999	0.385015010834	1.0	s	527.9863140580001																																	2015_Jun_23_1223	59.791102691000006	LearningTask	1	56	
118	-200.0	q	200.0																	0.0	0.0	0.0	0.0	23.0	3.0	95.0	1.0																													q	1.0	None	0.0		2.0	circleorange.gif	stop								0.43443584442100003																								0.0	0.514312982559	0.0012369155883800002	0.434435844421	1.0	q	530.989521027																																	2015_Jun_23_1223	59.791102691000006	LearningTask	1	56	
119	200.0	w	200.0																	0.0	0.0	0.0	0.0	24.0	0.0	96.0	0.0																													w	1.0	None	0.0		1.0	squareblue.gif	stop								0.333638906479																								0.0	0.514547109604	0.0009338855743410001	0.333638906479	1.0	w	533.993357182																																	2015_Jun_23_1223	59.791102691000006	LearningTask	1	56	
120	200.0	s	-200.0																	0.0	0.0	0.0	0.0	24.0	1.0	97.0	2.0																													s	1.0	None	0.0		1.0	squareblue.gif	stop								0.401031017303																								1.09	0.513541936874	0.0009191036224369998	0.401031017303	1.0	s	536.996436119																																	2015_Jun_23_1223	59.791102691000006	LearningTask	1	56	
121	200.0	w	200.0																	0.0	0.0	0.0	0.0	24.0	2.0	98.0	0.0																													w	1.0	None	0.0		0.5	hexagonyellow.gif	stop								0.534105062485																								0.0	0.514565944672	0.0009369850158689999	0.534105062485	1.0	w	539.999905109																																	2015_Jun_23_1223	59.791102691000006	LearningTask	1	56	
122	-200.0	a	-200.0																	0.0	0.0	0.0	0.0	24.0	3.0	99.0	3.0																													a	1.0	None	0.0		4.0	trianglewhite.gif	go								0.451029062271																								4.02	0.514070987701	0.0008990764617919999	0.451029062271	1.0	a	543.0034561159999																																	2015_Jun_23_1223	59.791102691000006	LearningTask	1	56	
123																				0.0	0.0	0.0	0.0																																																																															9.0	54.379544019700006																															2015_Jun_23_1223	59.791102691000006	LearningTask	1	56	
124	200.0	s	-200.0																	1.0	0.0	1.0	0.0	0.0	0.0	0.0	2.0																													s	1.0	None	0.0		2.0	diamondmagenta.gif	go								0.567533969879																								1.89	0.508671998978	0.0008869171142580001	0.567533969879	1.0	s	600.718371153																																	2015_Jun_23_1223	59.791102691000006	LearningTask	1	56	
125	-200.0	a	-200.0																	1.0	0.0	1.0	0.0	0.0	1.0	1.0	3.0																													a	1.0	None	0.0		4.0	trianglewhite.gif	go								0.38403105735799997																								4.07	0.513561010361	0.00089693069458	0.384031057358	1.0	a	603.720988989																																	2015_Jun_23_1223	59.791102691000006	LearningTask	1	56	
126	-200.0	q	200.0																	1.0	0.0	1.0	0.0	0.0	2.0	2.0	1.0																													q	1.0	None	0.0		2.0	diamondmagenta.gif	go								0.350543022156																								1.75	0.514228820801	0.000908851623535	0.350543022156	1.0	q	606.724276066																																	2015_Jun_23_1223	59.791102691000006	LearningTask	1	56	
127	-200.0	q	200.0																	1.0	0.0	1.0	0.0	0.0	3.0	3.0	1.0																													q	1.0	None	0.0		4.0	trianglewhite.gif	go								0.350986003876																								4.2	0.514122009277	0.0009400844573969999	0.350986003876	1.0	q	609.728149176																																	2015_Jun_23_1223	59.791102691000006	LearningTask	1	56	
128	200.0	s	-200.0																	1.0	0.0	1.0	0.0	1.0	0.0	4.0	2.0																													s	1.0	None	0.0		1.0	invertedtrianglegreen.gif	go								0.400758981705																								0.0	0.51397895813	0.0008840560913089999	0.400758981705	1.0	s	612.731211185																																	2015_Jun_23_1223	59.791102691000006	LearningTask	1	56	
129	200.0	w	200.0																	1.0	0.0	1.0	0.0	1.0	1.0	5.0	0.0																													w	1.0	None	0.0		1.0	squareblue.gif	stop								0.383722066879																								0.0	0.5142021179199999	0.0008859634399410001	0.383722066879	1.0	w	615.734459162																																	2015_Jun_23_1223	59.791102691000006	LearningTask	1	56	
130	200.0	s	-200.0																	1.0	0.0	1.0	0.0	1.0	2.0	6.0	2.0																													s	1.0	None	0.0		4.0	linegray.gif	stop								0.451024055481																								3.8	0.514058113098	0.00103712081909	0.451024055481	1.0	s	618.737679005																																	2015_Jun_23_1223	59.791102691000006	LearningTask	1	56	
131	200.0	w	200.0																	1.0	0.0	1.0	0.0	1.0	3.0	7.0	0.0																													w	1.0	None	0.0		4.0	linegray.gif	stop								0.400899171829																								0.0	0.5146050453190001	0.0008761882781980001	0.400899171829	1.0	w	621.7411580090001																																	2015_Jun_23_1223	59.791102691000006	LearningTask	1	56	
132	200.0	w	200.0																	1.0	0.0	1.0	0.0	2.0	0.0	8.0	0.0																													w	1.0	None	0.0		2.0	circleorange.gif	stop								0.450968980789																								2.25	0.514060974121	0.0008997917175289999	0.450968980789	1.0	w	624.745425224																																	2015_Jun_23_1223	59.791102691000006	LearningTask	1	56	
133	-200.0	a	-200.0																	1.0	0.0	1.0	0.0	2.0	1.0	9.0	3.0																													a	1.0	None	0.0		4.0	linegray.gif	stop								0.417786836624																								4.06	0.513422012329	0.00092601776123	0.417786836624	1.0	a	627.748016119																																	2015_Jun_23_1223	59.791102691000006	LearningTask	1	56	
134	200.0	s	-200.0																	1.0	0.0	1.0	0.0	2.0	2.0	10.0	2.0																													s	1.0	None	0.0		0.5	crosscyan.gif	go								0.350564002991																								0.68	0.514302968979	0.00089693069458	0.350564002991	1.0	s	630.751394987																																	2015_Jun_23_1223	59.791102691000006	LearningTask	1	56	
135	200.0	s	-200.0																	1.0	0.0	1.0	0.0	2.0	3.0	11.0	2.0																													s	1.0	None	0.0		0.5	hexagonyellow.gif	stop								0.38447093963600004																								0.59	0.513890981674	0.000946044921875	0.384470939636	1.0	s	633.754546165																																	2015_Jun_23_1223	59.791102691000006	LearningTask	1	56	
136	200.0	s	-200.0																	1.0	0.0	1.0	0.0	3.0	0.0	12.0	2.0																													s	1.0	None	0.0		0.5	crosscyan.gif	go								0.38481593131999997																								0.0	0.5141041278840001	0.0009200572967529999	0.38481593132	1.0	s	636.757777214																																	2015_Jun_23_1223	59.791102691000006	LearningTask	1	56	
137	200.0	w	200.0																	1.0	0.0	1.0	0.0	3.0	1.0	13.0	0.0																													w	1.0	None	0.0		2.0	circleorange.gif	stop								0.384204864502																								1.89	0.514375209808	0.0008981227874760001	0.384204864502	1.0	w	639.761653185																																	2015_Jun_23_1223	59.791102691000006	LearningTask	1	56	
138	200.0	w	200.0																	1.0	0.0	1.0	0.0	3.0	2.0	14.0	0.0																													w	1.0	None	0.0		4.0	trianglewhite.gif	go								0.384345054626																								4.15	0.5140960216520001	0.000885009765625	0.384345054626	1.0	w	642.764599085																																	2015_Jun_23_1223	59.791102691000006	LearningTask	1	56	
139	-200.0	q	200.0																	1.0	0.0	1.0	0.0	3.0	3.0	15.0	1.0																													q	1.0	None	0.0		2.0	diamondmagenta.gif	go								0.367462158203																								1.86	0.514298915863	0.00089693069458	0.367462158203	1.0	q	645.767961025																																	2015_Jun_23_1223	59.791102691000006	LearningTask	1	56	
140	200.0	s	-200.0																	1.0	0.0	1.0	0.0	4.0	0.0	16.0	2.0																													s	1.0	None	0.0		2.0	circleorange.gif	stop								0.367040872574																								0.0	0.514361143112	0.0009710788726810001	0.367040872574	1.0	s	648.771406174																																	2015_Jun_23_1223	59.791102691000006	LearningTask	1	56	
141	200.0	s	-200.0																	1.0	0.0	1.0	0.0	4.0	1.0	17.0	2.0																													s	1.0	None	0.0		1.0	invertedtrianglegreen.gif	go								0.417536973953																								0.98	0.514154911041	0.0011579990387	0.417536973953	1.0	s	651.77454114																																	2015_Jun_23_1223	59.791102691000006	LearningTask	1	56	
142	200.0	s	-200.0																	1.0	0.0	1.0	0.0	4.0	2.0	18.0	2.0																													s	1.0	None	0.0		1.0	squareblue.gif	stop								0.38423299789399995																								0.81	0.51433801651	0.0009100437164310001	0.384232997894	1.0	s	654.777908087																																	2015_Jun_23_1223	59.791102691000006	LearningTask	1	56	
143	200.0	s	-200.0																	1.0	0.0	1.0	0.0	4.0	3.0	19.0	2.0																													s	1.0	None	0.0		0.5	crosscyan.gif	go								0.400985002518																								0.0	0.5141119956970001	0.000909090042114	0.400985002518	1.0	s	657.781412125																																	2015_Jun_23_1223	59.791102691000006	LearningTask	1	56	
144	-200.0	q	200.0																	1.0	0.0	1.0	0.0	5.0	0.0	20.0	1.0																													q	1.0	None	0.0		1.0	squareblue.gif	stop								0.40109300613399995																								0.86	0.5141038894650001	0.000873804092407	0.401093006134	1.0	q	660.784736156																																	2015_Jun_23_1223	59.791102691000006	LearningTask	1	56	
145	200.0	w	200.0																	1.0	0.0	1.0	0.0	5.0	1.0	21.0	0.0																													w	1.0	None	0.0		1.0	squareblue.gif	stop								0.534260988235																								0.89	0.514265060425	0.000869035720825	0.534260988235	1.0	w	663.7880680559999																																	2015_Jun_23_1223	59.791102691000006	LearningTask	1	56	
146	200.0	w	200.0																	1.0	0.0	1.0	0.0	5.0	2.0	22.0	0.0																													w	1.0	None	0.0		0.5	crosscyan.gif	go								0.40080499649000007																								0.29	0.514051914215	0.00101780891418	0.40080499649	1.0	w	666.791352034																																	2015_Jun_23_1223	59.791102691000006	LearningTask	1	56	
147	-200.0	a	-200.0																	1.0	0.0	1.0	0.0	5.0	3.0	23.0	3.0																													a	1.0	None	0.0		0.5	crosscyan.gif	go								0.38431286811800003																								0.0	0.514389038086	0.0008759498596189999	0.384312868118	1.0	a	669.794878006																																	2015_Jun_23_1223	59.791102691000006	LearningTask	1	56	
148	-200.0	a	-200.0																	1.0	0.0	1.0	0.0	6.0	0.0	24.0	3.0																													a	1.0	None	0.0		2.0	diamondmagenta.gif	go								0.417276144028																								2.2	0.514086008072	0.0009031295776369999	0.417276144028	1.0	a	672.7981920240001																																	2015_Jun_23_1223	59.791102691000006	LearningTask	1	56	
149	-200.0	a	-200.0																	1.0	0.0	1.0	0.0	6.0	1.0	25.0	3.0																													a	1.0	None	0.0		2.0	circleorange.gif	stop								0.334011077881																								2.13	0.5137639045719999	0.0009529590606689998	0.334011077881	1.0	a	675.801596165																																	2015_Jun_23_1223	59.791102691000006	LearningTask	1	56	
150	-200.0	q	200.0																	1.0	0.0	1.0	0.0	6.0	2.0	26.0	1.0																													q	1.0	None	0.0		4.0	linegray.gif	stop								0.38394188880900004																								0.0	0.514294147491	0.0008680820465089999	0.383941888809	1.0	q	678.804944038																																	2015_Jun_23_1223	59.791102691000006	LearningTask	1	56	
151	-200.0	a	-200.0																	1.0	0.0	1.0	0.0	6.0	3.0	27.0	3.0																													a	1.0	None	0.0		0.5	hexagonyellow.gif	stop								0.40107393264799995																								0.0	0.5140960216520001	0.0011379718780499999	0.401073932648	1.0	a	681.808284998																																	2015_Jun_23_1223	59.791102691000006	LearningTask	1	56	
152	200.0	w	200.0																	1.0	0.0	1.0	0.0	7.0	0.0	28.0	0.0																													w	1.0	None	0.0		2.0	circleorange.gif	stop								0.41777992248499995																								1.84	0.514026880264	0.0009200572967529999	0.417779922485	1.0	w	684.811561108																																	2015_Jun_23_1223	59.791102691000006	LearningTask	1	56	
153	200.0	w	200.0																	1.0	0.0	1.0	0.0	7.0	1.0	29.0	0.0																													w	1.0	None	0.0		0.5	crosscyan.gif	go								0.38432097435																								0.31	0.5143840312960001	0.000888824462891	0.38432097435	1.0	w	687.814779043																																	2015_Jun_23_1223	59.791102691000006	LearningTask	1	56	
154	-200.0	a	-200.0																	1.0	0.0	1.0	0.0	7.0	2.0	30.0	3.0																													a	1.0	None	0.0		1.0	invertedtrianglegreen.gif	go								0.367813110352																								0.82	0.514497041702	0.0008749961853029999	0.367813110352	1.0	a	690.818555117																																	2015_Jun_23_1223	59.791102691000006	LearningTask	1	56	
155	-200.0	q	200.0																	1.0	0.0	1.0	0.0	7.0	3.0	31.0	1.0																													q	1.0	None	0.0		0.5	hexagonyellow.gif	stop								0.367188930511																								0.55	0.5143711566929999	0.0008759498596189999	0.367188930511	1.0	q	693.821616173																																	2015_Jun_23_1223	59.791102691000006	LearningTask	1	56	
156	200.0	s	-200.0																	1.0	0.0	1.0	0.0	8.0	0.0	32.0	2.0																													s	1.0	None	0.0		0.5	crosscyan.gif	go								0.351119041443																								0.7	0.514132022858	0.0009391307830810002	0.351119041443	1.0	s	696.82497406																																	2015_Jun_23_1223	59.791102691000006	LearningTask	1	56	
157	-200.0	a	-200.0																	1.0	0.0	1.0	0.0	8.0	1.0	33.0	3.0																													a	1.0	None	0.0		4.0	linegray.gif	stop								0.384201049805																								0.0	0.5143339633940001	0.0008721351623539999	0.384201049805	1.0	a	699.828476191																																	2015_Jun_23_1223	59.791102691000006	LearningTask	1	56	
158	200.0	s	-200.0																	1.0	0.0	1.0	0.0	8.0	2.0	34.0	2.0																													s	1.0	None	0.0		0.5	crosscyan.gif	go								0.367671966553																								0.55	0.5143899917600001	0.000885009765625	0.367671966553	1.0	s	702.831568003																																	2015_Jun_23_1223	59.791102691000006	LearningTask	1	56	
159	200.0	w	200.0																	1.0	0.0	1.0	0.0	8.0	3.0	35.0	0.0																													w	1.0	None	0.0		1.0	invertedtrianglegreen.gif	go								0.367710113525																								1.01	0.514190912247	0.000922918319702	0.367710113525	1.0	w	705.835027218																																	2015_Jun_23_1223	59.791102691000006	LearningTask	1	56	
160	-200.0	q	200.0																	1.0	0.0	1.0	0.0	9.0	0.0	36.0	1.0																													q	1.0	None	0.0		0.5	hexagonyellow.gif	stop								0.300488948822																								0.7	0.5145008564	0.000877857208252	0.300488948822	1.0	q	708.8387241360001																																	2015_Jun_23_1223	59.791102691000006	LearningTask	1	56	
161	-200.0	q	200.0																	1.0	0.0	1.0	0.0	9.0	1.0	37.0	1.0																													q	1.0	None	0.0		4.0	linegray.gif	stop								0.400815963745																								4.02	0.514070987701	0.000909805297852	0.400815963745	1.0	q	711.841878176																																	2015_Jun_23_1223	59.791102691000006	LearningTask	1	56	
162	200.0	s	-200.0																	1.0	0.0	1.0	0.0	9.0	2.0	38.0	2.0																													s	1.0	None	0.0		4.0	trianglewhite.gif	go								0.38455414772																								3.76	0.513859033585	0.000900030136108	0.38455414772	1.0	s	714.845088005																																	2015_Jun_23_1223	59.791102691000006	LearningTask	1	56	
163	-200.0	q	200.0																	1.0	0.0	1.0	0.0	9.0	3.0	39.0	1.0																													q	1.0	None	0.0		4.0	linegray.gif	stop								0.41773295402500005																								0.0	0.514219999313	0.0008780956268310002	0.417732954025	1.0	q	717.848566055																																	2015_Jun_23_1223	59.791102691000006	LearningTask	1	56	
164	-200.0	q	200.0																	1.0	0.0	1.0	0.0	10.0	0.0	40.0	1.0																													q	1.0	None	0.0		1.0	invertedtrianglegreen.gif	go								0.38480114936800003																								1.15	0.514091968536	0.000882863998413	0.384801149368	1.0	q	720.8521351810001																																	2015_Jun_23_1223	59.791102691000006	LearningTask	1	56	
165	200.0	w	200.0																	1.0	0.0	1.0	0.0	10.0	1.0	41.0	0.0																													w	1.0	None	0.0		4.0	linegray.gif	stop								0.434437036514																								3.76	0.514081954956	0.0009241104125980002	0.434437036514	1.0	w	723.8553631310001																																	2015_Jun_23_1223	59.791102691000006	LearningTask	1	56	
166	200.0	s	-200.0																	1.0	0.0	1.0	0.0	10.0	2.0	42.0	2.0																													s	1.0	None	0.0		0.5	crosscyan.gif	go								0.434242963791																								0.5	0.5142099857329999	0.00088095664978	0.434242963791	1.0	s	726.858622074																																	2015_Jun_23_1223	59.791102691000006	LearningTask	1	56	
167	200.0	w	200.0																	1.0	0.0	1.0	0.0	10.0	3.0	43.0	0.0																													w	1.0	None	0.0		4.0	trianglewhite.gif	go								0.36732101440399995																								4.15	0.514300823212	0.000880002975464	0.367321014404	1.0	w	729.862039089																																	2015_Jun_23_1223	59.791102691000006	LearningTask	1	56	
168	-200.0	q	200.0																	1.0	0.0	1.0	0.0	11.0	0.0	44.0	1.0																													q	1.0	None	0.0		4.0	trianglewhite.gif	go								0.41753578185999995																								0.0	0.514056921005	0.0009109973907470001	0.41753578186	1.0	q	732.865195036																																	2015_Jun_23_1223	59.791102691000006	LearningTask	1	56	
169	-200.0	q	200.0																	1.0	0.0	1.0	0.0	11.0	1.0	45.0	1.0																													q	1.0	None	0.0		2.0	diamondmagenta.gif	go								0.41790699958800004																								0.0	0.514309167862	0.000923156738281	0.417906999588	1.0	q	735.8684921260001																																	2015_Jun_23_1223	59.791102691000006	LearningTask	1	56	
170	-200.0	a	-200.0																	1.0	0.0	1.0	0.0	11.0	2.0	46.0	3.0																													a	1.0	None	0.0		2.0	diamondmagenta.gif	go								0.383821964264																								2.23	0.514539957047	0.0009350776672360002	0.383821964264	1.0	a	738.872281075																																	2015_Jun_23_1223	59.791102691000006	LearningTask	1	56	
171	200.0	w	200.0																	1.0	0.0	1.0	0.0	11.0	3.0	47.0	0.0																													w	1.0	None	0.0		1.0	invertedtrianglegreen.gif	go								0.434237957001																								0.85	0.514295816422	0.0008759498596189999	0.434237957001	1.0	w	741.8753390310001																																	2015_Jun_23_1223	59.791102691000006	LearningTask	1	56	
172	200.0	w	200.0																	1.0	0.0	1.0	0.0	12.0	0.0	48.0	0.0																													w	1.0	None	0.0		2.0	circleorange.gif	stop								0.40037107467699995																								2.06	0.514594078064	0.00104212760925	0.400371074677	1.0	w	744.8787930010001																																	2015_Jun_23_1223	59.791102691000006	LearningTask	1	56	
173	200.0	s	-200.0																	1.0	0.0	1.0	0.0	12.0	1.0	49.0	2.0																													s	1.0	None	0.0		2.0	circleorange.gif	stop								0.36782598495499996																								1.91	0.51428103447	0.0008749961853029999	0.367825984955	1.0	s	747.882188082																																	2015_Jun_23_1223	59.791102691000006	LearningTask	1	56	
174	-200.0	a	-200.0																	1.0	0.0	1.0	0.0	12.0	2.0	50.0	3.0																													a	1.0	None	0.0		0.5	crosscyan.gif	go								0.384312152863																								0.25	0.514123916626	0.0008769035339360002	0.384312152863	1.0	a	750.8852071760001																																	2015_Jun_23_1223	59.791102691000006	LearningTask	1	56	
175	200.0	s	-200.0																	1.0	0.0	1.0	0.0	12.0	3.0	51.0	2.0																													s	1.0	None	0.0		0.5	crosscyan.gif	go								0.35103011131300005																								0.31	0.514203071594	0.0009169578552250001	0.351030111313	1.0	s	753.8888111110001																																	2015_Jun_23_1223	59.791102691000006	LearningTask	1	56	
176	200.0	w	200.0																	1.0	0.0	1.0	0.0	13.0	0.0	52.0	0.0																													w	1.0	None	0.0		1.0	squareblue.gif	stop								0.467683076859																								0.0	0.514567136765	0.0008761882781980001	0.467683076859	1.0	w	756.892194033																																	2015_Jun_23_1223	59.791102691000006	LearningTask	1	56	
177	200.0	w	200.0																	1.0	0.0	1.0	0.0	13.0	1.0	53.0	0.0																													w	1.0	None	0.0		4.0	linegray.gif	stop								0.3840239048																								3.95	0.514339923859	0.0008840560913089999	0.3840239048	1.0	w	759.895619154																																	2015_Jun_23_1223	59.791102691000006	LearningTask	1	56	
178	-200.0	a	-200.0																	1.0	0.0	1.0	0.0	13.0	2.0	54.0	3.0																													a	1.0	None	0.0		4.0	linegray.gif	stop								0.38434720039399994																								3.89	0.51397395134	0.0009379386901860002	0.384347200394	1.0	a	762.898783207																																	2015_Jun_23_1223	59.791102691000006	LearningTask	1	56	
179	-200.0	q	200.0																	1.0	0.0	1.0	0.0	13.0	3.0	55.0	1.0																													q	1.0	None	0.0		2.0	circleorange.gif	stop								0.367798089981																								2.01	0.5146520137789999	0.0008740425109860002	0.367798089981	1.0	q	765.902518034																																	2015_Jun_23_1223	59.791102691000006	LearningTask	1	56	
180	-200.0	a	-200.0																	1.0	0.0	1.0	0.0	14.0	0.0	56.0	3.0																													a	1.0	None	0.0		4.0	linegray.gif	stop								0.367562055588																								3.96	0.514065980911	0.000867128372192	0.367562055588	1.0	a	768.905744076																																	2015_Jun_23_1223	59.791102691000006	LearningTask	1	56	
181	-200.0	a	-200.0																	1.0	0.0	1.0	0.0	14.0	1.0	57.0	3.0																													a	1.0	None	0.0		2.0	diamondmagenta.gif	go								0.384127855301																								1.82	0.51381278038	0.00144290924072	0.384127855301	1.0	a	771.908981085																																	2015_Jun_23_1223	59.791102691000006	LearningTask	1	56	
182	200.0	w	200.0																	1.0	0.0	1.0	0.0	14.0	2.0	58.0	0.0																													w	1.0	None	0.0		2.0	circleorange.gif	stop								0.38442301750200003																								2.0	0.514243125916	0.00088095664978	0.384423017502	1.0	w	774.912221193																																	2015_Jun_23_1223	59.791102691000006	LearningTask	1	56	
183	-200.0	a	-200.0																	1.0	0.0	1.0	0.0	14.0	3.0	59.0	3.0																													a	1.0	None	0.0		1.0	squareblue.gif	stop								0.400763988495																								1.07	0.514490842819	0.0008668899536130001	0.400763988495	1.0	a	777.915783167																																	2015_Jun_23_1223	59.791102691000006	LearningTask	1	56	
184	-200.0	a	-200.0																	1.0	0.0	1.0	0.0	15.0	0.0	60.0	3.0																													a	1.0	None	0.0		4.0	linegray.gif	stop								0.467658042908																								0.0	0.514047861099	0.0009069442749019998	0.467658042908	1.0	a	780.918860197																																	2015_Jun_23_1223	59.791102691000006	LearningTask	1	56	
185	200.0	s	-200.0																	1.0	0.0	1.0	0.0	15.0	1.0	61.0	2.0																													s	1.0	None	0.0		0.5	hexagonyellow.gif	stop								0.451205015182																								0.33	0.514423847198	0.0009858608245850002	0.451205015182	1.0	s	783.922322035																																	2015_Jun_23_1223	59.791102691000006	LearningTask	1	56	
186	200.0	w	200.0																	1.0	0.0	1.0	0.0	15.0	2.0	62.0	0.0																													w	1.0	None	0.0		2.0	diamondmagenta.gif	go								0.400761127472																								0.0	0.514743089676	0.000871181488037	0.400761127472	1.0	w	786.925691128																																	2015_Jun_23_1223	59.791102691000006	LearningTask	1	56	
187	-200.0	a	-200.0																	1.0	0.0	1.0	0.0	15.0	3.0	63.0	3.0																													a	1.0	None	0.0		1.0	squareblue.gif	stop								0.367399930954																								1.18	0.514642000198	0.000869035720825	0.367399930954	1.0	a	789.9288671019999																																	2015_Jun_23_1223	59.791102691000006	LearningTask	1	56	
188	200.0	w	200.0																	1.0	0.0	1.0	0.0	16.0	0.0	64.0	0.0																													w	1.0	None	0.0		0.5	crosscyan.gif	go								0.400709867477																								0.35	0.51450419426	0.00108218193054	0.400709867477	1.0	w	792.93249917																																	2015_Jun_23_1223	59.791102691000006	LearningTask	1	56	
189	-200.0	a	-200.0																	1.0	0.0	1.0	0.0	16.0	1.0	65.0	3.0																													a	1.0	None	0.0		0.5	hexagonyellow.gif	stop								0.38406705856299994																								0.25	0.514314889908	0.0008759498596189999	0.384067058563	1.0	a	795.935881138																																	2015_Jun_23_1223	59.791102691000006	LearningTask	1	56	
190	-200.0	q	200.0																	1.0	0.0	1.0	0.0	16.0	2.0	66.0	1.0																													q	1.0	None	0.0		4.0	trianglewhite.gif	go								0.38360023498499995																								4.25	0.5143120288849999	0.000904083251953	0.383600234985	1.0	q	798.939038038																																	2015_Jun_23_1223	59.791102691000006	LearningTask	1	56	
191	200.0	s	-200.0																	1.0	0.0	1.0	0.0	16.0	3.0	67.0	2.0																													s	1.0	None	0.0		2.0	circleorange.gif	stop								0.384201049805																								2.23	0.514039039612	0.0009608268737789999	0.384201049805	1.0	s	801.942524195																																	2015_Jun_23_1223	59.791102691000006	LearningTask	1	56	
192	-200.0	q	200.0																	1.0	0.0	1.0	0.0	17.0	0.0	68.0	1.0																													q	1.0	None	0.0		0.5	crosscyan.gif	go								0.384420871735																								0.42	0.5140888690950001	0.0008990764617919999	0.384420871735	1.0	q	804.94593811																																	2015_Jun_23_1223	59.791102691000006	LearningTask	1	56	
193	200.0	w	200.0																	1.0	0.0	1.0	0.0	17.0	1.0	69.0	0.0																													w	1.0	None	0.0		0.5	crosscyan.gif	go								0.400758981705																								0.0	0.514224052429	0.000881910324097	0.400758981705	1.0	w	807.9490489960001																																	2015_Jun_23_1223	59.791102691000006	LearningTask	1	56	
194	-200.0	q	200.0																	1.0	0.0	1.0	0.0	17.0	2.0	70.0	1.0																													q	1.0	None	0.0		2.0	circleorange.gif	stop								0.417809009552																								0.0	0.514262199402	0.0009241104125980002	0.350905895233	0.0	a	810.952485085			0.0	0.515284061432	0.000974178314209	0.417809009552	1.0	q	813.956189156																								2015_Jun_23_1223	59.791102691000006	LearningTask	1	56	
195	-200.0	q	200.0																	1.0	0.0	1.0	0.0	17.0	3.0	71.0	1.0																													q	1.0	None	0.0		1.0	invertedtrianglegreen.gif	go								0.50115609169																								0.89	0.513916969299	0.000880002975464	0.50115609169	1.0	q	816.959958076																																	2015_Jun_23_1223	59.791102691000006	LearningTask	1	56	
196	-200.0	a	-200.0																	1.0	0.0	1.0	0.0	18.0	0.0	72.0	3.0																													a	1.0	None	0.0		1.0	squareblue.gif	stop								0.6011219024660001																								1.25	0.513650178909	0.0009150505065920001	0.601121902466	1.0	a	819.962714195																																	2015_Jun_23_1223	59.791102691000006	LearningTask	1	56	
197	200.0	w	200.0																	1.0	0.0	1.0	0.0	18.0	1.0	73.0	0.0																													w	1.0	None	0.0		1.0	squareblue.gif	stop								0.367239952087																								0.88	0.514316082001	0.0008590221405029999	0.367239952087	1.0	w	822.965973139																																	2015_Jun_23_1223	59.791102691000006	LearningTask	1	56	
198	200.0	w	200.0																	1.0	0.0	1.0	0.0	18.0	2.0	74.0	0.0																													w	1.0	None	0.0		4.0	trianglewhite.gif	go								0.41754412651100004																								3.84	0.514314889908	0.000880002975464	0.417544126511	1.0	w	825.969347																																	2015_Jun_23_1223	59.791102691000006	LearningTask	1	56	
199	200.0	w	200.0																	1.0	0.0	1.0	0.0	18.0	3.0	75.0	0.0																													w	1.0	None	0.0		2.0	diamondmagenta.gif	go								0.43390989303599997																								2.2	0.514172077179	0.00096607208252	0.433909893036	1.0	w	828.9726591110001																																	2015_Jun_23_1223	59.791102691000006	LearningTask	1	56	
200	-200.0	a	-200.0																	1.0	0.0	1.0	0.0	19.0	0.0	76.0	3.0																													a	1.0	None	0.0		2.0	diamondmagenta.gif	go								0.43469595909100006																								2.03	0.514343976974	0.0009031295776369999	0.434695959091	1.0	a	831.975855112																																	2015_Jun_23_1223	59.791102691000006	LearningTask	1	56	
201	200.0	s	-200.0																	1.0	0.0	1.0	0.0	19.0	1.0	77.0	2.0																													s	1.0	None	0.0		1.0	invertedtrianglegreen.gif	go								0.40096402168300005																								1.22	0.514568805695	0.0008788108825680001	0.400964021683	1.0	s	834.9794750210001																																	2015_Jun_23_1223	59.791102691000006	LearningTask	1	56	
202	-200.0	a	-200.0																	1.0	0.0	1.0	0.0	19.0	2.0	78.0	3.0																													a	1.0	None	0.0		2.0	diamondmagenta.gif	go								0.417174100876																								1.8	0.514362096786	0.0008759498596189999	0.417174100876	1.0	a	837.982711077																																	2015_Jun_23_1223	59.791102691000006	LearningTask	1	56	
203	-200.0	q	200.0																	1.0	0.0	1.0	0.0	19.0	3.0	79.0	1.0																													q	1.0	None	0.0		1.0	invertedtrianglegreen.gif	go								0.350693225861																								0.89	0.5143928527830001	0.00114607810974	0.350693225861	1.0	q	840.9860281939999																																	2015_Jun_23_1223	59.791102691000006	LearningTask	1	56	
204	200.0	s	-200.0																	1.0	0.0	1.0	0.0	20.0	0.0	80.0	2.0																													s	1.0	None	0.0		1.0	invertedtrianglegreen.gif	go								0.401298046112																								0.95	0.514400959015	0.00088095664978	0.401298046112	1.0	s	843.989478111																																	2015_Jun_23_1223	59.791102691000006	LearningTask	1	56	
205	-200.0	a	-200.0																	1.0	0.0	1.0	0.0	20.0	1.0	81.0	3.0																													a	1.0	None	0.0		2.0	diamondmagenta.gif	go								0.451300144196																								1.79	0.51433300972	0.00092601776123	0.451300144196	1.0	a	846.992678165																																	2015_Jun_23_1223	59.791102691000006	LearningTask	1	56	
206	200.0	w	200.0																	1.0	0.0	1.0	0.0	20.0	2.0	82.0	0.0																													w	1.0	None	0.0		4.0	trianglewhite.gif	go								0.384826898575																								0.0	0.514095067978	0.0009150505065920001	0.384826898575	1.0	w	849.99613905																																	2015_Jun_23_1223	59.791102691000006	LearningTask	1	56	
207	-200.0	a	-200.0																	1.0	0.0	1.0	0.0	20.0	3.0	83.0	3.0																													a	1.0	None	0.0		4.0	trianglewhite.gif	go								0.401328086853																								3.88	0.514070034027	0.0009100437164310001	0.401328086853	1.0	a	852.999876022																																	2015_Jun_23_1223	59.791102691000006	LearningTask	1	56	
208	-200.0	q	200.0																	1.0	0.0	1.0	0.0	21.0	0.0	84.0	1.0																													q	1.0	None	0.0		2.0	diamondmagenta.gif	go								0.333983898163																								2.15	0.513988018036	0.0008761882781980001	0.333983898163	1.0	q	856.002885103																																	2015_Jun_23_1223	59.791102691000006	LearningTask	1	56	
209	-200.0	a	-200.0																	1.0	0.0	1.0	0.0	21.0	1.0	85.0	3.0																													a	1.0	None	0.0		1.0	invertedtrianglegreen.gif	go								0.33460807800299996																								1.01	0.513942956924	0.0011718273162799999	0.334608078003	1.0	a	859.006199121																																	2015_Jun_23_1223	59.791102691000006	LearningTask	1	56	
210	-200.0	q	200.0																	1.0	0.0	1.0	0.0	21.0	2.0	86.0	1.0																													q	1.0	None	0.0		4.0	linegray.gif	stop								0.384551048279																								0.0	0.514403104782	0.00087308883667	0.384551048279	1.0	q	862.009728193																																	2015_Jun_23_1223	59.791102691000006	LearningTask	1	56	
211	200.0	s	-200.0																	1.0	0.0	1.0	0.0	21.0	3.0	87.0	2.0																													s	1.0	None	0.0		2.0	circleorange.gif	stop								0.400829076767																								1.76	0.514198064804	0.00088095664978	0.400829076767	1.0	s	865.0131940839999																																	2015_Jun_23_1223	59.791102691000006	LearningTask	1	56	
212	-200.0	q	200.0																	1.0	0.0	1.0	0.0	22.0	0.0	88.0	1.0																													q	1.0	None	0.0		0.5	crosscyan.gif	go								0.433979988098																								0.56	0.51405620575	0.000923156738281	0.433979988098	1.0	q	868.016396999																																	2015_Jun_23_1223	59.791102691000006	LearningTask	1	56	
213	-200.0	a	-200.0																	1.0	0.0	1.0	0.0	22.0	1.0	89.0	3.0																													a	1.0	None	0.0		1.0	invertedtrianglegreen.gif	go								0.384626150131																								1.12	0.514282941818	0.0009329319000239999	0.384626150131	1.0	a	871.019728184																																	2015_Jun_23_1223	59.791102691000006	LearningTask	1	56	
214	200.0	w	200.0																	1.0	0.0	1.0	0.0	22.0	2.0	90.0	0.0																													w	1.0	None	0.0		4.0	trianglewhite.gif	go								0.384305953979																								4.02	0.514273166656	0.00087308883667	0.384305953979	1.0	w	874.023200989																																	2015_Jun_23_1223	59.791102691000006	LearningTask	1	56	
215	200.0	s	-200.0																	1.0	0.0	1.0	0.0	22.0	3.0	91.0	2.0																													s	1.0	None	0.0		1.0	invertedtrianglegreen.gif	go								0.350882053375																								1.24	0.51395201683	0.00090503692627	0.350882053375	1.0	s	877.02633214																																	2015_Jun_23_1223	59.791102691000006	LearningTask	1	56	
216	-200.0	q	200.0																	1.0	0.0	1.0	0.0	23.0	0.0	92.0	1.0																													q	1.0	None	0.0		0.5	hexagonyellow.gif	stop								0.40116095542900004																								0.49	0.514420986176	0.0009670257568360001	0.401160955429	1.0	q	880.0295431610001																																	2015_Jun_23_1223	59.791102691000006	LearningTask	1	56	
217	200.0	s	-200.0																	1.0	0.0	1.0	0.0	23.0	1.0	93.0	2.0																													s	1.0	None	0.0		2.0	diamondmagenta.gif	go								0.534317970276																								1.93	0.5147111415860001	0.0008831024169919999	0.534317970276	1.0	s	883.0332281589999																																	2015_Jun_23_1223	59.791102691000006	LearningTask	1	56	
218	-200.0	q	200.0																	1.0	0.0	1.0	0.0	23.0	2.0	94.0	1.0																													q	1.0	None	0.0		4.0	linegray.gif	stop								0.38403797149700003																								3.95	0.514165878296	0.0008919239044189998	0.384037971497	1.0	q	886.036421061																																	2015_Jun_23_1223	59.791102691000006	LearningTask	1	56	
219	200.0	s	-200.0																	1.0	0.0	1.0	0.0	23.0	3.0	95.0	2.0																													s	1.0	None	0.0		0.5	hexagonyellow.gif	stop								0.384155988693																								0.31	0.51428103447	0.00108194351196	0.384155988693	1.0	s	889.040042162																																	2015_Jun_23_1223	59.791102691000006	LearningTask	1	56	
220	-200.0	q	200.0																	1.0	0.0	1.0	0.0	24.0	0.0	96.0	1.0																													q	1.0	None	0.0		0.5	hexagonyellow.gif	stop								0.350869894028																								0.58	0.514110088348	0.0008831024169919999	0.350869894028	1.0	q	892.043444157																																	2015_Jun_23_1223	59.791102691000006	LearningTask	1	56	
221	200.0	s	-200.0																	1.0	0.0	1.0	0.0	24.0	1.0	97.0	2.0																													s	1.0	None	0.0		4.0	trianglewhite.gif	go								0.40076613426200003																								3.78	0.514003992081	0.000880002975464	0.400766134262	1.0	s	895.0464580060001																																	2015_Jun_23_1223	59.791102691000006	LearningTask	1	56	
222	-200.0	a	-200.0																	1.0	0.0	1.0	0.0	24.0	2.0	98.0	3.0																													a	1.0	None	0.0		2.0	circleorange.gif	stop								0.433943033218																								2.0	0.514631986618	0.0009181499481200001	0.433943033218	1.0	a	898.0498590469999																																	2015_Jun_23_1223	59.791102691000006	LearningTask	1	56	
223	-200.0	q	200.0																	1.0	0.0	1.0	0.0	24.0	3.0	99.0	1.0																													q	1.0	None	0.0		2.0	circleorange.gif	stop								0.500640869141																								0.0	0.514538049698	0.0008859634399410001	0.500640869141	1.0	q	901.0534861089999																																	2015_Jun_23_1223	59.791102691000006	LearningTask	1	56	
224																				1.0	0.0	1.0	0.0																																																																															9.0	368.25097298599997																															2015_Jun_23_1223	59.791102691000006	LearningTask	1	56	
225	-200.0	a	-200.0																	2.0	0.0	2.0	0.0	0.0	0.0	0.0	3.0																													a	1.0	None	0.0	0.31074118614199997	4.0	linegray.gif	stop								0.484023809433																								0.0	0.508549213409	0.00125908851624	[]	0.0	None	1272.90289712			3.97	0.5147318840030001	0.000962018966675	0.484023809433	1.0	a	1275.90566421																								2015_Jun_23_1223	59.791102691000006	LearningTask	1	56	
226	-200.0	q	200.0																	2.0	0.0	2.0	0.0	0.0	1.0	1.0	1.0																													q	1.0	None	0.0		2.0	diamondmagenta.gif	go								0.451131105423																								1.94	0.5141270160679999	0.0013480186462400002	0.451131105423	1.0	q	1278.90867901																																	2015_Jun_23_1223	59.791102691000006	LearningTask	1	56	
227	-200.0	a	-200.0																	2.0	0.0	2.0	0.0	0.0	2.0	2.0	3.0																													a	1.0	None	0.0		0.5	hexagonyellow.gif	stop								0.35085391998300003																								0.66	0.514243125916	0.0013599395752	0.350853919983	1.0	a	1281.91227722																																	2015_Jun_23_1223	59.791102691000006	LearningTask	1	56	
228	-200.0	a	-200.0																	2.0	0.0	2.0	0.0	0.0	3.0	3.0	3.0																													a	1.0	None	0.0		0.5	crosscyan.gif	go								0.35038590431199995																								0.0	0.514497995377	0.0012688636779800001	0.350385904312	1.0	a	1284.91606522																																	2015_Jun_23_1223	59.791102691000006	LearningTask	1	56	
229	200.0	w	200.0																	2.0	0.0	2.0	0.0	1.0	0.0	4.0	0.0																													w	1.0	None	0.0		0.5	crosscyan.gif	go								0.384481906891																								0.44	0.513363838196	0.00107097625732	0.384481906891	1.0	w	1287.91944718																																	2015_Jun_23_1223	59.791102691000006	LearningTask	1	56	
230	-200.0	q	200.0																	2.0	0.0	2.0	0.0	1.0	1.0	5.0	1.0																													q	1.0	None	0.0		2.0	circleorange.gif	stop								0.384840011597																								2.17	0.513500928879	0.00154185295105	0.384840011597	1.0	q	1290.92220616																																	2015_Jun_23_1223	59.791102691000006	LearningTask	1	56	
231	-200.0	a	-200.0																	2.0	0.0	2.0	0.0	1.0	2.0	6.0	3.0																													a	1.0	None	0.0		0.5	crosscyan.gif	go								0.38401889801																								0.69	0.51429605484	0.000877141952515	0.38401889801	1.0	a	1293.92565703																																	2015_Jun_23_1223	59.791102691000006	LearningTask	1	56	
232	-200.0	a	-200.0																	2.0	0.0	2.0	0.0	1.0	3.0	7.0	3.0																													a	1.0	None	0.0		0.5	crosscyan.gif	go								0.384732961655																								0.38	0.513911962509	0.00102996826172	0.384732961655	1.0	a	1296.92890406																																	2015_Jun_23_1223	59.791102691000006	LearningTask	1	56	
233	200.0	w	200.0																	2.0	0.0	2.0	0.0	2.0	0.0	8.0	0.0																													w	1.0	None	0.0		1.0	squareblue.gif	stop								0.36750793456999997																								0.86	0.514491081238	0.00126600265503	0.36750793457	1.0	w	1299.93235207																																	2015_Jun_23_1223	59.791102691000006	LearningTask	1	56	
234	-200.0	q	200.0																	2.0	0.0	2.0	0.0	2.0	1.0	9.0	1.0																													q	1.0	None	0.0		0.5	hexagonyellow.gif	stop								0.367522001266																								0.0	0.513760089874	0.00095796585083	0.367522001266	1.0	q	1302.93605304																																	2015_Jun_23_1223	59.791102691000006	LearningTask	1	56	
235	-200.0	a	-200.0																	2.0	0.0	2.0	0.0	2.0	2.0	10.0	3.0																													a	1.0	None	0.0		2.0	circleorange.gif	stop								0.468113899231																								1.9	0.513421058655	0.0009059906005860001	0.468113899231	1.0	a	1305.93931508																																	2015_Jun_23_1223	59.791102691000006	LearningTask	1	56	
236	-200.0	a	-200.0																	2.0	0.0	2.0	0.0	2.0	3.0	11.0	3.0																													a	1.0	None	0.0		2.0	diamondmagenta.gif	go								0.500972032547																								1.86	0.5141398906710001	0.00089693069458	0.500972032547	1.0	a	1308.94234514																																	2015_Jun_23_1223	59.791102691000006	LearningTask	1	56	
237	-200.0	q	200.0																	2.0	0.0	2.0	0.0	3.0	0.0	12.0	1.0																													q	1.0	None	0.0		4.0	trianglewhite.gif	go								0.33406496048																								4.07	0.514506101608	0.00183701515198	0.33406496048	1.0	q	1311.94594002																																	2015_Jun_23_1223	59.791102691000006	LearningTask	1	56	
238	200.0	w	200.0																	2.0	0.0	2.0	0.0	3.0	1.0	13.0	0.0																													w	1.0	None	0.0		1.0	squareblue.gif	stop								0.384151220322																								1.17	0.513803005219	0.000882863998413	0.384151220322	1.0	w	1314.9492681																																	2015_Jun_23_1223	59.791102691000006	LearningTask	1	56	
239	200.0	s	-200.0																	2.0	0.0	2.0	0.0	3.0	2.0	14.0	2.0																													s	1.0	None	0.0		0.5	crosscyan.gif	go								0.401068210602																								0.51	0.51394701004	0.0008761882781980001	0.401068210602	1.0	s	1317.95268607																																	2015_Jun_23_1223	59.791102691000006	LearningTask	1	56	
240	-200.0	a	-200.0																	2.0	0.0	2.0	0.0	3.0	3.0	15.0	3.0																													a	1.0	None	0.0		0.5	hexagonyellow.gif	stop								0.401076078415																								0.0	0.513935089111	0.00090503692627	0.401076078415	1.0	a	1320.956177																																	2015_Jun_23_1223	59.791102691000006	LearningTask	1	56	
241	200.0	s	-200.0																	2.0	0.0	2.0	0.0	4.0	0.0	16.0	2.0																													s	1.0	None	0.0		4.0	linegray.gif	stop								0.401020050049																								4.21	0.513705968857	0.0008728504180910001	0.401020050049	1.0	s	1323.95922422																																	2015_Jun_23_1223	59.791102691000006	LearningTask	1	56	
242	200.0	w	200.0																	2.0	0.0	2.0	0.0	4.0	1.0	17.0	0.0																													w	1.0	None	0.0		1.0	invertedtrianglegreen.gif	go								0.417742013931																								0.0	0.514227151871	0.0012609958648699998	0.417742013931	1.0	w	1326.96248007																																	2015_Jun_23_1223	59.791102691000006	LearningTask	1	56	
243	-200.0	a	-200.0																	2.0	0.0	2.0	0.0	4.0	2.0	18.0	3.0																													a	1.0	None	0.0		4.0	trianglewhite.gif	go								0.383740901947																								0.0	0.514410018921	0.0009150505065920001	0.383740901947	1.0	a	1329.96611214																																	2015_Jun_23_1223	59.791102691000006	LearningTask	1	56	
244	200.0	s	-200.0																	2.0	0.0	2.0	0.0	4.0	3.0	19.0	2.0																													s	1.0	None	0.0		0.5	hexagonyellow.gif	stop								0.401250839233																								0.75	0.513844966888	0.0008780956268310002	0.401250839233	1.0	s	1332.96911812																																	2015_Jun_23_1223	59.791102691000006	LearningTask	1	56	
245	200.0	s	-200.0																	2.0	0.0	2.0	0.0	5.0	0.0	20.0	2.0																													s	1.0	None	0.0		1.0	squareblue.gif	stop								0.384140014648																								1.04	0.514549970627	0.0009589195251460001	0.384140014648	1.0	s	1335.97303009																																	2015_Jun_23_1223	59.791102691000006	LearningTask	1	56	
246	200.0	s	-200.0																	2.0	0.0	2.0	0.0	5.0	1.0	21.0	2.0																													s	1.0	None	0.0		1.0	squareblue.gif	stop								0.384590148926																								1.14	0.5135350227359999	0.000869035720825	0.384590148926	1.0	s	1338.97607017																																	2015_Jun_23_1223	59.791102691000006	LearningTask	1	56	
247	-200.0	a	-200.0																	2.0	0.0	2.0	0.0	5.0	2.0	22.0	3.0																													a	1.0	None	0.0		0.5	crosscyan.gif	go								0.350803136826																								0.74	0.5142018795009999	0.000869989395142	0.350803136826	1.0	a	1341.9792552000001																																	2015_Jun_23_1223	59.791102691000006	LearningTask	1	56	
248	-200.0	a	-200.0																	2.0	0.0	2.0	0.0	5.0	3.0	23.0	3.0																													a	1.0	None	0.0		1.0	invertedtrianglegreen.gif	go								0.350869894028																								0.76	0.514192819595	0.0009379386901860002	0.350869894028	1.0	a	1344.98261118																																	2015_Jun_23_1223	59.791102691000006	LearningTask	1	56	
249	200.0	s	-200.0																	2.0	0.0	2.0	0.0	6.0	0.0	24.0	2.0																													s	1.0	None	0.0		4.0	linegray.gif	stop								0.384484052658																								3.79	0.514415025711	0.0008709430694580001	0.384484052658	1.0	s	1347.98601818																																	2015_Jun_23_1223	59.791102691000006	LearningTask	1	56	
250	-200.0	q	200.0																	2.0	0.0	2.0	0.0	6.0	1.0	25.0	1.0																													q	1.0	None	0.0		4.0	linegray.gif	stop								0.350522994995																								4.21	0.514544010162	0.0008728504180910001	0.350522994995	1.0	q	1350.98953819																																	2015_Jun_23_1223	59.791102691000006	LearningTask	1	56	
251	200.0	w	200.0																	2.0	0.0	2.0	0.0	6.0	2.0	26.0	0.0																													w	1.0	None	0.0		1.0	squareblue.gif	stop								0.36783504486100005																								0.0	0.513679027557	0.000880002975464	0.367835044861	1.0	w	1353.99283504																																	2015_Jun_23_1223	59.791102691000006	LearningTask	1	56	
252	200.0	w	200.0																	2.0	0.0	2.0	0.0	6.0	3.0	27.0	0.0																													w	1.0	None	0.0		1.0	invertedtrianglegreen.gif	go								0.351090192795																								1.07	0.514355897903	0.0008790493011469999	0.351090192795	1.0	w	1356.99607706																																	2015_Jun_23_1223	59.791102691000006	LearningTask	1	56	
253	200.0	s	-200.0																	2.0	0.0	2.0	0.0	7.0	0.0	28.0	2.0																													s	1.0	None	0.0		2.0	circleorange.gif	stop								0.36755108833300004																								0.0	0.514417886734	0.0008759498596189999	0.367551088333	1.0	s	1359.9994812																																	2015_Jun_23_1223	59.791102691000006	LearningTask	1	56	
254	200.0	w	200.0																	2.0	0.0	2.0	0.0	7.0	1.0	29.0	0.0																													w	1.0	None	0.0		2.0	diamondmagenta.gif	go								0.40070295333899997																								1.89	0.514018058777	0.0008749961853029999	0.400702953339	1.0	w	1363.00301504																																	2015_Jun_23_1223	59.791102691000006	LearningTask	1	56	
255	200.0	s	-200.0																	2.0	0.0	2.0	0.0	7.0	2.0	30.0	2.0																													s	1.0	None	0.0		2.0	diamondmagenta.gif	go								0.33379387855500003																								1.91	0.514136791229	0.0008709430694580001	0.333793878555	1.0	s	1366.00641608																																	2015_Jun_23_1223	59.791102691000006	LearningTask	1	56	
256	-200.0	q	200.0																	2.0	0.0	2.0	0.0	7.0	3.0	31.0	1.0																													q	1.0	None	0.0		0.5	crosscyan.gif	go								0.38476395607																								0.0	0.5140068531040001	0.0008978843688960001	0.317496061325	0.0	a	1369.00991201			0.72	0.514559030533	0.0009570121765139998	0.38476395607	1.0	q	1372.01310921																								2015_Jun_23_1223	59.791102691000006	LearningTask	1	56	
257	200.0	s	-200.0																	2.0	0.0	2.0	0.0	8.0	0.0	32.0	2.0																													s	1.0	None	0.0		0.5	hexagonyellow.gif	stop								0.43438696861299997																								0.33	0.514102935791	0.000892877578735	0.434386968613	1.0	s	1375.01639414																																	2015_Jun_23_1223	59.791102691000006	LearningTask	1	56	
258	200.0	s	-200.0																	2.0	0.0	2.0	0.0	8.0	1.0	33.0	2.0																													s	1.0	None	0.0		4.0	linegray.gif	stop								0.367415904999																								3.94	0.514070034027	0.000943899154663	0.367415904999	1.0	s	1378.01973414																																	2015_Jun_23_1223	59.791102691000006	LearningTask	1	56	
259	200.0	w	200.0																	2.0	0.0	2.0	0.0	8.0	2.0	34.0	0.0																													w	1.0	None	0.0		4.0	linegray.gif	stop								0.417457103729																								4.08	0.51441693306	0.0008718967437739999	0.417457103729	1.0	w	1381.02313805																																	2015_Jun_23_1223	59.791102691000006	LearningTask	1	56	
260	200.0	w	200.0																	2.0	0.0	2.0	0.0	8.0	3.0	35.0	0.0																													w	1.0	None	0.0		4.0	trianglewhite.gif	go								0.38446688651999994																								4.16	0.5139710903170001	0.000995874404907	0.38446688652	1.0	w	1384.02604508																																	2015_Jun_23_1223	59.791102691000006	LearningTask	1	56	
261	200.0	w	200.0																	2.0	0.0	2.0	0.0	9.0	0.0	36.0	0.0																													w	1.0	None	0.0		0.5	hexagonyellow.gif	stop								0.401048898697																								0.64	0.514415979385	0.0009298324584960001	0.401048898697	1.0	w	1387.02966905																																	2015_Jun_23_1223	59.791102691000006	LearningTask	1	56	
262	200.0	s	-200.0																	2.0	0.0	2.0	0.0	9.0	1.0	37.0	2.0																													s	1.0	None	0.0		1.0	invertedtrianglegreen.gif	go								0.484390974045																								0.81	0.514312982559	0.0008740425109860002	0.484390974045	1.0	s	1390.03295517																																	2015_Jun_23_1223	59.791102691000006	LearningTask	1	56	
263	-200.0	a	-200.0																	2.0	0.0	2.0	0.0	9.0	2.0	38.0	3.0																													a	1.0	None	0.0		1.0	invertedtrianglegreen.gif	go								0.31734681129500003																								0.94	0.514187097549	0.00101804733276	0.317346811295	1.0	a	1393.03644419																																	2015_Jun_23_1223	59.791102691000006	LearningTask	1	56	
264	200.0	w	200.0																	2.0	0.0	2.0	0.0	9.0	3.0	39.0	0.0																													w	1.0	None	0.0		4.0	trianglewhite.gif	go								0.300850868225																								0.0	0.5142819881440001	0.00086498260498	0.300850868225	1.0	w	1396.03956318																																	2015_Jun_23_1223	59.791102691000006	LearningTask	1	56	
265	200.0	s	-200.0																	2.0	0.0	2.0	0.0	10.0	0.0	40.0	2.0																													s	1.0	None	0.0		0.5	hexagonyellow.gif	stop								0.384550094604																								0.6	0.51447892189	0.00089693069458	0.384550094604	1.0	s	1399.04321218																																	2015_Jun_23_1223	59.791102691000006	LearningTask	1	56	
266	-200.0	a	-200.0																	2.0	0.0	2.0	0.0	10.0	1.0	41.0	3.0																													a	1.0	None	0.0		4.0	trianglewhite.gif	go								0.367717981339																								0.0	0.513396024704	0.0009062290191649999	0.367717981339	1.0	a	1402.0466342																																	2015_Jun_23_1223	59.791102691000006	LearningTask	1	56	
267	-200.0	q	200.0																	2.0	0.0	2.0	0.0	10.0	2.0	42.0	1.0																													q	1.0	None	0.0		1.0	squareblue.gif	stop								0.317327976227																								0.75	0.514137029648	0.000881195068359	0.317327976227	1.0	q	1405.04976702																																	2015_Jun_23_1223	59.791102691000006	LearningTask	1	56	
268	200.0	s	-200.0																	2.0	0.0	2.0	0.0	10.0	3.0	43.0	2.0																													s	1.0	None	0.0		2.0	diamondmagenta.gif	go								0.38445401191699996																								2.07	0.514191150665	0.00087308883667	0.384454011917	1.0	s	1408.05322719																																	2015_Jun_23_1223	59.791102691000006	LearningTask	1	56	
269	-200.0	q	200.0																	2.0	0.0	2.0	0.0	11.0	0.0	44.0	1.0																													q	1.0	None	0.0		2.0	diamondmagenta.gif	go								0.484488964081																								1.82	0.5141050815579999	0.0009319782257080001	0.484488964081	1.0	q	1411.05663419																																	2015_Jun_23_1223	59.791102691000006	LearningTask	1	56	
270	200.0	w	200.0																	2.0	0.0	2.0	0.0	11.0	1.0	45.0	0.0																													w	1.0	None	0.0		1.0	invertedtrianglegreen.gif	go								0.384307861328																								0.86	0.514132976532	0.0008740425109860002	0.384307861328	1.0	w	1414.05977106																																	2015_Jun_23_1223	59.791102691000006	LearningTask	1	56	
271	-200.0	a	-200.0																	2.0	0.0	2.0	0.0	11.0	2.0	46.0	3.0																													a	1.0	None	0.0		0.5	hexagonyellow.gif	stop								0.33433294296300003																								0.59	0.514352083206	0.000877141952515	0.334332942963	1.0	a	1417.06349206																																	2015_Jun_23_1223	59.791102691000006	LearningTask	1	56	
272	200.0	s	-200.0																	2.0	0.0	2.0	0.0	11.0	3.0	47.0	2.0																													s	1.0	None	0.0		2.0	circleorange.gif	stop								0.433730125427																								1.77	0.513821840286	0.0009489059448239998	0.433730125427	1.0	s	1420.06655121																																	2015_Jun_23_1223	59.791102691000006	LearningTask	1	56	
273	-200.0	q	200.0																	2.0	0.0	2.0	0.0	12.0	0.0	48.0	1.0																													q	1.0	None	0.0		4.0	linegray.gif	stop								0.350703954697																								0.0	0.51438498497	0.0008740425109860002	0.350703954697	1.0	q	1423.06988907																																	2015_Jun_23_1223	59.791102691000006	LearningTask	1	56	
274	200.0	w	200.0																	2.0	0.0	2.0	0.0	12.0	1.0	49.0	0.0																													w	1.0	None	0.0		4.0	linegray.gif	stop								0.41784405708300004																								3.86	0.514413118362	0.0009169578552250001	0.417844057083	1.0	w	1426.07362413																																	2015_Jun_23_1223	59.791102691000006	LearningTask	1	56	
275	-200.0	q	200.0																	2.0	0.0	2.0	0.0	12.0	2.0	50.0	1.0																													q	1.0	None	0.0		1.0	invertedtrianglegreen.gif	go								0.38414120674099994																								0.79	0.514091968536	0.0008709430694580001	0.384141206741	1.0	q	1429.07654214																																	2015_Jun_23_1223	59.791102691000006	LearningTask	1	56	
276	-200.0	a	-200.0																	2.0	0.0	2.0	0.0	12.0	3.0	51.0	3.0																													a	1.0	None	0.0		4.0	trianglewhite.gif	go								0.367912769318																								0.0	0.514415979385	0.000968933105469	0.367912769318	1.0	a	1432.08040905																																	2015_Jun_23_1223	59.791102691000006	LearningTask	1	56	
277	-200.0	a	-200.0																	2.0	0.0	2.0	0.0	13.0	0.0	52.0	3.0																													a	1.0	s	0.0	0.675127029419	0.5	crosscyan.gif	go								0.36779499054																								0.41	0.513659954071	0.0008749961853029999	0.36779499054	1.0	a	1435.08367014																																	2015_Jun_23_1223	59.791102691000006	LearningTask	1	56	
278	200.0	w	200.0																	2.0	0.0	2.0	0.0	13.0	1.0	53.0	0.0																													w	1.0	None	0.0		2.0	circleorange.gif	stop								0.41772198677100003																								0.0	0.514156103134	0.0009019374847410001	0.417721986771	1.0	w	1438.08675003																																	2015_Jun_23_1223	59.791102691000006	LearningTask	1	56	
279	-200.0	q	200.0																	2.0	0.0	2.0	0.0	13.0	2.0	54.0	1.0																													q	1.0	None	0.0		2.0	diamondmagenta.gif	go								0.401041030884																								2.15	0.513998985291	0.000922918319702	0.401041030884	1.0	q	1441.09005499																																	2015_Jun_23_1223	59.791102691000006	LearningTask	1	56	
280	200.0	w	200.0																	2.0	0.0	2.0	0.0	13.0	3.0	55.0	0.0																													w	1.0	None	0.0		4.0	linegray.gif	stop								0.36722302436800003																								4.17	0.514311075211	0.00087308883667	0.367223024368	1.0	w	1444.0934750999998																																	2015_Jun_23_1223	59.791102691000006	LearningTask	1	56	
281	200.0	s	-200.0																	2.0	0.0	2.0	0.0	14.0	0.0	56.0	2.0																													s	1.0	None	0.0		2.0	diamondmagenta.gif	go								0.41716408729599996																								0.0	0.514366149902	0.00092601776123	0.417164087296	1.0	s	1447.09713006																																	2015_Jun_23_1223	59.791102691000006	LearningTask	1	56	
282	-200.0	a	-200.0																	2.0	0.0	2.0	0.0	14.0	1.0	57.0	3.0																													a	1.0	None	0.0		0.5	crosscyan.gif	go								0.367501020432																								0.29	0.514006137848	0.000900030136108	0.367501020432	1.0	a	1450.10024405																																	2015_Jun_23_1223	59.791102691000006	LearningTask	1	56	
