	xPos	corrAns	yPos	corrGoResp	yPosGoStim	xPosGoStim	pracTrials.thisRepN	pracTrials.thisTrialN	pracTrials.thisN	pracTrials.thisIndex	ReDoLoopPrac.thisRepN	ReDoLoopPrac.thisTrialN	ReDoLoopPrac.thisN	ReDoLoopPrac.thisIndex	ReDoLoopPrac.thisTrial	pracStopTrials.thisRepN	pracStopTrials.thisTrialN	pracStopTrials.thisN	pracStopTrials.thisIndex	Blocks.thisRepN	Blocks.thisTrialN	Blocks.thisN	Blocks.thisIndex	trials.thisRepN	trials.thisTrialN	trials.thisN	trials.thisIndex	ReDoLoopMain.thisRepN	ReDoLoopMain.thisTrialN	ReDoLoopMain.thisN	ReDoLoopMain.thisIndex	ReDoLoopMain.thisTrial	StopBlocks.thisRepN	StopBlocks.thisTrialN	StopBlocks.thisN	StopBlocks.thisIndex	StopTrials.thisRepN	StopTrials.thisTrialN	StopTrials.thisN	StopTrials.thisIndex	auctionBlocks.thisRepN	auctionBlocks.thisTrialN	auctionBlocks.thisN	auctionBlocks.thisIndex	auctionTrials.thisRepN	auctionTrials.thisTrialN	auctionTrials.thisN	auctionTrials.thisIndex	learningTrialList	learningPracTrialList	stopTrialList	stopPracTrialList	auctionTrialList	ok1.keys	ok1.rt	resp.keys	resp.corr	resp.rt	feedbackResp.keys	feedbackResp.corr	currentReward	currentStimulus	currentStimType	firstPracComputedRewardOutput	firstPracLearningStimOnset	firstPracLearningFixOnset	firstPracPresentationRT	firstPracPresentationAcc	firstPracPresentationResp	firstPracEndTrialTimeStamp	StartTrialTimeStamp	trialType	goStim	stimType	stopStimValue	goResp.keys	goResp.corr	goResp.rt	key_resp_9.keys	key_resp_9.corr	fixStopOnset	goStimOnset	EndTrialTimeStamp	stopSignalOnset	key_resp_3.keys	key_resp_3.rt	firstComputedRewardOutput	firstLearningStimOnset	firstLearningFixOnset	firstPresentationRT	firstPresentationAcc	firstPresentationResp	firstEndTrialTimeStamp	secondComputedRewardOutput	secondLearningStimOnset	secondLearningFixOnset	secondPresentationRT	secondPresentationAcc	secondPresentationResp	secondEndTrialTimeStamp	key_resp_7.keys	key_resp_7.rt	feedbackResp.rt	beginningSSD	EndingSSD	key_resp_4.keys	key_resp_4.rt	auctionResponse.keys	auctionStimDuration	auctionStim	auctionAmounts	auctionStimValue	auctionCondition	chosenAuctionAmount	auctionResponse.rt	key_resp_5.keys	key_resp_5.rt	shuffledRewardList	chosenReward1	chosenReward2	chosenReward3	chosenReward4	chosenReward5	key_resp_6.keys	key_resp_6.rt	date	frameRate	expName	session	participant	Unnamed: 130
0																																																	[]	[]	[]	[]	[]	9.0	58.8759160042																																																																							2015_Jul_07_1259	59.966430383100004	LearningTask	1	11	
1	200.0	w	200.0				0.0	0.0	0.0	0.0																																														w	1.0	0.917794942856	None	0.0	1.0	hexagonwhite.gif	go	0.78	0.5066099166870001	0.0435469150543	0.917794942856	1.0	w	119.501327038																																																								2015_Jul_07_1259	59.966430383100004	LearningTask	1	11	
2	-200.0	q	200.0				0.0	1.0	1.0	1.0																																														q	1.0	0.484366893768	None	0.0	0.5	linecyan.gif	stop	0.54	0.515120029449	0.0183072090149	0.484366893768	1.0	q	122.50445509																																																								2015_Jul_07_1259	59.966430383100004	LearningTask	1	11	
3	-200.0	a	-200.0				0.0	2.0	2.0	7.0																																														a	1.0	0.400581121445	None	0.0	4.0	trianglemagenta.gif	stop	4.02	0.515219926834	0.0068359375	0.400581121445	1.0	a	125.50792408																																																								2015_Jul_07_1259	59.966430383100004	LearningTask	1	11	
4	200.0	w	200.0				0.0	3.0	3.0	8.0																																														w	1.0	0.60169506073	None	0.0	2.0	crossgray.gif	stop	2.17	0.515012979507	0.00568985939026	0.60169506073	1.0	w	128.51121997799999																																																								2015_Jul_07_1259	59.966430383100004	LearningTask	1	11	
5	200.0	w	200.0				0.0	4.0	4.0	4.0																																														w	1.0	0.43459415435800003	None	0.0	4.0	diamondorange.gif	go	3.96	0.5150668621060001	0.0143799781799	0.43459415435800003	1.0	w	131.514656067																																																								2015_Jul_07_1259	59.966430383100004	LearningTask	1	11	
6	200.0	s	-200.0				0.0	5.0	5.0	6.0																																														s	1.0	0.5182311534880001	None	0.0	1.0	squaregreen.gif	stop	1.05	0.514977931976	0.0309238433838	0.5182311534880001	1.0	s	134.518018961																																																								2015_Jul_07_1259	59.966430383100004	LearningTask	1	11	
7	-200.0	q	200.0				0.0	6.0	6.0	9.0																																														q	1.0	0.551018953323	None	0.0	4.0	diamondorange.gif	go	4.13	0.515403985977	0.000900030136108	0.551018953323	1.0	q	137.521652937																																																								2015_Jul_07_1259	59.966430383100004	LearningTask	1	11	
8	-200.0	a	-200.0				0.0	7.0	7.0	3.0																																														a	1.0	0.36741900444	None	0.0	2.0	invertedtriangleblue.gif	go	2.24	0.514989852905	0.010890960693399999	0.36741900444	1.0	a	140.524599075																																																								2015_Jul_07_1259	59.966430383100004	LearningTask	1	11	
9	200.0	s	-200.0				0.0	8.0	8.0	2.0																																														s	1.0	0.334054946899	None	0.0	2.0	invertedtriangleblue.gif	go	2.19	0.515276908875	0.000918865203857	0.334054946899	1.0	s	143.527842045																																																								2015_Jul_07_1259	59.966430383100004	LearningTask	1	11	
10	-200.0	q	200.0				0.0	9.0	9.0	5.0																																														q	1.0	0.417989015579	None	0.0	2.0	crossgray.gif	stop	1.98	0.515032052994	0.00106692314148	0.417989015579	1.0	q	146.531443119																																																								2015_Jul_07_1259	59.966430383100004	LearningTask	1	11	
11				m	0.0	200.0										0.0	0.0	0.0	1.0																																																				197.52619910200002	go	invertedtriangleblue.gif	go	2.0	m	1.0	0.36746692657499996	None	0.0	0.0013179779052700001	0.511171102524	200.52522802400003																																											2015_Jul_07_1259	59.966430383100004	LearningTask	1	11	
12				z	0.0	-200.0										0.0	1.0	1.0	0.0																																																				200.52561593099998	go	hexagonwhite.gif	go	1.0	z	1.0	0.300769090652	None	0.0	0.0009560585021970001	0.5156660079959999	203.528259039																																											2015_Jul_07_1259	59.966430383100004	LearningTask	1	11	
13				z	0.0	-200.0										1.0	0.0	2.0	0.0																																																				203.52874302900003	go	invertedtriangleblue.gif	go	2.0	z	1.0	0.301311016083	None	0.0	0.0010449886322	0.515512943268	206.531847																																											2015_Jul_07_1259	59.966430383100004	LearningTask	1	11	
14				z	0.0	-200.0										1.0	1.0	3.0	0.0																																																				206.53221797900002	go	circleyellow.gif	go	0.5	z	1.0	0.300888061523	None	0.0	0.023401021957400004	0.515575885773	209.534922123																																											2015_Jul_07_1259	59.966430383100004	LearningTask	1	11	
15				m	0.0	200.0										2.0	0.0	4.0	1.0																																																				209.53528714200002	go	circleyellow.gif	go	0.5	m	1.0	0.300420999527	None	0.0	0.00105786323547	0.516192913055	212.53838515299998																																											2015_Jul_07_1259	59.966430383100004	LearningTask	1	11	
16				m	0.0	200.0										2.0	1.0	5.0	1.0																																																				212.53874611900002	stop	squaregreen.gif	stop	1.0	m	1.0	0.334688901901	None	0.0	0.0009191036224369998	0.515903949738	215.542050123	0.766498088837																																										2015_Jul_07_1259	59.966430383100004	LearningTask	1	11	
17				z	0.0	-200.0										3.0	0.0	6.0	0.0																																																				215.54242110299998	go	invertedtriangleblue.gif	go	2.0	z	1.0	0.36687207221999996	None	0.0	0.000953912734985	0.516350984573	218.54559707599998																																											2015_Jul_07_1259	59.966430383100004	LearningTask	1	11	
18				z	0.0	-200.0										3.0	1.0	7.0	0.0																																																				218.54599595099998	go	invertedtriangleblue.gif	go	2.0	z	1.0	0.350649118423	None	0.0	0.0011689662933299998	0.515629053116	221.548841																																											2015_Jul_07_1259	59.966430383100004	LearningTask	1	11	
19				m	0.0	200.0										4.0	0.0	8.0	1.0																																																				221.549205065	go	circleyellow.gif	go	0.5	m	1.0	0.501164913177	None	0.0	0.0009820461273189998	0.515734195709	224.551821947																																											2015_Jul_07_1259	59.966430383100004	LearningTask	1	11	
20				m	0.0	200.0										4.0	1.0	9.0	1.0																																																				224.55219698	go	hexagonwhite.gif	go	1.0	m	1.0	0.384083032608	None	0.0	0.00094199180603	0.516242027283	227.555881977																																											2015_Jul_07_1259	59.966430383100004	LearningTask	1	11	
21																																																																																					9.0	82.9522800446																																								2015_Jul_07_1259	59.966430383100004	LearningTask	1	11	
22																																																						9.0	5.42356991768																																																																							2015_Jul_07_1259	59.966430383100004	LearningTask	1	11	
23	-200.0	a	-200.0																	0.0	0.0	0.0	0.0	0.0	0.0	0.0	3.0																													a	1.0	0.9346630573270001	None	0.0	0.5	linecyan.gif	stop																								0.0	0.507523059845	0.0009069442749019998	0.934663057327	1.0	a	319.126573086																																	2015_Jul_07_1259	59.966430383100004	LearningTask	1	11	
24	-200.0	q	200.0																	0.0	0.0	0.0	0.0	0.0	1.0	1.0	1.0																													q	1.0	0.40087890625	None	0.0	0.5	linecyan.gif	stop																								0.41	0.513481140137	0.000887155532837	0.40087890625	1.0	q	322.129269123																																	2015_Jul_07_1259	59.966430383100004	LearningTask	1	11	
25	-200.0	q	200.0																	0.0	0.0	0.0	0.0	0.0	2.0	2.0	1.0																													q	1.0	0.451409101486	None	0.0	2.0	crossgray.gif	stop																								2.12	0.514497995377	0.000977039337158	0.451409101486	1.0	q	325.132846117																																	2015_Jul_07_1259	59.966430383100004	LearningTask	1	11	
26	-200.0	q	200.0																	0.0	0.0	0.0	0.0	0.0	3.0	3.0	1.0																													q	1.0	0.384368896484	None	0.0	0.5	circleyellow.gif	go																								0.0	0.51398897171	0.0008981227874760001	0.384368896484	1.0	q	328.13619208299997																																	2015_Jul_07_1259	59.966430383100004	LearningTask	1	11	
27	-200.0	a	-200.0																	0.0	0.0	0.0	0.0	1.0	0.0	4.0	3.0																													a	1.0	0.38409614563	None	0.0	1.0	squaregreen.gif	stop																								0.0	0.514164924622	0.000888824462891	0.38409614563	1.0	a	331.13922405200003																																	2015_Jul_07_1259	59.966430383100004	LearningTask	1	11	
28	-200.0	a	-200.0																	0.0	0.0	0.0	0.0	1.0	1.0	5.0	3.0																													a	1.0	0.4344880580899999	None	0.0	1.0	hexagonwhite.gif	go																								0.92	0.514034032822	0.000949144363403	0.43448805809	1.0	a	334.142519951																																	2015_Jul_07_1259	59.966430383100004	LearningTask	1	11	
29	-200.0	q	200.0																	0.0	0.0	0.0	0.0	1.0	2.0	6.0	1.0																													q	1.0	0.317317008972	None	0.0	1.0	squaregreen.gif	stop																								0.97	0.514710903168	0.000892877578735	0.317317008972	1.0	q	337.146085978																																	2015_Jul_07_1259	59.966430383100004	LearningTask	1	11	
30	200.0	s	-200.0																	0.0	0.0	0.0	0.0	1.0	3.0	7.0	2.0																													s	1.0	0.383959054947	None	0.0	1.0	squaregreen.gif	stop																								1.18	0.514299869537	0.000884771347046	0.383959054947	1.0	s	340.149692059																																	2015_Jul_07_1259	59.966430383100004	LearningTask	1	11	
31	200.0	w	200.0																	0.0	0.0	0.0	0.0	2.0	0.0	8.0	0.0																													w	1.0	0.400640964508	None	0.0	0.5	linecyan.gif	stop																								0.3	0.513944149017	0.0009140968322749999	0.400640964508	1.0	w	343.152437925																																	2015_Jul_07_1259	59.966430383100004	LearningTask	1	11	
32	-200.0	q	200.0																	0.0	0.0	0.0	0.0	2.0	1.0	9.0	1.0																													q	1.0	0.367387056351	None	0.0	0.5	circleyellow.gif	go																								0.56	0.514761924744	0.000900983810425	0.367387056351	1.0	q	346.156316996																																	2015_Jul_07_1259	59.966430383100004	LearningTask	1	11	
33	200.0	w	200.0																	0.0	0.0	0.0	0.0	2.0	2.0	10.0	0.0																													w	1.0	0.384200811386	None	0.0	0.5	circleyellow.gif	go																								0.0	0.5142138004300001	0.000892877578735	0.384200811386	1.0	w	349.15975093800006																																	2015_Jul_07_1259	59.966430383100004	LearningTask	1	11	
34	200.0	s	-200.0																	0.0	0.0	0.0	0.0	2.0	3.0	11.0	2.0																													s	1.0	0.367750167847	None	0.0	4.0	trianglemagenta.gif	stop																								4.16	0.513782978058	0.000951051712036	0.367750167847	1.0	s	352.162881136																																	2015_Jul_07_1259	59.966430383100004	LearningTask	1	11	
35	200.0	s	-200.0																	0.0	0.0	0.0	0.0	3.0	0.0	12.0	2.0																													s	1.0	0.401001930237	None	0.0	2.0	crossgray.gif	stop																								1.78	0.51412820816	0.0009200572967529999	0.401001930237	1.0	s	355.166350126																																	2015_Jul_07_1259	59.966430383100004	LearningTask	1	11	
36	-200.0	a	-200.0																	0.0	0.0	0.0	0.0	3.0	1.0	13.0	3.0																													a	1.0	0.450523138046	None	0.0	0.5	linecyan.gif	stop																								0.63	0.514559030533	0.000900983810425	0.450523138046	1.0	a	358.16976714099997																																	2015_Jul_07_1259	59.966430383100004	LearningTask	1	11	
37	200.0	s	-200.0																	0.0	0.0	0.0	0.0	3.0	2.0	14.0	2.0																													s	1.0	0.40070700645400004	None	0.0	0.5	linecyan.gif	stop																								0.44	0.514375925064	0.000890016555786	0.400707006454	1.0	s	361.173057079																																	2015_Jul_07_1259	59.966430383100004	LearningTask	1	11	
38	-200.0	a	-200.0																	0.0	0.0	0.0	0.0	3.0	3.0	15.0	3.0																													a	1.0	0.35044002533	None	0.0	0.5	circleyellow.gif	go																								0.67	0.514678955078	0.000984907150269	0.35044002533	1.0	a	364.176162958																																	2015_Jul_07_1259	59.966430383100004	LearningTask	1	11	
39	200.0	w	200.0																	0.0	0.0	0.0	0.0	4.0	0.0	16.0	0.0																													w	1.0	0.434504032135	None	0.0	0.5	linecyan.gif	stop																								0.39	0.514675855637	0.000892877578735	0.434504032135	1.0	w	367.179809093																																	2015_Jul_07_1259	59.966430383100004	LearningTask	1	11	
40	200.0	w	200.0																	0.0	0.0	0.0	0.0	4.0	1.0	17.0	0.0																													w	1.0	0.35045003891000004	None	0.0	1.0	squaregreen.gif	stop																								0.79	0.5145490169529999	0.000907897949219	0.35045003891	1.0	w	370.183035135																																	2015_Jul_07_1259	59.966430383100004	LearningTask	1	11	
41	-200.0	q	200.0																	0.0	0.0	0.0	0.0	4.0	2.0	18.0	1.0																													q	1.0	0.317301988602	None	0.0	1.0	hexagonwhite.gif	go																								0.0	0.514591932297	0.0010678768158	0.317301988602	1.0	q	373.186588049																																	2015_Jul_07_1259	59.966430383100004	LearningTask	1	11	
42	200.0	s	-200.0																	0.0	0.0	0.0	0.0	4.0	3.0	19.0	2.0																													s	1.0	0.384308099747	None	0.0	0.5	linecyan.gif	stop																								0.66	0.5141248703	0.000913858413696	0.384308099747	1.0	s	376.190276146																																	2015_Jul_07_1259	59.966430383100004	LearningTask	1	11	
43	-200.0	a	-200.0																	0.0	0.0	0.0	0.0	5.0	0.0	20.0	3.0																													a	1.0	0.33435297012299997	None	0.0	2.0	invertedtriangleblue.gif	go																								2.21	0.5139570236209999	0.0009012222290039999	0.334352970123	1.0	a	379.19317102400004																																	2015_Jul_07_1259	59.966430383100004	LearningTask	1	11	
44	-200.0	a	-200.0																	0.0	0.0	0.0	0.0	5.0	1.0	21.0	3.0																													a	1.0	0.35099411010700005	None	0.0	1.0	squaregreen.gif	stop																								1.22	0.514100074768	0.00092601776123	0.350994110107	1.0	a	382.196426153																																	2015_Jul_07_1259	59.966430383100004	LearningTask	1	11	
45	-200.0	q	200.0																	0.0	0.0	0.0	0.0	5.0	2.0	22.0	1.0																													q	1.0	0.351163864136	None	0.0	2.0	invertedtriangleblue.gif	go																								0.0	0.514679908752	0.0008869171142580001	0.351163864136	1.0	q	385.19994092																																	2015_Jul_07_1259	59.966430383100004	LearningTask	1	11	
46	-200.0	q	200.0																	0.0	0.0	0.0	0.0	5.0	3.0	23.0	1.0																													q	1.0	0.36753988266000004	None	0.0	0.5	circleyellow.gif	go																								0.55	0.514542818069	0.0011739730835000001	0.36753988266	1.0	q	388.20312905300005																																	2015_Jul_07_1259	59.966430383100004	LearningTask	1	11	
47	-200.0	a	-200.0																	0.0	0.0	0.0	0.0	6.0	0.0	24.0	3.0																													a	1.0	0.334147930145	None	0.0	0.5	circleyellow.gif	go																								0.64	0.514427185059	0.0009901523590089998	0.334147930145	1.0	a	391.20678401																																	2015_Jul_07_1259	59.966430383100004	LearningTask	1	11	
48	-200.0	a	-200.0																	0.0	0.0	0.0	0.0	6.0	1.0	25.0	3.0																													a	1.0	0.367296934128	None	0.0	1.0	squaregreen.gif	stop																								0.86	0.514366149902	0.0009181499481200001	0.367296934128	1.0	a	394.20988011400004																																	2015_Jul_07_1259	59.966430383100004	LearningTask	1	11	
49	-200.0	q	200.0																	0.0	0.0	0.0	0.0	6.0	2.0	26.0	1.0																													q	1.0	0.334290027618	None	0.0	0.5	linecyan.gif	stop																								0.46	0.5144581794740001	0.0009150505065920001	0.334290027618	1.0	q	397.21397709800004																																	2015_Jul_07_1259	59.966430383100004	LearningTask	1	11	
50	-200.0	a	-200.0																	0.0	0.0	0.0	0.0	6.0	3.0	27.0	3.0																													a	1.0	0.351293087006	None	0.0	2.0	crossgray.gif	stop																								0.0	0.51370215416	0.0009369850158689999	0.351293087006	1.0	a	400.216979027																																	2015_Jul_07_1259	59.966430383100004	LearningTask	1	11	
51	-200.0	a	-200.0																	0.0	0.0	0.0	0.0	7.0	0.0	28.0	3.0																													a	1.0	0.367671966553	None	0.0	4.0	diamondorange.gif	go																								4.01	0.514435052872	0.0008990764617919999	0.367671966553	1.0	a	403.22012209900004																																	2015_Jul_07_1259	59.966430383100004	LearningTask	1	11	
52	-200.0	a	-200.0																	0.0	0.0	0.0	0.0	7.0	1.0	29.0	3.0																													a	1.0	0.333853960037	None	0.0	4.0	trianglemagenta.gif	stop																								3.78	0.514374017715	0.0008919239044189998	0.333853960037	1.0	a	406.223674059																																	2015_Jul_07_1259	59.966430383100004	LearningTask	1	11	
53	-200.0	q	200.0																	0.0	0.0	0.0	0.0	7.0	2.0	30.0	1.0																													q	1.0	0.300326108932	None	0.0	2.0	crossgray.gif	stop																								1.79	0.514544963837	0.0008919239044189998	0.300326108932	1.0	q	409.22724914599996																																	2015_Jul_07_1259	59.966430383100004	LearningTask	1	11	
54	200.0	w	200.0																	0.0	0.0	0.0	0.0	7.0	3.0	31.0	0.0																													w	1.0	0.367717027664	None	0.0	2.0	crossgray.gif	stop																								2.25	0.513705968857	0.00113606452942	0.367717027664	1.0	w	412.230914116																																	2015_Jul_07_1259	59.966430383100004	LearningTask	1	11	
55	-200.0	a	-200.0																	0.0	0.0	0.0	0.0	8.0	0.0	32.0	3.0																													a	1.0	0.301201820374	None	0.0	4.0	trianglemagenta.gif	stop																								4.21	0.513655900955	0.0009119510650630002	0.301201820374	1.0	a	415.233797073																																	2015_Jul_07_1259	59.966430383100004	LearningTask	1	11	
56	-200.0	a	-200.0																	0.0	0.0	0.0	0.0	8.0	1.0	33.0	3.0																													a	1.0	0.334015130997	None	0.0	0.5	linecyan.gif	stop																								0.0	0.514261960983	0.000900030136108	0.334015130997	1.0	a	418.236995935																																	2015_Jul_07_1259	59.966430383100004	LearningTask	1	11	
57	200.0	s	-200.0																	0.0	0.0	0.0	0.0	8.0	2.0	34.0	2.0																													s	1.0	0.43434906005900004	None	0.0	0.5	linecyan.gif	stop																								0.42	0.51433801651	0.000994920730591	0.434349060059	1.0	s	421.240438938																																	2015_Jul_07_1259	59.966430383100004	LearningTask	1	11	
58	-200.0	q	200.0																	0.0	0.0	0.0	0.0	8.0	3.0	35.0	1.0																													q	1.0	0.36712002754199996	None	0.0	2.0	invertedtriangleblue.gif	go																								2.05	0.514743089676	0.000900983810425	0.367120027542	1.0	q	424.244142056																																	2015_Jul_07_1259	59.966430383100004	LearningTask	1	11	
59	-200.0	a	-200.0																	0.0	0.0	0.0	0.0	9.0	0.0	36.0	3.0																													a	1.0	0.317355871201	None	0.0	4.0	diamondorange.gif	go																								3.75	0.514158010483	0.0009369850158689999	0.317355871201	1.0	a	427.24733305																																	2015_Jul_07_1259	59.966430383100004	LearningTask	1	11	
60	200.0	s	-200.0																	0.0	0.0	0.0	0.0	9.0	1.0	37.0	2.0																													s	1.0	0.38394188880900004	None	0.0	1.0	hexagonwhite.gif	go																								0.0	0.514326810837	0.0009529590606689998	0.383941888809	1.0	s	430.25063705400004																																	2015_Jul_07_1259	59.966430383100004	LearningTask	1	11	
61	200.0	w	200.0																	0.0	0.0	0.0	0.0	9.0	2.0	38.0	0.0																													w	1.0	0.317487955093	None	0.0	0.5	circleyellow.gif	go																								0.41	0.513999938965	0.0009119510650630002	0.317487955093	1.0	w	433.254504919																																	2015_Jul_07_1259	59.966430383100004	LearningTask	1	11	
62	200.0	s	-200.0																	0.0	0.0	0.0	0.0	9.0	3.0	39.0	2.0																													s	1.0	0.350265979767	None	0.0	2.0	crossgray.gif	stop																								0.0	0.513850212097	0.00102806091309	0.350265979767	1.0	s	436.257671118																																	2015_Jul_07_1259	59.966430383100004	LearningTask	1	11	
63	200.0	s	-200.0																	0.0	0.0	0.0	0.0	10.0	0.0	40.0	2.0																													s	1.0	0.417662143707	None	0.0	4.0	diamondorange.gif	go																								0.0	0.513586044312	0.0009369850158689999	0.417662143707	1.0	s	439.260743141																																	2015_Jul_07_1259	59.966430383100004	LearningTask	1	11	
64	200.0	s	-200.0																	0.0	0.0	0.0	0.0	10.0	1.0	41.0	2.0																													s	1.0	0.350807905197	None	0.0	4.0	trianglemagenta.gif	stop																								4.25	0.514392137527	0.000908136367798	0.350807905197	1.0	s	442.26423096699995																																	2015_Jul_07_1259	59.966430383100004	LearningTask	1	11	
65	200.0	w	200.0																	0.0	0.0	0.0	0.0	10.0	2.0	42.0	0.0																													w	1.0	0.35075378418000003	None	0.0	4.0	trianglemagenta.gif	stop																								3.8	0.514435052872	0.0009169578552250001	0.35075378418	1.0	w	445.26780509900004																																	2015_Jul_07_1259	59.966430383100004	LearningTask	1	11	
66	-200.0	a	-200.0																	0.0	0.0	0.0	0.0	10.0	3.0	43.0	3.0																													a	1.0	0.334309101105	None	0.0	2.0	crossgray.gif	stop																								1.82	0.5142121315	0.0009629726409910001	0.334309101105	1.0	a	448.270828962																																	2015_Jul_07_1259	59.966430383100004	LearningTask	1	11	
67	-200.0	a	-200.0																	0.0	0.0	0.0	0.0	11.0	0.0	44.0	3.0																													a	1.0	0.317379951477	None	0.0	1.0	squaregreen.gif	stop																								0.75	0.514714002609	0.000997066497803	0.317379951477	1.0	a	451.274105072																																	2015_Jul_07_1259	59.966430383100004	LearningTask	1	11	
68	200.0	w	200.0																	0.0	0.0	0.0	0.0	11.0	1.0	45.0	0.0																													w	1.0	0.40043592453000004	None	0.0	1.0	hexagonwhite.gif	go																								1.14	0.5147278308869999	0.0009129047393799999	0.40043592453	1.0	w	454.277643919																																	2015_Jul_07_1259	59.966430383100004	LearningTask	1	11	
69	200.0	s	-200.0																	0.0	0.0	0.0	0.0	11.0	2.0	46.0	2.0																													s	1.0	0.333729028702	None	0.0	1.0	squaregreen.gif	stop																								0.0	0.514557123184	0.000890016555786	0.333729028702	1.0	s	457.28103613900004																																	2015_Jul_07_1259	59.966430383100004	LearningTask	1	11	
70	-200.0	a	-200.0																	0.0	0.0	0.0	0.0	11.0	3.0	47.0	3.0																													a	1.0	0.400567054749	None	0.0	1.0	squaregreen.gif	stop																								1.18	0.514477968216	0.0010600090026900001	0.400567054749	1.0	a	460.284620047																																	2015_Jul_07_1259	59.966430383100004	LearningTask	1	11	
71	-200.0	a	-200.0																	0.0	0.0	0.0	0.0	12.0	0.0	48.0	3.0																													a	1.0	0.433912992477	None	0.0	4.0	diamondorange.gif	go																								4.05	0.513950109482	0.0009200572967529999	0.433912992477	1.0	a	463.28781008699997																																	2015_Jul_07_1259	59.966430383100004	LearningTask	1	11	
72	-200.0	q	200.0																	0.0	0.0	0.0	0.0	12.0	1.0	49.0	1.0																													q	1.0	0.284770011902	None	0.0	1.0	hexagonwhite.gif	go																								0.9	0.513960123062	0.000922203063965	0.284770011902	1.0	q	466.29084610900003																																	2015_Jul_07_1259	59.966430383100004	LearningTask	1	11	
73	200.0	w	200.0																	0.0	0.0	0.0	0.0	12.0	2.0	50.0	0.0																													w	1.0	0.367374897003	None	0.0	0.5	circleyellow.gif	go																								0.0	0.514363050461	0.0009570121765139998	0.367374897003	1.0	w	469.29441714300003																																	2015_Jul_07_1259	59.966430383100004	LearningTask	1	11	
74	-200.0	q	200.0																	0.0	0.0	0.0	0.0	12.0	3.0	51.0	1.0																													q	1.0	0.334681987762	None	0.0	4.0	diamondorange.gif	go																								0.0	0.5143699646000001	0.0008978843688960001	0.367474079132	0.0	a	472.297865152	0.0	0.5152900218959999	0.000970125198364	0.334681987762	1.0	q	475.301150084																										2015_Jul_07_1259	59.966430383100004	LearningTask	1	11	
75	200.0	w	200.0																	0.0	0.0	0.0	0.0	13.0	0.0	52.0	0.0																													w	1.0	0.334089994431	None	0.0	4.0	trianglemagenta.gif	stop																								3.82	0.5141258239750001	0.000918865203857	0.334089994431	1.0	w	478.304480076																																	2015_Jul_07_1259	59.966430383100004	LearningTask	1	11	
76	200.0	s	-200.0																	0.0	0.0	0.0	0.0	13.0	1.0	53.0	2.0																													s	1.0	0.334139108658	None	0.0	2.0	invertedtriangleblue.gif	go																								1.83	0.514553070068	0.000909090042114	0.334139108658	1.0	s	481.30801200900004																																	2015_Jul_07_1259	59.966430383100004	LearningTask	1	11	
77	200.0	w	200.0																	0.0	0.0	0.0	0.0	13.0	2.0	54.0	0.0																													w	1.0	0.334495782852	None	0.0	4.0	diamondorange.gif	go																								0.0	0.513963222504	0.0011231899261500001	0.334495782852	1.0	w	484.311425924																																	2015_Jul_07_1259	59.966430383100004	LearningTask	1	11	
78	200.0	w	200.0																	0.0	0.0	0.0	0.0	13.0	3.0	55.0	0.0																													w	1.0	0.318356990814	None	0.0	1.0	squaregreen.gif	stop																								1.07	0.5138978958129999	0.000951051712036	0.318356990814	1.0	w	487.314403057																																	2015_Jul_07_1259	59.966430383100004	LearningTask	1	11	
79	-200.0	a	-200.0																	0.0	0.0	0.0	0.0	14.0	0.0	56.0	3.0																													a	1.0	0.30092096328699997	None	0.0	0.5	linecyan.gif	stop																								0.0	0.512589931488	0.0009448528289790001	0.300920963287	1.0	a	490.318176985																																	2015_Jul_07_1259	59.966430383100004	LearningTask	1	11	
80	-200.0	a	-200.0																	0.0	0.0	0.0	0.0	14.0	1.0	57.0	3.0																													a	1.0	0.300590991974	None	0.0	2.0	invertedtriangleblue.gif	go																								2.2	0.514187097549	0.00106620788574	0.300590991974	1.0	a	493.321573019																																	2015_Jul_07_1259	59.966430383100004	LearningTask	1	11	
81	200.0	s	-200.0																	0.0	0.0	0.0	0.0	14.0	2.0	58.0	2.0																													s	1.0	0.35091495513899995	None	0.0	1.0	hexagonwhite.gif	go																								0.91	0.5142750740049999	0.0008950233459470001	0.350914955139	1.0	s	496.324790001																																	2015_Jul_07_1259	59.966430383100004	LearningTask	1	11	
82	200.0	s	-200.0																	0.0	0.0	0.0	0.0	14.0	3.0	59.0	2.0																													s	1.0	0.401219844818	None	0.0	1.0	squaregreen.gif	stop																								0.83	0.514354944229	0.0009210109710689999	0.401219844818	1.0	s	499.32795214699996																																	2015_Jul_07_1259	59.966430383100004	LearningTask	1	11	
83	200.0	w	200.0																	0.0	0.0	0.0	0.0	15.0	0.0	60.0	0.0																													w	1.0	0.350947141647	None	0.0	2.0	crossgray.gif	stop																								1.76	0.514590978622	0.000922918319702	0.350947141647	1.0	w	502.331916094																																	2015_Jul_07_1259	59.966430383100004	LearningTask	1	11	
84	200.0	s	-200.0																	0.0	0.0	0.0	0.0	15.0	1.0	61.0	2.0																													s	1.0	0.350942134857	None	0.0	2.0	invertedtriangleblue.gif	go																								1.93	0.513866901398	0.00104594230652	0.350942134857	1.0	s	505.335085154																																	2015_Jul_07_1259	59.966430383100004	LearningTask	1	11	
85	-200.0	q	200.0																	0.0	0.0	0.0	0.0	15.0	2.0	62.0	1.0																													q	1.0	0.384104013443	None	0.0	1.0	hexagonwhite.gif	go																								0.0	0.513866901398	0.00096607208252	0.384104013443	1.0	q	508.338310003																																	2015_Jul_07_1259	59.966430383100004	LearningTask	1	11	
86	200.0	s	-200.0																	0.0	0.0	0.0	0.0	15.0	3.0	63.0	2.0																													s	1.0	0.38436007499700003	None	0.0	1.0	squaregreen.gif	stop																								1.21	0.514204025269	0.000885009765625	0.384360074997	1.0	s	511.34195113199996																																	2015_Jul_07_1259	59.966430383100004	LearningTask	1	11	
87	200.0	s	-200.0																	0.0	0.0	0.0	0.0	16.0	0.0	64.0	2.0																													s	1.0	0.384443998337	None	0.0	2.0	crossgray.gif	stop																								2.09	0.514023065567	0.0008940696716310001	0.384443998337	1.0	s	514.344923019																																	2015_Jul_07_1259	59.966430383100004	LearningTask	1	11	
88	200.0	s	-200.0																	0.0	0.0	0.0	0.0	16.0	1.0	65.0	2.0																													s	1.0	0.38453602790799996	None	0.0	4.0	diamondorange.gif	go																								0.0	0.5139558315280001	0.000921964645386	0.384536027908	1.0	s	517.348698139																																	2015_Jul_07_1259	59.966430383100004	LearningTask	1	11	
89	200.0	w	200.0																	0.0	0.0	0.0	0.0	16.0	2.0	66.0	0.0																													w	1.0	0.333598136902	None	0.0	4.0	diamondorange.gif	go																								4.22	0.514415979385	0.000922918319702	0.333598136902	1.0	w	520.351850033																																	2015_Jul_07_1259	59.966430383100004	LearningTask	1	11	
90	-200.0	q	200.0																	0.0	0.0	0.0	0.0	16.0	3.0	67.0	1.0																													q	1.0	0.418011903763	None	0.0	2.0	invertedtriangleblue.gif	go																								2.24	0.5143928527830001	0.0011670589447	0.418011903763	1.0	q	523.355520964																																	2015_Jul_07_1259	59.966430383100004	LearningTask	1	11	
91	-200.0	q	200.0																	0.0	0.0	0.0	0.0	17.0	0.0	68.0	1.0																													q	1.0	0.350582122803	None	0.0	0.5	linecyan.gif	stop																								0.63	0.514282941818	0.0008959770202639998	0.350582122803	1.0	q	526.358729124																																	2015_Jul_07_1259	59.966430383100004	LearningTask	1	11	
92	-200.0	q	200.0																	0.0	0.0	0.0	0.0	17.0	1.0	69.0	1.0																													q	1.0	0.38386893272399997	None	0.0	2.0	crossgray.gif	stop																								1.93	0.514379024506	0.00095796585083	0.383868932724	1.0	q	529.3617701530001																																	2015_Jul_07_1259	59.966430383100004	LearningTask	1	11	
93	200.0	s	-200.0																	0.0	0.0	0.0	0.0	17.0	2.0	70.0	2.0																													s	1.0	0.36722779274000006	None	0.0	0.5	linecyan.gif	stop																								0.0	0.514881849289	0.0008878707885739998	0.36722779274	1.0	s	532.365679026																																	2015_Jul_07_1259	59.966430383100004	LearningTask	1	11	
94	200.0	w	200.0																	0.0	0.0	0.0	0.0	17.0	3.0	71.0	0.0																													w	1.0	0.36801099777199997	None	0.0	2.0	invertedtriangleblue.gif	go																								0.0	0.513916015625	0.000888109207153	0.368010997772	1.0	w	535.368628979																																	2015_Jul_07_1259	59.966430383100004	LearningTask	1	11	
95	200.0	s	-200.0																	0.0	0.0	0.0	0.0	18.0	0.0	72.0	2.0																													s	1.0	0.367383956909	None	0.0	4.0	trianglemagenta.gif	stop																								4.13	0.514528036118	0.0008909702301030001	0.367383956909	1.0	s	538.371978998																																	2015_Jul_07_1259	59.966430383100004	LearningTask	1	11	
96	-200.0	q	200.0																	0.0	0.0	0.0	0.0	18.0	1.0	73.0	1.0																													q	1.0	0.3005900383	None	0.0	4.0	trianglemagenta.gif	stop																								3.76	0.5146138668060001	0.0009169578552250001	0.3005900383	1.0	q	541.375481129																																	2015_Jul_07_1259	59.966430383100004	LearningTask	1	11	
97	-200.0	a	-200.0																	0.0	0.0	0.0	0.0	18.0	2.0	74.0	3.0																													a	1.0	0.40139484405500003	None	0.0	1.0	squaregreen.gif	stop																								0.92	0.514039039612	0.00107717514038	0.401394844055	1.0	a	544.378906012																																	2015_Jul_07_1259	59.966430383100004	LearningTask	1	11	
98	200.0	w	200.0																	0.0	0.0	0.0	0.0	18.0	3.0	75.0	0.0																													w	1.0	0.334297180176	None	0.0	4.0	trianglemagenta.gif	stop																								4.13	0.514248847961	0.0010027885437	0.334297180176	1.0	w	547.3824169640001																																	2015_Jul_07_1259	59.966430383100004	LearningTask	1	11	
99	200.0	w	200.0																	0.0	0.0	0.0	0.0	19.0	0.0	76.0	0.0																													w	1.0	0.36782479286200004	None	0.0	4.0	diamondorange.gif	go																								3.82	0.5138020515439999	0.0009570121765139998	0.367824792862	1.0	w	550.385632992																																	2015_Jul_07_1259	59.966430383100004	LearningTask	1	11	
100	-200.0	q	200.0																	0.0	0.0	0.0	0.0	19.0	1.0	77.0	1.0																													q	1.0	0.301342010498	None	0.0	0.5	linecyan.gif	stop																								0.0	0.514034986496	0.000926971435547	0.301342010498	1.0	q	553.388988972																																	2015_Jul_07_1259	59.966430383100004	LearningTask	1	11	
101	200.0	s	-200.0																	0.0	0.0	0.0	0.0	19.0	2.0	78.0	2.0																													s	1.0	0.350795030594	None	0.0	4.0	diamondorange.gif	go																								3.96	0.51416683197	0.00104379653931	0.350795030594	1.0	s	556.392288923																																	2015_Jul_07_1259	59.966430383100004	LearningTask	1	11	
102	-200.0	q	200.0																	0.0	0.0	0.0	0.0	19.0	3.0	79.0	1.0																													q	1.0	0.400372982025	None	0.0	1.0	squaregreen.gif	stop																								0.78	0.514930009842	0.0008978843688960001	0.400372982025	1.0	q	559.395647049																																	2015_Jul_07_1259	59.966430383100004	LearningTask	1	11	
103	200.0	w	200.0																	0.0	0.0	0.0	0.0	20.0	0.0	80.0	0.0																													w	1.0	0.334007978439	None	0.0	1.0	hexagonwhite.gif	go																								1.08	0.514405965805	0.000900983810425	0.334007978439	1.0	w	562.3992969990001																																	2015_Jul_07_1259	59.966430383100004	LearningTask	1	11	
104	200.0	s	-200.0																	0.0	0.0	0.0	0.0	20.0	1.0	81.0	2.0																													s	1.0	0.38388705253600003	None	0.0	2.0	crossgray.gif	stop																								1.89	0.514523029327	0.000907897949219	0.383887052536	1.0	s	565.402408123																																	2015_Jul_07_1259	59.966430383100004	LearningTask	1	11	
105	200.0	w	200.0																	0.0	0.0	0.0	0.0	20.0	2.0	82.0	0.0																													w	1.0	0.350817203522	None	0.0	4.0	trianglemagenta.gif	stop																								4.11	0.514627933502	0.0009109973907470001	0.350817203522	1.0	w	568.405781984																																	2015_Jul_07_1259	59.966430383100004	LearningTask	1	11	
106	200.0	w	200.0																	0.0	0.0	0.0	0.0	20.0	3.0	83.0	0.0																													w	1.0	0.334258079529	None	0.0	1.0	hexagonwhite.gif	go																								0.0	0.514415979385	0.000909090042114	0.334258079529	1.0	w	571.4095640180001																																	2015_Jul_07_1259	59.966430383100004	LearningTask	1	11	
107	-200.0	a	-200.0																	0.0	0.0	0.0	0.0	21.0	0.0	84.0	3.0																													a	1.0	0.350688934326	None	0.0	4.0	diamondorange.gif	go																								3.75	0.513790130615	0.000892162322998	0.350688934326	1.0	a	574.412861109																																	2015_Jul_07_1259	59.966430383100004	LearningTask	1	11	
108	200.0	w	200.0																	0.0	0.0	0.0	0.0	21.0	1.0	85.0	0.0																													w	1.0	0.300580978394	None	0.0	0.5	linecyan.gif	stop																								0.38	0.51407289505	0.0008950233459470001	0.300580978394	1.0	w	577.415992975																																	2015_Jul_07_1259	59.966430383100004	LearningTask	1	11	
109	-200.0	q	200.0																	0.0	0.0	0.0	0.0	21.0	2.0	86.0	1.0																													q	1.0	0.300828933716	None	0.0	4.0	trianglemagenta.gif	stop																								4.02	0.514494180679	0.000896215438843	0.300828933716	1.0	q	580.419459105																																	2015_Jul_07_1259	59.966430383100004	LearningTask	1	11	
110	200.0	w	200.0																	0.0	0.0	0.0	0.0	21.0	3.0	87.0	0.0																													w	1.0	0.284838914871	None	0.0	0.5	linecyan.gif	stop																								0.74	0.514189958572	0.000890016555786	0.284838914871	1.0	w	583.422616005																																	2015_Jul_07_1259	59.966430383100004	LearningTask	1	11	
111	200.0	w	200.0																	0.0	0.0	0.0	0.0	22.0	0.0	88.0	0.0																													w	1.0	0.300878047943	None	0.0	1.0	squaregreen.gif	stop																								0.0	0.514529943466	0.0008878707885739998	0.300878047943	1.0	w	586.425975084																																	2015_Jul_07_1259	59.966430383100004	LearningTask	1	11	
112	-200.0	a	-200.0																	0.0	0.0	0.0	0.0	22.0	1.0	89.0	3.0																													a	1.0	0.367044210434	None	0.0	0.5	circleyellow.gif	go																								0.34	0.514412879944	0.00142097473145	0.367044210434	1.0	a	589.429415941																																	2015_Jul_07_1259	59.966430383100004	LearningTask	1	11	
113	-200.0	a	-200.0																	0.0	0.0	0.0	0.0	22.0	2.0	90.0	3.0																													a	1.0	0.43473505973800003	None	0.0	4.0	trianglemagenta.gif	stop																								4.22	0.514004945755	0.000970840454102	0.434735059738	1.0	a	592.4328651430001																																	2015_Jul_07_1259	59.966430383100004	LearningTask	1	11	
114	-200.0	q	200.0																	0.0	0.0	0.0	0.0	22.0	3.0	91.0	1.0																													q	1.0	0.400861024857	None	0.0	4.0	diamondorange.gif	go																								4.11	0.514549970627	0.00101900100708	0.400861024857	1.0	q	595.436228991																																	2015_Jul_07_1259	59.966430383100004	LearningTask	1	11	
115	200.0	w	200.0																	0.0	0.0	0.0	0.0	23.0	0.0	92.0	0.0																													w	1.0	0.334156036377	None	0.0	1.0	squaregreen.gif	stop																								1.09	0.514482975006	0.0008919239044189998	0.334156036377	1.0	w	598.439578056																																	2015_Jul_07_1259	59.966430383100004	LearningTask	1	11	
116	200.0	w	200.0																	0.0	0.0	0.0	0.0	23.0	1.0	93.0	0.0																													w	1.0	0.334431886673	None	0.0	2.0	crossgray.gif	stop																								2.19	0.514513969421	0.00090503692627	0.334431886673	1.0	w	601.44284296																																	2015_Jul_07_1259	59.966430383100004	LearningTask	1	11	
117	200.0	s	-200.0																	0.0	0.0	0.0	0.0	23.0	2.0	94.0	2.0																													s	1.0	0.35084319114699997	None	0.0	0.5	linecyan.gif	stop																								0.66	0.5143949985499999	0.0009391307830810002	0.350843191147	1.0	s	604.446372032																																	2015_Jul_07_1259	59.966430383100004	LearningTask	1	11	
118	-200.0	q	200.0																	0.0	0.0	0.0	0.0	23.0	3.0	95.0	1.0																													q	1.0	0.367386817932	None	0.0	0.5	circleyellow.gif	go																								0.29	0.514647960663	0.00115609169006	0.367386817932	1.0	q	607.44984293																																	2015_Jul_07_1259	59.966430383100004	LearningTask	1	11	
119	200.0	s	-200.0																	0.0	0.0	0.0	0.0	24.0	0.0	96.0	2.0																													s	1.0	0.333576917648	None	0.0	1.0	hexagonwhite.gif	go																								1.0	0.514610052109	0.0009150505065920001	0.333576917648	1.0	s	610.453355074																																	2015_Jul_07_1259	59.966430383100004	LearningTask	1	11	
120	-200.0	q	200.0																	0.0	0.0	0.0	0.0	24.0	1.0	97.0	1.0																													q	1.0	0.36761999130199996	None	0.0	2.0	invertedtriangleblue.gif	go																								2.17	0.513650894165	0.0009319782257080001	0.367619991302	1.0	q	613.456435919																																	2015_Jul_07_1259	59.966430383100004	LearningTask	1	11	
121	200.0	s	-200.0																	0.0	0.0	0.0	0.0	24.0	2.0	98.0	2.0																													s	1.0	0.43375515937799997	None	0.0	0.5	circleyellow.gif	go																								0.0	0.5146219730380001	0.0009379386901860002	0.433755159378	1.0	s	616.459739923																																	2015_Jul_07_1259	59.966430383100004	LearningTask	1	11	
122	-200.0	q	200.0																	0.0	0.0	0.0	0.0	24.0	3.0	99.0	1.0																													q	1.0	0.383874893188	None	0.0	4.0	trianglemagenta.gif	stop																								0.0	0.514251947403	0.000900983810425	0.383874893188	1.0	q	619.4636139869999																																	2015_Jul_07_1259	59.966430383100004	LearningTask	1	11	
123																				0.0	0.0	0.0	0.0																																																																														9.0	3.81374692917																								2015_Jul_07_1259	59.966430383100004	LearningTask	1	11	
124	-200.0	a	-200.0																	1.0	0.0	1.0	0.0	0.0	0.0	0.0	3.0																													a	1.0	0.518416881561	None	0.0	1.0	hexagonwhite.gif	go																								1.06	0.509757995605	0.000902891159058	0.518416881561	1.0	a	626.7555069919999																																	2015_Jul_07_1259	59.966430383100004	LearningTask	1	11	
125	200.0	s	-200.0																	1.0	0.0	1.0	0.0	0.0	1.0	1.0	2.0																													s	1.0	0.367390871048	None	0.0	4.0	trianglemagenta.gif	stop																								3.88	0.513549089432	0.0008919239044189998	0.367390871048	1.0	s	629.758090973																																	2015_Jul_07_1259	59.966430383100004	LearningTask	1	11	
126	-200.0	a	-200.0																	1.0	0.0	1.0	0.0	0.0	2.0	2.0	3.0																													a	1.0	0.467391014099	None	0.0	1.0	squaregreen.gif	stop																								0.81	0.514429092407	0.0009031295776369999	0.467391014099	1.0	a	632.761302948																																	2015_Jul_07_1259	59.966430383100004	LearningTask	1	11	
127	200.0	s	-200.0																	1.0	0.0	1.0	0.0	0.0	3.0	3.0	2.0																													s	1.0	0.36779904365500005	None	0.0	0.5	linecyan.gif	stop																								0.54	0.513700008392	0.0009369850158689999	0.367799043655	1.0	s	635.765017986																																	2015_Jul_07_1259	59.966430383100004	LearningTask	1	11	
128	200.0	s	-200.0																	1.0	0.0	1.0	0.0	1.0	0.0	4.0	2.0																													s	1.0	0.350545167923	None	0.0	1.0	squaregreen.gif	stop																								1.12	0.514346837997	0.0009448528289790001	0.350545167923	1.0	s	638.768253088																																	2015_Jul_07_1259	59.966430383100004	LearningTask	1	11	
129	-200.0	q	200.0																	1.0	0.0	1.0	0.0	1.0	1.0	5.0	1.0																													q	1.0	0.400933980942	None	0.0	2.0	crossgray.gif	stop																								2.02	0.514239788055	0.0009548664093019999	0.400933980942	1.0	q	641.771633148																																	2015_Jul_07_1259	59.966430383100004	LearningTask	1	11	
130	200.0	s	-200.0																	1.0	0.0	1.0	0.0	1.0	2.0	6.0	2.0																													s	1.0	0.367753982544	None	0.0	4.0	trianglemagenta.gif	stop																								4.16	0.5137870311739999	0.000900030136108	0.367753982544	1.0	s	644.774956942																																	2015_Jul_07_1259	59.966430383100004	LearningTask	1	11	
131	200.0	w	200.0																	1.0	0.0	1.0	0.0	1.0	3.0	7.0	0.0																													w	1.0	0.350995063782	None	0.0	1.0	hexagonwhite.gif	go																								1.2	0.514452934265	0.0009169578552250001	0.350995063782	1.0	w	647.778255939																																	2015_Jul_07_1259	59.966430383100004	LearningTask	1	11	
132	-200.0	q	200.0																	1.0	0.0	1.0	0.0	2.0	0.0	8.0	1.0																													q	1.0	0.41766500473000007	None	0.0	2.0	invertedtriangleblue.gif	go																								2.13	0.514223098755	0.00094199180603	0.41766500473	1.0	q	650.7818419930001																																	2015_Jul_07_1259	59.966430383100004	LearningTask	1	11	
133	200.0	w	200.0																	1.0	0.0	1.0	0.0	2.0	1.0	9.0	0.0																													w	1.0	0.28412604331999997	None	0.0	0.5	circleyellow.gif	go																								0.61	0.514095067978	0.0009019374847410001	0.28412604332	1.0	w	653.785162926																																	2015_Jul_07_1259	59.966430383100004	LearningTask	1	11	
134	200.0	w	200.0																	1.0	0.0	1.0	0.0	2.0	2.0	10.0	0.0																													w	1.0	0.35054802894599996	None	0.0	2.0	invertedtriangleblue.gif	go																								2.13	0.5144541263579999	0.000921964645386	0.350548028946	1.0	w	656.7884719369999																																	2015_Jul_07_1259	59.966430383100004	LearningTask	1	11	
135	200.0	s	-200.0																	1.0	0.0	1.0	0.0	2.0	3.0	11.0	2.0																													s	1.0	0.351335048676	None	0.0	0.5	linecyan.gif	stop																								0.0	0.514450073242	0.0008959770202639998	0.351335048676	1.0	s	659.7919781209999																																	2015_Jul_07_1259	59.966430383100004	LearningTask	1	11	
136	200.0	w	200.0																	1.0	0.0	1.0	0.0	3.0	0.0	12.0	0.0																													w	1.0	0.334280014038	None	0.0	2.0	invertedtriangleblue.gif	go																								2.12	0.513999938965	0.00115609169006	0.334280014038	1.0	w	662.795150995																																	2015_Jul_07_1259	59.966430383100004	LearningTask	1	11	
137	200.0	s	-200.0																	1.0	0.0	1.0	0.0	3.0	1.0	13.0	2.0																													s	1.0	0.367737054825	None	0.0	4.0	trianglemagenta.gif	stop																								0.0	0.514456987381	0.00105595588684	0.367737054825	1.0	s	665.798975945																																	2015_Jul_07_1259	59.966430383100004	LearningTask	1	11	
138	200.0	w	200.0																	1.0	0.0	1.0	0.0	3.0	2.0	14.0	0.0																													w	1.0	0.350508928299	None	0.0	1.0	hexagonwhite.gif	go																								1.16	0.5141868591309999	0.000900983810425	0.350508928299	1.0	w	668.8026411530001																																	2015_Jul_07_1259	59.966430383100004	LearningTask	1	11	
139	-200.0	q	200.0																	1.0	0.0	1.0	0.0	3.0	3.0	15.0	1.0																													q	1.0	0.66828417778	None	0.0	4.0	diamondorange.gif	go																								3.76	0.513767957687	0.0009560585021970001	0.66828417778	1.0	q	671.805364132																																	2015_Jul_07_1259	59.966430383100004	LearningTask	1	11	
140	200.0	w	200.0																	1.0	0.0	1.0	0.0	4.0	0.0	16.0	0.0																													w	1.0	0.367453098297	None	0.0	0.5	circleyellow.gif	go																								0.29	0.514033079147	0.0009551048278810001	0.367453098297	1.0	w	674.808730125																																	2015_Jul_07_1259	59.966430383100004	LearningTask	1	11	
141	200.0	s	-200.0																	1.0	0.0	1.0	0.0	4.0	1.0	17.0	2.0																													s	1.0	0.317445993423	None	0.0	0.5	linecyan.gif	stop																								0.26	0.514369010925	0.000887155532837	0.317445993423	1.0	s	677.812091112																																	2015_Jul_07_1259	59.966430383100004	LearningTask	1	11	
142	-200.0	a	-200.0																	1.0	0.0	1.0	0.0	4.0	2.0	18.0	3.0																													a	1.0	0.334020853043	None	0.0	0.5	linecyan.gif	stop																								0.51	0.514379024506	0.000962018966675	0.334020853043	1.0	a	680.815608025																																	2015_Jul_07_1259	59.966430383100004	LearningTask	1	11	
143	-200.0	q	200.0																	1.0	0.0	1.0	0.0	4.0	3.0	19.0	1.0																													q	1.0	0.46819210052500004	None	0.0	0.5	circleyellow.gif	go																								0.67	0.513972997665	0.0009200572967529999	0.468192100525	1.0	q	683.81892705																																	2015_Jul_07_1259	59.966430383100004	LearningTask	1	11	
144	-200.0	a	-200.0																	1.0	0.0	1.0	0.0	5.0	0.0	20.0	3.0																													a	1.0	0.333741903305	None	0.0	4.0	trianglemagenta.gif	stop																								4.17	0.51459813118	0.0008780956268310002	0.333741903305	1.0	a	686.822176933																																	2015_Jul_07_1259	59.966430383100004	LearningTask	1	11	
145	-200.0	a	-200.0																	1.0	0.0	1.0	0.0	5.0	1.0	21.0	3.0																													a	1.0	0.334052085876	None	0.0	4.0	diamondorange.gif	go																								3.83	0.514368057251	0.00092887878418	0.334052085876	1.0	a	689.825922966																																	2015_Jul_07_1259	59.966430383100004	LearningTask	1	11	
146	200.0	s	-200.0																	1.0	0.0	1.0	0.0	5.0	2.0	22.0	2.0																													s	1.0	0.36744403839100004	None	0.0	1.0	squaregreen.gif	stop																								0.79	0.5136320590969999	0.00089693069458	0.367444038391	1.0	s	692.8291311260001																																	2015_Jul_07_1259	59.966430383100004	LearningTask	1	11	
147	200.0	s	-200.0																	1.0	0.0	1.0	0.0	5.0	3.0	23.0	2.0																													s	1.0	0.38368892669699994	None	0.0	2.0	invertedtriangleblue.gif	go																								0.0	0.514511108398	0.000881910324097	0.35059094429	0.0	a	695.8326039310001	1.83	0.515822172165	0.0009541511535639998	0.38368892669699994	1.0	s	698.83614397																										2015_Jul_07_1259	59.966430383100004	LearningTask	1	11	
148	-200.0	q	200.0																	1.0	0.0	1.0	0.0	6.0	0.0	24.0	1.0																													q	1.0	0.350581884384	None	0.0	4.0	diamondorange.gif	go																								4.01	0.514127969742	0.000873804092407	0.350581884384	1.0	q	701.8390889169999																																	2015_Jul_07_1259	59.966430383100004	LearningTask	1	11	
149	-200.0	a	-200.0																	1.0	0.0	1.0	0.0	6.0	1.0	25.0	3.0																													a	1.0	0.384224891663	None	0.0	2.0	crossgray.gif	stop																								1.9	0.514329910278	0.0009160041809079999	0.384224891663	1.0	a	704.8426740169999																																	2015_Jul_07_1259	59.966430383100004	LearningTask	1	11	
150	-200.0	a	-200.0																	1.0	0.0	1.0	0.0	6.0	2.0	26.0	3.0																													a	1.0	0.350747108459	None	0.0	4.0	diamondorange.gif	go																								3.79	0.514295816422	0.000877857208252	0.350747108459	1.0	a	707.846039057																																	2015_Jul_07_1259	59.966430383100004	LearningTask	1	11	
151	200.0	s	-200.0																	1.0	0.0	1.0	0.0	6.0	3.0	27.0	2.0																													s	1.0	0.31743812561	None	0.0	4.0	trianglemagenta.gif	stop																								3.84	0.5143899917600001	0.0008780956268310002	0.31743812561	1.0	s	710.84950304																																	2015_Jul_07_1259	59.966430383100004	LearningTask	1	11	
152	-200.0	a	-200.0																	1.0	0.0	1.0	0.0	7.0	0.0	28.0	3.0																													a	1.0	0.334362030029	None	0.0	2.0	crossgray.gif	stop																								1.78	0.513696908951	0.0009329319000239999	0.334362030029	1.0	a	713.8529350760001																																	2015_Jul_07_1259	59.966430383100004	LearningTask	1	11	
153	-200.0	q	200.0																	1.0	0.0	1.0	0.0	7.0	1.0	29.0	1.0																													q	1.0	0.367176055908	None	0.0	2.0	invertedtriangleblue.gif	go																								2.03	0.514280080795	0.0008740425109860002	0.367176055908	1.0	q	716.855886936																																	2015_Jul_07_1259	59.966430383100004	LearningTask	1	11	
154	200.0	w	200.0																	1.0	0.0	1.0	0.0	7.0	2.0	30.0	0.0																													w	1.0	0.35115909576399995	None	0.0	0.5	linecyan.gif	stop																								0.0	0.514508008957	0.0009720325469970001	0.351159095764	1.0	w	719.859270096																																	2015_Jul_07_1259	59.966430383100004	LearningTask	1	11	
155	200.0	s	-200.0																	1.0	0.0	1.0	0.0	7.0	3.0	31.0	2.0																													s	1.0	0.300998210907	None	0.0	2.0	invertedtriangleblue.gif	go																								2.09	0.51412987709	0.0009338855743410001	0.300998210907	1.0	s	722.862816095																																	2015_Jul_07_1259	59.966430383100004	LearningTask	1	11	
156	-200.0	a	-200.0																	1.0	0.0	1.0	0.0	8.0	0.0	32.0	3.0																													a	1.0	0.367406129837	None	0.0	1.0	hexagonwhite.gif	go																								1.21	0.514393091202	0.0008831024169919999	0.367406129837	1.0	a	725.866234064																																	2015_Jul_07_1259	59.966430383100004	LearningTask	1	11	
157	-200.0	a	-200.0																	1.0	0.0	1.0	0.0	8.0	1.0	33.0	3.0																													a	1.0	0.30084609985399996	None	0.0	0.5	linecyan.gif	stop																								0.55	0.5141420364379999	0.000953912734985	0.300846099854	1.0	a	728.8699960710001																																	2015_Jul_07_1259	59.966430383100004	LearningTask	1	11	
158	-200.0	a	-200.0																	1.0	0.0	1.0	0.0	8.0	2.0	34.0	3.0																													a	1.0	0.333798885345	None	0.0	2.0	crossgray.gif	stop																								1.86	0.513487100601	0.00114393234253	0.333798885345	1.0	a	731.8729281430001																																	2015_Jul_07_1259	59.966430383100004	LearningTask	1	11	
159	-200.0	a	-200.0																	1.0	0.0	1.0	0.0	8.0	3.0	35.0	3.0																													a	1.0	0.33440709114100003	None	0.0	1.0	squaregreen.gif	stop																								1.21	0.5143430233	0.000865936279297	0.334407091141	1.0	a	734.8761971																																	2015_Jul_07_1259	59.966430383100004	LearningTask	1	11	
160	200.0	w	200.0																	1.0	0.0	1.0	0.0	9.0	0.0	36.0	0.0																													w	1.0	0.38455295562700004	None	0.0	2.0	crossgray.gif	stop																								2.24	0.5142121315	0.00121712684631	0.384552955627	1.0	w	737.8798980710001																																	2015_Jul_07_1259	59.966430383100004	LearningTask	1	11	
161	-200.0	a	-200.0																	1.0	0.0	1.0	0.0	9.0	1.0	37.0	3.0																													a	1.0	0.334006071091	None	0.0	4.0	trianglemagenta.gif	stop																								0.0	0.514235973358	0.000917911529541	0.334006071091	1.0	a	740.883142948																																	2015_Jul_07_1259	59.966430383100004	LearningTask	1	11	
162	-200.0	q	200.0																	1.0	0.0	1.0	0.0	9.0	2.0	38.0	1.0																													q	1.0	0.334123849869	None	0.0	1.0	squaregreen.gif	stop																								0.81	0.514557123184	0.0008862018585209999	0.334123849869	1.0	q	743.8865640160001																																	2015_Jul_07_1259	59.966430383100004	LearningTask	1	11	
163	-200.0	a	-200.0																	1.0	0.0	1.0	0.0	9.0	3.0	39.0	3.0																													a	1.0	0.334239006042	None	0.0	1.0	squaregreen.gif	stop																								0.87	0.5144300460819999	0.0008640289306639999	0.334239006042	1.0	a	746.890020132																																	2015_Jul_07_1259	59.966430383100004	LearningTask	1	11	
164	200.0	w	200.0																	1.0	0.0	1.0	0.0	10.0	0.0	40.0	0.0																													w	1.0	0.334019899368	None	0.0	4.0	trianglemagenta.gif	stop																								0.0	0.514061927795	0.0008780956268310002	0.334019899368	1.0	w	749.89300108																																	2015_Jul_07_1259	59.966430383100004	LearningTask	1	11	
165	-200.0	q	200.0																	1.0	0.0	1.0	0.0	10.0	1.0	41.0	1.0																													q	1.0	0.300643920898	None	0.0	1.0	squaregreen.gif	stop																								1.15	0.514472007751	0.0010139942169199998	0.300643920898	1.0	q	752.8972370619999																																	2015_Jul_07_1259	59.966430383100004	LearningTask	1	11	
166	-200.0	q	200.0																	1.0	0.0	1.0	0.0	10.0	2.0	42.0	1.0																													q	1.0	0.350394010544	None	0.0	0.5	linecyan.gif	stop																								0.0	0.513566970825	0.0008728504180910001	0.350394010544	1.0	q	755.8999030589999																																	2015_Jul_07_1259	59.966430383100004	LearningTask	1	11	
167	200.0	w	200.0																	1.0	0.0	1.0	0.0	10.0	3.0	43.0	0.0																													w	1.0	0.36702990531900004	None	0.0	2.0	invertedtriangleblue.gif	go																								2.06	0.514602899551	0.00088095664978	0.367029905319	1.0	w	758.90348196																																	2015_Jul_07_1259	59.966430383100004	LearningTask	1	11	
168	-200.0	q	200.0																	1.0	0.0	1.0	0.0	11.0	0.0	44.0	1.0																													q	1.0	0.384370088577	None	0.0	1.0	squaregreen.gif	stop																								0.0	0.5136811733250001	0.00097918510437	0.36768913269	0.0	a	761.9067840580001	0.83	0.5152668952939999	0.0009357929229739999	0.384370088577	1.0	q	764.909974098																										2015_Jul_07_1259	59.966430383100004	LearningTask	1	11	
169	200.0	w	200.0																	1.0	0.0	1.0	0.0	11.0	1.0	45.0	0.0																													w	1.0	0.351035833359	None	0.0	1.0	squaregreen.gif	stop																								0.76	0.514410972595	0.000869035720825	0.351035833359	1.0	w	767.913177013																																	2015_Jul_07_1259	59.966430383100004	LearningTask	1	11	
170	-200.0	a	-200.0																	1.0	0.0	1.0	0.0	11.0	2.0	46.0	3.0																													a	1.0	0.38463997840899994	None	0.0	2.0	invertedtriangleblue.gif	go																								1.96	0.513925075531	0.00090503692627	0.384639978409	1.0	a	770.917099953																																	2015_Jul_07_1259	59.966430383100004	LearningTask	1	11	
171	-200.0	a	-200.0																	1.0	0.0	1.0	0.0	11.0	3.0	47.0	3.0																													a	1.0	0.334120035172	None	0.0	0.5	linecyan.gif	stop																								0.34	0.513991117477	0.000890016555786	0.334120035172	1.0	a	773.920143127																																	2015_Jul_07_1259	59.966430383100004	LearningTask	1	11	
172	200.0	w	200.0																	1.0	0.0	1.0	0.0	12.0	0.0	48.0	0.0																													w	1.0	0.317518949509	None	0.0	0.5	circleyellow.gif	go																								0.27	0.514399051666	0.000931024551392	0.317518949509	1.0	w	776.923795938																																	2015_Jul_07_1259	59.966430383100004	LearningTask	1	11	
173	200.0	w	200.0																	1.0	0.0	1.0	0.0	12.0	1.0	49.0	0.0																													w	1.0	0.350419998169	None	0.0	1.0	squaregreen.gif	stop																								0.78	0.5140759944919999	0.00087308883667	0.350419998169	1.0	w	779.926911116																																	2015_Jul_07_1259	59.966430383100004	LearningTask	1	11	
174	-200.0	q	200.0																	1.0	0.0	1.0	0.0	12.0	2.0	50.0	1.0																													q	1.0	0.35075807571400003	None	0.0	0.5	circleyellow.gif	go																								0.44	0.514410018921	0.000877141952515	0.350758075714	1.0	q	782.9301180839999																																	2015_Jul_07_1259	59.966430383100004	LearningTask	1	11	
175	-200.0	a	-200.0																	1.0	0.0	1.0	0.0	12.0	3.0	51.0	3.0																													a	1.0	0.35130906105	None	0.0	2.0	crossgray.gif	stop																								1.94	0.514294862747	0.0011849403381300001	0.35130906105	1.0	a	785.934307098																																	2015_Jul_07_1259	59.966430383100004	LearningTask	1	11	
176	200.0	s	-200.0																	1.0	0.0	1.0	0.0	13.0	0.0	52.0	2.0																													s	1.0	0.400689840317	None	0.0	0.5	linecyan.gif	stop																								0.55	0.513600111008	0.0008749961853029999	0.400689840317	1.0	s	788.9369421010001																																	2015_Jul_07_1259	59.966430383100004	LearningTask	1	11	
177	200.0	w	200.0																	1.0	0.0	1.0	0.0	13.0	1.0	53.0	0.0																													w	1.0	0.400740861893	None	0.0	4.0	trianglemagenta.gif	stop																								4.11	0.514475107193	0.0008780956268310002	0.400740861893	1.0	w	791.940222025																																	2015_Jul_07_1259	59.966430383100004	LearningTask	1	11	
178	200.0	s	-200.0																	1.0	0.0	1.0	0.0	13.0	2.0	54.0	2.0																													s	1.0	0.300510168076	None	0.0	0.5	circleyellow.gif	go																								0.42	0.514444828033	0.0008788108825680001	0.300510168076	1.0	s	794.944023132																																	2015_Jul_07_1259	59.966430383100004	LearningTask	1	11	
179	200.0	w	200.0																	1.0	0.0	1.0	0.0	13.0	3.0	55.0	0.0																													w	1.0	0.334103107452	None	0.0	0.5	circleyellow.gif	go																								0.69	0.5142688751219999	0.000902891159058	0.334103107452	1.0	w	797.946977139																																	2015_Jul_07_1259	59.966430383100004	LearningTask	1	11	
180	200.0	s	-200.0																	1.0	0.0	1.0	0.0	14.0	0.0	56.0	2.0																													s	1.0	0.334628105164	None	0.0	0.5	circleyellow.gif	go																								0.57	0.514359951019	0.00095009803772	0.334628105164	1.0	s	800.9507751460001																																	2015_Jul_07_1259	59.966430383100004	LearningTask	1	11	
181	-200.0	q	200.0																	1.0	0.0	1.0	0.0	14.0	1.0	57.0	1.0																													q	1.0	0.36731195449799997	None	0.0	4.0	diamondorange.gif	go																								3.79	0.513992071152	0.0008821487426760002	0.367311954498	1.0	q	803.953885078																																	2015_Jul_07_1259	59.966430383100004	LearningTask	1	11	
182	200.0	s	-200.0																	1.0	0.0	1.0	0.0	14.0	2.0	58.0	2.0																													s	1.0	0.434252023697	None	0.0	4.0	diamondorange.gif	go																								4.04	0.514266967773	0.0008759498596189999	0.434252023697	1.0	s	806.9571769239999																																	2015_Jul_07_1259	59.966430383100004	LearningTask	1	11	
183	200.0	w	200.0																	1.0	0.0	1.0	0.0	14.0	3.0	59.0	0.0																													w	1.0	0.334634065628	None	0.0	1.0	squaregreen.gif	stop																								0.85	0.514183998108	0.000923871994019	0.334634065628	1.0	w	809.9608819480001																																	2015_Jul_07_1259	59.966430383100004	LearningTask	1	11	
184	200.0	s	-200.0																	1.0	0.0	1.0	0.0	15.0	0.0	60.0	2.0																													s	1.0	0.333741903305	None	0.0	4.0	diamondorange.gif	go																								0.0	0.514601945877	0.0008749961853029999	0.333741903305	1.0	s	812.964101076																																	2015_Jul_07_1259	59.966430383100004	LearningTask	1	11	
185	200.0	s	-200.0																	1.0	0.0	1.0	0.0	15.0	1.0	61.0	2.0																													s	1.0	0.601106882095	None	0.0	0.5	circleyellow.gif	go																								0.0	0.5141999721530001	0.0009548664093019999	0.601106882095	1.0	s	815.967083931																																	2015_Jul_07_1259	59.966430383100004	LearningTask	1	11	
186	200.0	w	200.0																	1.0	0.0	1.0	0.0	15.0	2.0	62.0	0.0																													w	1.0	0.333842039108	None	0.0	0.5	circleyellow.gif	go																								0.72	0.514643907547	0.000942945480347	0.333842039108	1.0	w	818.9706101419999																																	2015_Jul_07_1259	59.966430383100004	LearningTask	1	11	
187	200.0	w	200.0																	1.0	0.0	1.0	0.0	15.0	3.0	63.0	0.0																													w	1.0	0.350774049759	None	0.0	4.0	trianglemagenta.gif	stop																								4.19	0.514446973801	0.0008759498596189999	0.350774049759	1.0	w	821.9740760330001																																	2015_Jul_07_1259	59.966430383100004	LearningTask	1	11	
188	200.0	w	200.0																	1.0	0.0	1.0	0.0	16.0	0.0	64.0	0.0																													w	1.0	0.41764593124399996	None	0.0	2.0	crossgray.gif	stop																								2.21	0.5142691135409999	0.000930070877075	0.417645931244	1.0	w	824.977904081																																	2015_Jul_07_1259	59.966430383100004	LearningTask	1	11	
189	-200.0	q	200.0																	1.0	0.0	1.0	0.0	16.0	1.0	65.0	1.0																													q	1.0	0.451428890228	None	0.0	1.0	hexagonwhite.gif	go																								0.77	0.51370716095	0.0014100074768100001	0.451428890228	1.0	q	827.9811301230001																																	2015_Jul_07_1259	59.966430383100004	LearningTask	1	11	
190	200.0	w	200.0																	1.0	0.0	1.0	0.0	16.0	2.0	66.0	0.0																													w	1.0	0.417508840561	None	0.0	2.0	invertedtriangleblue.gif	go																								1.89	0.514587163925	0.00120711326599	0.417508840561	1.0	w	830.9844279289999																																	2015_Jul_07_1259	59.966430383100004	LearningTask	1	11	
191	200.0	s	-200.0																	1.0	0.0	1.0	0.0	16.0	3.0	67.0	2.0																													s	1.0	0.35091495513899995	None	0.0	4.0	diamondorange.gif	go																								4.17	0.5138750076290001	0.000881195068359	0.350914955139	1.0	s	833.987776995																																	2015_Jul_07_1259	59.966430383100004	LearningTask	1	11	
192	-200.0	q	200.0																	1.0	0.0	1.0	0.0	17.0	0.0	68.0	1.0																													q	1.0	0.35054183006300005	None	0.0	4.0	diamondorange.gif	go																								0.0	0.514414072037	0.0008709430694580001	0.350541830063	1.0	q	836.9910569189999																																	2015_Jul_07_1259	59.966430383100004	LearningTask	1	11	
193	-200.0	q	200.0																	1.0	0.0	1.0	0.0	17.0	1.0	69.0	1.0																													q	1.0	0.35079216957099996	None	0.0	0.5	circleyellow.gif	go																								0.4	0.514358997345	0.00107598304749	0.350792169571	1.0	q	839.9945161339999																																	2015_Jul_07_1259	59.966430383100004	LearningTask	1	11	
194	-200.0	a	-200.0																	1.0	0.0	1.0	0.0	17.0	2.0	70.0	3.0																													a	1.0	0.38436388969400004	None	0.0	0.5	linecyan.gif	stop																								0.64	0.5139720439909999	0.0008869171142580001	0.384363889694	1.0	a	842.9978430269999																																	2015_Jul_07_1259	59.966430383100004	LearningTask	1	11	
195	-200.0	a	-200.0																	1.0	0.0	1.0	0.0	17.0	3.0	71.0	3.0																													a	1.0	0.434233903885	None	0.0	2.0	crossgray.gif	stop																								2.15	0.5142009258269999	0.0008718967437739999	0.434233903885	1.0	a	846.0014469619999																																	2015_Jul_07_1259	59.966430383100004	LearningTask	1	11	
196	-200.0	q	200.0																	1.0	0.0	1.0	0.0	18.0	0.0	72.0	1.0																													q	1.0	0.36743593215899994	None	0.0	4.0	trianglemagenta.gif	stop																								4.06	0.513803005219	0.00104999542236	0.367435932159	1.0	q	849.004727125																																	2015_Jul_07_1259	59.966430383100004	LearningTask	1	11	
197	-200.0	a	-200.0																	1.0	0.0	1.0	0.0	18.0	1.0	73.0	3.0																													a	1.0	0.333514928818	None	0.0	2.0	invertedtriangleblue.gif	go																								0.0	0.5142970085140001	0.00088095664978	0.333514928818	1.0	a	852.0079770089999																																	2015_Jul_07_1259	59.966430383100004	LearningTask	1	11	
198	-200.0	a	-200.0																	1.0	0.0	1.0	0.0	18.0	2.0	74.0	3.0																													a	1.0	0.33475208282499996	None	0.0	1.0	hexagonwhite.gif	go																								0.0	0.514195919037	0.00092601776123	0.334752082825	1.0	a	855.011079073																																	2015_Jul_07_1259	59.966430383100004	LearningTask	1	11	
199	200.0	w	200.0																	1.0	0.0	1.0	0.0	18.0	3.0	75.0	0.0																													w	1.0	0.334230899811	None	0.0	4.0	diamondorange.gif	go																								3.91	0.514038801193	0.0009109973907470001	0.334230899811	1.0	w	858.015146971																																	2015_Jul_07_1259	59.966430383100004	LearningTask	1	11	
200	-200.0	q	200.0																	1.0	0.0	1.0	0.0	19.0	0.0	76.0	1.0																													q	1.0	0.300867080688	None	0.0	4.0	trianglemagenta.gif	stop																								4.23	0.513758897781	0.0008938312530519999	0.300867080688	1.0	q	861.0183770660001																																	2015_Jul_07_1259	59.966430383100004	LearningTask	1	11	
201	-200.0	q	200.0																	1.0	0.0	1.0	0.0	19.0	1.0	77.0	1.0																													q	1.0	0.43428206443800005	None	0.0	2.0	invertedtriangleblue.gif	go																								1.98	0.514101982117	0.0009148120880130001	0.434282064438	1.0	q	864.02188015																																	2015_Jul_07_1259	59.966430383100004	LearningTask	1	11	
202	200.0	w	200.0																	1.0	0.0	1.0	0.0	19.0	2.0	78.0	0.0																													w	1.0	0.334368944168	None	0.0	2.0	crossgray.gif	stop																								1.79	0.513937950134	0.0008919239044189998	0.334368944168	1.0	w	867.024797916																																	2015_Jul_07_1259	59.966430383100004	LearningTask	1	11	
203	-200.0	q	200.0																	1.0	0.0	1.0	0.0	19.0	3.0	79.0	1.0																													q	1.0	0.367676019669	None	0.0	1.0	hexagonwhite.gif	go																								1.07	0.51411318779	0.00105619430542	0.367676019669	1.0	q	870.0280129910001																																	2015_Jul_07_1259	59.966430383100004	LearningTask	1	11	
204	-200.0	q	200.0																	1.0	0.0	1.0	0.0	20.0	0.0	80.0	1.0																													q	1.0	0.301416873932	None	0.0	0.5	linecyan.gif	stop																								0.47	0.51428103447	0.000913858413696	0.301416873932	1.0	q	873.0319380760001																																	2015_Jul_07_1259	59.966430383100004	LearningTask	1	11	
205	-200.0	a	-200.0																	1.0	0.0	1.0	0.0	20.0	1.0	81.0	3.0																													a	1.0	0.35093903541599997	None	0.0	2.0	invertedtriangleblue.gif	go																								0.0	0.5139060020449999	0.000881910324097	0.350939035416	1.0	a	876.034723997																																	2015_Jul_07_1259	59.966430383100004	LearningTask	1	11	
206	-200.0	q	200.0																	1.0	0.0	1.0	0.0	20.0	2.0	82.0	1.0																													q	1.0	0.31749796867400004	None	0.0	4.0	trianglemagenta.gif	stop																								3.85	0.514795064926	0.0008831024169919999	0.317497968674	1.0	q	879.0384140010001																																	2015_Jul_07_1259	59.966430383100004	LearningTask	1	11	
207	-200.0	q	200.0																	1.0	0.0	1.0	0.0	20.0	3.0	83.0	1.0																													q	1.0	0.383814811707	None	0.0	4.0	diamondorange.gif	go																								0.0	0.514292955399	0.0008740425109860002	0.383814811707	1.0	q	882.0426640510001																																	2015_Jul_07_1259	59.966430383100004	LearningTask	1	11	
208	200.0	s	-200.0																	1.0	0.0	1.0	0.0	21.0	0.0	84.0	2.0																													s	1.0	0.45059800148	None	0.0	1.0	hexagonwhite.gif	go																								1.02	0.513534069061	0.00088095664978	0.45059800148	1.0	s	885.045125008																																	2015_Jul_07_1259	59.966430383100004	LearningTask	1	11	
209	200.0	s	-200.0																	1.0	0.0	1.0	0.0	21.0	1.0	85.0	2.0																													s	1.0	0.334232091904	None	0.0	2.0	crossgray.gif	stop																								0.0	0.514232158661	0.00104904174805	0.334232091904	1.0	s	888.048305988																																	2015_Jul_07_1259	59.966430383100004	LearningTask	1	11	
210	200.0	w	200.0																	1.0	0.0	1.0	0.0	21.0	2.0	86.0	0.0																													w	1.0	0.333936929703	None	0.0	2.0	crossgray.gif	stop																								2.07	0.514419794083	0.000888824462891	0.333936929703	1.0	w	891.051800013																																	2015_Jul_07_1259	59.966430383100004	LearningTask	1	11	
211	-200.0	q	200.0																	1.0	0.0	1.0	0.0	21.0	3.0	87.0	1.0																													q	1.0	0.284050941467	None	0.0	1.0	squaregreen.gif	stop																								0.94	0.5144798755650001	0.00086784362793	0.284050941467	1.0	q	894.0552439689999																																	2015_Jul_07_1259	59.966430383100004	LearningTask	1	11	
212	200.0	s	-200.0																	1.0	0.0	1.0	0.0	22.0	0.0	88.0	2.0																													s	1.0	0.417968988419	None	0.0	4.0	trianglemagenta.gif	stop																								3.82	0.5138609409329999	0.0009357929229739999	0.417968988419	1.0	s	897.058650017																																	2015_Jul_07_1259	59.966430383100004	LearningTask	1	11	
213	200.0	w	200.0																	1.0	0.0	1.0	0.0	22.0	1.0	89.0	0.0																													w	1.0	0.35096502304099997	None	0.0	1.0	hexagonwhite.gif	go																								1.04	0.513922929764	0.00116801261902	0.350965023041	1.0	w	900.062014103																																	2015_Jul_07_1259	59.966430383100004	LearningTask	1	11	
214	200.0	s	-200.0																	1.0	0.0	1.0	0.0	22.0	2.0	90.0	2.0																													s	1.0	0.350969076157	None	0.0	2.0	crossgray.gif	stop																								0.0	0.5142228603360001	0.00092887878418	0.350969076157	1.0	s	903.066139936																																	2015_Jul_07_1259	59.966430383100004	LearningTask	1	11	
215	200.0	s	-200.0																	1.0	0.0	1.0	0.0	22.0	3.0	91.0	2.0																													s	1.0	0.38382315635700004	None	0.0	2.0	crossgray.gif	stop																								1.84	0.513539075851	0.0008912086486819999	0.383823156357	1.0	s	906.0687210560001																																	2015_Jul_07_1259	59.966430383100004	LearningTask	1	11	
216	200.0	s	-200.0																	1.0	0.0	1.0	0.0	23.0	0.0	92.0	2.0																													s	1.0	0.35083603858900003	None	0.0	0.5	linecyan.gif	stop																								0.67	0.5145690441130001	0.00087308883667	0.350836038589	1.0	s	909.072082043																																	2015_Jul_07_1259	59.966430383100004	LearningTask	1	11	
217	-200.0	a	-200.0																	1.0	0.0	1.0	0.0	23.0	1.0	93.0	3.0																													a	1.0	0.367677211761	None	0.0	0.5	linecyan.gif	stop																								0.75	0.514050006866	0.0009291172027589999	0.367677211761	1.0	a	912.07577014																																	2015_Jul_07_1259	59.966430383100004	LearningTask	1	11	
218	-200.0	a	-200.0																	1.0	0.0	1.0	0.0	23.0	2.0	94.0	3.0																													a	1.0	0.35109305381800004	None	0.0	2.0	invertedtriangleblue.gif	go																								1.78	0.513581991196	0.0008740425109860002	0.351093053818	1.0	a	915.078874111																																	2015_Jul_07_1259	59.966430383100004	LearningTask	1	11	
219	200.0	w	200.0																	1.0	0.0	1.0	0.0	23.0	3.0	95.0	0.0																													w	1.0	0.36742091178900005	None	0.0	1.0	squaregreen.gif	stop																								1.17	0.51429605484	0.000865936279297	0.367420911789	1.0	w	918.082098007																																	2015_Jul_07_1259	59.966430383100004	LearningTask	1	11	
220	-200.0	q	200.0																	1.0	0.0	1.0	0.0	24.0	0.0	96.0	1.0																													q	1.0	0.35144305229199996	None	0.0	4.0	trianglemagenta.gif	stop																								4.13	0.514451026917	0.00098991394043	0.351443052292	1.0	q	921.0858619210001																																	2015_Jul_07_1259	59.966430383100004	LearningTask	1	11	
221	-200.0	q	200.0																	1.0	0.0	1.0	0.0	24.0	1.0	97.0	1.0																													q	1.0	0.401061058044	None	0.0	0.5	linecyan.gif	stop																								0.73	0.513924837112	0.0008919239044189998	0.401061058044	1.0	q	924.0889499189999																																	2015_Jul_07_1259	59.966430383100004	LearningTask	1	11	
222	200.0	s	-200.0																	1.0	0.0	1.0	0.0	24.0	2.0	98.0	2.0																													s	1.0	0.367360830307	None	0.0	1.0	hexagonwhite.gif	go																								1.08	0.514257907867	0.000913143157959	0.367360830307	1.0	s	927.0922100539999																																	2015_Jul_07_1259	59.966430383100004	LearningTask	1	11	
223	-200.0	a	-200.0																	1.0	0.0	1.0	0.0	24.0	3.0	99.0	3.0																													a	1.0	0.317404985428	None	0.0	1.0	hexagonwhite.gif	go																								1.05	0.514166116714	0.0008840560913089999	0.317404985428	1.0	a	930.0957579610001																																	2015_Jul_07_1259	59.966430383100004	LearningTask	1	11	
224																				1.0	0.0	1.0	0.0																																																																														9.0	6.82151603699																								2015_Jul_07_1259	59.966430383100004	LearningTask	1	11	
225	200.0	s	-200.0																	2.0	0.0	2.0	0.0	0.0	0.0	0.0	2.0																													s	1.0	0.383673191071	None	0.0	4.0	trianglemagenta.gif	stop																								0.0	0.510151863098	0.0010130405426	0.383673191071	1.0	s	940.608238935																																	2015_Jul_07_1259	59.966430383100004	LearningTask	1	11	
226	-200.0	q	200.0																	2.0	0.0	2.0	0.0	0.0	1.0	1.0	1.0																													q	1.0	0.40116715431199995	None	0.0	2.0	crossgray.gif	stop																								1.94	0.513566017151	0.000867128372192	0.401167154312	1.0	q	943.61114502																																	2015_Jul_07_1259	59.966430383100004	LearningTask	1	11	
227	-200.0	a	-200.0																	2.0	0.0	2.0	0.0	0.0	2.0	2.0	3.0																													a	1.0	0.300514936447	None	0.0	1.0	squaregreen.gif	stop																								0.89	0.514199018478	0.0009109973907470001	0.300514936447	1.0	a	946.614792109																																	2015_Jul_07_1259	59.966430383100004	LearningTask	1	11	
228	-200.0	a	-200.0																	2.0	0.0	2.0	0.0	0.0	3.0	3.0	3.0																													a	1.0	0.333727121353	None	0.0	2.0	crossgray.gif	stop																								2.16	0.513829946518	0.0009360313415529999	0.333727121353	1.0	a	949.618129015																																	2015_Jul_07_1259	59.966430383100004	LearningTask	1	11	
229	200.0	s	-200.0																	2.0	0.0	2.0	0.0	1.0	0.0	4.0	2.0																													s	1.0	0.300650835037	None	0.0	1.0	squaregreen.gif	stop																								1.12	0.513756990433	0.000869035720825	0.300650835037	1.0	s	952.621093988																																	2015_Jul_07_1259	59.966430383100004	LearningTask	1	11	
230	200.0	w	200.0																	2.0	0.0	2.0	0.0	1.0	1.0	5.0	0.0																													w	1.0	0.367573022842	None	0.0	1.0	hexagonwhite.gif	go																								0.0	0.514075040817	0.000951051712036	0.367573022842	1.0	w	955.624247074																																	2015_Jul_07_1259	59.966430383100004	LearningTask	1	11	
231	-200.0	q	200.0																	2.0	0.0	2.0	0.0	1.0	2.0	6.0	1.0																													q	1.0	0.300355911255	None	0.0	2.0	invertedtriangleblue.gif	go																								0.0	0.514045953751	0.0009169578552250001	0.33464217186	0.0	a	958.627808094	2.1	0.515626192093	0.0009431838989260002	0.300355911255	1.0	q	961.631500006																										2015_Jul_07_1259	59.966430383100004	LearningTask	1	11	
232	200.0	s	-200.0																	2.0	0.0	2.0	0.0	1.0	3.0	7.0	2.0																													s	1.0	0.31766295433	None	0.0	4.0	trianglemagenta.gif	stop																								4.25	0.513560056686	0.000917911529541	0.31766295433	1.0	s	964.634819031																																	2015_Jul_07_1259	59.966430383100004	LearningTask	1	11	
233	200.0	w	200.0																	2.0	0.0	2.0	0.0	2.0	0.0	8.0	0.0																													w	1.0	0.417407035828	None	0.0	1.0	hexagonwhite.gif	go																								0.81	0.5137138366699999	0.000890016555786	0.417407035828	1.0	w	967.6378791330001																																	2015_Jul_07_1259	59.966430383100004	LearningTask	1	11	
234	-200.0	q	200.0																	2.0	0.0	2.0	0.0	2.0	1.0	9.0	1.0																													q	1.0	0.26736497879	None	0.0	0.5	circleyellow.gif	go																								0.71	0.514451026917	0.0009069442749019998	0.26736497879	1.0	q	970.641214132																																	2015_Jul_07_1259	59.966430383100004	LearningTask	1	11	
235	-200.0	q	200.0																	2.0	0.0	2.0	0.0	2.0	2.0	10.0	1.0																													q	1.0	0.451553106308	None	0.0	4.0	trianglemagenta.gif	stop																								3.75	0.514132976532	0.000877141952515	0.451553106308	1.0	q	973.645079136																																	2015_Jul_07_1259	59.966430383100004	LearningTask	1	11	
236	200.0	s	-200.0																	2.0	0.0	2.0	0.0	2.0	3.0	11.0	2.0																													s	1.0	0.384051084518	None	0.0	1.0	hexagonwhite.gif	go																								0.0	0.513798952103	0.0008909702301030001	0.384051084518	1.0	s	976.648309946																																	2015_Jul_07_1259	59.966430383100004	LearningTask	1	11	
237	-200.0	a	-200.0																	2.0	0.0	2.0	0.0	3.0	0.0	12.0	3.0																													a	1.0	0.384259939194	None	0.0	0.5	circleyellow.gif	go																								0.44	0.513954877853	0.000918865203857	0.384259939194	1.0	a	979.6514630319999																																	2015_Jul_07_1259	59.966430383100004	LearningTask	1	11	
238	200.0	s	-200.0																	2.0	0.0	2.0	0.0	3.0	1.0	13.0	2.0																													s	1.0	0.384651899338	None	0.0	2.0	crossgray.gif	stop																								2.03	0.514116048813	0.00088095664978	0.384651899338	1.0	s	982.6548030380001																																	2015_Jul_07_1259	59.966430383100004	LearningTask	1	11	
239	-200.0	a	-200.0																	2.0	0.0	2.0	0.0	3.0	2.0	14.0	3.0																													a	1.0	0.401128053665	None	0.0	4.0	diamondorange.gif	go																								3.81	0.514236211777	0.00119805335999	0.401128053665	1.0	a	985.658030987																																	2015_Jul_07_1259	59.966430383100004	LearningTask	1	11	
240	-200.0	q	200.0																	2.0	0.0	2.0	0.0	3.0	3.0	15.0	1.0																													q	1.0	0.450882911682	None	0.0	1.0	squaregreen.gif	stop																								1.15	0.514808893204	0.00110006332397	0.450882911682	1.0	q	988.661935091																																	2015_Jul_07_1259	59.966430383100004	LearningTask	1	11	
241	-200.0	a	-200.0																	2.0	0.0	2.0	0.0	4.0	0.0	16.0	3.0																													a	1.0	0.401059150696	None	0.0	1.0	squaregreen.gif	stop																								1.02	0.5140600204469999	0.0008680820465089999	0.401059150696	1.0	a	991.6653299330001																																	2015_Jul_07_1259	59.966430383100004	LearningTask	1	11	
242	200.0	s	-200.0																	2.0	0.0	2.0	0.0	4.0	1.0	17.0	2.0																													s	1.0	0.801388978958	None	0.0	2.0	invertedtriangleblue.gif	go																								2.18	0.513724088669	0.0009241104125980002	0.801388978958	1.0	s	994.668383121																																	2015_Jul_07_1259	59.966430383100004	LearningTask	1	11	
243	200.0	w	200.0																	2.0	0.0	2.0	0.0	4.0	2.0	18.0	0.0																													w	1.0	0.350811004639	None	0.0	1.0	hexagonwhite.gif	go																								0.87	0.514013051987	0.000968217849731	0.350811004639	1.0	w	997.6715600489999																																	2015_Jul_07_1259	59.966430383100004	LearningTask	1	11	
244	200.0	w	200.0																	2.0	0.0	2.0	0.0	4.0	3.0	19.0	0.0																													w	1.0	0.35073304176299996	None	0.0	0.5	circleyellow.gif	go																								0.75	0.51479101181	0.0008718967437739999	0.350733041763	1.0	w	1000.67501092																																	2015_Jul_07_1259	59.966430383100004	LearningTask	1	11	
245	200.0	s	-200.0																	2.0	0.0	2.0	0.0	5.0	0.0	20.0	2.0																													s	1.0	0.400945901871	None	0.0	4.0	diamondorange.gif	go																								0.0	0.514223098755	0.0009360313415529999	0.400945901871	1.0	s	1003.67861199																																	2015_Jul_07_1259	59.966430383100004	LearningTask	1	11	
246	-200.0	a	-200.0																	2.0	0.0	2.0	0.0	5.0	1.0	21.0	3.0																													a	1.0	0.46767497062700003	None	0.0	1.0	hexagonwhite.gif	go																								1.22	0.5136299133300001	0.00103497505188	0.467674970627	1.0	a	1006.68190098																																	2015_Jul_07_1259	59.966430383100004	LearningTask	1	11	
247	200.0	w	200.0																	2.0	0.0	2.0	0.0	5.0	2.0	22.0	0.0																													w	1.0	0.400701999664	None	0.0	4.0	trianglemagenta.gif	stop																								4.09	0.514165878296	0.00087308883667	0.400701999664	1.0	w	1009.68520308																																	2015_Jul_07_1259	59.966430383100004	LearningTask	1	11	
248	200.0	s	-200.0																	2.0	0.0	2.0	0.0	5.0	3.0	23.0	2.0																													s	1.0	0.784039974213	None	0.0	2.0	invertedtriangleblue.gif	go																								0.0	0.514313936234	0.00087308883667	0.784039974213	1.0	s	1012.68902302																																	2015_Jul_07_1259	59.966430383100004	LearningTask	1	11	
249	200.0	w	200.0																	2.0	0.0	2.0	0.0	6.0	0.0	24.0	0.0																													w	1.0	0.367389202118	None	0.0	0.5	circleyellow.gif	go																								0.37	0.513360023499	0.00088906288147	0.367389202118	1.0	w	1015.69243002																																	2015_Jul_07_1259	59.966430383100004	LearningTask	1	11	
250	200.0	w	200.0																	2.0	0.0	2.0	0.0	6.0	1.0	25.0	0.0																													w	1.0	0.368160009384	None	0.0	1.0	hexagonwhite.gif	go																								0.0	0.513611078262	0.0009191036224369998	0.368160009384	1.0	w	1018.69582605																																	2015_Jul_07_1259	59.966430383100004	LearningTask	1	11	
251	200.0	w	200.0																	2.0	0.0	2.0	0.0	6.0	2.0	26.0	0.0																													w	1.0	0.33400487899799997	None	0.0	1.0	hexagonwhite.gif	go																								0.88	0.514134883881	0.0008780956268310002	0.334004878998	1.0	w	1021.69889092																																	2015_Jul_07_1259	59.966430383100004	LearningTask	1	11	
252	-200.0	q	200.0																	2.0	0.0	2.0	0.0	6.0	3.0	27.0	1.0																													q	1.0	0.368043899536	None	0.0	2.0	invertedtriangleblue.gif	go																								1.81	0.513803005219	0.000877141952515	0.368043899536	1.0	q	1024.70212603																																	2015_Jul_07_1259	59.966430383100004	LearningTask	1	11	
253	200.0	w	200.0																	2.0	0.0	2.0	0.0	7.0	0.0	28.0	0.0																													w	1.0	0.367264986038	None	0.0	1.0	squaregreen.gif	stop																								0.0	0.514500141144	0.000888109207153	0.367264986038	1.0	w	1027.70532799																																	2015_Jul_07_1259	59.966430383100004	LearningTask	1	11	
254	-200.0	q	200.0																	2.0	0.0	2.0	0.0	7.0	1.0	29.0	1.0																													q	1.0	0.38477897644000003	None	0.0	2.0	crossgray.gif	stop																								1.91	0.514499902725	0.0008769035339360002	0.38477897644	1.0	q	1030.70897913																																	2015_Jul_07_1259	59.966430383100004	LearningTask	1	11	
255	200.0	w	200.0																	2.0	0.0	2.0	0.0	7.0	2.0	30.0	0.0																													w	1.0	0.367244958878	None	0.0	2.0	crossgray.gif	stop																								1.75	0.514220952988	0.00092601776123	0.367244958878	1.0	w	1033.71235609																																	2015_Jul_07_1259	59.966430383100004	LearningTask	1	11	
256	-200.0	a	-200.0																	2.0	0.0	2.0	0.0	7.0	3.0	31.0	3.0																													a	1.0	0.334095001221	None	0.0	1.0	squaregreen.gif	stop																								1.23	0.5138750076290001	0.000992059707642	0.334095001221	1.0	a	1036.71600509																																	2015_Jul_07_1259	59.966430383100004	LearningTask	1	11	
257	200.0	s	-200.0																	2.0	0.0	2.0	0.0	8.0	0.0	32.0	2.0																													s	1.0	0.417196989059	None	0.0	0.5	circleyellow.gif	go																								0.43	0.5142099857329999	0.0008780956268310002	0.417196989059	1.0	s	1039.71892095																																	2015_Jul_07_1259	59.966430383100004	LearningTask	1	11	
258	-200.0	a	-200.0																	2.0	0.0	2.0	0.0	8.0	1.0	33.0	3.0																													a	1.0	0.38401198387100005	None	0.0	4.0	diamondorange.gif	go																								3.94	0.514477968216	0.0009319782257080001	0.384011983871	1.0	a	1042.72222304																																	2015_Jul_07_1259	59.966430383100004	LearningTask	1	11	
259	-200.0	a	-200.0																	2.0	0.0	2.0	0.0	8.0	2.0	34.0	3.0																													a	1.0	0.35086894035300004	None	0.0	4.0	trianglemagenta.gif	stop																								4.11	0.5140960216520001	0.0009150505065920001	0.350868940353	1.0	a	1045.72556996																																	2015_Jul_07_1259	59.966430383100004	LearningTask	1	11	
260	-200.0	q	200.0																	2.0	0.0	2.0	0.0	8.0	3.0	35.0	1.0																													q	1.0	0.35063290596	None	0.0	1.0	hexagonwhite.gif	go																								0.0	0.51455116272	0.0008780956268310002	0.35063290596	1.0	q	1048.72898602																																	2015_Jul_07_1259	59.966430383100004	LearningTask	1	11	
261	200.0	s	-200.0																	2.0	0.0	2.0	0.0	9.0	0.0	36.0	2.0																													s	1.0	0.367103099823	None	0.0	4.0	trianglemagenta.gif	stop																								4.08	0.514610052109	0.000909090042114	0.367103099823	1.0	s	1051.73288894																																	2015_Jul_07_1259	59.966430383100004	LearningTask	1	11	
262	-200.0	q	200.0																	2.0	0.0	2.0	0.0	9.0	1.0	37.0	1.0																													q	1.0	0.350643873215	None	0.0	0.5	circleyellow.gif	go																								0.0	0.513590812683	0.0008878707885739998	0.36757183075	0.0	a	1054.73583794	0.26	0.515508174896	0.0009820461273189998	0.350643873215	1.0	q	1057.73938394																										2015_Jul_07_1259	59.966430383100004	LearningTask	1	11	
263	-200.0	q	200.0																	2.0	0.0	2.0	0.0	9.0	2.0	38.0	1.0																													q	1.0	0.43427705764799995	None	0.0	2.0	crossgray.gif	stop																								0.0	0.513784170151	0.0009031295776369999	0.434277057648	1.0	q	1060.74277902																																	2015_Jul_07_1259	59.966430383100004	LearningTask	1	11	
264	200.0	w	200.0																	2.0	0.0	2.0	0.0	9.0	3.0	39.0	0.0																													w	1.0	0.284004926682	None	0.0	1.0	hexagonwhite.gif	go																								0.0	0.513822078705	0.0008780956268310002	0.284004926682	1.0	w	1063.74579692																																	2015_Jul_07_1259	59.966430383100004	LearningTask	1	11	
265	-200.0	a	-200.0																	2.0	0.0	2.0	0.0	10.0	0.0	40.0	3.0																													a	1.0	0.35059690475500005	None	0.0	2.0	invertedtriangleblue.gif	go																								0.0	0.51465010643	0.0008761882781980001	0.350596904755	1.0	a	1066.74955297																																	2015_Jul_07_1259	59.966430383100004	LearningTask	1	11	
266	200.0	w	200.0																	2.0	0.0	2.0	0.0	10.0	1.0	41.0	0.0																													w	1.0	0.451403856277	None	0.0	0.5	linecyan.gif	stop																								0.26	0.5140600204469999	0.00088906288147	0.451403856277	1.0	w	1069.75271797																																	2015_Jul_07_1259	59.966430383100004	LearningTask	1	11	
267	200.0	w	200.0																	2.0	0.0	2.0	0.0	10.0	2.0	42.0	0.0																													w	1.0	0.433999061584	None	0.0	2.0	invertedtriangleblue.gif	go																								1.77	0.514452934265	0.0011849403381300001	0.433999061584	1.0	w	1072.75602102																																	2015_Jul_07_1259	59.966430383100004	LearningTask	1	11	
268	-200.0	a	-200.0																	2.0	0.0	2.0	0.0	10.0	3.0	43.0	3.0																													a	1.0	0.334046125412	None	0.0	1.0	hexagonwhite.gif	go																								0.0	0.5143928527830001	0.00109100341797	0.334046125412	1.0	a	1075.75949192																																	2015_Jul_07_1259	59.966430383100004	LearningTask	1	11	
269	200.0	s	-200.0																	2.0	0.0	2.0	0.0	11.0	0.0	44.0	2.0																													s	1.0	0.334131002426	None	0.0	1.0	squaregreen.gif	stop																								1.06	0.514241933823	0.0008759498596189999	0.334131002426	1.0	s	1078.7626071																																	2015_Jul_07_1259	59.966430383100004	LearningTask	1	11	
270	-200.0	a	-200.0																	2.0	0.0	2.0	0.0	11.0	1.0	45.0	3.0																													a	1.0	0.317494153976	None	0.0	1.0	squaregreen.gif	stop																								0.98	0.514307975769	0.00089693069458	0.317494153976	1.0	a	1081.76668096																																	2015_Jul_07_1259	59.966430383100004	LearningTask	1	11	
271	-200.0	q	200.0																	2.0	0.0	2.0	0.0	11.0	2.0	46.0	1.0																													q	1.0	0.584692955017	None	0.0	0.5	circleyellow.gif	go																								0.75	0.513430118561	0.000930070877075	0.584692955017	1.0	q	1084.76955795																																	2015_Jul_07_1259	59.966430383100004	LearningTask	1	11	
272	200.0	s	-200.0																	2.0	0.0	2.0	0.0	11.0	3.0	47.0	2.0																													s	1.0	0.45110201835600006	None	0.0	0.5	circleyellow.gif	go																								0.59	0.51442694664	0.0008680820465089999	0.451102018356	1.0	s	1087.77284503																																	2015_Jul_07_1259	59.966430383100004	LearningTask	1	11	
273	200.0	s	-200.0																	2.0	0.0	2.0	0.0	12.0	0.0	48.0	2.0																													s	1.0	0.350649833679	None	0.0	0.5	circleyellow.gif	go																								0.47	0.514324188232	0.000941038131714	0.350649833679	1.0	s	1090.77605796																																	2015_Jul_07_1259	59.966430383100004	LearningTask	1	11	
274	-200.0	a	-200.0																	2.0	0.0	2.0	0.0	12.0	1.0	49.0	3.0																													a	1.0	0.351303100586	None	0.0	1.0	hexagonwhite.gif	go																								0.87	0.5141050815579999	0.0009331703186039999	0.351303100586	1.0	a	1093.77957201																																	2015_Jul_07_1259	59.966430383100004	LearningTask	1	11	
275	-200.0	q	200.0																	2.0	0.0	2.0	0.0	12.0	2.0	50.0	1.0																													q	1.0	0.334180831909	None	0.0	4.0	diamondorange.gif	go																								3.92	0.5143718719479999	0.0008740425109860002	0.334180831909	1.0	q	1096.78276205																																	2015_Jul_07_1259	59.966430383100004	LearningTask	1	11	
276	-200.0	a	-200.0																	2.0	0.0	2.0	0.0	12.0	3.0	51.0	3.0																													a	1.0	0.36788988113399995	None	0.0	1.0	hexagonwhite.gif	go																								0.87	0.514811992645	0.000892162322998	0.367889881134	1.0	a	1099.78665709																																	2015_Jul_07_1259	59.966430383100004	LearningTask	1	11	
277	-200.0	q	200.0																	2.0	0.0	2.0	0.0	13.0	0.0	52.0	1.0																													q	1.0	0.350920915604	None	0.0	2.0	invertedtriangleblue.gif	go																								1.94	0.513789892197	0.0008831024169919999	0.350920915604	1.0	q	1102.79004312																																	2015_Jul_07_1259	59.966430383100004	LearningTask	1	11	
278	200.0	s	-200.0																	2.0	0.0	2.0	0.0	13.0	1.0	53.0	2.0																													s	1.0	0.35109400749200004	None	0.0	2.0	invertedtriangleblue.gif	go																								2.05	0.513975858688	0.000881910324097	0.351094007492	1.0	s	1105.79375911																																	2015_Jul_07_1259	59.966430383100004	LearningTask	1	11	
279	200.0	s	-200.0																	2.0	0.0	2.0	0.0	13.0	2.0	54.0	2.0																													s	1.0	0.401260137558	None	0.0	4.0	trianglemagenta.gif	stop																								3.89	0.5136299133300001	0.0008878707885739998	0.401260137558	1.0	s	1108.79682207																																	2015_Jul_07_1259	59.966430383100004	LearningTask	1	11	
280	200.0	s	-200.0																	2.0	0.0	2.0	0.0	13.0	3.0	55.0	2.0																													s	1.0	0.367738008499	None	0.0	4.0	diamondorange.gif	go																								4.05	0.513894081116	0.0009031295776369999	0.367738008499	1.0	s	1111.80021501																																	2015_Jul_07_1259	59.966430383100004	LearningTask	1	11	
281	-200.0	q	200.0																	2.0	0.0	2.0	0.0	14.0	0.0	56.0	1.0																													q	1.0	0.367097139359	None	0.0	2.0	crossgray.gif	stop																								1.84	0.514285087585	0.000931024551392	0.367097139359	1.0	q	1114.80354309																																	2015_Jul_07_1259	59.966430383100004	LearningTask	1	11	
282	-200.0	a	-200.0																	2.0	0.0	2.0	0.0	14.0	1.0	57.0	3.0																													a	1.0	0.48444700241099997	None	0.0	0.5	linecyan.gif	stop																								0.0	0.514368057251	0.000871181488037	0.484447002411	1.0	a	1117.80673099																																	2015_Jul_07_1259	59.966430383100004	LearningTask	1	11	
283	200.0	w	200.0																	2.0	0.0	2.0	0.0	14.0	2.0	58.0	0.0																													w	1.0	0.317363977432	None	0.0	1.0	hexagonwhite.gif	go																								0.82	0.514508962631	0.0008749961853029999	0.317363977432	1.0	w	1120.80991006																																	2015_Jul_07_1259	59.966430383100004	LearningTask	1	11	
284	200.0	s	-200.0																	2.0	0.0	2.0	0.0	14.0	3.0	59.0	2.0																													s	1.0	0.31751704216	None	0.0	1.0	squaregreen.gif	stop																								1.1	0.514364004135	0.00100207328796	0.31751704216	1.0	s	1123.8132080999999																																	2015_Jul_07_1259	59.966430383100004	LearningTask	1	11	
285	200.0	w	200.0																	2.0	0.0	2.0	0.0	15.0	0.0	60.0	0.0																													w	1.0	0.40044593810999995	None	0.0	2.0	crossgray.gif	stop																								1.78	0.514523983002	0.0009758472442630001	0.40044593811	1.0	w	1126.81697798																																	2015_Jul_07_1259	59.966430383100004	LearningTask	1	11	
286	200.0	s	-200.0																	2.0	0.0	2.0	0.0	15.0	1.0	61.0	2.0																													s	1.0	0.301414966583	None	0.0	1.0	squaregreen.gif	stop																								0.94	0.5141940116879999	0.0009200572967529999	0.301414966583	1.0	s	1129.82016993																																	2015_Jul_07_1259	59.966430383100004	LearningTask	1	11	
287	200.0	w	200.0																	2.0	0.0	2.0	0.0	15.0	2.0	62.0	0.0																													w	1.0	0.350718021393	None	0.0	4.0	diamondorange.gif	go																								0.0	0.514133214951	0.000912189483643	0.350718021393	1.0	w	1132.823915																																	2015_Jul_07_1259	59.966430383100004	LearningTask	1	11	
288	200.0	w	200.0																	2.0	0.0	2.0	0.0	15.0	3.0	63.0	0.0																													w	1.0	0.38482499122599995	None	0.0	4.0	trianglemagenta.gif	stop																								3.84	0.513480901718	0.000922918319702	0.384824991226	1.0	w	1135.82707405																																	2015_Jul_07_1259	59.966430383100004	LearningTask	1	11	
289	-200.0	a	-200.0																	2.0	0.0	2.0	0.0	16.0	0.0	64.0	3.0																													a	1.0	0.351421117783	None	0.0	4.0	trianglemagenta.gif	stop																								3.78	0.513877868652	0.0008897781372069999	0.351421117783	1.0	a	1138.83056593																																	2015_Jul_07_1259	59.966430383100004	LearningTask	1	11	
