	xPos	corrAns	yPos	corrGoResp	yPosGoStim	xPosGoStim	pracTrials.thisRepN	pracTrials.thisTrialN	pracTrials.thisN	pracTrials.thisIndex	ReDoLoopPrac.thisRepN	ReDoLoopPrac.thisTrialN	ReDoLoopPrac.thisN	ReDoLoopPrac.thisIndex	ReDoLoopPrac.thisTrial	pracStopTrials.thisRepN	pracStopTrials.thisTrialN	pracStopTrials.thisN	pracStopTrials.thisIndex	Blocks.thisRepN	Blocks.thisTrialN	Blocks.thisN	Blocks.thisIndex	trials.thisRepN	trials.thisTrialN	trials.thisN	trials.thisIndex	ReDoLoopMain.thisRepN	ReDoLoopMain.thisTrialN	ReDoLoopMain.thisN	ReDoLoopMain.thisIndex	ReDoLoopMain.thisTrial	StopBlocks.thisRepN	StopBlocks.thisTrialN	StopBlocks.thisN	StopBlocks.thisIndex	StopTrials.thisRepN	StopTrials.thisTrialN	StopTrials.thisN	StopTrials.thisIndex	auctionBlocks.thisRepN	auctionBlocks.thisTrialN	auctionBlocks.thisN	auctionBlocks.thisIndex	auctionTrials.thisRepN	auctionTrials.thisTrialN	auctionTrials.thisN	auctionTrials.thisIndex	learningTrialList	learningPracTrialList	stopTrialList	stopPracTrialList	auctionTrialList	ok1.keys	ok1.rt	resp.keys	resp.corr	resp.rt	feedbackResp.keys	feedbackResp.corr	currentReward	currentStimulus	currentStimType	firstPracComputedRewardOutput	firstPracLearningStimOnset	firstPracLearningFixOnset	firstPracPresentationRT	firstPracPresentationAcc	firstPracPresentationResp	firstPracEndTrialTimeStamp	StartTrialTimeStamp	trialType	goStim	stimType	stopStimValue	goResp.keys	goResp.corr	goResp.rt	key_resp_9.keys	key_resp_9.corr	fixStopOnset	goStimOnset	stopSignalOnset	EndTrialTimeStamp	key_resp_3.keys	key_resp_3.rt	firstComputedRewardOutput	firstLearningStimOnset	firstLearningFixOnset	firstPresentationRT	firstPresentationAcc	firstPresentationResp	firstEndTrialTimeStamp	secondComputedRewardOutput	secondLearningStimOnset	secondLearningFixOnset	secondPresentationRT	secondPresentationAcc	secondPresentationResp	secondEndTrialTimeStamp	feedbackResp.rt	key_resp_7.keys	key_resp_7.rt	beginningSSD	EndingSSD	key_resp_9.rt	key_resp_4.keys	key_resp_4.rt	auctionResponse.keys	auctionResponse.rt	auctionStimDuration	auctionStim	auctionAmounts	auctionStimValue	auctionCondition	chosenAuctionAmount	key_resp_5.keys	key_resp_5.rt	shuffledRewardList	chosenReward1	chosenReward2	chosenReward3	chosenReward4	chosenReward5	key_resp_6.keys	key_resp_6.rt	date	frameRate	expName	session	participant	Unnamed: 131
0																																																	[]	[]	[]	[]	[]	9.0	39.096246957800005																																																																								2015_Jul_07_1048	59.9269327321	LearningTask	1	81	
1	-200.0	a	-200.0				0.0	0.0	0.0	7.0																																														a	1.0	0.618109941483	None	0.0	4.0	diamondgreen.gif	stop	4.01	0.500530958176	0.0280690193176	0.618109941483	1.0	a	109.13836216899999																																																									2015_Jul_07_1048	59.9269327321	LearningTask	1	81	
2	200.0	w	200.0				0.0	1.0	1.0	0.0																																														w	1.0	0.384361982346	None	0.0	4.0	diamondgreen.gif	stop	4.17	0.51438498497	0.00110816955566	0.384361982346	1.0	w	112.141339064																																																									2015_Jul_07_1048	59.9269327321	LearningTask	1	81	
3	-200.0	a	-200.0				0.0	2.0	2.0	3.0																																														a	1.0	0.43450689315800006	None	0.0	4.0	diamondgreen.gif	stop	0.0	0.514672040939	0.0010318756103500002	0.43450689315800006	1.0	a	115.14428401																																																									2015_Jul_07_1048	59.9269327321	LearningTask	1	81	
4	-200.0	q	200.0				0.0	3.0	3.0	9.0																																														q	1.0	0.46753597259499996	None	0.0	4.0	invertedtrianglemagenta.gif	go	0.0	0.515161991119	0.010388135909999999	0.46753597259499996	1.0	q	118.147844076																																																									2015_Jul_07_1048	59.9269327321	LearningTask	1	81	
5	200.0	s	-200.0				0.0	4.0	4.0	2.0																																														s	1.0	0.40106511116	None	0.0	4.0	invertedtrianglemagenta.gif	go	3.82	0.514876842499	0.0009019374847410001	0.40106511116	1.0	s	121.15133214																																																									2015_Jul_07_1048	59.9269327321	LearningTask	1	81	
6	200.0	w	200.0				0.0	5.0	5.0	8.0																																														w	1.0	0.417562007904	None	0.0	0.5	trianglegray.gif	go	0.42	0.514947891235	0.015190839767499999	0.417562007904	1.0	w	124.15448403399999																																																									2015_Jul_07_1048	59.9269327321	LearningTask	1	81	
7	-200.0	q	200.0				0.0	6.0	6.0	5.0																																														q	1.0	0.417933940887	None	0.0	0.5	lineblue.gif	stop	0.37	0.515386104584	0.0301930904388	0.417933940887	1.0	q	127.157645226																																																									2015_Jul_07_1048	59.9269327321	LearningTask	1	81	
8	200.0	w	200.0				0.0	7.0	7.0	4.0																																														w	1.0	0.43408799171400003	None	0.0	1.0	squarecyan.gif	stop	0.86	0.5153310298920001	0.0203528404236	0.43408799171400003	1.0	w	130.161155224																																																									2015_Jul_07_1048	59.9269327321	LearningTask	1	81	
9	200.0	s	-200.0				0.0	8.0	8.0	6.0																																														s	1.0	0.45084118843099996	None	0.0	0.5	trianglegray.gif	go	0.61	0.515216827393	0.0009148120880130001	0.45084118843099996	1.0	s	133.16479706799998																																																									2015_Jul_07_1048	59.9269327321	LearningTask	1	81	
10	-200.0	q	200.0				0.0	9.0	9.0	1.0																																														q	1.0	0.41746187210100005	None	0.0	1.0	squarecyan.gif	stop	1.25	0.514943122864	0.0008971691131589999	0.41746187210100005	1.0	q	136.167745113																																																									2015_Jul_07_1048	59.9269327321	LearningTask	1	81	
11				z	0.0	-200.0										0.0	0.0	0.0	0.0																																																				177.65074109999998	stop	diamondgreen.gif	stop	4.0	z	1.0	0.300889015198	None	0.0	0.0012850761413599999	0.5120830535890001	0.7627079486849999	180.65089201900003																																											2015_Jul_07_1048	59.9269327321	LearningTask	1	81	
12				z	0.0	-200.0										0.0	1.0	1.0	0.0																																																				180.651307106	go	hexagonwhite.gif	go	1.0	z	1.0	0.651522159576	None	0.0	0.126726150513	0.515387058258		183.65400219																																											2015_Jul_07_1048	59.9269327321	LearningTask	1	81	
13				z	0.0	-200.0										1.0	0.0	2.0	0.0																																																				183.65436005599997	go	invertedtrianglemagenta.gif	go	4.0	z	1.0	0.5176408290860001	None	0.0	0.0009570121765139998	0.515934944153		186.657466173																																											2015_Jul_07_1048	59.9269327321	LearningTask	1	81	
14				m	0.0	200.0										1.0	1.0	3.0	1.0																																																				186.65809321400002	stop	diamondgreen.gif	stop	4.0	m	1.0	0.684545993805	None	0.0	0.000978231430054	0.515188217163	0.765728235245	189.66082716																																											2015_Jul_07_1048	59.9269327321	LearningTask	1	81	
15				z	0.0	-200.0										2.0	0.0	4.0	0.0																																																				189.66123104099998	go	invertedtrianglemagenta.gif	go	4.0	z	1.0	0.5508210659030001	None	0.0	0.0011210441589400001	0.515826940536		192.664077044																																											2015_Jul_07_1048	59.9269327321	LearningTask	1	81	
16				m	0.0	200.0										2.0	1.0	5.0	1.0																																																				192.664455175	go	circleyellow.gif	go	2.0	m	1.0	0.584452152252	None	0.0	0.0175158977509	0.5159778594969999		195.66772913900002																																											2015_Jul_07_1048	59.9269327321	LearningTask	1	81	
17				m	0.0	200.0										3.0	0.0	6.0	1.0																																																				195.668169022	go	circleyellow.gif	go	2.0	m	1.0	0.617587089539	None	0.0	0.0009820461273189998	0.515403985977		198.670805216																																											2015_Jul_07_1048	59.9269327321	LearningTask	1	81	
18				z	0.0	-200.0										3.0	1.0	7.0	0.0																																																				198.67121005099997	go	invertedtrianglemagenta.gif	go	4.0	z	1.0	0.601542949677	None	0.0	0.00101804733276	0.5157170295719999		201.67402100599998																																											2015_Jul_07_1048	59.9269327321	LearningTask	1	81	
19				m	0.0	200.0										4.0	0.0	8.0	1.0																																																				201.67440319099998	go	trianglegray.gif	go	0.5	m	1.0	0.867990016937	None	0.0	0.0009820461273189998	0.516009092331		204.677485228																																											2015_Jul_07_1048	59.9269327321	LearningTask	1	81	
20				m	0.0	200.0										4.0	1.0	9.0	1.0																																																				204.678066015	go	circleyellow.gif	go	2.0	m	1.0	0.651170015335	None	0.0	0.00101709365845	0.515676021576		207.68101716																																											2015_Jul_07_1048	59.9269327321	LearningTask	1	81	
21																																																																																					9.0	60.5225379467																																									2015_Jul_07_1048	59.9269327321	LearningTask	1	81	
22																																																						9.0	7.8249771595																																																																								2015_Jul_07_1048	59.9269327321	LearningTask	1	81	
23	-200.0	q	200.0																	0.0	0.0	0.0	0.0	0.0	0.0	0.0	1.0																													q	1.0	0.534265995026	None	0.0	2.0	crossorange.gif	stop																								2.19	0.515185117722	0.011239051818799998	0.534265995026	1.0	q	279.212112188																																		2015_Jul_07_1048	59.9269327321	LearningTask	1	81	
24	200.0	w	200.0																	0.0	0.0	0.0	0.0	0.0	1.0	1.0	0.0																													w	1.0	0.433953046799	None	0.0	1.0	squarecyan.gif	stop																								0.0	0.51398396492	0.0009148120880130001	0.433953046799	1.0	w	282.215001106																																		2015_Jul_07_1048	59.9269327321	LearningTask	1	81	
25	-200.0	a	-200.0																	0.0	0.0	0.0	0.0	0.0	2.0	2.0	3.0																													a	1.0	0.35092782974200004	None	0.0	2.0	circleyellow.gif	go																								2.16	0.514339923859	0.000962018966675	0.350927829742	1.0	a	285.218069077																																		2015_Jul_07_1048	59.9269327321	LearningTask	1	81	
26	200.0	s	-200.0																	0.0	0.0	0.0	0.0	0.0	3.0	3.0	2.0																													s	1.0	0.38391709327699997	None	0.0	4.0	invertedtrianglemagenta.gif	go																								3.92	0.514706134796	0.000907182693481	0.383917093277	1.0	s	288.22163105																																		2015_Jul_07_1048	59.9269327321	LearningTask	1	81	
27	-200.0	q	200.0																	0.0	0.0	0.0	0.0	1.0	0.0	4.0	1.0																													q	1.0	0.417652130127	None	0.0	0.5	lineblue.gif	stop																								0.25	0.51441693306	0.000904083251953	0.417652130127	1.0	q	291.225455999																																		2015_Jul_07_1048	59.9269327321	LearningTask	1	81	
28	200.0	s	-200.0																	0.0	0.0	0.0	0.0	1.0	1.0	5.0	2.0																													s	1.0	0.350223064423	None	0.0	4.0	invertedtrianglemagenta.gif	go																								3.91	0.51437997818	0.00137591362	0.350223064423	1.0	s	294.228907108																																		2015_Jul_07_1048	59.9269327321	LearningTask	1	81	
29	200.0	w	200.0																	0.0	0.0	0.0	0.0	1.0	2.0	6.0	0.0																													w	1.0	0.417762994766	None	0.0	4.0	invertedtrianglemagenta.gif	go																								0.0	0.513611078262	0.0009250640869139999	0.417762994766	1.0	w	297.231666088																																		2015_Jul_07_1048	59.9269327321	LearningTask	1	81	
30	-200.0	q	200.0																	0.0	0.0	0.0	0.0	1.0	3.0	7.0	1.0																													q	1.0	0.5010759830470001	None	0.0	4.0	invertedtrianglemagenta.gif	go																								3.96	0.514437913895	0.0008869171142580001	0.501075983047	1.0	q	300.235239029																																		2015_Jul_07_1048	59.9269327321	LearningTask	1	81	
31	200.0	s	-200.0																	0.0	0.0	0.0	0.0	2.0	0.0	8.0	2.0																													s	1.0	0.384315013885	None	0.0	4.0	invertedtrianglemagenta.gif	go																								4.21	0.514074087143	0.0009069442749019998	0.384315013885	1.0	s	303.239019156																																		2015_Jul_07_1048	59.9269327321	LearningTask	1	81	
32	-200.0	a	-200.0																	0.0	0.0	0.0	0.0	2.0	1.0	9.0	3.0																													a	1.0	0.417553901672	None	0.0	0.5	trianglegray.gif	go																								0.71	0.513761043549	0.0009210109710689999	0.417553901672	1.0	a	306.241697073																																		2015_Jul_07_1048	59.9269327321	LearningTask	1	81	
33	200.0	s	-200.0																	0.0	0.0	0.0	0.0	2.0	2.0	10.0	2.0																													s	1.0	0.367557048798	None	0.0	4.0	invertedtrianglemagenta.gif	go																								3.94	0.514393091202	0.00088906288147	0.367557048798	1.0	s	309.245252132																																		2015_Jul_07_1048	59.9269327321	LearningTask	1	81	
34	200.0	w	200.0																	0.0	0.0	0.0	0.0	2.0	3.0	11.0	0.0																													w	1.0	0.38377904892	None	0.0	2.0	circleyellow.gif	go																								2.14	0.514471054077	0.0009100437164310001	0.38377904892	1.0	w	312.24901318599996																																		2015_Jul_07_1048	59.9269327321	LearningTask	1	81	
35	200.0	w	200.0																	0.0	0.0	0.0	0.0	3.0	0.0	12.0	0.0																													w	1.0	0.41713786125200003	None	0.0	2.0	circleyellow.gif	go																								0.0	0.5138010978700001	0.000930070877075	0.317255973816	0.0	s	315.25178504	0.0	0.5159101486209999	0.000991106033325	0.41713786125200003	1.0	w	318.255595207																											2015_Jul_07_1048	59.9269327321	LearningTask	1	81	
36	-200.0	a	-200.0																	0.0	0.0	0.0	0.0	3.0	1.0	13.0	3.0																													a	1.0	0.467790126801	None	0.0	0.5	trianglegray.gif	go																								0.51	0.514122009277	0.0009210109710689999	0.467790126801	1.0	a	321.258517027																																		2015_Jul_07_1048	59.9269327321	LearningTask	1	81	
37	200.0	w	200.0																	0.0	0.0	0.0	0.0	3.0	2.0	14.0	0.0																													w	1.0	0.40052914619400004	None	0.0	4.0	invertedtrianglemagenta.gif	go																								0.0	0.515048027039	0.000923871994019	0.400529146194	1.0	w	324.26227212																																		2015_Jul_07_1048	59.9269327321	LearningTask	1	81	
38	200.0	s	-200.0																	0.0	0.0	0.0	0.0	3.0	3.0	15.0	2.0																													s	1.0	0.533923864365	None	0.0	1.0	hexagonwhite.gif	go																								0.83	0.514295101166	0.0009450912475589999	0.533923864365	1.0	s	327.265082121																																		2015_Jul_07_1048	59.9269327321	LearningTask	1	81	
39	-200.0	a	-200.0																	0.0	0.0	0.0	0.0	4.0	0.0	16.0	3.0																													a	1.0	0.41785192489600004	None	0.0	1.0	squarecyan.gif	stop																								0.78	0.514480113983	0.0010321140289299999	0.417851924896	1.0	a	330.268592119																																		2015_Jul_07_1048	59.9269327321	LearningTask	1	81	
40	-200.0	q	200.0																	0.0	0.0	0.0	0.0	4.0	1.0	17.0	1.0																													q	1.0	0.45110201835600006	None	0.0	4.0	diamondgreen.gif	stop																								0.0	0.5142099857329999	0.0009629726409910001	0.451102018356	1.0	q	333.272014141																																		2015_Jul_07_1048	59.9269327321	LearningTask	1	81	
41	200.0	w	200.0																	0.0	0.0	0.0	0.0	4.0	2.0	18.0	0.0																													w	1.0	0.40068888664200003	None	0.0	0.5	lineblue.gif	stop																								0.72	0.5142610073089999	0.00093412399292	0.400688886642	1.0	w	336.275387049																																		2015_Jul_07_1048	59.9269327321	LearningTask	1	81	
42	-200.0	q	200.0																	0.0	0.0	0.0	0.0	4.0	3.0	19.0	1.0																													q	1.0	0.401762008667	None	0.0	0.5	trianglegray.gif	go																								0.75	0.514107942581	0.0008959770202639998	0.401762008667	1.0	q	339.278836012																																		2015_Jul_07_1048	59.9269327321	LearningTask	1	81	
43	200.0	w	200.0																	0.0	0.0	0.0	0.0	5.0	0.0	20.0	0.0																													w	1.0	0.45046687126199997	None	0.0	4.0	diamondgreen.gif	stop																								4.12	0.514512062073	0.0009739398956299999	0.450466871262	1.0	w	342.282209158																																		2015_Jul_07_1048	59.9269327321	LearningTask	1	81	
44	200.0	w	200.0																	0.0	0.0	0.0	0.0	5.0	1.0	21.0	0.0																													w	1.0	0.367453098297	None	0.0	2.0	circleyellow.gif	go																								1.81	0.5139930248260001	0.0009291172027589999	0.367453098297	1.0	w	345.28515005099996																																		2015_Jul_07_1048	59.9269327321	LearningTask	1	81	
45	-200.0	q	200.0																	0.0	0.0	0.0	0.0	5.0	2.0	22.0	1.0																													q	1.0	0.43423700332599996	None	0.0	2.0	circleyellow.gif	go																								2.15	0.514468193054	0.000922203063965	0.434237003326	1.0	q	348.288787127																																		2015_Jul_07_1048	59.9269327321	LearningTask	1	81	
46	200.0	w	200.0																	0.0	0.0	0.0	0.0	5.0	3.0	23.0	0.0																													w	1.0	0.38397598266599997	None	0.0	0.5	lineblue.gif	stop																								0.0	0.514348983765	0.000970125198364	0.383975982666	1.0	w	351.29263711																																		2015_Jul_07_1048	59.9269327321	LearningTask	1	81	
47	-200.0	a	-200.0																	0.0	0.0	0.0	0.0	6.0	0.0	24.0	3.0																													a	1.0	0.46807217598000006	None	0.0	1.0	squarecyan.gif	stop																								0.83	0.5136308670040001	0.00088906288147	0.46807217598	1.0	a	354.29545116400004																																		2015_Jul_07_1048	59.9269327321	LearningTask	1	81	
48	200.0	s	-200.0																	0.0	0.0	0.0	0.0	6.0	1.0	25.0	2.0																													s	1.0	0.40095090866099997	None	0.0	2.0	crossorange.gif	stop																								1.9	0.5137541294100001	0.00103402137756	0.400950908661	1.0	s	357.298991203																																		2015_Jul_07_1048	59.9269327321	LearningTask	1	81	
49	200.0	w	200.0																	0.0	0.0	0.0	0.0	6.0	2.0	26.0	0.0																													w	1.0	0.383898973465	None	0.0	2.0	circleyellow.gif	go																								2.12	0.514039039612	0.000923871994019	0.383898973465	1.0	w	360.30232405699996																																		2015_Jul_07_1048	59.9269327321	LearningTask	1	81	
50	-200.0	q	200.0																	0.0	0.0	0.0	0.0	6.0	3.0	27.0	1.0																													q	1.0	0.43417501449600004	None	0.0	4.0	diamondgreen.gif	stop																								4.15	0.514180183411	0.00103712081909	0.434175014496	1.0	q	363.305397034																																		2015_Jul_07_1048	59.9269327321	LearningTask	1	81	
51	-200.0	a	-200.0																	0.0	0.0	0.0	0.0	7.0	0.0	28.0	3.0																													a	1.0	0.417497873306	None	0.0	1.0	hexagonwhite.gif	go																								1.15	0.514671802521	0.000995874404907	0.417497873306	1.0	a	366.30939412099997																																		2015_Jul_07_1048	59.9269327321	LearningTask	1	81	
52	200.0	w	200.0																	0.0	0.0	0.0	0.0	7.0	1.0	29.0	0.0																													w	1.0	0.317879915237	None	0.0	1.0	squarecyan.gif	stop																								1.24	0.513669967651	0.0009541511535639998	0.317879915237	1.0	w	369.312110186																																		2015_Jul_07_1048	59.9269327321	LearningTask	1	81	
53	200.0	s	-200.0																	0.0	0.0	0.0	0.0	7.0	2.0	30.0	2.0																													s	1.0	0.300656080246	None	0.0	1.0	squarecyan.gif	stop																								1.04	0.514003992081	0.00103712081909	0.300656080246	1.0	s	372.315862179																																		2015_Jul_07_1048	59.9269327321	LearningTask	1	81	
54	-200.0	a	-200.0																	0.0	0.0	0.0	0.0	7.0	3.0	31.0	3.0																													a	1.0	0.434678077698	None	0.0	1.0	squarecyan.gif	stop																								0.83	0.513369083405	0.0009291172027589999	0.434678077698	1.0	a	375.31898403199995																																		2015_Jul_07_1048	59.9269327321	LearningTask	1	81	
55	200.0	s	-200.0																	0.0	0.0	0.0	0.0	8.0	0.0	32.0	2.0																													s	1.0	0.35081696510300003	None	0.0	1.0	hexagonwhite.gif	go																								0.87	0.514477014542	0.00090217590332	0.350816965103	1.0	s	378.32243418699994																																		2015_Jul_07_1048	59.9269327321	LearningTask	1	81	
56	-200.0	a	-200.0																	0.0	0.0	0.0	0.0	8.0	1.0	33.0	3.0																													a	1.0	0.41705799102799995	None	0.0	2.0	crossorange.gif	stop																								2.04	0.514116048813	0.000969886779785	0.417057991028	1.0	a	381.32560300800003																																		2015_Jul_07_1048	59.9269327321	LearningTask	1	81	
57	200.0	s	-200.0																	0.0	0.0	0.0	0.0	8.0	2.0	34.0	2.0																													s	1.0	0.417150020599	None	0.0	0.5	lineblue.gif	stop																								0.4	0.514500141144	0.0009670257568360001	0.417150020599	1.0	s	384.328943014																																		2015_Jul_07_1048	59.9269327321	LearningTask	1	81	
58	-200.0	a	-200.0																	0.0	0.0	0.0	0.0	8.0	3.0	35.0	3.0																													a	1.0	0.384593963623	None	0.0	2.0	crossorange.gif	stop																								1.9	0.514308929443	0.0009398460388180001	0.384593963623	1.0	a	387.332568169																																		2015_Jul_07_1048	59.9269327321	LearningTask	1	81	
59	-200.0	a	-200.0																	0.0	0.0	0.0	0.0	9.0	0.0	36.0	3.0																													a	1.0	0.367603063583	None	0.0	2.0	crossorange.gif	stop																								1.82	0.513588905334	0.000902891159058	0.367603063583	1.0	a	390.33590722099996																																		2015_Jul_07_1048	59.9269327321	LearningTask	1	81	
60	200.0	s	-200.0																	0.0	0.0	0.0	0.0	9.0	1.0	37.0	2.0																													s	1.0	0.367341995239	None	0.0	4.0	invertedtrianglemagenta.gif	go																								3.99	0.513325929642	0.00117993354797	0.367341995239	1.0	s	393.33906006800004																																		2015_Jul_07_1048	59.9269327321	LearningTask	1	81	
61	-200.0	q	200.0																	0.0	0.0	0.0	0.0	9.0	2.0	38.0	1.0																													q	1.0	0.334203958511	None	0.0	1.0	squarecyan.gif	stop																								0.83	0.514250040054	0.0009160041809079999	0.334203958511	1.0	q	396.342325211																																		2015_Jul_07_1048	59.9269327321	LearningTask	1	81	
62	200.0	s	-200.0																	0.0	0.0	0.0	0.0	9.0	3.0	39.0	2.0																													s	1.0	0.31715798378000004	None	0.0	0.5	trianglegray.gif	go																								0.54	0.5145690441130001	0.0009350776672360002	0.31715798378	1.0	s	399.346066236																																		2015_Jul_07_1048	59.9269327321	LearningTask	1	81	
63	200.0	s	-200.0																	0.0	0.0	0.0	0.0	10.0	0.0	40.0	2.0																													s	1.0	0.367598056793	None	0.0	0.5	trianglegray.gif	go																								0.63	0.513835906982	0.0009198188781739999	0.367598056793	1.0	s	402.34925723099997																																		2015_Jul_07_1048	59.9269327321	LearningTask	1	81	
64	-200.0	q	200.0																	0.0	0.0	0.0	0.0	10.0	1.0	41.0	1.0																													q	1.0	0.400875091553	None	0.0	1.0	squarecyan.gif	stop																								0.88	0.513741970062	0.00116515159607	0.400875091553	1.0	q	405.35273718800005																																		2015_Jul_07_1048	59.9269327321	LearningTask	1	81	
65	-200.0	a	-200.0																	0.0	0.0	0.0	0.0	10.0	2.0	42.0	3.0																													a	1.0	0.350650072098	None	0.0	0.5	lineblue.gif	stop																								0.39	0.514029026031	0.000902891159058	0.350650072098	1.0	a	408.355869055																																		2015_Jul_07_1048	59.9269327321	LearningTask	1	81	
66	-200.0	q	200.0																	0.0	0.0	0.0	0.0	10.0	3.0	43.0	1.0																													q	1.0	0.40068793296800004	None	0.0	0.5	lineblue.gif	stop																								0.0	0.514659166336	0.000907182693481	0.400687932968	1.0	q	411.35942411400003																																		2015_Jul_07_1048	59.9269327321	LearningTask	1	81	
67	200.0	s	-200.0																	0.0	0.0	0.0	0.0	11.0	0.0	44.0	2.0																													s	1.0	0.31752800941500003	None	0.0	2.0	circleyellow.gif	go																								1.75	0.514014005661	0.00109219551086	0.317528009415	1.0	s	414.362662077																																		2015_Jul_07_1048	59.9269327321	LearningTask	1	81	
68	-200.0	a	-200.0																	0.0	0.0	0.0	0.0	11.0	1.0	45.0	3.0																													a	1.0	0.417457103729	None	0.0	1.0	squarecyan.gif	stop																								1.14	0.513899087906	0.0011510848999000001	0.417457103729	1.0	a	417.365903139																																		2015_Jul_07_1048	59.9269327321	LearningTask	1	81	
69	200.0	s	-200.0																	0.0	0.0	0.0	0.0	11.0	2.0	46.0	2.0																													s	1.0	0.35113191604599997	None	0.0	0.5	trianglegray.gif	go																								0.0	0.514326095581	0.00103807449341	0.351131916046	1.0	s	420.369869232																																		2015_Jul_07_1048	59.9269327321	LearningTask	1	81	
70	200.0	w	200.0																	0.0	0.0	0.0	0.0	11.0	3.0	47.0	0.0																													w	1.0	0.384365797043	None	0.0	0.5	lineblue.gif	stop																								0.64	0.513310909271	0.000938892364502	0.384365797043	1.0	w	423.372690201																																		2015_Jul_07_1048	59.9269327321	LearningTask	1	81	
71	-200.0	q	200.0																	0.0	0.0	0.0	0.0	12.0	0.0	48.0	1.0																													q	1.0	0.38415408134499995	None	0.0	0.5	trianglegray.gif	go																								0.0	0.514256000519	0.0009200572967529999	0.384154081345	1.0	q	426.376035213																																		2015_Jul_07_1048	59.9269327321	LearningTask	1	81	
72	-200.0	a	-200.0																	0.0	0.0	0.0	0.0	12.0	1.0	49.0	3.0																													a	1.0	0.351090192795	None	0.0	1.0	hexagonwhite.gif	go																								0.75	0.51406288147	0.0009560585021970001	0.351090192795	1.0	a	429.379253149																																		2015_Jul_07_1048	59.9269327321	LearningTask	1	81	
73	200.0	s	-200.0																	0.0	0.0	0.0	0.0	12.0	2.0	50.0	2.0																													s	1.0	0.350407838821	None	0.0	0.5	lineblue.gif	stop																								0.0	0.5142009258269999	0.0010809898376500002	0.350407838821	1.0	s	432.38259220099997																																		2015_Jul_07_1048	59.9269327321	LearningTask	1	81	
74	200.0	w	200.0																	0.0	0.0	0.0	0.0	12.0	3.0	51.0	0.0																													w	1.0	0.40131807327299995	None	0.0	2.0	crossorange.gif	stop																								0.0	0.514273166656	0.0008950233459470001	0.401318073273	1.0	w	435.386253119																																		2015_Jul_07_1048	59.9269327321	LearningTask	1	81	
75	200.0	w	200.0																	0.0	0.0	0.0	0.0	13.0	0.0	52.0	0.0																													w	1.0	0.417573928833	None	0.0	4.0	diamondgreen.gif	stop																								3.8	0.5139260292050001	0.000908851623535	0.417573928833	1.0	w	438.389510155																																		2015_Jul_07_1048	59.9269327321	LearningTask	1	81	
76	200.0	s	-200.0																	0.0	0.0	0.0	0.0	13.0	1.0	53.0	2.0																													s	1.0	0.284546136856	None	0.0	4.0	invertedtrianglemagenta.gif	go																								0.0	0.514154911041	0.0009608268737789999	0.400454998016	0.0	a	441.392777205	0.0	0.515523910522	0.000962018966675	0.284546136856	1.0	s	444.396170139																											2015_Jul_07_1048	59.9269327321	LearningTask	1	81	
77	-200.0	a	-200.0																	0.0	0.0	0.0	0.0	13.0	2.0	54.0	3.0																													a	1.0	0.38380408287	None	0.0	4.0	diamondgreen.gif	stop																								3.94	0.514466047287	0.0008859634399410001	0.38380408287	1.0	a	447.399814129																																		2015_Jul_07_1048	59.9269327321	LearningTask	1	81	
78	200.0	w	200.0																	0.0	0.0	0.0	0.0	13.0	3.0	55.0	0.0																													w	1.0	0.367557048798	None	0.0	4.0	diamondgreen.gif	stop																								0.0	0.5137808322909999	0.0009109973907470001	0.367557048798	1.0	w	450.402856112																																		2015_Jul_07_1048	59.9269327321	LearningTask	1	81	
79	-200.0	q	200.0																	0.0	0.0	0.0	0.0	14.0	0.0	56.0	1.0																													q	1.0	0.351094961166	None	0.0	0.5	trianglegray.gif	go																								0.73	0.513947963715	0.000931024551392	0.351094961166	1.0	q	453.40627312699996																																		2015_Jul_07_1048	59.9269327321	LearningTask	1	81	
80	-200.0	a	-200.0																	0.0	0.0	0.0	0.0	14.0	1.0	57.0	3.0																													a	1.0	0.41766095161399996	None	0.0	4.0	diamondgreen.gif	stop																								0.0	0.514006137848	0.00115418434143	0.417660951614	1.0	a	456.40954613699995																																		2015_Jul_07_1048	59.9269327321	LearningTask	1	81	
81	200.0	s	-200.0																	0.0	0.0	0.0	0.0	14.0	2.0	58.0	2.0																													s	1.0	0.400871992111	None	0.0	4.0	invertedtrianglemagenta.gif	go																								3.84	0.514295816422	0.00116395950317	0.400871992111	1.0	s	459.41293501900003																																		2015_Jul_07_1048	59.9269327321	LearningTask	1	81	
82	-200.0	q	200.0																	0.0	0.0	0.0	0.0	14.0	3.0	59.0	1.0																													q	1.0	0.367792129517	None	0.0	2.0	circleyellow.gif	go																								2.22	0.514173030853	0.00102114677429	0.367792129517	1.0	q	462.41664910300005																																		2015_Jul_07_1048	59.9269327321	LearningTask	1	81	
83	200.0	w	200.0																	0.0	0.0	0.0	0.0	15.0	0.0	60.0	0.0																													w	1.0	0.384433984756	None	0.0	0.5	lineblue.gif	stop																								0.31	0.5137050151820001	0.000904083251953	0.384433984756	1.0	w	465.41954708099996																																		2015_Jul_07_1048	59.9269327321	LearningTask	1	81	
84	-200.0	q	200.0																	0.0	0.0	0.0	0.0	15.0	1.0	61.0	1.0																													q	1.0	0.417747020721	None	0.0	1.0	squarecyan.gif	stop																								0.0	0.514319181442	0.0010430812835700001	0.417747020721	1.0	q	468.42268014																																		2015_Jul_07_1048	59.9269327321	LearningTask	1	81	
85	200.0	w	200.0																	0.0	0.0	0.0	0.0	15.0	2.0	62.0	0.0																													w	1.0	0.417620897293	None	0.0	4.0	invertedtrianglemagenta.gif	go																								3.84	0.5145487785339999	0.0010888576507599999	0.417620897293	1.0	w	471.42624211300006																																		2015_Jul_07_1048	59.9269327321	LearningTask	1	81	
86	-200.0	q	200.0																	0.0	0.0	0.0	0.0	15.0	3.0	63.0	1.0																													q	1.0	0.35103797912600004	None	0.0	2.0	circleyellow.gif	go																								1.82	0.514400005341	0.0008869171142580001	0.351037979126	1.0	q	474.429560184																																		2015_Jul_07_1048	59.9269327321	LearningTask	1	81	
87	-200.0	a	-200.0																	0.0	0.0	0.0	0.0	16.0	0.0	64.0	3.0																													a	1.0	0.333956956863	None	0.0	1.0	hexagonwhite.gif	go																								1.25	0.5144820213319999	0.00125408172607	0.333956956863	1.0	a	477.432981014																																		2015_Jul_07_1048	59.9269327321	LearningTask	1	81	
88	-200.0	q	200.0																	0.0	0.0	0.0	0.0	16.0	1.0	65.0	1.0																													q	1.0	0.367338895798	None	0.0	1.0	squarecyan.gif	stop																								1.09	0.514194965363	0.000918865203857	0.367338895798	1.0	q	480.43617820699995																																		2015_Jul_07_1048	59.9269327321	LearningTask	1	81	
89	-200.0	a	-200.0																	0.0	0.0	0.0	0.0	16.0	2.0	66.0	3.0																													a	1.0	0.367356061935	None	0.0	1.0	squarecyan.gif	stop																								0.75	0.514743089676	0.00090217590332	0.367356061935	1.0	a	483.439536095																																		2015_Jul_07_1048	59.9269327321	LearningTask	1	81	
90	200.0	s	-200.0																	0.0	0.0	0.0	0.0	16.0	3.0	67.0	2.0																													s	1.0	0.48419213295	None	0.0	0.5	trianglegray.gif	go																								0.0	0.514971017838	0.0011570453643800001	0.48419213295	1.0	s	486.443240166																																		2015_Jul_07_1048	59.9269327321	LearningTask	1	81	
91	-200.0	a	-200.0																	0.0	0.0	0.0	0.0	17.0	0.0	68.0	3.0																													a	1.0	0.500827074051	None	0.0	0.5	trianglegray.gif	go																								0.73	0.513640880585	0.0009019374847410001	0.500827074051	1.0	a	489.446444035																																		2015_Jul_07_1048	59.9269327321	LearningTask	1	81	
92	200.0	s	-200.0																	0.0	0.0	0.0	0.0	17.0	1.0	69.0	2.0																													s	1.0	0.350969076157	None	0.0	2.0	circleyellow.gif	go																								1.81	0.51435303688	0.0008940696716310001	0.350969076157	1.0	s	492.45010709800005																																		2015_Jul_07_1048	59.9269327321	LearningTask	1	81	
93	-200.0	q	200.0																	0.0	0.0	0.0	0.0	17.0	2.0	70.0	1.0																													q	1.0	0.333844900131	None	0.0	1.0	squarecyan.gif	stop																								1.09	0.51425409317	0.0008950233459470001	0.333844900131	1.0	q	495.453482151																																		2015_Jul_07_1048	59.9269327321	LearningTask	1	81	
94	200.0	s	-200.0																	0.0	0.0	0.0	0.0	17.0	3.0	71.0	2.0																													s	1.0	0.400984048843	None	0.0	2.0	crossorange.gif	stop																								0.0	0.5138468742369999	0.00117993354797	0.400984048843	1.0	s	498.456675053																																		2015_Jul_07_1048	59.9269327321	LearningTask	1	81	
95	-200.0	q	200.0																	0.0	0.0	0.0	0.0	18.0	0.0	72.0	1.0																													q	1.0	0.350736856461	None	0.0	1.0	squarecyan.gif	stop																								1.14	0.5141041278840001	0.0008869171142580001	0.350736856461	1.0	q	501.45989418																																		2015_Jul_07_1048	59.9269327321	LearningTask	1	81	
96	200.0	w	200.0																	0.0	0.0	0.0	0.0	18.0	1.0	73.0	0.0																													w	1.0	0.38445687293999997	None	0.0	1.0	squarecyan.gif	stop																								1.14	0.514386892319	0.0008919239044189998	0.38445687294	1.0	w	504.46326112699995																																		2015_Jul_07_1048	59.9269327321	LearningTask	1	81	
97	-200.0	q	200.0																	0.0	0.0	0.0	0.0	18.0	2.0	74.0	1.0																													q	1.0	0.350489854813	None	0.0	0.5	lineblue.gif	stop																								0.6	0.51452088356	0.0008940696716310001	0.350489854813	1.0	q	507.466546059																																		2015_Jul_07_1048	59.9269327321	LearningTask	1	81	
98	200.0	w	200.0																	0.0	0.0	0.0	0.0	18.0	3.0	75.0	0.0																													w	1.0	0.366858005524	None	0.0	0.5	trianglegray.gif	go																								0.51	0.5147111415860001	0.00100898742676	0.366858005524	1.0	w	510.47018122699996																																		2015_Jul_07_1048	59.9269327321	LearningTask	1	81	
99	-200.0	a	-200.0																	0.0	0.0	0.0	0.0	19.0	0.0	76.0	3.0																													a	1.0	0.40061211585999995	None	0.0	0.5	lineblue.gif	stop																								0.0	0.514327049255	0.0008981227874760001	0.40061211586	1.0	a	513.473171234																																		2015_Jul_07_1048	59.9269327321	LearningTask	1	81	
100	200.0	s	-200.0																	0.0	0.0	0.0	0.0	19.0	1.0	77.0	2.0																													s	1.0	0.334212064743	None	0.0	0.5	lineblue.gif	stop																								0.0	0.514354944229	0.0009279251098630001	0.334212064743	1.0	s	516.476627111																																		2015_Jul_07_1048	59.9269327321	LearningTask	1	81	
101	200.0	w	200.0																	0.0	0.0	0.0	0.0	19.0	2.0	78.0	0.0																													w	1.0	0.367834091187	None	0.0	4.0	invertedtrianglemagenta.gif	go																								0.0	0.513889789581	0.000995874404907	0.367834091187	1.0	w	519.479930162																																		2015_Jul_07_1048	59.9269327321	LearningTask	1	81	
102	200.0	w	200.0																	0.0	0.0	0.0	0.0	19.0	3.0	79.0	0.0																													w	1.0	0.30112481117199996	None	0.0	0.5	lineblue.gif	stop																								0.0	0.514362096786	0.00107717514038	0.334095001221	0.0	s	522.483286142	0.44	0.515244960785	0.000965118408203	0.30112481117199996	1.0	w	525.486646175	0.443280220032																										2015_Jul_07_1048	59.9269327321	LearningTask	1	81	
103	-200.0	a	-200.0																	0.0	0.0	0.0	0.0	20.0	0.0	80.0	3.0																													a	1.0	0.38393783569300005	None	0.0	2.0	circleyellow.gif	go																								1.86	0.514419078827	0.000953912734985	0.383937835693	1.0	a	528.48995018																																		2015_Jul_07_1048	59.9269327321	LearningTask	1	81	
104	200.0	w	200.0																	0.0	0.0	0.0	0.0	20.0	1.0	81.0	0.0																													w	1.0	0.36772990226700003	None	0.0	1.0	hexagonwhite.gif	go																								1.24	0.514117002487	0.000923871994019	0.367729902267	1.0	w	531.493991137																																		2015_Jul_07_1048	59.9269327321	LearningTask	1	81	
105	-200.0	q	200.0																	0.0	0.0	0.0	0.0	20.0	2.0	82.0	1.0																													q	1.0	0.334511995316	None	0.0	1.0	hexagonwhite.gif	go																								0.94	0.5135068893429999	0.00089693069458	0.334511995316	1.0	q	534.4969680309999																																		2015_Jul_07_1048	59.9269327321	LearningTask	1	81	
106	-200.0	a	-200.0																	0.0	0.0	0.0	0.0	20.0	3.0	83.0	3.0																													a	1.0	0.417675018311	None	0.0	2.0	crossorange.gif	stop																								1.75	0.514117956161	0.000983953475952	0.417675018311	1.0	a	537.500435114																																		2015_Jul_07_1048	59.9269327321	LearningTask	1	81	
107	200.0	w	200.0																	0.0	0.0	0.0	0.0	21.0	0.0	84.0	0.0																													w	1.0	0.334244966507	None	0.0	4.0	diamondgreen.gif	stop																								3.95	0.514203071594	0.00089693069458	0.334244966507	1.0	w	540.5038750169999																																		2015_Jul_07_1048	59.9269327321	LearningTask	1	81	
108	-200.0	q	200.0																	0.0	0.0	0.0	0.0	21.0	1.0	85.0	1.0																													q	1.0	0.334203004837	None	0.0	1.0	squarecyan.gif	stop																								0.0	0.5134620666499999	0.00116515159607	0.334203004837	1.0	q	543.5076420309999																																		2015_Jul_07_1048	59.9269327321	LearningTask	1	81	
109	-200.0	a	-200.0																	0.0	0.0	0.0	0.0	21.0	2.0	86.0	3.0																													a	1.0	0.384346008301	None	0.0	0.5	lineblue.gif	stop																								0.35	0.5134239196779999	0.000926971435547	0.384346008301	1.0	a	546.510057211																																		2015_Jul_07_1048	59.9269327321	LearningTask	1	81	
110	200.0	s	-200.0																	0.0	0.0	0.0	0.0	21.0	3.0	87.0	2.0																													s	1.0	0.38414287567100003	None	0.0	1.0	hexagonwhite.gif	go																								1.12	0.514404058456	0.0009059906005860001	0.384142875671	1.0	s	549.513792038																																		2015_Jul_07_1048	59.9269327321	LearningTask	1	81	
111	200.0	s	-200.0																	0.0	0.0	0.0	0.0	22.0	0.0	88.0	2.0																													s	1.0	0.48401808738700003	None	0.0	0.5	lineblue.gif	stop																								0.35	0.514247894287	0.0009799003601070001	0.484018087387	1.0	s	552.517019033																																		2015_Jul_07_1048	59.9269327321	LearningTask	1	81	
112	-200.0	q	200.0																	0.0	0.0	0.0	0.0	22.0	1.0	89.0	1.0																													q	1.0	0.333992004395	None	0.0	1.0	squarecyan.gif	stop																								1.16	0.514235973358	0.0008838176727290001	0.333992004395	1.0	q	555.520123005																																		2015_Jul_07_1048	59.9269327321	LearningTask	1	81	
113	200.0	s	-200.0																	0.0	0.0	0.0	0.0	22.0	2.0	90.0	2.0																													s	1.0	0.450821876526	None	0.0	2.0	crossorange.gif	stop																								2.22	0.514750003815	0.00105786323547	0.450821876526	1.0	s	558.523940086																																		2015_Jul_07_1048	59.9269327321	LearningTask	1	81	
114	-200.0	q	200.0																	0.0	0.0	0.0	0.0	22.0	3.0	91.0	1.0																													q	1.0	0.35080718994099996	None	0.0	0.5	trianglegray.gif	go																								0.46	0.513907909393	0.0008950233459470001	0.350807189941	1.0	q	561.526925087																																		2015_Jul_07_1048	59.9269327321	LearningTask	1	81	
115	-200.0	a	-200.0																	0.0	0.0	0.0	0.0	23.0	0.0	92.0	3.0																													a	1.0	0.367658138275	None	0.0	1.0	hexagonwhite.gif	go																								1.25	0.514456987381	0.0012729167938199998	0.367658138275	1.0	a	564.530225039																																		2015_Jul_07_1048	59.9269327321	LearningTask	1	81	
116	200.0	s	-200.0																	0.0	0.0	0.0	0.0	23.0	1.0	93.0	2.0																													s	1.0	0.333955049515	None	0.0	0.5	trianglegray.gif	go																								0.4	0.514243125916	0.000977039337158	0.333955049515	1.0	s	567.533696175																																		2015_Jul_07_1048	59.9269327321	LearningTask	1	81	
117	200.0	w	200.0																	0.0	0.0	0.0	0.0	23.0	2.0	94.0	0.0																													w	1.0	0.35121202468900004	None	0.0	2.0	circleyellow.gif	go																								2.05	0.514383077621	0.0011570453643800001	0.351212024689	1.0	w	570.536861181																																		2015_Jul_07_1048	59.9269327321	LearningTask	1	81	
118	-200.0	q	200.0																	0.0	0.0	0.0	0.0	23.0	3.0	95.0	1.0																													q	1.0	0.350871086121	None	0.0	0.5	lineblue.gif	stop																								0.66	0.51433801651	0.000931024551392	0.350871086121	1.0	q	573.540344																																		2015_Jul_07_1048	59.9269327321	LearningTask	1	81	
119	-200.0	q	200.0																	0.0	0.0	0.0	0.0	24.0	0.0	96.0	1.0																													q	1.0	0.33371210098299997	None	0.0	0.5	lineblue.gif	stop																								0.68	0.5146160125729999	0.000923871994019	0.333712100983	1.0	q	576.543880224																																		2015_Jul_07_1048	59.9269327321	LearningTask	1	81	
120	-200.0	a	-200.0																	0.0	0.0	0.0	0.0	24.0	1.0	97.0	3.0																													a	1.0	0.400640964508	None	0.0	2.0	crossorange.gif	stop																								0.0	0.514235973358	0.0008950233459470001	0.400640964508	1.0	a	579.547045231																																		2015_Jul_07_1048	59.9269327321	LearningTask	1	81	
121	-200.0	a	-200.0																	0.0	0.0	0.0	0.0	24.0	2.0	98.0	3.0																													a	1.0	0.43503499031099996	None	0.0	4.0	invertedtrianglemagenta.gif	go																								4.07	0.513954162598	0.0009241104125980002	0.435034990311	1.0	a	582.55062604																																		2015_Jul_07_1048	59.9269327321	LearningTask	1	81	
122	200.0	w	200.0																	0.0	0.0	0.0	0.0	24.0	3.0	99.0	0.0																													w	1.0	0.333818912506	None	0.0	4.0	diamondgreen.gif	stop																								0.0	0.5140299797060001	0.0009119510650630002	0.333818912506	1.0	w	585.553787231																																		2015_Jul_07_1048	59.9269327321	LearningTask	1	81	
123																				0.0	0.0	0.0	0.0																																																																															9.0	46.7231068611																								2015_Jul_07_1048	59.9269327321	LearningTask	1	81	
124	200.0	w	200.0																	1.0	0.0	1.0	0.0	0.0	0.0	0.0	0.0																													w	1.0	0.350528001785	None	0.0	0.5	lineblue.gif	stop																								0.0	0.510149002075	0.00105690956116	[]	0.0	None	635.727466106	0.68	0.5145261287690001	0.00102615356445	0.350528001785	1.0	w	638.730379105	0.25797700882																										2015_Jul_07_1048	59.9269327321	LearningTask	1	81	
125	-200.0	a	-200.0																	1.0	0.0	1.0	0.0	0.0	1.0	1.0	3.0																													a	1.0	0.36765885353100003	None	0.0	1.0	hexagonwhite.gif	go																								0.85	0.514100074768	0.000977039337158	0.367658853531	1.0	a	641.733516216																																		2015_Jul_07_1048	59.9269327321	LearningTask	1	81	
126	-200.0	a	-200.0																	1.0	0.0	1.0	0.0	0.0	2.0	2.0	3.0																													a	1.0	0.33404898643500003	None	0.0	2.0	crossorange.gif	stop																								0.0	0.513845920563	0.0014009475707999998	0.367913007736	0.0	q	644.736608028	0.0	0.515463113785	0.00104808807373	0.33404898643500003	1.0	a	647.7399261																											2015_Jul_07_1048	59.9269327321	LearningTask	1	81	
127	-200.0	q	200.0																	1.0	0.0	1.0	0.0	0.0	3.0	3.0	1.0																													q	1.0	0.400882005692	None	0.0	0.5	trianglegray.gif	go																								0.0	0.5139939785000001	0.00100803375244	0.400882005692	1.0	q	650.743153095																																		2015_Jul_07_1048	59.9269327321	LearningTask	1	81	
128	-200.0	a	-200.0																	1.0	0.0	1.0	0.0	1.0	0.0	4.0	3.0																													a	1.0	0.38390994071999995	None	0.0	4.0	diamondgreen.gif	stop																								3.94	0.514683961868	0.000903844833374	0.38390994072	1.0	a	653.7466320990001																																		2015_Jul_07_1048	59.9269327321	LearningTask	1	81	
129	-200.0	q	200.0																	1.0	0.0	1.0	0.0	1.0	1.0	5.0	1.0																													q	1.0	0.368141889572	None	0.0	2.0	crossorange.gif	stop																								1.91	0.514032125473	0.00090217590332	0.368141889572	1.0	q	656.749980211																																		2015_Jul_07_1048	59.9269327321	LearningTask	1	81	
130	-200.0	q	200.0																	1.0	0.0	1.0	0.0	1.0	2.0	6.0	1.0																													q	1.0	0.350970983505	None	0.0	4.0	invertedtrianglemagenta.gif	go																								0.0	0.513835906982	0.0009150505065920001	0.350970983505	1.0	q	659.753486156																																		2015_Jul_07_1048	59.9269327321	LearningTask	1	81	
131	-200.0	q	200.0																	1.0	0.0	1.0	0.0	1.0	3.0	7.0	1.0																													q	1.0	0.350478172302	None	0.0	1.0	squarecyan.gif	stop																								1.15	0.514447927475	0.0008919239044189998	0.350478172302	1.0	q	662.756677151																																		2015_Jul_07_1048	59.9269327321	LearningTask	1	81	
132	200.0	s	-200.0																	1.0	0.0	1.0	0.0	2.0	0.0	8.0	2.0																													s	1.0	0.434448957443	None	0.0	0.5	lineblue.gif	stop																								0.56	0.514353990555	0.0008990764617919999	0.434448957443	1.0	s	665.760334015																																		2015_Jul_07_1048	59.9269327321	LearningTask	1	81	
133	-200.0	a	-200.0																	1.0	0.0	1.0	0.0	2.0	1.0	9.0	3.0																													a	1.0	0.334300994873	None	0.0	1.0	hexagonwhite.gif	go																								1.1	0.513691902161	0.0009977817535399998	0.334300994873	1.0	a	668.763567209																																		2015_Jul_07_1048	59.9269327321	LearningTask	1	81	
134	-200.0	q	200.0																	1.0	0.0	1.0	0.0	2.0	2.0	10.0	1.0																													q	1.0	0.384000062943	None	0.0	1.0	squarecyan.gif	stop																								0.0	0.5144541263579999	0.000887155532837	0.384000062943	1.0	q	671.766740084																																		2015_Jul_07_1048	59.9269327321	LearningTask	1	81	
135	-200.0	a	-200.0																	1.0	0.0	1.0	0.0	2.0	3.0	11.0	3.0																													a	1.0	0.317394971848	None	0.0	2.0	crossorange.gif	stop																								1.98	0.514451026917	0.00096607208252	0.317394971848	1.0	a	674.770517111																																		2015_Jul_07_1048	59.9269327321	LearningTask	1	81	
136	-200.0	a	-200.0																	1.0	0.0	1.0	0.0	3.0	0.0	12.0	3.0																													a	1.0	0.334259986877	None	0.0	1.0	squarecyan.gif	stop																								1.16	0.514178991318	0.0009140968322749999	0.334259986877	1.0	a	677.773431063																																		2015_Jul_07_1048	59.9269327321	LearningTask	1	81	
137	200.0	w	200.0																	1.0	0.0	1.0	0.0	3.0	1.0	13.0	0.0																													w	1.0	0.384082078934	None	0.0	0.5	trianglegray.gif	go																								0.35	0.514425039291	0.000900983810425	0.384082078934	1.0	w	680.7768280509999																																		2015_Jul_07_1048	59.9269327321	LearningTask	1	81	
138	-200.0	a	-200.0																	1.0	0.0	1.0	0.0	3.0	2.0	14.0	3.0																													a	1.0	0.334447145462	None	0.0	2.0	crossorange.gif	stop																								1.98	0.5142600536349999	0.00095796585083	0.334447145462	1.0	a	683.780363083																																		2015_Jul_07_1048	59.9269327321	LearningTask	1	81	
139	200.0	s	-200.0																	1.0	0.0	1.0	0.0	3.0	3.0	15.0	2.0																													s	1.0	0.31706404686	None	0.0	2.0	circleyellow.gif	go																								2.09	0.514409065247	0.00100612640381	0.31706404686	1.0	s	686.783588171																																		2015_Jul_07_1048	59.9269327321	LearningTask	1	81	
140	-200.0	q	200.0																	1.0	0.0	1.0	0.0	4.0	0.0	16.0	1.0																													q	1.0	0.40084505081200006	None	0.0	2.0	crossorange.gif	stop																								1.85	0.5141508579249999	0.0011239051818800001	0.400845050812	1.0	q	689.787149191																																		2015_Jul_07_1048	59.9269327321	LearningTask	1	81	
141	200.0	s	-200.0																	1.0	0.0	1.0	0.0	4.0	1.0	17.0	2.0																													s	1.0	0.31757712364199997	None	0.0	4.0	invertedtrianglemagenta.gif	go																								3.75	0.513950824738	0.0009169578552250001	0.317577123642	1.0	s	692.790307999																																		2015_Jul_07_1048	59.9269327321	LearningTask	1	81	
142	-200.0	q	200.0																	1.0	0.0	1.0	0.0	4.0	2.0	18.0	1.0																													q	1.0	0.317808151245	None	0.0	0.5	lineblue.gif	stop																								0.0	0.514100790024	0.0009257793426510001	0.317808151245	1.0	q	695.79332304																																		2015_Jul_07_1048	59.9269327321	LearningTask	1	81	
143	-200.0	q	200.0																	1.0	0.0	1.0	0.0	4.0	3.0	19.0	1.0																													q	1.0	0.400543212891	None	0.0	2.0	crossorange.gif	stop																								1.81	0.513954877853	0.0012099742889400001	0.400543212891	1.0	q	698.7967760560001																																		2015_Jul_07_1048	59.9269327321	LearningTask	1	81	
144	-200.0	a	-200.0																	1.0	0.0	1.0	0.0	5.0	0.0	20.0	3.0																													a	1.0	0.400508880615	None	0.0	1.0	squarecyan.gif	stop																								0.95	0.515081167221	0.00154209136963	0.400508880615	1.0	a	701.800307035																																		2015_Jul_07_1048	59.9269327321	LearningTask	1	81	
145	-200.0	a	-200.0																	1.0	0.0	1.0	0.0	5.0	1.0	21.0	3.0																													a	1.0	0.417700052261	None	0.0	0.5	trianglegray.gif	go																								0.63	0.514689922333	0.0012729167938199998	0.417700052261	1.0	a	704.8038182260001																																		2015_Jul_07_1048	59.9269327321	LearningTask	1	81	
146	-200.0	a	-200.0																	1.0	0.0	1.0	0.0	5.0	2.0	22.0	3.0																													a	1.0	0.350945949554	None	0.0	2.0	circleyellow.gif	go																								1.9	0.514225959778	0.00130796432495	0.350945949554	1.0	a	707.807201147																																		2015_Jul_07_1048	59.9269327321	LearningTask	1	81	
147	200.0	s	-200.0																	1.0	0.0	1.0	0.0	5.0	3.0	23.0	2.0																													s	1.0	0.367676973343	None	0.0	0.5	lineblue.gif	stop																								0.46	0.514109134674	0.00126600265503	0.367676973343	1.0	s	710.8102700710001																																		2015_Jul_07_1048	59.9269327321	LearningTask	1	81	
148	200.0	w	200.0																	1.0	0.0	1.0	0.0	6.0	0.0	24.0	0.0																													w	1.0	0.383996009827	None	0.0	4.0	diamondgreen.gif	stop																								4.24	0.514472007751	0.0012729167938199998	0.383996009827	1.0	w	713.813880205																																		2015_Jul_07_1048	59.9269327321	LearningTask	1	81	
149	-200.0	a	-200.0																	1.0	0.0	1.0	0.0	6.0	1.0	25.0	3.0																													a	1.0	0.367776870728	None	0.0	2.0	crossorange.gif	stop																								0.0	0.5138678550720001	0.0008978843688960001	0.367776870728	1.0	a	716.8171370030001																																		2015_Jul_07_1048	59.9269327321	LearningTask	1	81	
150	200.0	s	-200.0																	1.0	0.0	1.0	0.0	6.0	2.0	26.0	2.0																													s	1.0	0.35073709487899996	None	0.0	0.5	trianglegray.gif	go																								0.0	0.5146160125729999	0.0008780956268310002	0.350737094879	1.0	s	719.8212800030001																																		2015_Jul_07_1048	59.9269327321	LearningTask	1	81	
151	-200.0	a	-200.0																	1.0	0.0	1.0	0.0	6.0	3.0	27.0	3.0																													a	1.0	0.367762088776	None	0.0	1.0	hexagonwhite.gif	go																								0.8	0.513215065002	0.00159597396851	0.367762088776	1.0	a	722.824305058																																		2015_Jul_07_1048	59.9269327321	LearningTask	1	81	
152	200.0	w	200.0																	1.0	0.0	1.0	0.0	7.0	0.0	28.0	0.0																													w	1.0	0.367924928665	None	0.0	2.0	circleyellow.gif	go																								2.25	0.513715028763	0.000888109207153	0.367924928665	1.0	w	725.8271501060001																																		2015_Jul_07_1048	59.9269327321	LearningTask	1	81	
153	200.0	s	-200.0																	1.0	0.0	1.0	0.0	7.0	1.0	29.0	2.0																													s	1.0	0.384027957916	None	0.0	0.5	lineblue.gif	stop																								0.72	0.514415025711	0.0008759498596189999	0.384027957916	1.0	s	728.831029177																																		2015_Jul_07_1048	59.9269327321	LearningTask	1	81	
154	-200.0	a	-200.0																	1.0	0.0	1.0	0.0	7.0	2.0	30.0	3.0																													a	1.0	0.351064920425	None	0.0	0.5	lineblue.gif	stop																								0.43	0.513833999634	0.00088095664978	0.351064920425	1.0	a	731.83386302																																		2015_Jul_07_1048	59.9269327321	LearningTask	1	81	
155	200.0	w	200.0																	1.0	0.0	1.0	0.0	7.0	3.0	31.0	0.0																													w	1.0	0.334247112274	None	0.0	4.0	diamondgreen.gif	stop																								3.79	0.51437497139	0.0010130405426	0.334247112274	1.0	w	734.8374562260001																																		2015_Jul_07_1048	59.9269327321	LearningTask	1	81	
156	200.0	s	-200.0																	1.0	0.0	1.0	0.0	8.0	0.0	32.0	2.0																													s	1.0	0.334259986877	None	0.0	4.0	diamondgreen.gif	stop																								4.09	0.514194965363	0.00103092193604	0.334259986877	1.0	s	737.84113121																																		2015_Jul_07_1048	59.9269327321	LearningTask	1	81	
157	200.0	w	200.0																	1.0	0.0	1.0	0.0	8.0	1.0	33.0	0.0																													w	1.0	0.434174060822	None	0.0	0.5	lineblue.gif	stop																								0.0	0.513695955276	0.000903844833374	0.334506034851	0.0	s	740.843946218	0.37	0.515419960022	0.00100588798523	0.434174060822	1.0	w	743.847577095																											2015_Jul_07_1048	59.9269327321	LearningTask	1	81	
158	200.0	w	200.0																	1.0	0.0	1.0	0.0	8.0	2.0	34.0	0.0																													w	1.0	0.41802287101700003	None	0.0	4.0	diamondgreen.gif	stop																								3.87	0.514034032822	0.000923871994019	0.418022871017	1.0	w	746.8509120939999																																		2015_Jul_07_1048	59.9269327321	LearningTask	1	81	
159	200.0	s	-200.0																	1.0	0.0	1.0	0.0	8.0	3.0	35.0	2.0																													s	1.0	0.401110887527	None	0.0	0.5	trianglegray.gif	go																								0.0	0.5140240192409999	0.0008859634399410001	0.401110887527	1.0	s	749.8537981510001																																		2015_Jul_07_1048	59.9269327321	LearningTask	1	81	
160	200.0	w	200.0																	1.0	0.0	1.0	0.0	9.0	0.0	36.0	0.0																													w	1.0	0.31748390197799997	None	0.0	0.5	lineblue.gif	stop																								0.0	0.514638900757	0.0008759498596189999	0.317483901978	1.0	w	752.8574771880001																																		2015_Jul_07_1048	59.9269327321	LearningTask	1	81	
161	200.0	s	-200.0																	1.0	0.0	1.0	0.0	9.0	1.0	37.0	2.0																													s	1.0	0.38441491127	None	0.0	2.0	crossorange.gif	stop																								2.05	0.514252901077	0.0009129047393799999	0.38441491127	1.0	s	755.860699177																																		2015_Jul_07_1048	59.9269327321	LearningTask	1	81	
162	-200.0	q	200.0																	1.0	0.0	1.0	0.0	9.0	2.0	38.0	1.0																													q	1.0	0.350811004639	None	0.0	4.0	invertedtrianglemagenta.gif	go																								4.15	0.514322042465	0.00127601623535	0.350811004639	1.0	q	758.864106178																																		2015_Jul_07_1048	59.9269327321	LearningTask	1	81	
163	200.0	s	-200.0																	1.0	0.0	1.0	0.0	9.0	3.0	39.0	2.0																													s	1.0	0.384191989899	None	0.0	2.0	circleyellow.gif	go																								2.03	0.514189958572	0.0008749961853029999	0.384191989899	1.0	s	761.868467093																																		2015_Jul_07_1048	59.9269327321	LearningTask	1	81	
164	-200.0	a	-200.0																	1.0	0.0	1.0	0.0	10.0	0.0	40.0	3.0																													a	1.0	0.41752696037299997	None	0.0	4.0	invertedtrianglemagenta.gif	go																								0.0	0.513190031052	0.0009140968322749999	0.417526960373	1.0	a	764.8707132339999																																		2015_Jul_07_1048	59.9269327321	LearningTask	1	81	
165	-200.0	q	200.0																	1.0	0.0	1.0	0.0	10.0	1.0	41.0	1.0																													q	1.0	0.384846925735	None	0.0	4.0	diamondgreen.gif	stop																								3.84	0.514228820801	0.0008740425109860002	0.384846925735	1.0	q	767.874171019																																		2015_Jul_07_1048	59.9269327321	LearningTask	1	81	
166	-200.0	q	200.0																	1.0	0.0	1.0	0.0	10.0	2.0	42.0	1.0																													q	1.0	0.38473200798	None	0.0	2.0	crossorange.gif	stop																								1.8	0.5137639045719999	0.0009279251098630001	0.38473200798	1.0	q	770.8777661319999																																		2015_Jul_07_1048	59.9269327321	LearningTask	1	81	
167	200.0	w	200.0																	1.0	0.0	1.0	0.0	10.0	3.0	43.0	0.0																													w	1.0	0.36785411834700005	None	0.0	4.0	diamondgreen.gif	stop																								4.07	0.513916015625	0.000930070877075	0.367854118347	1.0	w	773.8808701039999																																		2015_Jul_07_1048	59.9269327321	LearningTask	1	81	
168	200.0	w	200.0																	1.0	0.0	1.0	0.0	11.0	0.0	44.0	0.0																													w	1.0	0.333927869797	None	0.0	2.0	circleyellow.gif	go																								1.87	0.514406919479	0.0008749961853029999	0.333927869797	1.0	w	776.884309053																																		2015_Jul_07_1048	59.9269327321	LearningTask	1	81	
169	-200.0	q	200.0																	1.0	0.0	1.0	0.0	11.0	1.0	45.0	1.0																													q	1.0	0.31739783286999995	None	0.0	1.0	hexagonwhite.gif	go																								0.82	0.514193058014	0.0009069442749019998	0.31739783287	1.0	q	779.887757063																																		2015_Jul_07_1048	59.9269327321	LearningTask	1	81	
170	200.0	s	-200.0																	1.0	0.0	1.0	0.0	11.0	2.0	46.0	2.0																													s	1.0	0.334175825119	None	0.0	1.0	hexagonwhite.gif	go																								0.0	0.514089107513	0.0014100074768100001	0.334175825119	1.0	s	782.8912251																																		2015_Jul_07_1048	59.9269327321	LearningTask	1	81	
171	200.0	s	-200.0																	1.0	0.0	1.0	0.0	11.0	3.0	47.0	2.0																													s	1.0	0.33439779281599996	None	0.0	2.0	crossorange.gif	stop																								1.96	0.513674974442	0.00099515914917	0.334397792816	1.0	s	785.894657135																																		2015_Jul_07_1048	59.9269327321	LearningTask	1	81	
172	-200.0	q	200.0																	1.0	0.0	1.0	0.0	12.0	0.0	48.0	1.0																													q	1.0	0.35088706016500004	None	0.0	1.0	squarecyan.gif	stop																								1.07	0.514059066772	0.0008790493011469999	0.350887060165	1.0	q	788.897783041																																		2015_Jul_07_1048	59.9269327321	LearningTask	1	81	
173	200.0	w	200.0																	1.0	0.0	1.0	0.0	12.0	1.0	49.0	0.0																													w	1.0	0.301237106323	None	0.0	2.0	crossorange.gif	stop																								0.0	0.513980865479	0.000941038131714	0.301237106323	1.0	w	791.9008731839999																																		2015_Jul_07_1048	59.9269327321	LearningTask	1	81	
174	-200.0	a	-200.0																	1.0	0.0	1.0	0.0	12.0	2.0	50.0	3.0																													a	1.0	0.334609031677	None	0.0	2.0	crossorange.gif	stop																								1.78	0.514173030853	0.000923156738281	0.334609031677	1.0	a	794.90440917																																		2015_Jul_07_1048	59.9269327321	LearningTask	1	81	
175	200.0	s	-200.0																	1.0	0.0	1.0	0.0	12.0	3.0	51.0	2.0																													s	1.0	0.351469993591	None	0.0	0.5	lineblue.gif	stop																								0.32	0.514358043671	0.0008718967437739999	0.351469993591	1.0	s	797.908239126																																		2015_Jul_07_1048	59.9269327321	LearningTask	1	81	
176	200.0	s	-200.0																	1.0	0.0	1.0	0.0	13.0	0.0	52.0	2.0																													s	1.0	0.35073208808899997	None	0.0	4.0	diamondgreen.gif	stop																								4.16	0.5140240192409999	0.0008959770202639998	0.350732088089	1.0	s	800.9113759989999																																		2015_Jul_07_1048	59.9269327321	LearningTask	1	81	
177	-200.0	q	200.0																	1.0	0.0	1.0	0.0	13.0	1.0	53.0	1.0																													q	1.0	0.350136995316	None	0.0	0.5	trianglegray.gif	go																								0.51	0.514265060425	0.0009319782257080001	0.350136995316	1.0	q	803.9143671989999																																		2015_Jul_07_1048	59.9269327321	LearningTask	1	81	
178	-200.0	a	-200.0																	1.0	0.0	1.0	0.0	13.0	2.0	54.0	3.0																													a	1.0	0.38432097435	None	0.0	1.0	squarecyan.gif	stop																								0.0	0.514348983765	0.0009441375732419999	0.38432097435	1.0	a	806.917915106																																		2015_Jul_07_1048	59.9269327321	LearningTask	1	81	
179	-200.0	q	200.0																	1.0	0.0	1.0	0.0	13.0	3.0	55.0	1.0																													q	1.0	0.36806511879000003	None	0.0	2.0	crossorange.gif	stop																								1.86	0.514098882675	0.0008749961853029999	0.36806511879	1.0	q	809.92133522																																		2015_Jul_07_1048	59.9269327321	LearningTask	1	81	
180	-200.0	q	200.0																	1.0	0.0	1.0	0.0	14.0	0.0	56.0	1.0																													q	1.0	0.36794114112899995	None	0.0	4.0	invertedtrianglemagenta.gif	go																								4.23	0.5137920379640001	0.0008749961853029999	0.367941141129	1.0	q	812.9244270319999																																		2015_Jul_07_1048	59.9269327321	LearningTask	1	81	
181	-200.0	q	200.0																	1.0	0.0	1.0	0.0	14.0	1.0	57.0	1.0																													q	1.0	0.367474079132	None	0.0	4.0	diamondgreen.gif	stop																								3.81	0.514348983765	0.0008728504180910001	0.367474079132	1.0	q	815.928055048																																		2015_Jul_07_1048	59.9269327321	LearningTask	1	81	
182	-200.0	a	-200.0																	1.0	0.0	1.0	0.0	14.0	2.0	58.0	3.0																													a	1.0	0.384195804596	None	0.0	2.0	circleyellow.gif	go																								1.93	0.513514041901	0.000951051712036	0.384195804596	1.0	a	818.931678057																																		2015_Jul_07_1048	59.9269327321	LearningTask	1	81	
183	200.0	s	-200.0																	1.0	0.0	1.0	0.0	14.0	3.0	59.0	2.0																													s	1.0	0.333655118942	None	0.0	1.0	squarecyan.gif	stop																								1.12	0.514090061188	0.000890016555786	0.333655118942	1.0	s	821.934640169																																		2015_Jul_07_1048	59.9269327321	LearningTask	1	81	
184	-200.0	q	200.0																	1.0	0.0	1.0	0.0	15.0	0.0	60.0	1.0																													q	1.0	0.367694854736	None	0.0	4.0	diamondgreen.gif	stop																								4.07	0.514282941818	0.000877141952515	0.367694854736	1.0	q	824.938012123																																		2015_Jul_07_1048	59.9269327321	LearningTask	1	81	
185	-200.0	a	-200.0																	1.0	0.0	1.0	0.0	15.0	1.0	61.0	3.0																													a	1.0	0.384157180786	None	0.0	0.5	trianglegray.gif	go																								0.66	0.513930082321	0.0009160041809079999	0.384157180786	1.0	a	827.9413170810001																																		2015_Jul_07_1048	59.9269327321	LearningTask	1	81	
186	-200.0	a	-200.0																	1.0	0.0	1.0	0.0	15.0	2.0	62.0	3.0																													a	1.0	0.367621898651	None	0.0	4.0	diamondgreen.gif	stop																								4.17	0.514305114746	0.0009250640869139999	0.367621898651	1.0	a	830.944913149																																		2015_Jul_07_1048	59.9269327321	LearningTask	1	81	
187	-200.0	q	200.0																	1.0	0.0	1.0	0.0	15.0	3.0	63.0	1.0																													q	1.0	0.36784386634800004	None	0.0	0.5	trianglegray.gif	go																								0.65	0.513880968094	0.00110602378845	0.367843866348	1.0	q	833.948526144																																		2015_Jul_07_1048	59.9269327321	LearningTask	1	81	
188	200.0	w	200.0																	1.0	0.0	1.0	0.0	16.0	0.0	64.0	0.0																													w	1.0	0.367538928986	None	0.0	1.0	squarecyan.gif	stop																								1.18	0.5138599872590001	0.0009250640869139999	0.367538928986	1.0	w	836.9514050480001																																		2015_Jul_07_1048	59.9269327321	LearningTask	1	81	
189	-200.0	a	-200.0																	1.0	0.0	1.0	0.0	16.0	1.0	65.0	3.0																													a	1.0	0.38408613205	None	0.0	2.0	crossorange.gif	stop																								0.0	0.514147043228	0.0009291172027589999	0.38408613205	1.0	a	839.9547262189999																																		2015_Jul_07_1048	59.9269327321	LearningTask	1	81	
190	200.0	w	200.0																	1.0	0.0	1.0	0.0	16.0	2.0	66.0	0.0																													w	1.0	0.317752122879	None	0.0	4.0	diamondgreen.gif	stop																								4.1	0.513923883438	0.0009129047393799999	0.317752122879	1.0	w	842.958022118																																		2015_Jul_07_1048	59.9269327321	LearningTask	1	81	
191	200.0	w	200.0																	1.0	0.0	1.0	0.0	16.0	3.0	67.0	0.0																													w	1.0	0.451076984406	None	0.0	4.0	invertedtrianglemagenta.gif	go																								3.84	0.514351844788	0.0008938312530519999	0.451076984406	1.0	w	845.9613790510001																																		2015_Jul_07_1048	59.9269327321	LearningTask	1	81	
192	200.0	w	200.0																	1.0	0.0	1.0	0.0	17.0	0.0	68.0	0.0																													w	1.0	0.35079193115199997	None	0.0	1.0	squarecyan.gif	stop																								0.97	0.514523029327	0.000953912734985	0.350791931152	1.0	w	848.96491909																																		2015_Jul_07_1048	59.9269327321	LearningTask	1	81	
193	200.0	w	200.0																	1.0	0.0	1.0	0.0	17.0	1.0	69.0	0.0																													w	1.0	0.350428104401	None	0.0	2.0	crossorange.gif	stop																								2.2	0.514086008072	0.0011579990387	0.350428104401	1.0	w	851.9682371619999																																		2015_Jul_07_1048	59.9269327321	LearningTask	1	81	
194	-200.0	q	200.0																	1.0	0.0	1.0	0.0	17.0	2.0	70.0	1.0																													q	1.0	0.467853069305	None	0.0	1.0	squarecyan.gif	stop																								0.77	0.513998985291	0.00086498260498	0.467853069305	1.0	q	854.971586227																																		2015_Jul_07_1048	59.9269327321	LearningTask	1	81	
195	200.0	s	-200.0																	1.0	0.0	1.0	0.0	17.0	3.0	71.0	2.0																													s	1.0	0.383853197098	None	0.0	4.0	invertedtrianglemagenta.gif	go																								4.02	0.514305114746	0.0008909702301030001	0.383853197098	1.0	s	857.975071192																																		2015_Jul_07_1048	59.9269327321	LearningTask	1	81	
196	200.0	s	-200.0																	1.0	0.0	1.0	0.0	18.0	0.0	72.0	2.0																													s	1.0	0.48448801040600004	None	0.0	0.5	trianglegray.gif	go																								0.56	0.513454914093	0.000909090042114	0.484488010406	1.0	s	860.978312016																																		2015_Jul_07_1048	59.9269327321	LearningTask	1	81	
197	200.0	w	200.0																	1.0	0.0	1.0	0.0	18.0	1.0	73.0	0.0																													w	1.0	0.317656993866	None	0.0	4.0	diamondgreen.gif	stop																								0.0	0.5140600204469999	0.00088095664978	0.317656993866	1.0	w	863.9815649989999																																		2015_Jul_07_1048	59.9269327321	LearningTask	1	81	
198	200.0	s	-200.0																	1.0	0.0	1.0	0.0	18.0	2.0	74.0	2.0																													s	1.0	0.383913993835	None	0.0	0.5	lineblue.gif	stop																								0.25	0.514373779297	0.000888824462891	0.383913993835	1.0	s	866.985503197																																		2015_Jul_07_1048	59.9269327321	LearningTask	1	81	
199	-200.0	q	200.0																	1.0	0.0	1.0	0.0	18.0	3.0	75.0	1.0																													q	1.0	0.334742069244	None	0.0	2.0	circleyellow.gif	go																								1.98	0.513650894165	0.0010049343109099999	0.334742069244	1.0	q	869.9884421830001																																		2015_Jul_07_1048	59.9269327321	LearningTask	1	81	
200	200.0	w	200.0																	1.0	0.0	1.0	0.0	19.0	0.0	76.0	0.0																													w	1.0	0.300729036331	None	0.0	1.0	squarecyan.gif	stop																								0.0	0.514174938202	0.0008749961853029999	0.300729036331	1.0	w	872.991611004																																		2015_Jul_07_1048	59.9269327321	LearningTask	1	81	
201	-200.0	q	200.0																	1.0	0.0	1.0	0.0	19.0	1.0	77.0	1.0																													q	1.0	0.333739995956	None	0.0	2.0	crossorange.gif	stop																								0.0	0.5146138668060001	0.0008769035339360002	0.333739995956	1.0	q	875.995135069																																		2015_Jul_07_1048	59.9269327321	LearningTask	1	81	
202	200.0	s	-200.0																	1.0	0.0	1.0	0.0	19.0	2.0	78.0	2.0																													s	1.0	0.383590936661	None	0.0	0.5	trianglegray.gif	go																								0.0	0.514369010925	0.0009729862213130002	0.383590936661	1.0	s	878.998471022																																		2015_Jul_07_1048	59.9269327321	LearningTask	1	81	
203	-200.0	q	200.0																	1.0	0.0	1.0	0.0	19.0	3.0	79.0	1.0																													q	1.0	0.36834383010899996	None	0.0	0.5	lineblue.gif	stop																								0.62	0.514021873474	0.00102210044861	0.368343830109	1.0	q	882.0019390580001																																		2015_Jul_07_1048	59.9269327321	LearningTask	1	81	
204	200.0	w	200.0																	1.0	0.0	1.0	0.0	20.0	0.0	80.0	0.0																													w	1.0	0.334760904312	None	0.0	2.0	crossorange.gif	stop																								2.15	0.514070034027	0.0009019374847410001	0.334760904312	1.0	w	885.004885197																																		2015_Jul_07_1048	59.9269327321	LearningTask	1	81	
205	200.0	s	-200.0																	1.0	0.0	1.0	0.0	20.0	1.0	81.0	2.0																													s	1.0	0.38482904434199994	None	0.0	4.0	diamondgreen.gif	stop																								4.17	0.514415979385	0.00092887878418	0.384829044342	1.0	s	888.008293152																																		2015_Jul_07_1048	59.9269327321	LearningTask	1	81	
206	200.0	s	-200.0																	1.0	0.0	1.0	0.0	20.0	2.0	82.0	2.0																													s	1.0	0.35118389129600003	None	0.0	0.5	lineblue.gif	stop																								0.41	0.5141420364379999	0.0009560585021970001	0.351183891296	1.0	s	891.0116710660001																																		2015_Jul_07_1048	59.9269327321	LearningTask	1	81	
207	200.0	w	200.0																	1.0	0.0	1.0	0.0	20.0	3.0	83.0	0.0																													w	1.0	0.317543029785	None	0.0	4.0	diamondgreen.gif	stop																								4.18	0.514365196228	0.0008971691131589999	0.317543029785	1.0	w	894.015383005																																		2015_Jul_07_1048	59.9269327321	LearningTask	1	81	
208	200.0	w	200.0																	1.0	0.0	1.0	0.0	21.0	0.0	84.0	0.0																													w	1.0	0.33372592926	None	0.0	0.5	lineblue.gif	stop																								0.48	0.514330863953	0.0008709430694580001	0.33372592926	1.0	w	897.0185492039999																																		2015_Jul_07_1048	59.9269327321	LearningTask	1	81	
209	200.0	s	-200.0																	1.0	0.0	1.0	0.0	21.0	1.0	85.0	2.0																													s	1.0	0.35005903244000003	None	0.0	2.0	crossorange.gif	stop																								0.0	0.514243125916	0.0010430812835700001	0.35005903244	1.0	s	900.0221621989999																																		2015_Jul_07_1048	59.9269327321	LearningTask	1	81	
210	-200.0	a	-200.0																	1.0	0.0	1.0	0.0	21.0	2.0	86.0	3.0																													a	1.0	0.35091996192900005	None	0.0	2.0	circleyellow.gif	go																								1.85	0.5139420032500001	0.0008790493011469999	0.350919961929	1.0	a	903.0252151489999																																		2015_Jul_07_1048	59.9269327321	LearningTask	1	81	
211	-200.0	q	200.0																	1.0	0.0	1.0	0.0	21.0	3.0	87.0	1.0																													q	1.0	0.40034008026100004	None	0.0	4.0	diamondgreen.gif	stop																								3.8	0.514764070511	0.00087308883667	0.400340080261	1.0	q	906.0286970139999																																		2015_Jul_07_1048	59.9269327321	LearningTask	1	81	
212	200.0	s	-200.0																	1.0	0.0	1.0	0.0	22.0	0.0	88.0	2.0																													s	1.0	0.31779479980500003	None	0.0	1.0	squarecyan.gif	stop																								1.0	0.5134370327000001	0.0009291172027589999	0.317794799805	1.0	s	909.032131195																																		2015_Jul_07_1048	59.9269327321	LearningTask	1	81	
213	-200.0	q	200.0																	1.0	0.0	1.0	0.0	22.0	1.0	89.0	1.0																													q	1.0	0.334032058716	None	0.0	0.5	trianglegray.gif	go																								0.58	0.514093875885	0.000881910324097	0.334032058716	1.0	q	912.035451174																																		2015_Jul_07_1048	59.9269327321	LearningTask	1	81	
214	-200.0	a	-200.0																	1.0	0.0	1.0	0.0	22.0	2.0	90.0	3.0																													a	1.0	0.35061788559	None	0.0	1.0	squarecyan.gif	stop																								0.82	0.5142760276789999	0.0008740425109860002	0.35061788559	1.0	a	915.0388531680001																																		2015_Jul_07_1048	59.9269327321	LearningTask	1	81	
215	-200.0	a	-200.0																	1.0	0.0	1.0	0.0	22.0	3.0	91.0	3.0																													a	1.0	0.367390871048	None	0.0	1.0	squarecyan.gif	stop																								0.0	0.514053106308	0.0009191036224369998	0.367390871048	1.0	a	918.0420632360001																																		2015_Jul_07_1048	59.9269327321	LearningTask	1	81	
216	200.0	w	200.0																	1.0	0.0	1.0	0.0	23.0	0.0	92.0	0.0																													w	1.0	0.318181037903	None	0.0	4.0	diamondgreen.gif	stop																								4.03	0.514100790024	0.0008859634399410001	0.318181037903	1.0	w	921.045246124																																		2015_Jul_07_1048	59.9269327321	LearningTask	1	81	
217	-200.0	a	-200.0																	1.0	0.0	1.0	0.0	23.0	1.0	93.0	3.0																													a	1.0	0.334769964218	None	0.0	2.0	crossorange.gif	stop																								2.19	0.513980865479	0.00105786323547	0.334769964218	1.0	a	924.048607111																																		2015_Jul_07_1048	59.9269327321	LearningTask	1	81	
218	200.0	w	200.0																	1.0	0.0	1.0	0.0	23.0	2.0	94.0	0.0																													w	1.0	0.317498922348	None	0.0	2.0	crossorange.gif	stop																								1.98	0.5142161846159999	0.0010321140289299999	0.317498922348	1.0	w	927.052160025																																		2015_Jul_07_1048	59.9269327321	LearningTask	1	81	
219	200.0	w	200.0																	1.0	0.0	1.0	0.0	23.0	3.0	95.0	0.0																													w	1.0	0.30116891861	None	0.0	0.5	lineblue.gif	stop																								0.36	0.514004945755	0.0011448860168499998	0.30116891861	1.0	w	930.055632114																																		2015_Jul_07_1048	59.9269327321	LearningTask	1	81	
220	200.0	w	200.0																	1.0	0.0	1.0	0.0	24.0	0.0	96.0	0.0																													w	1.0	0.317348003387	None	0.0	4.0	invertedtrianglemagenta.gif	go																								4.12	0.5141940116879999	0.000880002975464	0.317348003387	1.0	w	933.0589880939999																																		2015_Jul_07_1048	59.9269327321	LearningTask	1	81	
221	200.0	s	-200.0																	1.0	0.0	1.0	0.0	24.0	1.0	97.0	2.0																													s	1.0	0.367513895035	None	0.0	2.0	crossorange.gif	stop																								0.0	0.513864994049	0.000907182693481	0.367513895035	1.0	s	936.062155008																																		2015_Jul_07_1048	59.9269327321	LearningTask	1	81	
222	-200.0	a	-200.0																	1.0	0.0	1.0	0.0	24.0	2.0	98.0	3.0																													a	1.0	0.317625045776	None	0.0	4.0	diamondgreen.gif	stop																								4.01	0.513869047165	0.0010740756988499999	0.317625045776	1.0	a	939.0655422210001																																		2015_Jul_07_1048	59.9269327321	LearningTask	1	81	
223	200.0	s	-200.0																	1.0	0.0	1.0	0.0	24.0	3.0	99.0	2.0																													s	1.0	0.35132694244400003	None	0.0	4.0	invertedtrianglemagenta.gif	go																								4.19	0.514223098755	0.000900983810425	0.351326942444	1.0	s	942.068926096																																		2015_Jul_07_1048	59.9269327321	LearningTask	1	81	
224																				1.0	0.0	1.0	0.0																																																																															9.0	18.0664899349																								2015_Jul_07_1048	59.9269327321	LearningTask	1	81	
225	200.0	s	-200.0																	2.0	0.0	2.0	0.0	0.0	0.0	0.0	2.0																													s	1.0	0.451523780823	None	0.0	1.0	squarecyan.gif	stop																								0.77	0.5078449249270001	0.0009520053863530001	0.451523780823	1.0	s	963.827744007																																		2015_Jul_07_1048	59.9269327321	LearningTask	1	81	
226	-200.0	q	200.0																	2.0	0.0	2.0	0.0	0.0	1.0	1.0	1.0																													q	1.0	0.31702995300299996	None	0.0	1.0	squarecyan.gif	stop																								0.83	0.513011932373	0.000900983810425	0.317029953003	1.0	q	966.82982707																																		2015_Jul_07_1048	59.9269327321	LearningTask	1	81	
227	200.0	w	200.0																	2.0	0.0	2.0	0.0	0.0	2.0	2.0	0.0																													w	1.0	0.30082011222800004	None	0.0	4.0	invertedtrianglemagenta.gif	go																								4.16	0.514194965363	0.000881910324097	0.300820112228	1.0	w	969.8329072																																		2015_Jul_07_1048	59.9269327321	LearningTask	1	81	
228	200.0	w	200.0																	2.0	0.0	2.0	0.0	0.0	3.0	3.0	0.0																													w	1.0	0.318073034286	None	0.0	4.0	diamondgreen.gif	stop																								4.23	0.514514923096	0.0008740425109860002	0.318073034286	1.0	w	972.8367981910001																																		2015_Jul_07_1048	59.9269327321	LearningTask	1	81	
229	200.0	s	-200.0																	2.0	0.0	2.0	0.0	1.0	0.0	4.0	2.0																													s	1.0	0.334733009338	None	0.0	2.0	crossorange.gif	stop																								1.92	0.5135710239410001	0.0008780956268310002	0.334733009338	1.0	s	975.8402240280001																																		2015_Jul_07_1048	59.9269327321	LearningTask	1	81	
230	-200.0	q	200.0																	2.0	0.0	2.0	0.0	1.0	1.0	5.0	1.0																													q	1.0	0.317390918732	None	0.0	2.0	circleyellow.gif	go																								0.0	0.514049053192	0.000880002975464	0.317390918732	1.0	q	978.8433051110001																																		2015_Jul_07_1048	59.9269327321	LearningTask	1	81	
231	-200.0	q	200.0																	2.0	0.0	2.0	0.0	1.0	2.0	6.0	1.0																													q	1.0	0.35140109062200003	None	0.0	4.0	diamondgreen.gif	stop																								4.18	0.514075040817	0.0008740425109860002	0.351401090622	1.0	q	981.84691906																																		2015_Jul_07_1048	59.9269327321	LearningTask	1	81	
232	-200.0	q	200.0																	2.0	0.0	2.0	0.0	1.0	3.0	7.0	1.0																													q	1.0	0.334361076355	None	0.0	2.0	crossorange.gif	stop																								2.2	0.514048814774	0.0009069442749019998	0.334361076355	1.0	q	984.849849224																																		2015_Jul_07_1048	59.9269327321	LearningTask	1	81	
233	200.0	w	200.0																	2.0	0.0	2.0	0.0	2.0	0.0	8.0	0.0																													w	1.0	0.317368984222	None	0.0	0.5	trianglegray.gif	go																								0.37	0.514404058456	0.0013480186462400002	0.317368984222	1.0	w	987.8531410689999																																		2015_Jul_07_1048	59.9269327321	LearningTask	1	81	
234	-200.0	q	200.0																	2.0	0.0	2.0	0.0	2.0	1.0	9.0	1.0																													q	1.0	0.36759305000299997	None	0.0	1.0	squarecyan.gif	stop																								0.0	0.514833927155	0.0008668899536130001	0.367593050003	1.0	q	990.856972218																																		2015_Jul_07_1048	59.9269327321	LearningTask	1	81	
235	200.0	w	200.0																	2.0	0.0	2.0	0.0	2.0	2.0	10.0	0.0																													w	1.0	0.284470796585	None	0.0	4.0	invertedtrianglemagenta.gif	go																								3.84	0.513569116592	0.0009760856628420001	0.284470796585	1.0	w	993.860074043																																		2015_Jul_07_1048	59.9269327321	LearningTask	1	81	
236	-200.0	a	-200.0																	2.0	0.0	2.0	0.0	2.0	3.0	11.0	3.0																													a	1.0	0.43512201309199994	None	0.0	2.0	circleyellow.gif	go																								2.16	0.5138390064239999	0.000978946685791	0.435122013092	1.0	a	996.8632671830001																																		2015_Jul_07_1048	59.9269327321	LearningTask	1	81	
237	200.0	w	200.0																	2.0	0.0	2.0	0.0	3.0	0.0	12.0	0.0																													w	1.0	0.30030798911999995	None	0.0	1.0	squarecyan.gif	stop																								0.0	0.514751911163	0.0008668899536130001	0.30030798912	1.0	w	999.866681099																																		2015_Jul_07_1048	59.9269327321	LearningTask	1	81	
238	-200.0	q	200.0																	2.0	0.0	2.0	0.0	3.0	1.0	13.0	1.0																													q	1.0	0.334481954575	None	0.0	2.0	circleyellow.gif	go																								1.84	0.514512062073	0.00088906288147	0.334481954575	1.0	q	1002.87007022																																		2015_Jul_07_1048	59.9269327321	LearningTask	1	81	
239	200.0	w	200.0																	2.0	0.0	2.0	0.0	3.0	2.0	14.0	0.0																													w	1.0	0.33459186554000003	None	0.0	1.0	hexagonwhite.gif	go																								1.14	0.514034986496	0.0009570121765139998	0.33459186554	1.0	w	1005.87350607																																		2015_Jul_07_1048	59.9269327321	LearningTask	1	81	
240	200.0	s	-200.0																	2.0	0.0	2.0	0.0	3.0	3.0	15.0	2.0																													s	1.0	0.334238052368	None	0.0	2.0	circleyellow.gif	go																								1.79	0.514477968216	0.0008790493011469999	0.334238052368	1.0	s	1008.87727022																																		2015_Jul_07_1048	59.9269327321	LearningTask	1	81	
241	-200.0	q	200.0																	2.0	0.0	2.0	0.0	4.0	0.0	16.0	1.0																													q	1.0	0.283565044403	None	0.0	2.0	circleyellow.gif	go																								2.01	0.513849973679	0.00088906288147	0.283565044403	1.0	q	1011.88031816																																		2015_Jul_07_1048	59.9269327321	LearningTask	1	81	
242	-200.0	q	200.0																	2.0	0.0	2.0	0.0	4.0	1.0	17.0	1.0																													q	1.0	0.33430981636	None	0.0	1.0	hexagonwhite.gif	go																								0.96	0.513900995255	0.0009119510650630002	0.33430981636	1.0	q	1014.88353205																																		2015_Jul_07_1048	59.9269327321	LearningTask	1	81	
243	200.0	s	-200.0																	2.0	0.0	2.0	0.0	4.0	2.0	18.0	2.0																													s	1.0	0.368234872818	None	0.0	2.0	crossorange.gif	stop																								0.0	0.514101982117	0.0009059906005860001	0.368234872818	1.0	s	1017.88704109																																		2015_Jul_07_1048	59.9269327321	LearningTask	1	81	
244	-200.0	a	-200.0																	2.0	0.0	2.0	0.0	4.0	3.0	19.0	3.0																													a	1.0	0.584863901138	None	0.0	1.0	hexagonwhite.gif	go																								1.17	0.514053106308	0.00088095664978	0.584863901138	1.0	a	1020.89032817																																		2015_Jul_07_1048	59.9269327321	LearningTask	1	81	
245	-200.0	a	-200.0																	2.0	0.0	2.0	0.0	5.0	0.0	20.0	3.0																													a	1.0	0.36737203598000007	None	0.0	4.0	invertedtrianglemagenta.gif	go																								3.88	0.513786077499	0.00089693069458	0.36737203598	1.0	a	1023.8936460000001																																		2015_Jul_07_1048	59.9269327321	LearningTask	1	81	
246	-200.0	q	200.0																	2.0	0.0	2.0	0.0	5.0	1.0	21.0	1.0																													q	1.0	0.31724309921300003	None	0.0	2.0	crossorange.gif	stop																								0.0	0.51443195343	0.0009799003601070001	0.317243099213	1.0	q	1026.89704013																																		2015_Jul_07_1048	59.9269327321	LearningTask	1	81	
247	200.0	s	-200.0																	2.0	0.0	2.0	0.0	5.0	2.0	22.0	2.0																													s	1.0	0.350842952728	None	0.0	0.5	trianglegray.gif	go																								0.7	0.514419078827	0.000900983810425	0.350842952728	1.0	s	1029.90068722																																		2015_Jul_07_1048	59.9269327321	LearningTask	1	81	
248	200.0	s	-200.0																	2.0	0.0	2.0	0.0	5.0	3.0	23.0	2.0																													s	1.0	0.38417887687700003	None	0.0	2.0	crossorange.gif	stop																								2.16	0.513972997665	0.00102400779724	0.384178876877	1.0	s	1032.90404606																																		2015_Jul_07_1048	59.9269327321	LearningTask	1	81	
249	-200.0	a	-200.0																	2.0	0.0	2.0	0.0	6.0	0.0	24.0	3.0																													a	1.0	0.367628097534	None	0.0	2.0	circleyellow.gif	go																								0.0	0.514162063599	0.00105714797974	0.367628097534	1.0	a	1035.90700221																																		2015_Jul_07_1048	59.9269327321	LearningTask	1	81	
250	200.0	w	200.0																	2.0	0.0	2.0	0.0	6.0	1.0	25.0	0.0																													w	1.0	0.334082841873	None	0.0	0.5	lineblue.gif	stop																								0.67	0.5140450000760001	0.000904083251953	0.334082841873	1.0	w	1038.91051602																																		2015_Jul_07_1048	59.9269327321	LearningTask	1	81	
251	200.0	w	200.0																	2.0	0.0	2.0	0.0	6.0	2.0	26.0	0.0																													w	1.0	0.400625944138	None	0.0	4.0	diamondgreen.gif	stop																								3.97	0.514388084412	0.000881910324097	0.400625944138	1.0	w	1041.91364717																																		2015_Jul_07_1048	59.9269327321	LearningTask	1	81	
252	-200.0	a	-200.0																	2.0	0.0	2.0	0.0	6.0	3.0	27.0	3.0																													a	1.0	0.38423395156900003	None	0.0	0.5	trianglegray.gif	go																								0.75	0.514135122299	0.000965118408203	0.384233951569	1.0	a	1044.9172770999999																																		2015_Jul_07_1048	59.9269327321	LearningTask	1	81	
253	-200.0	a	-200.0																	2.0	0.0	2.0	0.0	7.0	0.0	28.0	3.0																													a	1.0	0.367630958557	None	0.0	4.0	invertedtrianglemagenta.gif	go																								4.01	0.5141568183899999	0.000880002975464	0.367630958557	1.0	a	1047.92081618																																		2015_Jul_07_1048	59.9269327321	LearningTask	1	81	
254	200.0	s	-200.0																	2.0	0.0	2.0	0.0	7.0	1.0	29.0	2.0																													s	1.0	0.333940982819	None	0.0	0.5	trianglegray.gif	go																								0.73	0.513955116272	0.0008909702301030001	0.333940982819	1.0	s	1050.92383218																																		2015_Jul_07_1048	59.9269327321	LearningTask	1	81	
255	200.0	s	-200.0																	2.0	0.0	2.0	0.0	7.0	2.0	30.0	2.0																													s	1.0	0.317885875702	None	0.0	2.0	crossorange.gif	stop																								0.0	0.514124155045	0.000997066497803	0.317885875702	1.0	s	1053.92701602																																		2015_Jul_07_1048	59.9269327321	LearningTask	1	81	
256	-200.0	q	200.0																	2.0	0.0	2.0	0.0	7.0	3.0	31.0	1.0																													q	1.0	0.384150981903	None	0.0	2.0	crossorange.gif	stop																								1.93	0.514380931854	0.0008759498596189999	0.384150981903	1.0	q	1056.9305892																																		2015_Jul_07_1048	59.9269327321	LearningTask	1	81	
257	-200.0	a	-200.0																	2.0	0.0	2.0	0.0	8.0	0.0	32.0	3.0																													a	1.0	0.350697994232	None	0.0	4.0	invertedtrianglemagenta.gif	go																								0.0	0.514404058456	0.000881195068359	0.350697994232	1.0	a	1059.93447614																																		2015_Jul_07_1048	59.9269327321	LearningTask	1	81	
258	200.0	w	200.0																	2.0	0.0	2.0	0.0	8.0	1.0	33.0	0.0																													w	1.0	0.31754899025	None	0.0	4.0	diamondgreen.gif	stop																								3.83	0.513418912888	0.0009109973907470001	0.31754899025	1.0	w	1062.93710113																																		2015_Jul_07_1048	59.9269327321	LearningTask	1	81	
259	-200.0	a	-200.0																	2.0	0.0	2.0	0.0	8.0	2.0	34.0	3.0																													a	1.0	0.317467927933	None	0.0	0.5	trianglegray.gif	go																								0.41	0.514487028122	0.000869989395142	0.317467927933	1.0	a	1065.9407742																																		2015_Jul_07_1048	59.9269327321	LearningTask	1	81	
260	-200.0	q	200.0																	2.0	0.0	2.0	0.0	8.0	3.0	35.0	1.0																													q	1.0	0.334436178207	None	0.0	0.5	trianglegray.gif	go																								0.43	0.5141258239750001	0.0008909702301030001	0.334436178207	1.0	q	1068.94428301																																		2015_Jul_07_1048	59.9269327321	LearningTask	1	81	
261	-200.0	a	-200.0																	2.0	0.0	2.0	0.0	9.0	0.0	36.0	3.0																													a	1.0	0.367662906647	None	0.0	4.0	invertedtrianglemagenta.gif	go																								4.25	0.513494968414	0.0009069442749019998	0.367662906647	1.0	a	1071.94728804																																		2015_Jul_07_1048	59.9269327321	LearningTask	1	81	
262	-200.0	a	-200.0																	2.0	0.0	2.0	0.0	9.0	1.0	37.0	3.0																													a	1.0	0.36755895614600004	None	0.0	1.0	squarecyan.gif	stop																								1.09	0.5141868591309999	0.0008769035339360002	0.367558956146	1.0	a	1074.95060706																																		2015_Jul_07_1048	59.9269327321	LearningTask	1	81	
263	200.0	w	200.0																	2.0	0.0	2.0	0.0	9.0	2.0	38.0	0.0																													w	1.0	0.300936937332	None	0.0	1.0	hexagonwhite.gif	go																								1.24	0.514596939087	0.0008821487426760002	0.300936937332	1.0	w	1077.95435214																																		2015_Jul_07_1048	59.9269327321	LearningTask	1	81	
264	-200.0	a	-200.0																	2.0	0.0	2.0	0.0	9.0	3.0	39.0	3.0																													a	1.0	0.317384958267	None	0.0	1.0	hexagonwhite.gif	go																								0.81	0.513731002808	0.0008959770202639998	0.317384958267	1.0	a	1080.95744419																																		2015_Jul_07_1048	59.9269327321	LearningTask	1	81	
265	-200.0	q	200.0																	2.0	0.0	2.0	0.0	10.0	0.0	40.0	1.0																													q	1.0	0.300579071045	None	0.0	2.0	circleyellow.gif	go																								2.05	0.514070034027	0.0010290145874	0.300579071045	1.0	q	1083.96073508																																		2015_Jul_07_1048	59.9269327321	LearningTask	1	81	
266	200.0	w	200.0																	2.0	0.0	2.0	0.0	10.0	1.0	41.0	0.0																													w	1.0	0.40057897567699996	None	0.0	0.5	trianglegray.gif	go																								0.73	0.5143349170679999	0.0008869171142580001	0.400578975677	1.0	w	1086.96389818																																		2015_Jul_07_1048	59.9269327321	LearningTask	1	81	
267	200.0	w	200.0																	2.0	0.0	2.0	0.0	10.0	2.0	42.0	0.0																													w	1.0	0.350727081299	None	0.0	0.5	lineblue.gif	stop																								0.38	0.5144460201259999	0.000887155532837	0.350727081299	1.0	w	1089.96784019																																		2015_Jul_07_1048	59.9269327321	LearningTask	1	81	
268	-200.0	a	-200.0																	2.0	0.0	2.0	0.0	10.0	3.0	43.0	3.0																													a	1.0	0.367418050766	None	0.0	0.5	trianglegray.gif	go																								0.27	0.513776063919	0.0009670257568360001	0.367418050766	1.0	a	1092.97094011																																		2015_Jul_07_1048	59.9269327321	LearningTask	1	81	
269	-200.0	a	-200.0																	2.0	0.0	2.0	0.0	11.0	0.0	44.0	3.0																													a	1.0	0.317144155502	None	0.0	2.0	circleyellow.gif	go																								2.13	0.514325857162	0.000921964645386	0.317144155502	1.0	a	1095.97418714																																		2015_Jul_07_1048	59.9269327321	LearningTask	1	81	
270	200.0	s	-200.0																	2.0	0.0	2.0	0.0	11.0	1.0	45.0	2.0																													s	1.0	0.4175760746	None	0.0	0.5	trianglegray.gif	go																								0.67	0.514311075211	0.0008790493011469999	0.4175760746	1.0	s	1098.97733402																																		2015_Jul_07_1048	59.9269327321	LearningTask	1	81	
271	200.0	s	-200.0																	2.0	0.0	2.0	0.0	11.0	2.0	46.0	2.0																													s	1.0	0.350255012512	None	0.0	2.0	crossorange.gif	stop																								0.0	0.5144588947300001	0.0009369850158689999	0.350255012512	1.0	s	1101.9808352																																		2015_Jul_07_1048	59.9269327321	LearningTask	1	81	
272	-200.0	q	200.0																	2.0	0.0	2.0	0.0	11.0	3.0	47.0	1.0																													q	1.0	0.334082841873	None	0.0	0.5	trianglegray.gif	go																								0.0	0.514660835266	0.0013649463653599998	0.334082841873	1.0	q	1104.984447																																		2015_Jul_07_1048	59.9269327321	LearningTask	1	81	
273	-200.0	q	200.0																	2.0	0.0	2.0	0.0	12.0	0.0	48.0	1.0																													q	1.0	0.33401894569400004	None	0.0	4.0	invertedtrianglemagenta.gif	go																								4.1	0.514157056808	0.0008740425109860002	0.334018945694	1.0	q	1107.98766422																																		2015_Jul_07_1048	59.9269327321	LearningTask	1	81	
274	200.0	w	200.0																	2.0	0.0	2.0	0.0	12.0	1.0	49.0	0.0																													w	1.0	0.367288827896	None	0.0	1.0	hexagonwhite.gif	go																								0.0	0.5143120288849999	0.0009250640869139999	0.367288827896	1.0	w	1110.99074721																																		2015_Jul_07_1048	59.9269327321	LearningTask	1	81	
275	-200.0	q	200.0																	2.0	0.0	2.0	0.0	12.0	2.0	50.0	1.0																													q	1.0	0.300739049911	None	0.0	1.0	hexagonwhite.gif	go																								0.85	0.514322042465	0.0009441375732419999	0.300739049911	1.0	q	1113.99460816																																		2015_Jul_07_1048	59.9269327321	LearningTask	1	81	
276	-200.0	a	-200.0																	2.0	0.0	2.0	0.0	12.0	3.0	51.0	3.0																													a	1.0	0.400954008102	None	0.0	0.5	lineblue.gif	stop																								0.58	0.51401591301	0.000881910324097	0.400954008102	1.0	a	1116.99799323																																		2015_Jul_07_1048	59.9269327321	LearningTask	1	81	
277	-200.0	q	200.0																	2.0	0.0	2.0	0.0	13.0	0.0	52.0	1.0																													q	1.0	0.317883968353	None	0.0	0.5	lineblue.gif	stop																								0.57	0.513715982437	0.00087308883667	0.317883968353	1.0	q	1120.00103402																																		2015_Jul_07_1048	59.9269327321	LearningTask	1	81	
278	200.0	s	-200.0																	2.0	0.0	2.0	0.0	13.0	1.0	53.0	2.0																													s	1.0	0.334204912186	None	0.0	1.0	hexagonwhite.gif	go																								0.95	0.514132022858	0.000881910324097	0.334204912186	1.0	s	1123.00420403																																		2015_Jul_07_1048	59.9269327321	LearningTask	1	81	
279	-200.0	q	200.0																	2.0	0.0	2.0	0.0	13.0	2.0	54.0	1.0																													q	1.0	0.36705803871200005	None	0.0	0.5	trianglegray.gif	go																								0.53	0.514765024185	0.000880002975464	0.367058038712	1.0	q	1126.00801921																																		2015_Jul_07_1048	59.9269327321	LearningTask	1	81	
280	200.0	w	200.0																	2.0	0.0	2.0	0.0	13.0	3.0	55.0	0.0																													w	1.0	0.417459964752	None	0.0	0.5	lineblue.gif	stop																								0.62	0.514001846313	0.000877857208252	0.417459964752	1.0	w	1129.01102304																																		2015_Jul_07_1048	59.9269327321	LearningTask	1	81	
281	-200.0	a	-200.0																	2.0	0.0	2.0	0.0	14.0	0.0	56.0	3.0																													a	1.0	0.351396083832	None	0.0	4.0	diamondgreen.gif	stop																								4.03	0.5142819881440001	0.0010929107666	0.351396083832	1.0	a	1132.01447916																																		2015_Jul_07_1048	59.9269327321	LearningTask	1	81	
282	-200.0	q	200.0																	2.0	0.0	2.0	0.0	14.0	1.0	57.0	1.0																													q	1.0	0.334211111069	None	0.0	4.0	diamondgreen.gif	stop																								4.03	0.51406788826	0.000892877578735	0.334211111069	1.0	q	1135.01771522																																		2015_Jul_07_1048	59.9269327321	LearningTask	1	81	
283	-200.0	q	200.0																	2.0	0.0	2.0	0.0	14.0	2.0	58.0	1.0																													q	1.0	0.334309101105	None	0.0	2.0	crossorange.gif	stop																								0.0	0.51432800293	0.000881910324097	0.334309101105	1.0	q	1138.02090812																																		2015_Jul_07_1048	59.9269327321	LearningTask	1	81	
284	-200.0	q	200.0																	2.0	0.0	2.0	0.0	14.0	3.0	59.0	1.0																													q	1.0	0.317605018616	None	0.0	2.0	crossorange.gif	stop																								2.1	0.514321088791	0.00320410728455	0.317605018616	1.0	q	1141.02463508																																		2015_Jul_07_1048	59.9269327321	LearningTask	1	81	
285	200.0	w	200.0																	2.0	0.0	2.0	0.0	15.0	0.0	60.0	0.0																													w	1.0	0.35059905052199997	None	0.0	4.0	diamondgreen.gif	stop																								4.05	0.514282941818	0.0008709430694580001	0.350599050522	1.0	w	1144.02771211																																		2015_Jul_07_1048	59.9269327321	LearningTask	1	81	
286	200.0	w	200.0																	2.0	0.0	2.0	0.0	15.0	1.0	61.0	0.0																													w	1.0	0.384593963623	None	0.0	2.0	circleyellow.gif	go																								1.84	0.5144460201259999	0.00088095664978	0.384593963623	1.0	w	1147.0311451																																		2015_Jul_07_1048	59.9269327321	LearningTask	1	81	
287	-200.0	a	-200.0																	2.0	0.0	2.0	0.0	15.0	2.0	62.0	3.0																													a	1.0	0.40102291107199994	None	0.0	4.0	diamondgreen.gif	stop																								4.2	0.514123916626	0.00120711326599	0.401022911072	1.0	a	1150.03451419																																		2015_Jul_07_1048	59.9269327321	LearningTask	1	81	
288	-200.0	q	200.0																	2.0	0.0	2.0	0.0	15.0	3.0	63.0	1.0																													q	1.0	0.333966970444	None	0.0	0.5	trianglegray.gif	go																								0.48	0.514446973801	0.000885009765625	0.333966970444	1.0	q	1153.0377170999998																																		2015_Jul_07_1048	59.9269327321	LearningTask	1	81	
289	-200.0	q	200.0																	2.0	0.0	2.0	0.0	16.0	0.0	64.0	1.0																													q	1.0	0.36700296401999993	None	0.0	0.5	trianglegray.gif	go																								0.56	0.51447892189	0.0009338855743410001	0.36700296402	1.0	q	1156.04118514																																		2015_Jul_07_1048	59.9269327321	LearningTask	1	81	
290	-200.0	q	200.0																	2.0	0.0	2.0	0.0	16.0	1.0	65.0	1.0																													q	1.0	0.300653934479	None	0.0	4.0	invertedtrianglemagenta.gif	go																								3.81	0.514678955078	0.000898838043213	0.300653934479	1.0	q	1159.0445261																																		2015_Jul_07_1048	59.9269327321	LearningTask	1	81	
291	200.0	s	-200.0																	2.0	0.0	2.0	0.0	16.0	2.0	66.0	2.0																													s	1.0	0.334017038345	None	0.0	0.5	trianglegray.gif	go																								0.37	0.514620065689	0.0008971691131589999	0.334017038345	1.0	s	1162.04799914																																		2015_Jul_07_1048	59.9269327321	LearningTask	1	81	
