	xPos	corrAns	yPos	corrGoResp	yPosGoStim	xPosGoStim	pracTrials.thisRepN	pracTrials.thisTrialN	pracTrials.thisN	pracTrials.thisIndex	ReDoLoopPrac.thisRepN	ReDoLoopPrac.thisTrialN	ReDoLoopPrac.thisN	ReDoLoopPrac.thisIndex	ReDoLoopPrac.thisTrial	pracStopTrials.thisRepN	pracStopTrials.thisTrialN	pracStopTrials.thisN	pracStopTrials.thisIndex	Blocks.thisRepN	Blocks.thisTrialN	Blocks.thisN	Blocks.thisIndex	trials.thisRepN	trials.thisTrialN	trials.thisN	trials.thisIndex	ReDoLoopMain.thisRepN	ReDoLoopMain.thisTrialN	ReDoLoopMain.thisN	ReDoLoopMain.thisIndex	ReDoLoopMain.thisTrial	StopBlocks.thisRepN	StopBlocks.thisTrialN	StopBlocks.thisN	StopBlocks.thisIndex	StopTrials.thisRepN	StopTrials.thisTrialN	StopTrials.thisN	StopTrials.thisIndex	auctionBlocks.thisRepN	auctionBlocks.thisTrialN	auctionBlocks.thisN	auctionBlocks.thisIndex	auctionTrials.thisRepN	auctionTrials.thisTrialN	auctionTrials.thisN	auctionTrials.thisIndex	learningTrialList	learningPracTrialList	stopTrialList	stopPracTrialList	auctionTrialList	ok1.keys	ok1.rt	resp.keys	resp.corr	resp.rt	feedbackResp.keys	feedbackResp.corr	currentReward	currentStimulus	currentStimType	firstPracComputedRewardOutput	firstPracLearningStimOnset	firstPracLearningFixOnset	firstPracPresentationRT	firstPracPresentationAcc	firstPracPresentationResp	firstPracEndTrialTimeStamp	StartTrialTimeStamp	trialType	goStim	stimType	stopStimValue	goResp.keys	goResp.corr	goResp.rt	key_resp_9.keys	key_resp_9.corr	fixStopOnset	goStimOnset	EndTrialTimeStamp	stopSignalOnset	key_resp_3.keys	key_resp_3.rt	firstComputedRewardOutput	firstLearningStimOnset	firstLearningFixOnset	firstPresentationRT	firstPresentationAcc	firstPresentationResp	firstEndTrialTimeStamp	key_resp_7.keys	key_resp_7.rt	feedbackResp.rt	secondComputedRewardOutput	secondLearningStimOnset	secondLearningFixOnset	secondPresentationRT	secondPresentationAcc	secondPresentationResp	secondEndTrialTimeStamp	beginningSSD	EndingSSD	key_resp_9.rt	key_resp_4.keys	key_resp_4.rt	auctionResponse.keys	auctionStimDuration	auctionStim	auctionAmounts	auctionStimValue	auctionCondition	chosenAuctionAmount	auctionResponse.rt	key_resp_5.keys	key_resp_5.rt	shuffledRewardList	chosenReward1	chosenReward2	chosenReward3	chosenReward4	chosenReward5	key_resp_6.keys	key_resp_6.rt	date	frameRate	expName	session	participant	Unnamed: 131
0																																																	[]	[]	[]	[]	[]	9.0	50.69683504100001																																																																								2015_Jun_25_1004	59.9351535495	LearningTask	1	20	
1	200.0	w	200.0				0.0	0.0	0.0	8.0																																														w	1.0	0.6345849037169999	None	0.0	1.0	circleblue.gif	go	0.89	0.506649017334	0.0368249416351	0.6345849037169999	1.0	w	78.9202749729																																																									2015_Jun_25_1004	59.9351535495	LearningTask	1	20	
2	-200.0	q	200.0				0.0	1.0	1.0	9.0																																														q	1.0	0.48449110984800003	None	0.0	4.0	diamondwhite.gif	go	3.98	0.5144288539890001	0.0461189746857	0.48449110984800003	1.0	q	81.9230430126																																																									2015_Jun_25_1004	59.9351535495	LearningTask	1	20	
3	200.0	s	-200.0				0.0	2.0	2.0	2.0																																														s	1.0	0.568146944046	None	0.0	1.0	circleblue.gif	go	1.05	0.515196084976	0.00105404853821	0.568146944046	1.0	s	84.9263920784																																																									2015_Jun_25_1004	59.9351535495	LearningTask	1	20	
4	-200.0	q	200.0				0.0	3.0	3.0	5.0																																														q	1.0	0.43479514122	None	0.0	4.0	diamondwhite.gif	go	4.19	0.5153248310090001	0.000898838043213	0.43479514122	1.0	q	87.9299881458																																																									2015_Jun_25_1004	59.9351535495	LearningTask	1	20	
5	-200.0	q	200.0				0.0	4.0	4.0	1.0																																														q	1.0	0.43403792381300005	None	0.0	4.0	trianglegray.gif	stop	0.0	0.51518201828	0.0379149913788	0.43403792381300005	1.0	q	90.93318295479999																																																									2015_Jun_25_1004	59.9351535495	LearningTask	1	20	
6	-200.0	a	-200.0				0.0	5.0	5.0	3.0																																														a	1.0	0.450689077377	None	0.0	1.0	circleblue.gif	go	0.88	0.515434026718	0.0009670257568360001	0.450689077377	1.0	a	93.93671512600001																																																									2015_Jun_25_1004	59.9351535495	LearningTask	1	20	
7	200.0	w	200.0				0.0	6.0	6.0	0.0																																														w	1.0	0.467793941498	None	0.0	0.5	crosscyan.gif	stop	0.3	0.515012979507	0.0013008117675799998	0.467793941498	1.0	w	96.93990397450001																																																									2015_Jun_25_1004	59.9351535495	LearningTask	1	20	
8	-200.0	a	-200.0				0.0	7.0	7.0	7.0																																														a	1.0	0.484796047211	None	0.0	1.0	circleblue.gif	go	0.97	0.514748811722	0.000943899154663	0.484796047211	1.0	a	99.94313597680001																																																									2015_Jun_25_1004	59.9351535495	LearningTask	1	20	
9	200.0	s	-200.0				0.0	8.0	8.0	6.0																																														s	1.0	0.467715024948	None	0.0	2.0	lineyellow.gif	go	1.81	0.515297889709	0.0012989044189500002	0.467715024948	1.0	s	102.94661402700001																																																									2015_Jun_25_1004	59.9351535495	LearningTask	1	20	
10	200.0	w	200.0				0.0	9.0	9.0	4.0																																														w	1.0	0.384192943573	None	0.0	4.0	diamondwhite.gif	go	3.82	0.514970064163	0.0008990764617919999	0.384192943573	1.0	w	105.95029115700001																																																									2015_Jun_25_1004	59.9351535495	LearningTask	1	20	
11				z	0.0	-200.0										0.0	0.0	0.0	0.0																																																				158.981207132	go	circleblue.gif	go	1.0	z	1.0	0.46764397621200005	None	0.0	0.00129199028015	0.510149002075	161.97914505																																												2015_Jun_25_1004	59.9351535495	LearningTask	1	20	
12				m	0.0	200.0										0.0	1.0	1.0	1.0																																																				161.979673147	go	diamondwhite.gif	go	4.0	m	1.0	0.367854833603	None	0.0	0.0012800693512	0.515320062637	164.982273102																																												2015_Jun_25_1004	59.9351535495	LearningTask	1	20	
13				z	0.0	-200.0										1.0	0.0	2.0	0.0																																																				164.98275113100001	go	lineyellow.gif	go	2.0	z	1.0	0.384128093719	None	0.0	0.000994920730591	0.5157878398899999	167.98583912799998																																												2015_Jun_25_1004	59.9351535495	LearningTask	1	20	
14				z	0.0	-200.0										1.0	1.0	3.0	0.0																																																				167.986202955	stop	crosscyan.gif	stop	0.5	z	1.0	0.400837898254	None	0.0	0.000946044921875	0.515646219254	170.989422083	0.766368150711																																											2015_Jun_25_1004	59.9351535495	LearningTask	1	20	
15				z	0.0	-200.0										2.0	0.0	4.0	0.0																																																				170.989835024	go	diamondwhite.gif	go	4.0	z	1.0	0.5009369850159999	None	0.0	0.0010869503021199997	0.515423059464	173.992331028																																												2015_Jun_25_1004	59.9351535495	LearningTask	1	20	
16				m	0.0	200.0										2.0	1.0	5.0	1.0																																																				173.992738008	go	squaremagenta.gif	go	0.5	m	1.0	0.48363208770800004	None	0.0	0.0371270179749	0.515793800354	176.99554801																																												2015_Jun_25_1004	59.9351535495	LearningTask	1	20	
17				z	0.0	-200.0										3.0	0.0	6.0	0.0																																																				176.99591112099998	stop	hexagonorange.gif	stop	2.0	None	0.0		None	0.0	0.0013279914856	0.516115903854	179.9990201	0.766459941864																																											2015_Jun_25_1004	59.9351535495	LearningTask	1	20	
18				m	0.0	200.0										3.0	1.0	7.0	1.0																																																				179.999494076	stop	hexagonorange.gif	stop	2.0	m	1.0	0.467957019806	None	0.0	0.0010130405426	0.51571393013	183.002427101	0.766098976135																																											2015_Jun_25_1004	59.9351535495	LearningTask	1	20	
19				m	0.0	200.0										4.0	0.0	8.0	1.0																																																				183.00278997400002	stop	crosscyan.gif	stop	0.5	m	1.0	0.451112985611	None	0.0	0.0009520053863530001	0.515777826309	186.00584816900002	0.765922784805																																											2015_Jun_25_1004	59.9351535495	LearningTask	1	20	
20				m	0.0	200.0										4.0	1.0	9.0	1.0																																																				186.00625205	go	squaremagenta.gif	go	0.5	m	1.0	0.484498023987	None	0.0	0.00100612640381	0.515669107437	189.00913405400001																																												2015_Jun_25_1004	59.9351535495	LearningTask	1	20	
21																																																																																					9.0	114.706843853																																									2015_Jun_25_1004	59.9351535495	LearningTask	1	20	
22																																																						9.0	13.56554389																																																																								2015_Jun_25_1004	59.9351535495	LearningTask	1	20	
23	200.0	s	-200.0																	0.0	0.0	0.0	0.0	0.0	0.0	0.0	2.0																													s	1.0	0.46771407127400005	None	0.0	2.0	lineyellow.gif	go																								1.86	0.507708072662	0.0008862018585209999	0.46771407127400005	1.0	s	320.42404604																																		2015_Jun_25_1004	59.9351535495	LearningTask	1	20	
24	-200.0	a	-200.0																	0.0	0.0	0.0	0.0	0.0	1.0	1.0	3.0																													a	1.0	0.434271097183	None	0.0	4.0	trianglegray.gif	stop																								4.15	0.513585090637	0.000890016555786	0.434271097183	1.0	a	323.426687002																																		2015_Jun_25_1004	59.9351535495	LearningTask	1	20	
25	200.0	s	-200.0																	0.0	0.0	0.0	0.0	0.0	2.0	2.0	2.0																													s	1.0	0.384308099747	None	0.0	1.0	circleblue.gif	go																								0.0	0.514086961746	0.00103497505188	0.384308099747	1.0	s	326.43023896200003																																		2015_Jun_25_1004	59.9351535495	LearningTask	1	20	
26	200.0	w	200.0																	0.0	0.0	0.0	0.0	0.0	3.0	3.0	0.0																													w	1.0	0.367574930191	None	0.0	1.0	invertedtrianglegreen.gif	stop																								0.9	0.514168977737	0.0013120174408	0.367574930191	1.0	w	329.433241129																																		2015_Jun_25_1004	59.9351535495	LearningTask	1	20	
27	200.0	w	200.0																	0.0	0.0	0.0	0.0	1.0	0.0	4.0	0.0																													w	1.0	0.43460893631	None	0.0	1.0	circleblue.gif	go																								1.05	0.514535903931	0.0009100437164310001	0.43460893631	1.0	w	332.436486006																																		2015_Jun_25_1004	59.9351535495	LearningTask	1	20	
28	200.0	s	-200.0																	0.0	0.0	0.0	0.0	1.0	1.0	5.0	2.0																													s	1.0	0.400892972946	None	0.0	0.5	crosscyan.gif	stop																								0.0	0.514377117157	0.000961065292358	0.400892972946	1.0	s	335.439992189																																		2015_Jun_25_1004	59.9351535495	LearningTask	1	20	
29	200.0	s	-200.0																	0.0	0.0	0.0	0.0	1.0	2.0	6.0	2.0																													s	1.0	0.384673833847	None	0.0	1.0	circleblue.gif	go																								1.1	0.514330863953	0.0008978843688960001	0.384673833847	1.0	s	338.443339109																																		2015_Jun_25_1004	59.9351535495	LearningTask	1	20	
30	200.0	s	-200.0																	0.0	0.0	0.0	0.0	1.0	3.0	7.0	2.0																													s	1.0	0.333863019943	None	0.0	1.0	invertedtrianglegreen.gif	stop																								1.1	0.514752864838	0.000942945480347	0.333863019943	1.0	s	341.446952105																																		2015_Jun_25_1004	59.9351535495	LearningTask	1	20	
31	200.0	s	-200.0																	0.0	0.0	0.0	0.0	2.0	0.0	8.0	2.0																													s	1.0	0.433945178986	None	0.0	1.0	circleblue.gif	go																								1.03	0.514236927032	0.000977039337158	0.433945178986	1.0	s	344.45023918199996																																		2015_Jun_25_1004	59.9351535495	LearningTask	1	20	
32	-200.0	a	-200.0																	0.0	0.0	0.0	0.0	2.0	1.0	9.0	3.0																													a	1.0	0.367626905441	None	0.0	4.0	trianglegray.gif	stop																								3.97	0.514140129089	0.0008959770202639998	0.367626905441	1.0	a	347.45336818699997																																		2015_Jun_25_1004	59.9351535495	LearningTask	1	20	
33	-200.0	a	-200.0																	0.0	0.0	0.0	0.0	2.0	2.0	10.0	3.0																													a	1.0	0.400782108307	None	0.0	4.0	diamondwhite.gif	go																								3.89	0.514542102814	0.0009140968322749999	0.400782108307	1.0	a	350.456986189																																		2015_Jun_25_1004	59.9351535495	LearningTask	1	20	
34	200.0	s	-200.0																	0.0	0.0	0.0	0.0	2.0	3.0	11.0	2.0																													s	1.0	0.3673350811	None	0.0	0.5	crosscyan.gif	stop																								0.0	0.513932228088	0.0009012222290039999	0.3673350811	1.0	s	353.460294008																																		2015_Jun_25_1004	59.9351535495	LearningTask	1	20	
35	-200.0	a	-200.0																	0.0	0.0	0.0	0.0	3.0	0.0	12.0	3.0																													a	1.0	0.350796937943	None	0.0	2.0	lineyellow.gif	go																								2.22	0.514112949371	0.000892877578735	0.350796937943	1.0	a	356.463554144																																		2015_Jun_25_1004	59.9351535495	LearningTask	1	20	
36	-200.0	q	200.0																	0.0	0.0	0.0	0.0	3.0	1.0	13.0	1.0																													q	1.0	0.417722940445	None	0.0	4.0	trianglegray.gif	stop																								4.01	0.514187097549	0.0009109973907470001	0.417722940445	1.0	q	359.46729111699995																																		2015_Jun_25_1004	59.9351535495	LearningTask	1	20	
37	-200.0	q	200.0																	0.0	0.0	0.0	0.0	3.0	2.0	14.0	1.0																													q	1.0	0.350888967514	None	0.0	4.0	diamondwhite.gif	go																								0.0	0.513499975204	0.000913858413696	0.350888967514	1.0	q	362.47028899199995																																		2015_Jun_25_1004	59.9351535495	LearningTask	1	20	
38	-200.0	a	-200.0																	0.0	0.0	0.0	0.0	3.0	3.0	15.0	3.0																													a	1.0	0.384074926376	None	0.0	4.0	trianglegray.gif	stop																								3.78	0.51443696022	0.0009019374847410001	0.384074926376	1.0	a	365.473591089																																		2015_Jun_25_1004	59.9351535495	LearningTask	1	20	
39	200.0	s	-200.0																	0.0	0.0	0.0	0.0	4.0	0.0	16.0	2.0																													s	1.0	0.383903980255	None	0.0	4.0	diamondwhite.gif	go																								4.04	0.514616966248	0.0010938644409200001	0.383903980255	1.0	s	368.477234125																																		2015_Jun_25_1004	59.9351535495	LearningTask	1	20	
40	-200.0	a	-200.0																	0.0	0.0	0.0	0.0	4.0	1.0	17.0	3.0																													a	1.0	0.43469595909100006	None	0.0	0.5	crosscyan.gif	stop																								0.32	0.513300180435	0.0008959770202639998	0.43469595909100006	1.0	a	371.480355024																																		2015_Jun_25_1004	59.9351535495	LearningTask	1	20	
41	-200.0	a	-200.0																	0.0	0.0	0.0	0.0	4.0	2.0	18.0	3.0																													a	1.0	0.384369850159	None	0.0	2.0	lineyellow.gif	go																								0.0	0.514279127121	0.00102710723877	0.384369850159	1.0	a	374.48400807400003																																		2015_Jun_25_1004	59.9351535495	LearningTask	1	20	
42	-200.0	a	-200.0																	0.0	0.0	0.0	0.0	4.0	3.0	19.0	3.0																													a	1.0	0.401053905487	None	0.0	0.5	squaremagenta.gif	go																								0.66	0.513818025589	0.0009019374847410001	0.401053905487	1.0	a	377.487102032																																		2015_Jun_25_1004	59.9351535495	LearningTask	1	20	
43	-200.0	q	200.0																	0.0	0.0	0.0	0.0	5.0	0.0	20.0	1.0																													q	1.0	0.45072889328000004	None	0.0	2.0	hexagonorange.gif	stop																								2.21	0.514475822449	0.0008978843688960001	0.45072889328000004	1.0	q	380.490369081																																		2015_Jun_25_1004	59.9351535495	LearningTask	1	20	
44	200.0	s	-200.0																	0.0	0.0	0.0	0.0	5.0	1.0	21.0	2.0																													s	1.0	0.384010076523	None	0.0	1.0	invertedtrianglegreen.gif	stop																								1.23	0.514189958572	0.000964879989624	0.384010076523	1.0	s	383.493843079																																		2015_Jun_25_1004	59.9351535495	LearningTask	1	20	
45	200.0	s	-200.0																	0.0	0.0	0.0	0.0	5.0	2.0	22.0	2.0																													s	1.0	0.367209911346	None	0.0	1.0	circleblue.gif	go																								1.16	0.514401912689	0.0008950233459470001	0.367209911346	1.0	s	386.496999025																																		2015_Jun_25_1004	59.9351535495	LearningTask	1	20	
46	-200.0	q	200.0																	0.0	0.0	0.0	0.0	5.0	3.0	23.0	1.0																													q	1.0	0.43395400047300003	None	0.0	0.5	crosscyan.gif	stop																								0.33	0.514595985413	0.0008940696716310001	0.43395400047300003	1.0	q	389.500746965																																		2015_Jun_25_1004	59.9351535495	LearningTask	1	20	
47	-200.0	a	-200.0																	0.0	0.0	0.0	0.0	6.0	0.0	24.0	3.0																													a	1.0	0.451259851456	None	0.0	4.0	trianglegray.gif	stop																								4.1	0.5134479999539999	0.0009441375732419999	0.451259851456	1.0	a	392.504117012																																		2015_Jun_25_1004	59.9351535495	LearningTask	1	20	
48	200.0	s	-200.0																	0.0	0.0	0.0	0.0	6.0	1.0	25.0	2.0																													s	1.0	0.401189088821	None	0.0	2.0	lineyellow.gif	go																								2.16	0.513877868652	0.000888824462891	0.401189088821	1.0	s	395.50715208099996																																		2015_Jun_25_1004	59.9351535495	LearningTask	1	20	
49	-200.0	a	-200.0																	0.0	0.0	0.0	0.0	6.0	2.0	26.0	3.0																													a	1.0	0.384361028671	None	0.0	0.5	squaremagenta.gif	go																								0.41	0.5143229961399999	0.000885009765625	0.384361028671	1.0	a	398.510287046																																		2015_Jun_25_1004	59.9351535495	LearningTask	1	20	
50	-200.0	a	-200.0																	0.0	0.0	0.0	0.0	6.0	3.0	27.0	3.0																													a	1.0	0.383841991425	None	0.0	4.0	diamondwhite.gif	go																								4.01	0.514542102814	0.000928163528442	0.383841991425	1.0	a	401.514109135																																		2015_Jun_25_1004	59.9351535495	LearningTask	1	20	
51	-200.0	q	200.0																	0.0	0.0	0.0	0.0	7.0	0.0	28.0	1.0																													q	1.0	0.43408679962200003	None	0.0	2.0	hexagonorange.gif	stop																								1.87	0.514189004898	0.0009140968322749999	0.43408679962200003	1.0	q	404.517208099																																		2015_Jun_25_1004	59.9351535495	LearningTask	1	20	
52	-200.0	q	200.0																	0.0	0.0	0.0	0.0	7.0	1.0	29.0	1.0																													q	1.0	0.400902986526	None	0.0	0.5	squaremagenta.gif	go																								0.0	0.5141859054569999	0.0008878707885739998	0.400902986526	1.0	q	407.520774126																																		2015_Jun_25_1004	59.9351535495	LearningTask	1	20	
53	200.0	s	-200.0																	0.0	0.0	0.0	0.0	7.0	2.0	30.0	2.0																													s	1.0	0.43422198295599995	None	0.0	4.0	trianglegray.gif	stop																								0.0	0.5139930248260001	0.000904083251953	0.43422198295599995	1.0	s	410.52387714400004																																		2015_Jun_25_1004	59.9351535495	LearningTask	1	20	
54	200.0	w	200.0																	0.0	0.0	0.0	0.0	7.0	3.0	31.0	0.0																													w	1.0	0.35037803649899996	None	0.0	0.5	squaremagenta.gif	go																								0.56	0.514376163483	0.0009069442749019998	0.35037803649899996	1.0	w	413.527235985																																		2015_Jun_25_1004	59.9351535495	LearningTask	1	20	
55	-200.0	q	200.0																	0.0	0.0	0.0	0.0	8.0	0.0	32.0	1.0																													q	1.0	0.43416094780000003	None	0.0	4.0	trianglegray.gif	stop																								3.98	0.514460086823	0.000996112823486	0.43416094780000003	1.0	q	416.530934095																																		2015_Jun_25_1004	59.9351535495	LearningTask	1	20	
56	200.0	w	200.0																	0.0	0.0	0.0	0.0	8.0	1.0	33.0	0.0																													w	1.0	0.368156909943	None	0.0	0.5	crosscyan.gif	stop																								0.37	0.514029026031	0.000909090042114	0.368156909943	1.0	w	419.53402209300003																																		2015_Jun_25_1004	59.9351535495	LearningTask	1	20	
57	-200.0	a	-200.0																	0.0	0.0	0.0	0.0	8.0	2.0	34.0	3.0																													a	1.0	0.400993824005	None	0.0	2.0	hexagonorange.gif	stop																								1.79	0.514314889908	0.0010449886322	0.400993824005	1.0	a	422.53743314699994																																		2015_Jun_25_1004	59.9351535495	LearningTask	1	20	
58	200.0	s	-200.0																	0.0	0.0	0.0	0.0	8.0	3.0	35.0	2.0																													s	1.0	0.367661952972	None	0.0	0.5	crosscyan.gif	stop																								0.69	0.5140888690950001	0.0009369850158689999	0.367661952972	1.0	s	425.54068303099996																																		2015_Jun_25_1004	59.9351535495	LearningTask	1	20	
59	200.0	w	200.0																	0.0	0.0	0.0	0.0	9.0	0.0	36.0	0.0																													w	1.0	0.401108980179	None	0.0	1.0	invertedtrianglegreen.gif	stop																								1.2	0.51437997818	0.0008940696716310001	0.401108980179	1.0	w	428.54407215099997																																		2015_Jun_25_1004	59.9351535495	LearningTask	1	20	
60	200.0	w	200.0																	0.0	0.0	0.0	0.0	9.0	1.0	37.0	0.0																													w	1.0	0.36778497695900003	None	0.0	2.0	lineyellow.gif	go																								2.08	0.5141398906710001	0.0009670257568360001	0.36778497695900003	1.0	w	431.547491074																																		2015_Jun_25_1004	59.9351535495	LearningTask	1	20	
61	-200.0	q	200.0																	0.0	0.0	0.0	0.0	9.0	2.0	38.0	1.0																													q	1.0	0.35074901580799994	None	0.0	2.0	lineyellow.gif	go																								0.0	0.514358043671	0.000898838043213	0.35074901580799994	1.0	q	434.550853968																																		2015_Jun_25_1004	59.9351535495	LearningTask	1	20	
62	-200.0	q	200.0																	0.0	0.0	0.0	0.0	9.0	3.0	39.0	1.0																													q	1.0	0.384815216064	None	0.0	0.5	crosscyan.gif	stop																								0.54	0.513958930969	0.000904083251953	0.384815216064	1.0	q	437.554244041																																		2015_Jun_25_1004	59.9351535495	LearningTask	1	20	
63	-200.0	a	-200.0																	0.0	0.0	0.0	0.0	10.0	0.0	40.0	3.0																													a	1.0	0.38459610939000005	None	0.0	2.0	lineyellow.gif	go																								1.92	0.513564825058	0.0009448528289790001	0.38459610939000005	1.0	a	440.557579041																																		2015_Jun_25_1004	59.9351535495	LearningTask	1	20	
64	-200.0	q	200.0																	0.0	0.0	0.0	0.0	10.0	1.0	41.0	1.0																													q	1.0	0.434057950974	None	0.0	4.0	trianglegray.gif	stop																								4.06	0.5141341686249999	0.00097918510437	0.434057950974	1.0	q	443.56080818199996																																		2015_Jun_25_1004	59.9351535495	LearningTask	1	20	
65	-200.0	a	-200.0																	0.0	0.0	0.0	0.0	10.0	2.0	42.0	3.0																													a	1.0	0.38455700874300003	None	0.0	1.0	invertedtrianglegreen.gif	stop																								1.05	0.514232873917	0.0008940696716310001	0.38455700874300003	1.0	a	446.564521074																																		2015_Jun_25_1004	59.9351535495	LearningTask	1	20	
66	200.0	w	200.0																	0.0	0.0	0.0	0.0	10.0	3.0	43.0	0.0																													w	1.0	0.367473125458	None	0.0	2.0	lineyellow.gif	go																								1.99	0.513854980469	0.0008978843688960001	0.367473125458	1.0	w	449.567653179																																		2015_Jun_25_1004	59.9351535495	LearningTask	1	20	
67	200.0	w	200.0																	0.0	0.0	0.0	0.0	11.0	0.0	44.0	0.0																													w	1.0	0.334181070328	None	0.0	0.5	crosscyan.gif	stop																								0.34	0.514335870743	0.000908851623535	0.334181070328	1.0	w	452.570850134																																		2015_Jun_25_1004	59.9351535495	LearningTask	1	20	
68	-200.0	q	200.0																	0.0	0.0	0.0	0.0	11.0	1.0	45.0	1.0																													q	1.0	0.367009878159	None	0.0	0.5	crosscyan.gif	stop																								0.28	0.514700174332	0.00126504898071	0.367009878159	1.0	q	455.57465195699996																																		2015_Jun_25_1004	59.9351535495	LearningTask	1	20	
69	200.0	w	200.0																	0.0	0.0	0.0	0.0	11.0	2.0	46.0	0.0																													w	1.0	0.300557136536	None	0.0	2.0	hexagonorange.gif	stop																								1.84	0.51392698288	0.0008990764617919999	0.300557136536	1.0	w	458.577687979																																		2015_Jun_25_1004	59.9351535495	LearningTask	1	20	
70	200.0	s	-200.0																	0.0	0.0	0.0	0.0	11.0	3.0	47.0	2.0																													s	1.0	0.367285013199	None	0.0	0.5	squaremagenta.gif	go																								0.26	0.514313936234	0.0008978843688960001	0.367285013199	1.0	s	461.58092308																																		2015_Jun_25_1004	59.9351535495	LearningTask	1	20	
71	200.0	s	-200.0																	0.0	0.0	0.0	0.0	12.0	0.0	48.0	2.0																													s	1.0	0.367457151413	None	0.0	4.0	trianglegray.gif	stop																								3.98	0.514433860779	0.000949859619141	0.367457151413	1.0	s	464.58455514900004																																		2015_Jun_25_1004	59.9351535495	LearningTask	1	20	
72	-200.0	q	200.0																	0.0	0.0	0.0	0.0	12.0	1.0	49.0	1.0																													q	1.0	0.40098810195900003	None	0.0	0.5	crosscyan.gif	stop																								0.0	0.514070987701	0.000890016555786	0.40098810195900003	1.0	q	467.587752104																																		2015_Jun_25_1004	59.9351535495	LearningTask	1	20	
73	-200.0	q	200.0																	0.0	0.0	0.0	0.0	12.0	2.0	50.0	1.0																													q	1.0	0.400909900665	None	0.0	0.5	crosscyan.gif	stop																								0.49	0.5143229961399999	0.000974893569946	0.400909900665	1.0	q	470.59147596400004																																		2015_Jun_25_1004	59.9351535495	LearningTask	1	20	
74	200.0	s	-200.0																	0.0	0.0	0.0	0.0	12.0	3.0	51.0	2.0																													s	1.0	0.350888967514	None	0.0	0.5	crosscyan.gif	stop																								0.42	0.5136690139769999	0.00090503692627	0.350888967514	1.0	s	473.59457707400003																																		2015_Jun_25_1004	59.9351535495	LearningTask	1	20	
75	-200.0	q	200.0																	0.0	0.0	0.0	0.0	13.0	0.0	52.0	1.0																													q	1.0	0.45090389251699997	None	0.0	1.0	circleblue.gif	go																								0.0	0.514168977737	0.0008950233459470001	0.45090389251699997	1.0	q	476.59772300699996																																		2015_Jun_25_1004	59.9351535495	LearningTask	1	20	
76	200.0	w	200.0																	0.0	0.0	0.0	0.0	13.0	1.0	53.0	0.0																													w	1.0	0.417404174805	None	0.0	4.0	diamondwhite.gif	go																								3.88	0.514095067978	0.0009551048278810001	0.417404174805	1.0	w	479.601037025																																		2015_Jun_25_1004	59.9351535495	LearningTask	1	20	
77	200.0	w	200.0																	0.0	0.0	0.0	0.0	13.0	2.0	54.0	0.0																													w	1.0	0.41737794876100004	None	0.0	1.0	invertedtrianglegreen.gif	stop																								0.85	0.514628887177	0.0008959770202639998	0.41737794876100004	1.0	w	482.60427713400003																																		2015_Jun_25_1004	59.9351535495	LearningTask	1	20	
78	200.0	w	200.0																	0.0	0.0	0.0	0.0	13.0	3.0	55.0	0.0																													w	1.0	0.38438796997100005	None	0.0	4.0	diamondwhite.gif	go																								3.97	0.514349937439	0.000900030136108	0.38438796997100005	1.0	w	485.60794615699996																																		2015_Jun_25_1004	59.9351535495	LearningTask	1	20	
79	200.0	s	-200.0																	0.0	0.0	0.0	0.0	14.0	0.0	56.0	2.0																													s	1.0	0.33407402038600004	None	0.0	2.0	hexagonorange.gif	stop																								1.78	0.514315843582	0.0009469985961910001	0.33407402038600004	1.0	s	488.611274958																																		2015_Jun_25_1004	59.9351535495	LearningTask	1	20	
80	200.0	w	200.0																	0.0	0.0	0.0	0.0	14.0	1.0	57.0	0.0																													w	1.0	0.384714841843	None	0.0	1.0	circleblue.gif	go																								1.16	0.514124155045	0.000900983810425	0.384714841843	1.0	w	491.614494085																																		2015_Jun_25_1004	59.9351535495	LearningTask	1	20	
81	200.0	w	200.0																	0.0	0.0	0.0	0.0	14.0	2.0	58.0	0.0																													w	1.0	0.31758093833900003	None	0.0	0.5	squaremagenta.gif	go																								0.33	0.514277935028	0.000907897949219	0.31758093833900003	1.0	w	494.617872																																		2015_Jun_25_1004	59.9351535495	LearningTask	1	20	
82	-200.0	q	200.0																	0.0	0.0	0.0	0.0	14.0	3.0	59.0	1.0																													q	1.0	0.35079908371	None	0.0	2.0	hexagonorange.gif	stop																								2.05	0.514178991318	0.000907897949219	0.35079908371	1.0	q	497.62134099																																		2015_Jun_25_1004	59.9351535495	LearningTask	1	20	
83	-200.0	a	-200.0																	0.0	0.0	0.0	0.0	15.0	0.0	60.0	3.0																													a	1.0	0.351248979568	None	0.0	4.0	diamondwhite.gif	go																								3.83	0.5140318870539999	0.000898838043213	0.351248979568	1.0	a	500.62459898																																		2015_Jun_25_1004	59.9351535495	LearningTask	1	20	
84	-200.0	a	-200.0																	0.0	0.0	0.0	0.0	15.0	1.0	61.0	3.0																													a	1.0	0.367447137833	None	0.0	4.0	diamondwhite.gif	go																								3.95	0.514335870743	0.0009148120880130001	0.367447137833	1.0	a	503.62850809099996																																		2015_Jun_25_1004	59.9351535495	LearningTask	1	20	
85	-200.0	a	-200.0																	0.0	0.0	0.0	0.0	15.0	2.0	62.0	3.0																													a	1.0	0.3342461586	None	0.0	4.0	diamondwhite.gif	go																								4.07	0.5132548809049999	0.0009109973907470001	0.3342461586	1.0	a	506.631462097																																		2015_Jun_25_1004	59.9351535495	LearningTask	1	20	
86	-200.0	a	-200.0																	0.0	0.0	0.0	0.0	15.0	3.0	63.0	3.0																													a	1.0	0.367521047592	None	0.0	2.0	lineyellow.gif	go																								1.97	0.514184951782	0.000900030136108	0.367521047592	1.0	a	509.634595156																																		2015_Jun_25_1004	59.9351535495	LearningTask	1	20	
87	200.0	w	200.0																	0.0	0.0	0.0	0.0	16.0	0.0	64.0	0.0																													w	1.0	0.43417501449600004	None	0.0	2.0	hexagonorange.gif	stop																								0.0	0.514550924301	0.00104999542236	0.43417501449600004	1.0	w	512.637951136																																		2015_Jun_25_1004	59.9351535495	LearningTask	1	20	
88	200.0	w	200.0																	0.0	0.0	0.0	0.0	16.0	1.0	65.0	0.0																													w	1.0	0.36740899085999995	None	0.0	2.0	lineyellow.gif	go																								2.08	0.514400005341	0.0008919239044189998	0.36740899085999995	1.0	w	515.641232014																																		2015_Jun_25_1004	59.9351535495	LearningTask	1	20	
89	200.0	w	200.0																	0.0	0.0	0.0	0.0	16.0	2.0	66.0	0.0																													w	1.0	0.367474079132	None	0.0	2.0	hexagonorange.gif	stop																								1.95	0.514678955078	0.0011210441589400001	0.367474079132	1.0	w	518.64511013																																		2015_Jun_25_1004	59.9351535495	LearningTask	1	20	
90	200.0	s	-200.0																	0.0	0.0	0.0	0.0	16.0	3.0	67.0	2.0																													s	1.0	0.33412694931	None	0.0	2.0	lineyellow.gif	go																								2.14	0.513622999191	0.000900983810425	0.33412694931	1.0	s	521.648122072																																		2015_Jun_25_1004	59.9351535495	LearningTask	1	20	
91	-200.0	q	200.0																	0.0	0.0	0.0	0.0	17.0	0.0	68.0	1.0																													q	1.0	0.333877086639	None	0.0	4.0	trianglegray.gif	stop																								0.0	0.514286994934	0.0009200572967529999	0.333877086639	1.0	q	524.651654959																																		2015_Jun_25_1004	59.9351535495	LearningTask	1	20	
92	200.0	s	-200.0																	0.0	0.0	0.0	0.0	17.0	1.0	69.0	2.0																													s	1.0	0.334122896194	None	0.0	0.5	squaremagenta.gif	go																								0.0	0.514078855515	0.00108289718628	0.334122896194	1.0	s	527.654843092																																		2015_Jun_25_1004	59.9351535495	LearningTask	1	20	
93	-200.0	a	-200.0																	0.0	0.0	0.0	0.0	17.0	2.0	70.0	3.0																													a	1.0	0.40055513382	None	0.0	1.0	invertedtrianglegreen.gif	stop																								0.94	0.51448392868	0.000903844833374	0.40055513382	1.0	a	530.658467054																																		2015_Jun_25_1004	59.9351535495	LearningTask	1	20	
94	200.0	w	200.0																	0.0	0.0	0.0	0.0	17.0	3.0	71.0	0.0																													w	1.0	0.33396387100200003	None	0.0	1.0	invertedtrianglegreen.gif	stop																								0.0	0.514058113098	0.0009100437164310001	0.33396387100200003	1.0	w	533.6619710919999																																		2015_Jun_25_1004	59.9351535495	LearningTask	1	20	
95	-200.0	a	-200.0																	0.0	0.0	0.0	0.0	18.0	0.0	72.0	3.0																													a	1.0	0.350543022156	None	0.0	2.0	lineyellow.gif	go																								2.2	0.513369083405	0.000921964645386	0.350543022156	1.0	a	536.664868116																																		2015_Jun_25_1004	59.9351535495	LearningTask	1	20	
96	-200.0	a	-200.0																	0.0	0.0	0.0	0.0	18.0	1.0	73.0	3.0																													a	1.0	0.46760892868	None	0.0	4.0	trianglegray.gif	stop																								4.1	0.514224052429	0.00088906288147	0.46760892868	1.0	a	539.66813612																																		2015_Jun_25_1004	59.9351535495	LearningTask	1	20	
97	-200.0	q	200.0																	0.0	0.0	0.0	0.0	18.0	2.0	74.0	1.0																													q	1.0	0.35084104538000005	None	0.0	1.0	invertedtrianglegreen.gif	stop																								1.15	0.514476060867	0.0008931159973139998	0.35084104538000005	1.0	q	542.67211318																																		2015_Jun_25_1004	59.9351535495	LearningTask	1	20	
98	-200.0	a	-200.0																	0.0	0.0	0.0	0.0	18.0	3.0	75.0	3.0																													a	1.0	0.383983135223	None	0.0	2.0	hexagonorange.gif	stop																								0.0	0.513886928558	0.00089693069458	0.383983135223	1.0	a	545.675109148																																		2015_Jun_25_1004	59.9351535495	LearningTask	1	20	
99	200.0	w	200.0																	0.0	0.0	0.0	0.0	19.0	0.0	76.0	0.0																													w	1.0	0.35088300705	None	0.0	0.5	squaremagenta.gif	go																								0.6	0.514128923416	0.00088095664978	0.35088300705	1.0	w	548.678544998																																		2015_Jun_25_1004	59.9351535495	LearningTask	1	20	
100	200.0	s	-200.0																	0.0	0.0	0.0	0.0	19.0	1.0	77.0	2.0																													s	1.0	0.350739955902	None	0.0	4.0	diamondwhite.gif	go																								3.99	0.513992786407	0.000921964645386	0.350739955902	1.0	s	551.6822311880001																																		2015_Jun_25_1004	59.9351535495	LearningTask	1	20	
101	200.0	w	200.0																	0.0	0.0	0.0	0.0	19.0	2.0	78.0	0.0																													w	1.0	0.317424058914	None	0.0	0.5	crosscyan.gif	stop																								0.29	0.51363992691	0.0009169578552250001	0.317424058914	1.0	w	554.684976101																																		2015_Jun_25_1004	59.9351535495	LearningTask	1	20	
102	-200.0	a	-200.0																	0.0	0.0	0.0	0.0	19.0	3.0	79.0	3.0																													a	1.0	0.384238958359	None	0.0	2.0	lineyellow.gif	go																								0.0	0.514075040817	0.0010888576507599999	0.384238958359	1.0	a	557.6883151530001																																		2015_Jun_25_1004	59.9351535495	LearningTask	1	20	
103	200.0	w	200.0																	0.0	0.0	0.0	0.0	20.0	0.0	80.0	0.0																													w	1.0	0.31773614883400003	None	0.0	2.0	lineyellow.gif	go																								0.0	0.514235019684	0.00096607208252	0.31773614883400003	1.0	w	560.692087173																																		2015_Jun_25_1004	59.9351535495	LearningTask	1	20	
104	-200.0	q	200.0																	0.0	0.0	0.0	0.0	20.0	1.0	81.0	1.0																													q	1.0	0.317591190338	None	0.0	2.0	lineyellow.gif	go																								1.89	0.513833045959	0.0009181499481200001	0.317591190338	1.0	q	563.6953451630001																																		2015_Jun_25_1004	59.9351535495	LearningTask	1	20	
105	-200.0	q	200.0																	0.0	0.0	0.0	0.0	20.0	2.0	82.0	1.0																													q	1.0	0.334228992462	None	0.0	1.0	circleblue.gif	go																								0.0	0.513984918594	0.0011999607086199998	0.334228992462	1.0	q	566.698548079																																		2015_Jun_25_1004	59.9351535495	LearningTask	1	20	
106	200.0	w	200.0																	0.0	0.0	0.0	0.0	20.0	3.0	83.0	0.0																													w	1.0	0.41789317131	None	0.0	0.5	squaremagenta.gif	go																								0.65	0.513970136642	0.0009372234344480001	0.41789317131	1.0	w	569.70173502																																		2015_Jun_25_1004	59.9351535495	LearningTask	1	20	
107	200.0	s	-200.0																	0.0	0.0	0.0	0.0	21.0	0.0	84.0	2.0																													s	1.0	0.333979845047	None	0.0	4.0	diamondwhite.gif	go																								4.21	0.5142760276789999	0.000900983810425	0.333979845047	1.0	s	572.705101967																																		2015_Jun_25_1004	59.9351535495	LearningTask	1	20	
108	-200.0	a	-200.0																	0.0	0.0	0.0	0.0	21.0	1.0	85.0	3.0																													a	1.0	0.367615938187	None	0.0	4.0	trianglegray.gif	stop																								3.96	0.5141041278840001	0.000962018966675	0.367615938187	1.0	a	575.708400011																																		2015_Jun_25_1004	59.9351535495	LearningTask	1	20	
109	-200.0	a	-200.0																	0.0	0.0	0.0	0.0	21.0	2.0	86.0	3.0																													a	1.0	0.384613037109	None	0.0	2.0	lineyellow.gif	go																								1.84	0.5144739151	0.000931024551392	0.384613037109	1.0	a	578.711596012																																		2015_Jun_25_1004	59.9351535495	LearningTask	1	20	
110	-200.0	q	200.0																	0.0	0.0	0.0	0.0	21.0	3.0	87.0	1.0																													q	1.0	0.367392063141	None	0.0	4.0	diamondwhite.gif	go																								3.76	0.514428138733	0.000998973846436	0.367392063141	1.0	q	581.715492964																																		2015_Jun_25_1004	59.9351535495	LearningTask	1	20	
111	200.0	s	-200.0																	0.0	0.0	0.0	0.0	22.0	0.0	88.0	2.0																													s	1.0	0.35117197036700004	None	0.0	4.0	trianglegray.gif	stop																								3.93	0.513531923294	0.0008978843688960001	0.35117197036700004	1.0	s	584.7185671330001																																		2015_Jun_25_1004	59.9351535495	LearningTask	1	20	
112	200.0	w	200.0																	0.0	0.0	0.0	0.0	22.0	1.0	89.0	0.0																													w	1.0	0.367829084396	None	0.0	1.0	circleblue.gif	go																								0.79	0.514236927032	0.000900983810425	0.367829084396	1.0	w	587.7218701840001																																		2015_Jun_25_1004	59.9351535495	LearningTask	1	20	
113	-200.0	q	200.0																	0.0	0.0	0.0	0.0	22.0	2.0	90.0	1.0																													q	1.0	0.41751694679300005	None	0.0	0.5	crosscyan.gif	stop																								0.35	0.514315128326	0.00092601776123	0.41751694679300005	1.0	q	590.7254450319999																																		2015_Jun_25_1004	59.9351535495	LearningTask	1	20	
114	-200.0	q	200.0																	0.0	0.0	0.0	0.0	22.0	3.0	91.0	1.0																													q	1.0	0.36748480796800004	None	0.0	0.5	squaremagenta.gif	go																								0.0	0.513789176941	0.0009169578552250001	0.36748480796800004	1.0	q	593.728790045																																		2015_Jun_25_1004	59.9351535495	LearningTask	1	20	
115	200.0	w	200.0																	0.0	0.0	0.0	0.0	23.0	0.0	92.0	0.0																													w	1.0	0.35038208961499995	None	0.0	0.5	crosscyan.gif	stop																								0.58	0.514054059982	0.000892162322998	0.35038208961499995	1.0	w	596.7319810390001																																		2015_Jun_25_1004	59.9351535495	LearningTask	1	20	
116	200.0	s	-200.0																	0.0	0.0	0.0	0.0	23.0	1.0	93.0	2.0																													s	1.0	0.451273918152	None	0.0	0.5	crosscyan.gif	stop																								0.66	0.513986110687	0.0009400844573969999	0.451273918152	1.0	s	599.735753059																																		2015_Jun_25_1004	59.9351535495	LearningTask	1	20	
117	200.0	w	200.0																	0.0	0.0	0.0	0.0	23.0	2.0	94.0	0.0																													w	1.0	0.317315101624	None	0.0	4.0	diamondwhite.gif	go																								0.0	0.513628005981	0.0009150505065920001	0.317315101624	1.0	w	602.73865819																																		2015_Jun_25_1004	59.9351535495	LearningTask	1	20	
118	-200.0	q	200.0																	0.0	0.0	0.0	0.0	23.0	3.0	95.0	1.0																													q	1.0	0.30070495605500003	None	0.0	2.0	lineyellow.gif	go																								1.88	0.51433300972	0.000938892364502	0.30070495605500003	1.0	q	605.741914034																																		2015_Jun_25_1004	59.9351535495	LearningTask	1	20	
119	-200.0	q	200.0																	0.0	0.0	0.0	0.0	24.0	0.0	96.0	1.0																													q	1.0	0.28392219543499997	None	0.0	4.0	diamondwhite.gif	go																								4.15	0.514610052109	0.0009851455688480002	0.28392219543499997	1.0	q	608.745530128																																		2015_Jun_25_1004	59.9351535495	LearningTask	1	20	
120	200.0	s	-200.0																	0.0	0.0	0.0	0.0	24.0	1.0	97.0	2.0																													s	1.0	0.350807905197	None	0.0	4.0	trianglegray.gif	stop																								3.75	0.514179944992	0.0009059906005860001	0.350807905197	1.0	s	611.748857975																																		2015_Jun_25_1004	59.9351535495	LearningTask	1	20	
121	-200.0	q	200.0																	0.0	0.0	0.0	0.0	24.0	2.0	98.0	1.0																													q	1.0	0.300518035889	None	0.0	2.0	lineyellow.gif	go																								2.11	0.514243841171	0.00105690956116	0.300518035889	1.0	q	614.752732992																																		2015_Jun_25_1004	59.9351535495	LearningTask	1	20	
122	200.0	s	-200.0																	0.0	0.0	0.0	0.0	24.0	3.0	99.0	2.0																													s	1.0	0.300776004791	None	0.0	2.0	hexagonorange.gif	stop																								1.81	0.513516902924	0.000923871994019	0.300776004791	1.0	s	617.755510092																																		2015_Jun_25_1004	59.9351535495	LearningTask	1	20	
123																				0.0	0.0	0.0	0.0																																																																							9.0	3.61717391014																																2015_Jun_25_1004	59.9351535495	LearningTask	1	20	
124	-200.0	q	200.0																	1.0	0.0	1.0	0.0	0.0	0.0	0.0	1.0																													q	1.0	0.417459964752	None	0.0	0.5	squaremagenta.gif	go																								0.29	0.509168148041	0.0009140968322749999	0.417459964752	1.0	q	624.697007179																																		2015_Jun_25_1004	59.9351535495	LearningTask	1	20	
125	-200.0	q	200.0																	1.0	0.0	1.0	0.0	0.0	1.0	1.0	1.0																													q	1.0	0.351068973541	None	0.0	2.0	hexagonorange.gif	stop																								1.99	0.5139930248260001	0.0009210109710689999	0.351068973541	1.0	q	627.700129986																																		2015_Jun_25_1004	59.9351535495	LearningTask	1	20	
126	-200.0	a	-200.0																	1.0	0.0	1.0	0.0	0.0	2.0	2.0	3.0																													a	1.0	0.38464403152500004	None	0.0	2.0	hexagonorange.gif	stop																								1.98	0.5140960216520001	0.000903844833374	0.38464403152500004	1.0	a	630.7035501																																		2015_Jun_25_1004	59.9351535495	LearningTask	1	20	
127	200.0	w	200.0																	1.0	0.0	1.0	0.0	0.0	3.0	3.0	0.0																													w	1.0	0.333385944366	None	0.0	2.0	hexagonorange.gif	stop																								2.05	0.514077186584	0.0009641647338869999	0.333385944366	1.0	w	633.706890106																																		2015_Jun_25_1004	59.9351535495	LearningTask	1	20	
128	-200.0	a	-200.0																	1.0	0.0	1.0	0.0	1.0	0.0	4.0	3.0																													a	1.0	0.301354885101	None	0.0	0.5	squaremagenta.gif	go																								0.66	0.513849973679	0.0008950233459470001	0.301354885101	1.0	a	636.709917068																																		2015_Jun_25_1004	59.9351535495	LearningTask	1	20	
129	-200.0	q	200.0																	1.0	0.0	1.0	0.0	1.0	1.0	5.0	1.0																													q	1.0	0.317407131195	None	0.0	1.0	invertedtrianglegreen.gif	stop																								0.78	0.514295101166	0.00115299224854	0.317407131195	1.0	q	639.713574171																																		2015_Jun_25_1004	59.9351535495	LearningTask	1	20	
130	-200.0	q	200.0																	1.0	0.0	1.0	0.0	1.0	2.0	6.0	1.0																													q	1.0	0.36758589744599995	None	0.0	1.0	invertedtrianglegreen.gif	stop																								1.18	0.513618946075	0.0009441375732419999	0.36758589744599995	1.0	q	642.717328072																																		2015_Jun_25_1004	59.9351535495	LearningTask	1	20	
131	-200.0	a	-200.0																	1.0	0.0	1.0	0.0	1.0	3.0	7.0	3.0																													a	1.0	0.33381986618	None	0.0	4.0	diamondwhite.gif	go																								3.89	0.5136158466340001	0.0010449886322	0.33381986618	1.0	a	645.720108032																																		2015_Jun_25_1004	59.9351535495	LearningTask	1	20	
132	200.0	w	200.0																	1.0	0.0	1.0	0.0	2.0	0.0	8.0	0.0																													w	1.0	0.30054712295499997	None	0.0	1.0	circleblue.gif	go																								1.19	0.514535903931	0.0008919239044189998	0.30054712295499997	1.0	w	648.724099159																																		2015_Jun_25_1004	59.9351535495	LearningTask	1	20	
133	-200.0	q	200.0																	1.0	0.0	1.0	0.0	2.0	1.0	9.0	1.0																													q	1.0	0.351378917694	None	0.0	4.0	trianglegray.gif	stop																								4.21	0.5132389068600001	0.0009758472442630001	0.351378917694	1.0	q	651.726644039																																		2015_Jun_25_1004	59.9351535495	LearningTask	1	20	
134	-200.0	q	200.0																	1.0	0.0	1.0	0.0	2.0	2.0	10.0	1.0																													q	1.0	0.317884922028	None	0.0	4.0	trianglegray.gif	stop																								4.01	0.5144071578980001	0.0009450912475589999	0.317884922028	1.0	q	654.729884148																																		2015_Jun_25_1004	59.9351535495	LearningTask	1	20	
135	200.0	s	-200.0																	1.0	0.0	1.0	0.0	2.0	3.0	11.0	2.0																													s	1.0	0.384236097336	None	0.0	1.0	circleblue.gif	go																								0.0	0.514522075653	0.000904083251953	0.334198951721	0.0	w	657.7336010930001			0.12574505806	1.14	0.515224933624	0.000999927520752	0.384236097336	1.0	s	660.736950159																								2015_Jun_25_1004	59.9351535495	LearningTask	1	20	
136	-200.0	a	-200.0																	1.0	0.0	1.0	0.0	3.0	0.0	12.0	3.0																													a	1.0	0.48403310775799996	None	0.0	1.0	circleblue.gif	go																								0.89	0.514524936676	0.0010519027710000001	0.48403310775799996	1.0	a	663.740241051																																		2015_Jun_25_1004	59.9351535495	LearningTask	1	20	
137	200.0	w	200.0																	1.0	0.0	1.0	0.0	3.0	1.0	13.0	0.0																													w	1.0	0.367587804794	None	0.0	1.0	invertedtrianglegreen.gif	stop																								0.95	0.513921976089	0.0009160041809079999	0.367587804794	1.0	w	666.743630171																																		2015_Jun_25_1004	59.9351535495	LearningTask	1	20	
138	200.0	s	-200.0																	1.0	0.0	1.0	0.0	3.0	2.0	14.0	2.0																													s	1.0	0.350746870041	None	0.0	1.0	invertedtrianglegreen.gif	stop																								0.0	0.513894081116	0.00089693069458	0.350746870041	1.0	s	669.746814966																																		2015_Jun_25_1004	59.9351535495	LearningTask	1	20	
139	200.0	w	200.0																	1.0	0.0	1.0	0.0	3.0	3.0	15.0	0.0																													w	1.0	0.40113401413000005	None	0.0	1.0	invertedtrianglegreen.gif	stop																								0.8	0.513957977295	0.0009779930114750001	0.40113401413000005	1.0	w	672.750133991																																		2015_Jun_25_1004	59.9351535495	LearningTask	1	20	
140	200.0	s	-200.0																	1.0	0.0	1.0	0.0	4.0	0.0	16.0	2.0																													s	1.0	0.333651065826	None	0.0	2.0	lineyellow.gif	go																								2.16	0.514524936676	0.0009279251098630001	0.333651065826	1.0	s	675.753793001																																		2015_Jun_25_1004	59.9351535495	LearningTask	1	20	
141	-200.0	q	200.0																	1.0	0.0	1.0	0.0	4.0	1.0	17.0	1.0																													q	1.0	0.367892980576	None	0.0	2.0	lineyellow.gif	go																								1.96	0.514061927795	0.000959873199463	0.367892980576	1.0	q	678.757732153																																		2015_Jun_25_1004	59.9351535495	LearningTask	1	20	
142	-200.0	a	-200.0																	1.0	0.0	1.0	0.0	4.0	2.0	18.0	3.0																													a	1.0	0.367588996887	None	0.0	1.0	circleblue.gif	go																								1.22	0.513145923615	0.0010199546814	0.367588996887	1.0	a	681.760375977																																		2015_Jun_25_1004	59.9351535495	LearningTask	1	20	
143	200.0	w	200.0																	1.0	0.0	1.0	0.0	4.0	3.0	19.0	0.0																													w	1.0	0.351124048233	None	0.0	1.0	circleblue.gif	go																								0.0	0.51384806633	0.0009808540344239999	0.351124048233	1.0	w	684.763538122																																		2015_Jun_25_1004	59.9351535495	LearningTask	1	20	
144	-200.0	q	200.0																	1.0	0.0	1.0	0.0	5.0	0.0	20.0	1.0																													q	1.0	0.433976888657	None	0.0	1.0	circleblue.gif	go																								0.0	0.513945102692	0.000969886779785	0.433976888657	1.0	q	687.76712513																																		2015_Jun_25_1004	59.9351535495	LearningTask	1	20	
145	-200.0	a	-200.0																	1.0	0.0	1.0	0.0	5.0	1.0	21.0	3.0																													a	1.0	0.367457866669	None	0.0	0.5	squaremagenta.gif	go																								0.0	0.513628005981	0.0009799003601070001	0.367457866669	1.0	a	690.770215988																																		2015_Jun_25_1004	59.9351535495	LearningTask	1	20	
146	-200.0	a	-200.0																	1.0	0.0	1.0	0.0	5.0	2.0	22.0	3.0																													a	1.0	0.450623035431	None	0.0	0.5	squaremagenta.gif	go																								0.49	0.514383077621	0.0008709430694580001	0.450623035431	1.0	a	693.773743153																																		2015_Jun_25_1004	59.9351535495	LearningTask	1	20	
147	200.0	w	200.0																	1.0	0.0	1.0	0.0	5.0	3.0	23.0	0.0																													w	1.0	0.400928974152	None	0.0	0.5	squaremagenta.gif	go																								0.7	0.514086008072	0.000869035720825	0.400928974152	1.0	w	696.777551174																																		2015_Jun_25_1004	59.9351535495	LearningTask	1	20	
148	200.0	w	200.0																	1.0	0.0	1.0	0.0	6.0	0.0	24.0	0.0																													w	1.0	0.35099816322300004	None	0.0	0.5	squaremagenta.gif	go																								0.26	0.513411045074	0.000880002975464	0.35099816322300004	1.0	w	699.780317068																																		2015_Jun_25_1004	59.9351535495	LearningTask	1	20	
149	200.0	s	-200.0																	1.0	0.0	1.0	0.0	6.0	1.0	25.0	2.0																													s	1.0	0.384406089783	None	0.0	2.0	lineyellow.gif	go																								2.24	0.514202833176	0.00111889839172	0.384406089783	1.0	s	702.7836101060001																																		2015_Jun_25_1004	59.9351535495	LearningTask	1	20	
150	200.0	w	200.0																	1.0	0.0	1.0	0.0	6.0	2.0	26.0	0.0																													w	1.0	0.38449406623800003	None	0.0	2.0	lineyellow.gif	go																								1.94	0.514494180679	0.000946044921875	0.38449406623800003	1.0	w	705.787254095																																		2015_Jun_25_1004	59.9351535495	LearningTask	1	20	
151	200.0	s	-200.0																	1.0	0.0	1.0	0.0	6.0	3.0	27.0	2.0																													s	1.0	0.35103416442900004	None	0.0	1.0	circleblue.gif	go																								1.21	0.514041900635	0.0008759498596189999	0.35103416442900004	1.0	s	708.7904779910001																																		2015_Jun_25_1004	59.9351535495	LearningTask	1	20	
152	200.0	s	-200.0																	1.0	0.0	1.0	0.0	7.0	0.0	28.0	2.0																													s	1.0	0.33396887779199996	None	0.0	1.0	circleblue.gif	go																								1.23	0.514388084412	0.00101494789124	0.33396887779199996	1.0	s	711.794123173																																		2015_Jun_25_1004	59.9351535495	LearningTask	1	20	
153	-200.0	q	200.0																	1.0	0.0	1.0	0.0	7.0	1.0	29.0	1.0																													q	1.0	0.517873048782	None	0.0	0.5	squaremagenta.gif	go																								0.41	0.513954877853	0.0008718967437739999	0.517873048782	1.0	q	714.797297955																																		2015_Jun_25_1004	59.9351535495	LearningTask	1	20	
154	-200.0	a	-200.0																	1.0	0.0	1.0	0.0	7.0	2.0	30.0	3.0																													a	1.0	0.401164054871	None	0.0	2.0	hexagonorange.gif	stop																								2.05	0.51411318779	0.000904083251953	0.401164054871	1.0	a	717.800515175																																		2015_Jun_25_1004	59.9351535495	LearningTask	1	20	
155	-200.0	q	200.0																	1.0	0.0	1.0	0.0	7.0	3.0	31.0	1.0																													q	1.0	0.367540121078	None	0.0	1.0	circleblue.gif	go																								1.05	0.514158964157	0.0009589195251460001	0.367540121078	1.0	q	720.80380106																																		2015_Jun_25_1004	59.9351535495	LearningTask	1	20	
156	-200.0	q	200.0																	1.0	0.0	1.0	0.0	8.0	0.0	32.0	1.0																													q	1.0	0.417722940445	None	0.0	1.0	invertedtrianglegreen.gif	stop																								1.08	0.514514923096	0.0008759498596189999	0.417722940445	1.0	q	723.807435036																																		2015_Jun_25_1004	59.9351535495	LearningTask	1	20	
157	200.0	s	-200.0																	1.0	0.0	1.0	0.0	8.0	1.0	33.0	2.0																													s	1.0	0.384556055069	None	0.0	0.5	crosscyan.gif	stop																								0.75	0.5140759944919999	0.000908851623535	0.384556055069	1.0	s	726.810827017																																		2015_Jun_25_1004	59.9351535495	LearningTask	1	20	
158	-200.0	a	-200.0																	1.0	0.0	1.0	0.0	8.0	2.0	34.0	3.0																													a	1.0	0.35041809081999997	None	0.0	1.0	circleblue.gif	go																								1.13	0.514085054398	0.00121998786926	0.35041809081999997	1.0	a	729.8142690660001																																		2015_Jun_25_1004	59.9351535495	LearningTask	1	20	
159	200.0	w	200.0																	1.0	0.0	1.0	0.0	8.0	3.0	35.0	0.0																													w	1.0	0.350862979889	None	0.0	1.0	invertedtrianglegreen.gif	stop																								0.0	0.513979911804	0.0009031295776369999	0.350862979889	1.0	w	732.817285061																																		2015_Jun_25_1004	59.9351535495	LearningTask	1	20	
160	200.0	w	200.0																	1.0	0.0	1.0	0.0	9.0	0.0	36.0	0.0																													w	1.0	0.41719293594400003	None	0.0	4.0	trianglegray.gif	stop																								0.0	0.514560937881	0.00095796585083	0.41719293594400003	1.0	w	735.820940018																																		2015_Jun_25_1004	59.9351535495	LearningTask	1	20	
161	-200.0	q	200.0																	1.0	0.0	1.0	0.0	9.0	1.0	37.0	1.0																													q	1.0	0.367385864258	None	0.0	2.0	hexagonorange.gif	stop																								0.0	0.513599157333	0.0008959770202639998	0.367385864258	1.0	q	738.823898077																																		2015_Jun_25_1004	59.9351535495	LearningTask	1	20	
162	-200.0	q	200.0																	1.0	0.0	1.0	0.0	9.0	2.0	38.0	1.0																													q	1.0	0.317353010178	None	0.0	4.0	diamondwhite.gif	go																								4.01	0.514714956284	0.0008990764617919999	0.317353010178	1.0	q	741.82743907																																		2015_Jun_25_1004	59.9351535495	LearningTask	1	20	
163	-200.0	q	200.0																	1.0	0.0	1.0	0.0	9.0	3.0	39.0	1.0																													q	1.0	0.283932209015	None	0.0	1.0	circleblue.gif	go																								0.0	0.5144519805910001	0.000880002975464	0.283932209015	1.0	q	744.8312170510001																																		2015_Jun_25_1004	59.9351535495	LearningTask	1	20	
164	200.0	w	200.0																	1.0	0.0	1.0	0.0	10.0	0.0	40.0	0.0																													w	1.0	0.317488908768	None	0.0	2.0	hexagonorange.gif	stop																								2.11	0.513442993164	0.000885009765625	0.317488908768	1.0	w	747.834091187																																		2015_Jun_25_1004	59.9351535495	LearningTask	1	20	
165	200.0	s	-200.0																	1.0	0.0	1.0	0.0	10.0	1.0	41.0	2.0																													s	1.0	0.351289987564	None	0.0	1.0	invertedtrianglegreen.gif	stop																								0.0	0.514117002487	0.000881910324097	0.351289987564	1.0	s	750.83755517																																		2015_Jun_25_1004	59.9351535495	LearningTask	1	20	
166	200.0	w	200.0																	1.0	0.0	1.0	0.0	10.0	2.0	42.0	0.0																													w	1.0	0.35080099105800006	None	0.0	1.0	circleblue.gif	go																								0.78	0.5141048431399999	0.00088095664978	0.35080099105800006	1.0	w	753.8409039969999																																		2015_Jun_25_1004	59.9351535495	LearningTask	1	20	
167	200.0	w	200.0																	1.0	0.0	1.0	0.0	10.0	3.0	43.0	0.0																													w	1.0	0.33419084549	None	0.0	1.0	invertedtrianglegreen.gif	stop																								0.93	0.5141501426699999	0.0008759498596189999	0.33419084549	1.0	w	756.844360113																																		2015_Jun_25_1004	59.9351535495	LearningTask	1	20	
168	200.0	s	-200.0																	1.0	0.0	1.0	0.0	11.0	0.0	44.0	2.0																													s	1.0	0.334202051163	None	0.0	1.0	circleblue.gif	go																								0.77	0.5138611793519999	0.00120711326599	0.334202051163	1.0	s	759.848028183																																		2015_Jun_25_1004	59.9351535495	LearningTask	1	20	
169	-200.0	q	200.0																	1.0	0.0	1.0	0.0	11.0	1.0	45.0	1.0																													q	1.0	0.36789703369099996	None	0.0	1.0	circleblue.gif	go																								1.08	0.51347899437	0.0009140968322749999	0.36789703369099996	1.0	q	762.851006985																																		2015_Jun_25_1004	59.9351535495	LearningTask	1	20	
170	200.0	s	-200.0																	1.0	0.0	1.0	0.0	11.0	2.0	46.0	2.0																													s	1.0	0.36753702163699997	None	0.0	4.0	trianglegray.gif	stop																								4.05	0.514058828354	0.0008869171142580001	0.36753702163699997	1.0	s	765.854247093																																		2015_Jun_25_1004	59.9351535495	LearningTask	1	20	
171	200.0	w	200.0																	1.0	0.0	1.0	0.0	11.0	3.0	47.0	0.0																													w	1.0	0.334605932236	None	0.0	2.0	lineyellow.gif	go																								2.04	0.514095067978	0.00169992446899	0.334605932236	1.0	w	768.857545137																																		2015_Jun_25_1004	59.9351535495	LearningTask	1	20	
172	200.0	w	200.0																	1.0	0.0	1.0	0.0	12.0	0.0	48.0	0.0																													w	1.0	0.350696086884	None	0.0	1.0	invertedtrianglegreen.gif	stop																								0.0	0.514390945435	0.000885009765625	0.350696086884	1.0	w	771.860936165																																		2015_Jun_25_1004	59.9351535495	LearningTask	1	20	
173	200.0	w	200.0																	1.0	0.0	1.0	0.0	12.0	1.0	49.0	0.0																													w	1.0	0.301140069962	None	0.0	2.0	lineyellow.gif	go																								2.25	0.513988018036	0.0008709430694580001	0.301140069962	1.0	w	774.8642930980001																																		2015_Jun_25_1004	59.9351535495	LearningTask	1	20	
174	-200.0	a	-200.0																	1.0	0.0	1.0	0.0	12.0	2.0	50.0	3.0																													a	1.0	0.367403030396	None	0.0	4.0	diamondwhite.gif	go																								0.0	0.514508008957	0.0009369850158689999	0.36696815490699997	0.0	s	777.8680629730001				3.88	0.515120983124	0.0009450912475589999	0.367403030396	1.0	a	780.8707811830001																								2015_Jun_25_1004	59.9351535495	LearningTask	1	20	
175	-200.0	q	200.0																	1.0	0.0	1.0	0.0	12.0	3.0	51.0	1.0																													q	1.0	0.36813497543300006	None	0.0	2.0	hexagonorange.gif	stop																								1.96	0.514405012131	0.00089693069458	0.36813497543300006	1.0	q	783.874397039																																		2015_Jun_25_1004	59.9351535495	LearningTask	1	20	
176	200.0	s	-200.0																	1.0	0.0	1.0	0.0	13.0	0.0	52.0	2.0																													s	1.0	0.450960874557	None	0.0	1.0	circleblue.gif	go																								0.0	0.513914823532	0.000922918319702	0.450960874557	1.0	s	786.8777079580001																																		2015_Jun_25_1004	59.9351535495	LearningTask	1	20	
177	-200.0	a	-200.0																	1.0	0.0	1.0	0.0	13.0	1.0	53.0	3.0																													a	1.0	0.434098005295	None	0.0	1.0	circleblue.gif	go																								1.04	0.5143229961399999	0.000882863998413	0.434098005295	1.0	a	789.8810911180001																																		2015_Jun_25_1004	59.9351535495	LearningTask	1	20	
178	-200.0	q	200.0																	1.0	0.0	1.0	0.0	13.0	2.0	54.0	1.0																													q	1.0	0.333770990372	None	0.0	1.0	invertedtrianglegreen.gif	stop																								0.93	0.514672040939	0.0008862018585209999	0.333770990372	1.0	q	792.88501811																																		2015_Jun_25_1004	59.9351535495	LearningTask	1	20	
179	-200.0	a	-200.0																	1.0	0.0	1.0	0.0	13.0	3.0	55.0	3.0																													a	1.0	0.484534978867	None	0.0	0.5	crosscyan.gif	stop																								0.0	0.5133271217350001	0.0008940696716310001	0.484534978867	1.0	a	795.887681007																																		2015_Jun_25_1004	59.9351535495	LearningTask	1	20	
180	200.0	w	200.0																	1.0	0.0	1.0	0.0	14.0	0.0	56.0	0.0																													w	1.0	0.38432002067599996	None	0.0	0.5	squaremagenta.gif	go																								0.0	0.514652967453	0.000881910324097	0.38432002067599996	1.0	w	798.891009092																																		2015_Jun_25_1004	59.9351535495	LearningTask	1	20	
181	-200.0	a	-200.0																	1.0	0.0	1.0	0.0	14.0	1.0	57.0	3.0																													a	1.0	0.417557001114	None	0.0	4.0	diamondwhite.gif	go																								0.0	0.5142078399660001	0.0009469985961910001	0.417557001114	1.0	a	801.894657135																																		2015_Jun_25_1004	59.9351535495	LearningTask	1	20	
182	200.0	w	200.0																	1.0	0.0	1.0	0.0	14.0	2.0	58.0	0.0																													w	1.0	0.33434486389199997	None	0.0	1.0	circleblue.gif	go																								1.01	0.513908147812	0.00115394592285	0.33434486389199997	1.0	w	804.898205042																																		2015_Jun_25_1004	59.9351535495	LearningTask	1	20	
183	200.0	w	200.0																	1.0	0.0	1.0	0.0	14.0	3.0	59.0	0.0																													w	1.0	0.35094499588	None	0.0	0.5	squaremagenta.gif	go																								0.44	0.513708114624	0.0009479522705080001	0.35094499588	1.0	w	807.9014310839999																																		2015_Jun_25_1004	59.9351535495	LearningTask	1	20	
184	-200.0	a	-200.0																	1.0	0.0	1.0	0.0	15.0	0.0	60.0	3.0																													a	1.0	0.367797851562	None	0.0	0.5	crosscyan.gif	stop																								0.33	0.514010906219	0.0008759498596189999	0.367797851562	1.0	a	810.904687166																																		2015_Jun_25_1004	59.9351535495	LearningTask	1	20	
185	-200.0	a	-200.0																	1.0	0.0	1.0	0.0	15.0	1.0	61.0	3.0																													a	1.0	0.384304046631	None	0.0	2.0	hexagonorange.gif	stop																								1.84	0.514168024063	0.0008909702301030001	0.384304046631	1.0	a	813.907860041																																		2015_Jun_25_1004	59.9351535495	LearningTask	1	20	
186	-200.0	a	-200.0																	1.0	0.0	1.0	0.0	15.0	2.0	62.0	3.0																													a	1.0	0.367802143097	None	0.0	2.0	hexagonorange.gif	stop																								2.02	0.514018058777	0.00103402137756	0.367802143097	1.0	a	816.911301136																																		2015_Jun_25_1004	59.9351535495	LearningTask	1	20	
187	200.0	s	-200.0																	1.0	0.0	1.0	0.0	15.0	3.0	63.0	2.0																													s	1.0	0.36694288253799995	None	0.0	4.0	diamondwhite.gif	go																								0.0	0.514497041702	0.0008740425109860002	0.36694288253799995	1.0	s	819.914668083																																		2015_Jun_25_1004	59.9351535495	LearningTask	1	20	
188	-200.0	a	-200.0																	1.0	0.0	1.0	0.0	16.0	0.0	64.0	3.0																													a	1.0	0.36733007431000003	None	0.0	4.0	diamondwhite.gif	go																								0.0	0.514141798019	0.000880002975464	0.36733007431000003	1.0	a	822.917967081																																		2015_Jun_25_1004	59.9351535495	LearningTask	1	20	
189	200.0	s	-200.0																	1.0	0.0	1.0	0.0	16.0	1.0	65.0	2.0																													s	1.0	0.36776089668300005	None	0.0	1.0	invertedtrianglegreen.gif	stop																								0.95	0.514225959778	0.0009589195251460001	0.36776089668300005	1.0	s	825.921677113																																		2015_Jun_25_1004	59.9351535495	LearningTask	1	20	
190	-200.0	a	-200.0																	1.0	0.0	1.0	0.0	16.0	2.0	66.0	3.0																													a	1.0	0.401182174683	None	0.0	2.0	hexagonorange.gif	stop																								1.8	0.513961076736	0.00088906288147	0.401182174683	1.0	a	828.924726009																																		2015_Jun_25_1004	59.9351535495	LearningTask	1	20	
191	-200.0	q	200.0																	1.0	0.0	1.0	0.0	16.0	3.0	67.0	1.0																													q	1.0	0.433858156204	None	0.0	0.5	squaremagenta.gif	go																								0.37	0.514497041702	0.00087308883667	0.433858156204	1.0	q	831.9283239839999																																		2015_Jun_25_1004	59.9351535495	LearningTask	1	20	
192	-200.0	a	-200.0																	1.0	0.0	1.0	0.0	17.0	0.0	68.0	3.0																													a	1.0	0.36785197258	None	0.0	1.0	invertedtrianglegreen.gif	stop																								1.25	0.51357793808	0.0009059906005860001	0.36785197258	1.0	a	834.9314429760001																																		2015_Jun_25_1004	59.9351535495	LearningTask	1	20	
193	-200.0	a	-200.0																	1.0	0.0	1.0	0.0	17.0	1.0	69.0	3.0																													a	1.0	0.367660045624	None	0.0	0.5	squaremagenta.gif	go																								0.31	0.5142018795009999	0.0008749961853029999	0.367660045624	1.0	a	837.9349341389999																																		2015_Jun_25_1004	59.9351535495	LearningTask	1	20	
194	-200.0	q	200.0																	1.0	0.0	1.0	0.0	17.0	2.0	70.0	1.0																													q	1.0	0.301028013229	None	0.0	4.0	diamondwhite.gif	go																								3.77	0.513903141022	0.0008780956268310002	0.301028013229	1.0	q	840.938491106																																		2015_Jun_25_1004	59.9351535495	LearningTask	1	20	
195	-200.0	q	200.0																	1.0	0.0	1.0	0.0	17.0	3.0	71.0	1.0																													q	1.0	0.334362983704	None	0.0	1.0	invertedtrianglegreen.gif	stop																								0.0	0.513576030731	0.00119805335999	0.334362983704	1.0	q	843.9415500160001																																		2015_Jun_25_1004	59.9351535495	LearningTask	1	20	
196	200.0	s	-200.0																	1.0	0.0	1.0	0.0	18.0	0.0	72.0	2.0																													s	1.0	0.350997924805	None	0.0	2.0	lineyellow.gif	go																								2.06	0.514019966125	0.0008749961853029999	0.350997924805	1.0	s	846.944983959																																		2015_Jun_25_1004	59.9351535495	LearningTask	1	20	
197	200.0	s	-200.0																	1.0	0.0	1.0	0.0	18.0	1.0	73.0	2.0																													s	1.0	0.400754928589	None	0.0	0.5	squaremagenta.gif	go																								0.6	0.514133214951	0.0008790493011469999	0.400754928589	1.0	s	849.948021173																																		2015_Jun_25_1004	59.9351535495	LearningTask	1	20	
198	200.0	s	-200.0																	1.0	0.0	1.0	0.0	18.0	2.0	74.0	2.0																													s	1.0	0.33403301239	None	0.0	0.5	crosscyan.gif	stop																								0.42	0.51434803009	0.00094199180603	0.33403301239	1.0	s	852.9513280389999																																		2015_Jun_25_1004	59.9351535495	LearningTask	1	20	
199	200.0	s	-200.0																	1.0	0.0	1.0	0.0	18.0	3.0	75.0	2.0																													s	1.0	0.35049486160300003	None	0.0	2.0	hexagonorange.gif	stop																								2.08	0.5149171352390001	0.00102996826172	0.35049486160300003	1.0	s	855.955279112																																		2015_Jun_25_1004	59.9351535495	LearningTask	1	20	
200	-200.0	q	200.0																	1.0	0.0	1.0	0.0	19.0	0.0	76.0	1.0																													q	1.0	0.351044893265	None	0.0	1.0	invertedtrianglegreen.gif	stop																								0.97	0.513836145401	0.0008831024169919999	0.351044893265	1.0	q	858.9583680630001																																		2015_Jun_25_1004	59.9351535495	LearningTask	1	20	
201	200.0	w	200.0																	1.0	0.0	1.0	0.0	19.0	1.0	77.0	0.0																													w	1.0	0.38453912735	None	0.0	0.5	squaremagenta.gif	go																								0.69	0.5142300128939999	0.00087308883667	0.38453912735	1.0	w	861.9615449910001																																		2015_Jun_25_1004	59.9351535495	LearningTask	1	20	
202	200.0	s	-200.0																	1.0	0.0	1.0	0.0	19.0	2.0	78.0	2.0																													s	1.0	0.384051084518	None	0.0	2.0	lineyellow.gif	go																								1.85	0.514010906219	0.000931024551392	0.384051084518	1.0	s	864.964939117																																		2015_Jun_25_1004	59.9351535495	LearningTask	1	20	
203	-200.0	q	200.0																	1.0	0.0	1.0	0.0	19.0	3.0	79.0	1.0																													q	1.0	0.351577997208	None	0.0	0.5	squaremagenta.gif	go																								0.0	0.514029026031	0.0009489059448239998	0.351577997208	1.0	q	867.9685430530001																																		2015_Jun_25_1004	59.9351535495	LearningTask	1	20	
204	200.0	w	200.0																	1.0	0.0	1.0	0.0	20.0	0.0	80.0	0.0																													w	1.0	0.31788110733	None	0.0	0.5	crosscyan.gif	stop																								0.27	0.514173030853	0.000888109207153	0.31788110733	1.0	w	870.9718761439999																																		2015_Jun_25_1004	59.9351535495	LearningTask	1	20	
205	-200.0	a	-200.0																	1.0	0.0	1.0	0.0	20.0	1.0	81.0	3.0																													a	1.0	0.366889953613	None	0.0	4.0	trianglegray.gif	stop																								4.12	0.514256000519	0.0009100437164310001	0.366889953613	1.0	a	873.975394964																																		2015_Jun_25_1004	59.9351535495	LearningTask	1	20	
206	-200.0	q	200.0																	1.0	0.0	1.0	0.0	20.0	2.0	82.0	1.0																													q	1.0	0.384547948837	None	0.0	0.5	squaremagenta.gif	go																								0.0	0.513900995255	0.0008718967437739999	0.384547948837	1.0	q	876.9786760810001																																		2015_Jun_25_1004	59.9351535495	LearningTask	1	20	
207	-200.0	q	200.0																	1.0	0.0	1.0	0.0	20.0	3.0	83.0	1.0																													q	1.0	0.35136890411399996	None	0.0	2.0	hexagonorange.gif	stop																								1.89	0.514021158218	0.0009031295776369999	0.35136890411399996	1.0	q	879.981959105																																		2015_Jun_25_1004	59.9351535495	LearningTask	1	20	
208	-200.0	a	-200.0																	1.0	0.0	1.0	0.0	21.0	0.0	84.0	3.0																													a	1.0	0.367260932922	None	0.0	2.0	hexagonorange.gif	stop																								2.24	0.51384305954	0.0009119510650630002	0.367260932922	1.0	a	882.985033035																																		2015_Jun_25_1004	59.9351535495	LearningTask	1	20	
209	200.0	w	200.0																	1.0	0.0	1.0	0.0	21.0	1.0	85.0	0.0																													w	1.0	0.35117602348300003	None	0.0	0.5	squaremagenta.gif	go																								0.0	0.514363050461	0.0008740425109860002	0.35117602348300003	1.0	w	885.988350153																																		2015_Jun_25_1004	59.9351535495	LearningTask	1	20	
210	-200.0	a	-200.0																	1.0	0.0	1.0	0.0	21.0	2.0	86.0	3.0																													a	1.0	0.468343019485	None	0.0	1.0	invertedtrianglegreen.gif	stop																								0.8	0.514219999313	0.0008769035339360002	0.468343019485	1.0	a	888.992529154																																		2015_Jun_25_1004	59.9351535495	LearningTask	1	20	
211	200.0	s	-200.0																	1.0	0.0	1.0	0.0	21.0	3.0	87.0	2.0																													s	1.0	0.384251832962	None	0.0	1.0	invertedtrianglegreen.gif	stop																								0.86	0.513292074203	0.0008831024169919999	0.384251832962	1.0	s	891.9949400419999																																		2015_Jun_25_1004	59.9351535495	LearningTask	1	20	
212	200.0	s	-200.0																	1.0	0.0	1.0	0.0	22.0	0.0	88.0	2.0																													s	1.0	0.38438296318099996	None	0.0	2.0	hexagonorange.gif	stop																								2.12	0.514487028122	0.0009019374847410001	0.38438296318099996	1.0	s	894.998593092																																		2015_Jun_25_1004	59.9351535495	LearningTask	1	20	
213	200.0	s	-200.0																	1.0	0.0	1.0	0.0	22.0	1.0	89.0	2.0																													s	1.0	0.434384822845	None	0.0	0.5	squaremagenta.gif	go																								0.0	0.514225006104	0.0008709430694580001	0.434384822845	1.0	s	898.002104998																																		2015_Jun_25_1004	59.9351535495	LearningTask	1	20	
214	200.0	s	-200.0																	1.0	0.0	1.0	0.0	22.0	2.0	90.0	2.0																													s	1.0	0.36766505241400005	None	0.0	4.0	trianglegray.gif	stop																								4.03	0.513981819153	0.00089693069458	0.36766505241400005	1.0	s	901.005203009																																		2015_Jun_25_1004	59.9351535495	LearningTask	1	20	
215	200.0	s	-200.0																	1.0	0.0	1.0	0.0	22.0	3.0	91.0	2.0																													s	1.0	0.38387799263000005	None	0.0	2.0	hexagonorange.gif	stop																								0.0	0.514551877975	0.0009808540344239999	0.38387799263000005	1.0	s	904.0088250639999																																		2015_Jun_25_1004	59.9351535495	LearningTask	1	20	
216	-200.0	a	-200.0																	1.0	0.0	1.0	0.0	23.0	0.0	92.0	3.0																													a	1.0	0.367589950562	None	0.0	1.0	invertedtrianglegreen.gif	stop																								0.0	0.513915061951	0.000880002975464	0.367589950562	1.0	a	907.0120630260001																																		2015_Jun_25_1004	59.9351535495	LearningTask	1	20	
217	200.0	w	200.0																	1.0	0.0	1.0	0.0	23.0	1.0	93.0	0.0																													w	1.0	0.384535074234	None	0.0	1.0	invertedtrianglegreen.gif	stop																								0.91	0.514041900635	0.00088095664978	0.384535074234	1.0	w	910.015426159																																		2015_Jun_25_1004	59.9351535495	LearningTask	1	20	
218	200.0	w	200.0																	1.0	0.0	1.0	0.0	23.0	2.0	94.0	0.0																													w	1.0	0.367375135422	None	0.0	1.0	invertedtrianglegreen.gif	stop																								0.98	0.5139558315280001	0.000994920730591	0.367375135422	1.0	w	913.0185770989999																																		2015_Jun_25_1004	59.9351535495	LearningTask	1	20	
219	-200.0	a	-200.0																	1.0	0.0	1.0	0.0	23.0	3.0	95.0	3.0																													a	1.0	0.38427805900600004	None	0.0	0.5	squaremagenta.gif	go																								0.72	0.514415025711	0.000869989395142	0.38427805900600004	1.0	a	916.022186995																																		2015_Jun_25_1004	59.9351535495	LearningTask	1	20	
220	-200.0	q	200.0																	1.0	0.0	1.0	0.0	24.0	0.0	96.0	1.0																													q	1.0	0.45090508461	None	0.0	0.5	crosscyan.gif	stop																								0.29	0.5141270160679999	0.000882863998413	0.45090508461	1.0	q	919.025114059																																		2015_Jun_25_1004	59.9351535495	LearningTask	1	20	
221	200.0	s	-200.0																	1.0	0.0	1.0	0.0	24.0	1.0	97.0	2.0																													s	1.0	0.451646089554	None	0.0	2.0	hexagonorange.gif	stop																								2.06	0.514019012451	0.0009379386901860002	0.451646089554	1.0	s	922.02837801																																		2015_Jun_25_1004	59.9351535495	LearningTask	1	20	
222	200.0	s	-200.0																	1.0	0.0	1.0	0.0	24.0	2.0	98.0	2.0																													s	1.0	0.38426685333300004	None	0.0	2.0	hexagonorange.gif	stop																								1.95	0.514032840729	0.0009679794311519998	0.38426685333300004	1.0	s	925.0323371889999																																		2015_Jun_25_1004	59.9351535495	LearningTask	1	20	
223	200.0	w	200.0																	1.0	0.0	1.0	0.0	24.0	3.0	99.0	0.0																													w	1.0	0.434317111969	None	0.0	2.0	hexagonorange.gif	stop																								2.12	0.514088153839	0.000880002975464	0.434317111969	1.0	w	928.03570199																																		2015_Jun_25_1004	59.9351535495	LearningTask	1	20	
224																				1.0	0.0	1.0	0.0																																																																							9.0	3.6000919342																																2015_Jun_25_1004	59.9351535495	LearningTask	1	20	
225	-200.0	a	-200.0																	2.0	0.0	2.0	0.0	0.0	0.0	0.0	3.0																													a	1.0	0.517916917801	None	0.0	4.0	diamondwhite.gif	go																								0.0	0.509978055954	0.000930070877075	0.517916917801	1.0	a	935.177313089																																		2015_Jun_25_1004	59.9351535495	LearningTask	1	20	
226	-200.0	q	200.0																	2.0	0.0	2.0	0.0	0.0	1.0	1.0	1.0																													q	1.0	0.5008909702300001	None	0.0	1.0	invertedtrianglegreen.gif	stop																								0.82	0.513635873795	0.0008749961853029999	0.5008909702300001	1.0	q	938.180144072																																		2015_Jun_25_1004	59.9351535495	LearningTask	1	20	
227	200.0	w	200.0																	2.0	0.0	2.0	0.0	0.0	2.0	2.0	0.0																													w	1.0	0.5508668422699999	None	0.0	4.0	trianglegray.gif	stop																								4.09	0.514250040054	0.000974893569946	0.5508668422699999	1.0	w	941.18372798																																		2015_Jun_25_1004	59.9351535495	LearningTask	1	20	
228	200.0	w	200.0																	2.0	0.0	2.0	0.0	0.0	3.0	3.0	0.0																													w	1.0	0.43439102172899996	None	0.0	0.5	crosscyan.gif	stop																								0.27	0.513845920563	0.0009369850158689999	0.43439102172899996	1.0	w	944.1869151589999																																		2015_Jun_25_1004	59.9351535495	LearningTask	1	20	
229	-200.0	q	200.0																	2.0	0.0	2.0	0.0	1.0	0.0	4.0	1.0																													q	1.0	0.434208869934	None	0.0	2.0	hexagonorange.gif	stop																								2.04	0.514187812805	0.0008859634399410001	0.434208869934	1.0	q	947.190153122																																		2015_Jun_25_1004	59.9351535495	LearningTask	1	20	
230	-200.0	a	-200.0																	2.0	0.0	2.0	0.0	1.0	1.0	5.0	3.0																													a	1.0	0.46776294708300004	None	0.0	4.0	diamondwhite.gif	go																								0.0	0.514305114746	0.00095009803772	0.46776294708300004	1.0	a	950.193462133																																		2015_Jun_25_1004	59.9351535495	LearningTask	1	20	
231	-200.0	q	200.0																	2.0	0.0	2.0	0.0	1.0	2.0	6.0	1.0																													q	1.0	0.400640010834	None	0.0	1.0	circleblue.gif	go																								1.08	0.5145931243899999	0.0009191036224369998	0.400640010834	1.0	q	953.197065115																																		2015_Jun_25_1004	59.9351535495	LearningTask	1	20	
232	200.0	s	-200.0																	2.0	0.0	2.0	0.0	1.0	3.0	7.0	2.0																													s	1.0	0.400739908218	None	0.0	0.5	crosscyan.gif	stop																								0.25	0.514053821564	0.00088095664978	0.400739908218	1.0	s	956.200196028																																		2015_Jun_25_1004	59.9351535495	LearningTask	1	20	
233	200.0	w	200.0																	2.0	0.0	2.0	0.0	2.0	0.0	8.0	0.0																													w	1.0	0.384306907654	None	0.0	1.0	invertedtrianglegreen.gif	stop																								0.92	0.514014005661	0.0010168552398699998	0.384306907654	1.0	w	959.203341007																																		2015_Jun_25_1004	59.9351535495	LearningTask	1	20	
234	200.0	s	-200.0																	2.0	0.0	2.0	0.0	2.0	1.0	9.0	2.0																													s	1.0	0.334084033966	None	0.0	4.0	trianglegray.gif	stop																								4.07	0.514603853226	0.0008749961853029999	0.334084033966	1.0	s	962.207059145																																		2015_Jun_25_1004	59.9351535495	LearningTask	1	20	
235	-200.0	q	200.0																	2.0	0.0	2.0	0.0	2.0	2.0	10.0	1.0																													q	1.0	0.33477687835700004	None	0.0	2.0	hexagonorange.gif	stop																								1.97	0.513849973679	0.00117206573486	0.33477687835700004	1.0	q	965.2103459839999																																		2015_Jun_25_1004	59.9351535495	LearningTask	1	20	
236	-200.0	a	-200.0																	2.0	0.0	2.0	0.0	2.0	3.0	11.0	3.0																													a	1.0	0.417163848877	None	0.0	0.5	crosscyan.gif	stop																								0.4	0.5137867927549999	0.0009529590606689998	0.417163848877	1.0	a	968.2137460710001																																		2015_Jun_25_1004	59.9351535495	LearningTask	1	20	
237	200.0	s	-200.0																	2.0	0.0	2.0	0.0	3.0	0.0	12.0	2.0																													s	1.0	0.41782307624799997	None	0.0	1.0	circleblue.gif	go																								0.0	0.514193058014	0.000877141952515	0.41782307624799997	1.0	s	971.21700716																																		2015_Jun_25_1004	59.9351535495	LearningTask	1	20	
238	-200.0	q	200.0																	2.0	0.0	2.0	0.0	3.0	1.0	13.0	1.0																													q	1.0	0.451071977615	None	0.0	1.0	circleblue.gif	go																								0.95	0.5140910148619999	0.000900983810425	0.451071977615	1.0	q	974.22063899																																		2015_Jun_25_1004	59.9351535495	LearningTask	1	20	
239	-200.0	q	200.0																	2.0	0.0	2.0	0.0	3.0	2.0	14.0	1.0																													q	1.0	0.38432788848899996	None	0.0	2.0	hexagonorange.gif	stop																								1.98	0.513610839844	0.000888824462891	0.38432788848899996	1.0	q	977.223651171																																		2015_Jun_25_1004	59.9351535495	LearningTask	1	20	
240	200.0	w	200.0																	2.0	0.0	2.0	0.0	3.0	3.0	15.0	0.0																													w	1.0	0.38399291038500005	None	0.0	1.0	invertedtrianglegreen.gif	stop																								1.04	0.5147938728329999	0.0008728504180910001	0.38399291038500005	1.0	w	980.2270851139999																																		2015_Jun_25_1004	59.9351535495	LearningTask	1	20	
241	200.0	w	200.0																	2.0	0.0	2.0	0.0	4.0	0.0	16.0	0.0																													w	1.0	0.400859832764	None	0.0	1.0	invertedtrianglegreen.gif	stop																								1.15	0.51430106163	0.000880002975464	0.400859832764	1.0	w	983.23054719																																		2015_Jun_25_1004	59.9351535495	LearningTask	1	20	
242	200.0	w	200.0																	2.0	0.0	2.0	0.0	4.0	1.0	17.0	0.0																													w	1.0	0.417299032211	None	0.0	0.5	crosscyan.gif	stop																								0.69	0.514232873917	0.000881910324097	0.417299032211	1.0	w	986.2336721419999																																		2015_Jun_25_1004	59.9351535495	LearningTask	1	20	
243	-200.0	q	200.0																	2.0	0.0	2.0	0.0	4.0	2.0	18.0	1.0																													q	1.0	0.41777300834700004	None	0.0	4.0	diamondwhite.gif	go																								3.81	0.514295816422	0.00092601776123	0.41777300834700004	1.0	q	989.236898184																																		2015_Jun_25_1004	59.9351535495	LearningTask	1	20	
244	200.0	s	-200.0																	2.0	0.0	2.0	0.0	4.0	3.0	19.0	2.0																													s	1.0	0.40128612518299994	None	0.0	2.0	hexagonorange.gif	stop																								1.91	0.51443696022	0.00088095664978	0.40128612518299994	1.0	s	992.240803003																																		2015_Jun_25_1004	59.9351535495	LearningTask	1	20	
245	-200.0	a	-200.0																	2.0	0.0	2.0	0.0	5.0	0.0	20.0	3.0																													a	1.0	0.334199905396	None	0.0	4.0	diamondwhite.gif	go																								4.08	0.513855934143	0.0008740425109860002	0.334199905396	1.0	a	995.243771076																																		2015_Jun_25_1004	59.9351535495	LearningTask	1	20	
246	200.0	s	-200.0																	2.0	0.0	2.0	0.0	5.0	1.0	21.0	2.0																													s	1.0	0.400952100754	None	0.0	1.0	invertedtrianglegreen.gif	stop																								0.89	0.5142099857329999	0.0011479854583699997	0.400952100754	1.0	s	998.24723506																																		2015_Jun_25_1004	59.9351535495	LearningTask	1	20	
247	200.0	w	200.0																	2.0	0.0	2.0	0.0	5.0	2.0	22.0	0.0																													w	1.0	0.43417501449600004	None	0.0	1.0	circleblue.gif	go																								1.24	0.5142378807069999	0.0008838176727290001	0.43417501449600004	1.0	w	1001.25063205																																		2015_Jun_25_1004	59.9351535495	LearningTask	1	20	
248	-200.0	a	-200.0																	2.0	0.0	2.0	0.0	5.0	3.0	23.0	3.0																													a	1.0	0.36836314201399994	None	0.0	1.0	circleblue.gif	go																								0.0	0.514140844345	0.0008769035339360002	0.334698915482	0.0	q	1004.25380397				1.17	0.515393972397	0.00115299224854	0.36836314201399994	1.0	a	1007.25737119																								2015_Jun_25_1004	59.9351535495	LearningTask	1	20	
249	-200.0	q	200.0																	2.0	0.0	2.0	0.0	6.0	0.0	24.0	1.0																													q	1.0	0.434168100357	None	0.0	4.0	trianglegray.gif	stop																								4.03	0.514317989349	0.000902891159058	0.434168100357	1.0	q	1010.26069403																																		2015_Jun_25_1004	59.9351535495	LearningTask	1	20	
250	200.0	s	-200.0																	2.0	0.0	2.0	0.0	6.0	1.0	25.0	2.0																													s	1.0	0.40118408203100003	None	0.0	0.5	crosscyan.gif	stop																								0.68	0.5143048763279999	0.00088095664978	0.40118408203100003	1.0	s	1013.26377797																																		2015_Jun_25_1004	59.9351535495	LearningTask	1	20	
251	200.0	w	200.0																	2.0	0.0	2.0	0.0	6.0	2.0	26.0	0.0																													w	1.0	0.367245912552	None	0.0	1.0	circleblue.gif	go																								1.04	0.514225006104	0.00107097625732	0.367245912552	1.0	w	1016.26736307																																		2015_Jun_25_1004	59.9351535495	LearningTask	1	20	
252	200.0	w	200.0																	2.0	0.0	2.0	0.0	6.0	3.0	27.0	0.0																													w	1.0	0.400816917419	None	0.0	2.0	lineyellow.gif	go																								2.03	0.514242172241	0.000869989395142	0.400816917419	1.0	w	1019.27087498																																		2015_Jun_25_1004	59.9351535495	LearningTask	1	20	
253	200.0	w	200.0																	2.0	0.0	2.0	0.0	7.0	0.0	28.0	0.0																													w	1.0	0.401485919952	None	0.0	4.0	trianglegray.gif	stop																								4.06	0.513916969299	0.000882863998413	0.401485919952	1.0	w	1022.27438998																																		2015_Jun_25_1004	59.9351535495	LearningTask	1	20	
254	200.0	w	200.0																	2.0	0.0	2.0	0.0	7.0	1.0	29.0	0.0																													w	1.0	0.38430094718900004	None	0.0	4.0	diamondwhite.gif	go																								4.2	0.5139122009279999	0.000888109207153	0.38430094718900004	1.0	w	1025.27755618																																		2015_Jun_25_1004	59.9351535495	LearningTask	1	20	
255	200.0	s	-200.0																	2.0	0.0	2.0	0.0	7.0	2.0	30.0	2.0																													s	1.0	0.38417196273800003	None	0.0	4.0	diamondwhite.gif	go																								3.84	0.514188051224	0.0009059906005860001	0.38417196273800003	1.0	s	1028.28089499																																		2015_Jun_25_1004	59.9351535495	LearningTask	1	20	
256	-200.0	a	-200.0																	2.0	0.0	2.0	0.0	7.0	3.0	31.0	3.0																													a	1.0	0.38435292244	None	0.0	4.0	diamondwhite.gif	go																								4.21	0.514251947403	0.0008749961853029999	0.38435292244	1.0	a	1031.28421807																																		2015_Jun_25_1004	59.9351535495	LearningTask	1	20	
257	200.0	w	200.0																	2.0	0.0	2.0	0.0	8.0	0.0	32.0	0.0																													w	1.0	0.417390823364	None	0.0	1.0	invertedtrianglegreen.gif	stop																								0.0	0.514292955399	0.000869989395142	0.417390823364	1.0	w	1034.28733897																																		2015_Jun_25_1004	59.9351535495	LearningTask	1	20	
258	-200.0	q	200.0																	2.0	0.0	2.0	0.0	8.0	1.0	33.0	1.0																													q	1.0	0.467422008514	None	0.0	2.0	lineyellow.gif	go																								1.86	0.514405965805	0.0008740425109860002	0.467422008514	1.0	q	1037.29058099																																		2015_Jun_25_1004	59.9351535495	LearningTask	1	20	
259	200.0	w	200.0																	2.0	0.0	2.0	0.0	8.0	2.0	34.0	0.0																													w	1.0	0.40102314949	None	0.0	1.0	invertedtrianglegreen.gif	stop																								1.22	0.5143430233	0.0008840560913089999	0.40102314949	1.0	w	1040.29398108																																		2015_Jun_25_1004	59.9351535495	LearningTask	1	20	
260	200.0	w	200.0																	2.0	0.0	2.0	0.0	8.0	3.0	35.0	0.0																													w	1.0	0.351012945175	None	0.0	1.0	invertedtrianglegreen.gif	stop																								1.22	0.514400959015	0.000907897949219	0.351012945175	1.0	w	1043.29782701																																		2015_Jun_25_1004	59.9351535495	LearningTask	1	20	
261	-200.0	q	200.0																	2.0	0.0	2.0	0.0	9.0	0.0	36.0	1.0																													q	1.0	0.33371210098299997	None	0.0	0.5	crosscyan.gif	stop																								0.48	0.5139210224149999	0.000974893569946	0.33371210098299997	1.0	q	1046.30106902																																		2015_Jun_25_1004	59.9351535495	LearningTask	1	20	
262	200.0	s	-200.0																	2.0	0.0	2.0	0.0	9.0	1.0	37.0	2.0																													s	1.0	0.35044097900399995	None	0.0	0.5	crosscyan.gif	stop																								0.6	0.5144519805910001	0.000927209854126	0.35044097900399995	1.0	s	1049.30454898																																		2015_Jun_25_1004	59.9351535495	LearningTask	1	20	
263	-200.0	q	200.0																	2.0	0.0	2.0	0.0	9.0	2.0	38.0	1.0																													q	1.0	0.33441901206999997	None	0.0	0.5	crosscyan.gif	stop																								0.0	0.514010906219	0.0008831024169919999	0.33441901206999997	1.0	q	1052.30746818																																		2015_Jun_25_1004	59.9351535495	LearningTask	1	20	
264	200.0	w	200.0																	2.0	0.0	2.0	0.0	9.0	3.0	39.0	0.0																													w	1.0	0.36800098419200006	None	0.0	0.5	crosscyan.gif	stop																								0.4	0.514083862305	0.000917911529541	0.36800098419200006	1.0	w	1055.31079006																																		2015_Jun_25_1004	59.9351535495	LearningTask	1	20	
265	-200.0	a	-200.0																	2.0	0.0	2.0	0.0	10.0	0.0	40.0	3.0																													a	1.0	0.45096302032499996	None	0.0	4.0	trianglegray.gif	stop																								4.07	0.514115095139	0.000946044921875	0.45096302032499996	1.0	a	1058.31433511																																		2015_Jun_25_1004	59.9351535495	LearningTask	1	20	
266	200.0	w	200.0																	2.0	0.0	2.0	0.0	10.0	1.0	41.0	0.0																													w	1.0	0.40119099617	None	0.0	0.5	crosscyan.gif	stop																								0.28	0.514227867126	0.0008769035339360002	0.40119099617	1.0	w	1061.3178041																																		2015_Jun_25_1004	59.9351535495	LearningTask	1	20	
267	200.0	s	-200.0																	2.0	0.0	2.0	0.0	10.0	2.0	42.0	2.0																													s	1.0	0.383911132812	None	0.0	4.0	diamondwhite.gif	go																								3.98	0.514126062393	0.0009431838989260002	0.383911132812	1.0	s	1064.32112813																																		2015_Jun_25_1004	59.9351535495	LearningTask	1	20	
268	-200.0	a	-200.0																	2.0	0.0	2.0	0.0	10.0	3.0	43.0	3.0																													a	1.0	0.401090145111	None	0.0	0.5	squaremagenta.gif	go																								0.61	0.514146089554	0.000865936279297	0.401090145111	1.0	a	1067.32420802																																		2015_Jun_25_1004	59.9351535495	LearningTask	1	20	
269	200.0	s	-200.0																	2.0	0.0	2.0	0.0	11.0	0.0	44.0	2.0																													s	1.0	0.384270906448	None	0.0	0.5	crosscyan.gif	stop																								0.66	0.514197826385	0.0008909702301030001	0.384270906448	1.0	s	1070.32795715																																		2015_Jun_25_1004	59.9351535495	LearningTask	1	20	
270	200.0	s	-200.0																	2.0	0.0	2.0	0.0	11.0	1.0	45.0	2.0																													s	1.0	0.417643070221	None	0.0	1.0	circleblue.gif	go																								1.25	0.513778924942	0.000888824462891	0.417643070221	1.0	s	1073.33116603																																		2015_Jun_25_1004	59.9351535495	LearningTask	1	20	
271	-200.0	a	-200.0																	2.0	0.0	2.0	0.0	11.0	2.0	46.0	3.0																													a	1.0	0.367545127869	None	0.0	1.0	circleblue.gif	go																								0.94	0.5140600204469999	0.0008728504180910001	0.367545127869	1.0	a	1076.33439612																																		2015_Jun_25_1004	59.9351535495	LearningTask	1	20	
272	-200.0	q	200.0																	2.0	0.0	2.0	0.0	11.0	3.0	47.0	1.0																													q	1.0	0.367501974106	None	0.0	0.5	crosscyan.gif	stop																								0.61	0.514261960983	0.0008709430694580001	0.367501974106	1.0	q	1079.33792806																																		2015_Jun_25_1004	59.9351535495	LearningTask	1	20	
273	-200.0	q	200.0																	2.0	0.0	2.0	0.0	12.0	0.0	48.0	1.0																													q	1.0	0.41721916198700004	None	0.0	4.0	trianglegray.gif	stop																								4.05	0.514133930206	0.0008831024169919999	0.41721916198700004	1.0	q	1082.34114599																																		2015_Jun_25_1004	59.9351535495	LearningTask	1	20	
274	200.0	s	-200.0																	2.0	0.0	2.0	0.0	12.0	1.0	49.0	2.0																													s	1.0	0.334482908249	None	0.0	4.0	trianglegray.gif	stop																								3.88	0.51428103447	0.00104284286499	0.334482908249	1.0	s	1085.34432197																																		2015_Jun_25_1004	59.9351535495	LearningTask	1	20	
275	-200.0	q	200.0																	2.0	0.0	2.0	0.0	12.0	2.0	50.0	1.0																													q	1.0	0.36748194694499997	None	0.0	0.5	crosscyan.gif	stop																								0.74	0.514602184296	0.0008931159973139998	0.36748194694499997	1.0	q	1088.34820914																																		2015_Jun_25_1004	59.9351535495	LearningTask	1	20	
276	200.0	s	-200.0																	2.0	0.0	2.0	0.0	12.0	3.0	51.0	2.0																													s	1.0	0.38413095474200004	None	0.0	2.0	lineyellow.gif	go																								2.15	0.51388502121	0.0008840560913089999	0.38413095474200004	1.0	s	1091.35127401																																		2015_Jun_25_1004	59.9351535495	LearningTask	1	20	
277	-200.0	q	200.0																	2.0	0.0	2.0	0.0	13.0	0.0	52.0	1.0																													q	1.0	0.417405128479	None	0.0	4.0	trianglegray.gif	stop																								3.77	0.514197826385	0.0009379386901860002	0.417405128479	1.0	q	1094.35456014																																		2015_Jun_25_1004	59.9351535495	LearningTask	1	20	
278	200.0	s	-200.0																	2.0	0.0	2.0	0.0	13.0	1.0	53.0	2.0																													s	1.0	0.400635004044	None	0.0	4.0	trianglegray.gif	stop																								3.95	0.514283895493	0.000877857208252	0.400635004044	1.0	s	1097.35801911																																		2015_Jun_25_1004	59.9351535495	LearningTask	1	20	
279	-200.0	a	-200.0																	2.0	0.0	2.0	0.0	13.0	2.0	54.0	3.0																													a	1.0	0.367465019226	None	0.0	1.0	circleblue.gif	go																								0.97	0.514183998108	0.000877141952515	0.367465019226	1.0	a	1100.36118507																																		2015_Jun_25_1004	59.9351535495	LearningTask	1	20	
280	-200.0	a	-200.0																	2.0	0.0	2.0	0.0	13.0	3.0	55.0	3.0																													a	1.0	0.401570081711	None	0.0	2.0	lineyellow.gif	go																								2.18	0.513983011246	0.000907897949219	0.401570081711	1.0	a	1103.36443305																																		2015_Jun_25_1004	59.9351535495	LearningTask	1	20	
281	200.0	s	-200.0																	2.0	0.0	2.0	0.0	14.0	0.0	56.0	2.0																													s	1.0	0.40071606636	None	0.0	1.0	invertedtrianglegreen.gif	stop																								1.12	0.514698982239	0.000871181488037	0.40071606636	1.0	s	1106.3681890999999																																		2015_Jun_25_1004	59.9351535495	LearningTask	1	20	
282	-200.0	a	-200.0																	2.0	0.0	2.0	0.0	14.0	1.0	57.0	3.0																													a	1.0	0.367708921432	None	0.0	4.0	trianglegray.gif	stop																								3.75	0.5140450000760001	0.000880002975464	0.367708921432	1.0	a	1109.37147307																																		2015_Jun_25_1004	59.9351535495	LearningTask	1	20	
283	-200.0	a	-200.0																	2.0	0.0	2.0	0.0	14.0	2.0	58.0	3.0																													a	1.0	0.317453861237	None	0.0	4.0	diamondwhite.gif	go																								4.25	0.5138010978700001	0.0009450912475589999	0.317453861237	1.0	a	1112.37466812																																		2015_Jun_25_1004	59.9351535495	LearningTask	1	20	
284	-200.0	q	200.0																	2.0	0.0	2.0	0.0	14.0	3.0	59.0	1.0																													q	1.0	0.38467907905599996	None	0.0	0.5	crosscyan.gif	stop																								0.39	0.51429605484	0.000877141952515	0.38467907905599996	1.0	q	1115.37805605																																		2015_Jun_25_1004	59.9351535495	LearningTask	1	20	
285	-200.0	a	-200.0																	2.0	0.0	2.0	0.0	15.0	0.0	60.0	3.0																													a	1.0	0.400825977325	None	0.0	2.0	lineyellow.gif	go																								2.03	0.514181137085	0.000900030136108	0.400825977325	1.0	a	1118.38193703																																		2015_Jun_25_1004	59.9351535495	LearningTask	1	20	
286	-200.0	a	-200.0																	2.0	0.0	2.0	0.0	15.0	1.0	61.0	3.0																													a	1.0	0.367564916611	None	0.0	2.0	hexagonorange.gif	stop																								0.0	0.513494968414	0.0009059906005860001	0.367564916611	1.0	a	1121.38467908																																		2015_Jun_25_1004	59.9351535495	LearningTask	1	20	
287	200.0	s	-200.0																	2.0	0.0	2.0	0.0	15.0	2.0	62.0	2.0																													s	1.0	0.351221084595	None	0.0	4.0	trianglegray.gif	stop																								3.78	0.514518976212	0.0008740425109860002	0.351221084595	1.0	s	1124.38811398																																		2015_Jun_25_1004	59.9351535495	LearningTask	1	20	
288	-200.0	a	-200.0																	2.0	0.0	2.0	0.0	15.0	3.0	63.0	3.0																													a	1.0	0.367115020752	None	0.0	4.0	trianglegray.gif	stop																								0.0	0.51461315155	0.0009069442749019998	0.367115020752	1.0	a	1127.39189696																																		2015_Jun_25_1004	59.9351535495	LearningTask	1	20	
289	-200.0	a	-200.0																	2.0	0.0	2.0	0.0	16.0	0.0	64.0	3.0																													a	1.0	0.383867025375	None	0.0	4.0	trianglegray.gif	stop																								3.81	0.514018058777	0.0008959770202639998	0.383867025375	1.0	a	1130.39489198																																		2015_Jun_25_1004	59.9351535495	LearningTask	1	20	
290	-200.0	q	200.0																	2.0	0.0	2.0	0.0	16.0	1.0	65.0	1.0																													q	1.0	0.367302894592	None	0.0	1.0	invertedtrianglegreen.gif	stop																								0.76	0.5142149925230001	0.0009541511535639998	0.367302894592	1.0	q	1133.39801311																																		2015_Jun_25_1004	59.9351535495	LearningTask	1	20	
291	-200.0	a	-200.0																	2.0	0.0	2.0	0.0	16.0	2.0	66.0	3.0																													a	1.0	0.367712974548	None	0.0	0.5	crosscyan.gif	stop																								0.68	0.514460086823	0.0008869171142580001	0.367712974548	1.0	a	1136.40210319																																		2015_Jun_25_1004	59.9351535495	LearningTask	1	20	
