	xPos	corrAns	yPos	corrGoResp	yPosGoStim	xPosGoStim	pracTrials.thisRepN	pracTrials.thisTrialN	pracTrials.thisN	pracTrials.thisIndex	ReDoLoopPrac.thisRepN	ReDoLoopPrac.thisTrialN	ReDoLoopPrac.thisN	ReDoLoopPrac.thisIndex	ReDoLoopPrac.thisTrial	pracStopTrials.thisRepN	pracStopTrials.thisTrialN	pracStopTrials.thisN	pracStopTrials.thisIndex	Blocks.thisRepN	Blocks.thisTrialN	Blocks.thisN	Blocks.thisIndex	trials.thisRepN	trials.thisTrialN	trials.thisN	trials.thisIndex	ReDoLoopMain.thisRepN	ReDoLoopMain.thisTrialN	ReDoLoopMain.thisN	ReDoLoopMain.thisIndex	ReDoLoopMain.thisTrial	StopBlocks.thisRepN	StopBlocks.thisTrialN	StopBlocks.thisN	StopBlocks.thisIndex	StopTrials.thisRepN	StopTrials.thisTrialN	StopTrials.thisN	StopTrials.thisIndex	auctionBlocks.thisRepN	auctionBlocks.thisTrialN	auctionBlocks.thisN	auctionBlocks.thisIndex	auctionTrials.thisRepN	auctionTrials.thisTrialN	auctionTrials.thisN	auctionTrials.thisIndex	learningTrialList	learningPracTrialList	stopTrialList	stopPracTrialList	auctionTrialList	ok1.keys	ok1.rt	resp.keys	resp.corr	resp.rt	feedbackResp.keys	feedbackResp.corr	currentReward	currentStimulus	currentStimType	firstPracComputedRewardOutput	firstPracLearningStimOnset	firstPracLearningFixOnset	firstPracPresentationRT	firstPracPresentationAcc	firstPracPresentationResp	firstPracEndTrialTimeStamp	StartTrialTimeStamp	trialType	goStim	stimType	stopStimValue	goResp.keys	goResp.corr	goResp.rt	key_resp_9.keys	key_resp_9.corr	fixStopOnset	goStimOnset	stopSignalOnset	EndTrialTimeStamp	key_resp_3.keys	key_resp_3.rt	firstComputedRewardOutput	firstLearningStimOnset	firstLearningFixOnset	firstPresentationRT	firstPresentationAcc	firstPresentationResp	firstEndTrialTimeStamp	key_resp_7.keys	key_resp_7.rt	secondComputedRewardOutput	secondLearningStimOnset	secondLearningFixOnset	secondPresentationRT	secondPresentationAcc	secondPresentationResp	secondEndTrialTimeStamp	beginningSSD	EndingSSD	key_resp_9.rt	key_resp_4.keys	key_resp_4.rt	auctionResponse.keys	auctionStimDuration	auctionStim	auctionAmounts	auctionStimValue	auctionCondition	chosenAuctionAmount	auctionResponse.rt	key_resp_5.keys	key_resp_5.rt	shuffledRewardList	chosenReward1	chosenReward2	chosenReward3	chosenReward4	chosenReward5	key_resp_6.keys	key_resp_6.rt	date	frameRate	expName	session	participant	Unnamed: 130
0																																																	[]	[]	[]	[]	[]	9.0	58.6020948887																																																																							2015_Jul_07_1410	59.87774062850001	LearningTask	1	82	
1	200.0	w	200.0				0.0	0.0	0.0	8.0																																														w	1.0	0.617772817612	None	0.0	2.0	squaremagenta.gif	stop	0.0	0.500752925873	0.019429922103900002	0.617772817612	1.0	w	128.589436054																																																								2015_Jul_07_1410	59.87774062850001	LearningTask	1	82	
2	200.0	w	200.0				0.0	1.0	1.0	0.0																																														w	1.0	0.500532150269	None	0.0	2.0	squaremagenta.gif	stop	1.93	0.514853954315	0.0008959770202639998	0.500532150269	1.0	w	131.59261298200002																																																								2015_Jul_07_1410	59.87774062850001	LearningTask	1	82	
3	-200.0	q	200.0				0.0	2.0	2.0	9.0																																														q	1.0	0.467746973038	None	0.0	2.0	circleyellow.gif	go	2.08	0.515094041824	0.0170509815216	0.467746973038	1.0	q	134.595916986																																																								2015_Jul_07_1410	59.87774062850001	LearningTask	1	82	
4	200.0	s	-200.0				0.0	3.0	3.0	6.0																																														s	1.0	0.501441955566	None	0.0	0.5	invertedtriangleblue.gif	go	0.62	0.515486955643	0.00993895530701	0.501441955566	1.0	s	137.599279881																																																								2015_Jul_07_1410	59.87774062850001	LearningTask	1	82	
5	200.0	s	-200.0				0.0	4.0	4.0	2.0																																														s	1.0	0.5178480148319999	None	0.0	1.0	crossgreen.gif	go	1.02	0.515009880066	0.022449016571	0.5178480148319999	1.0	s	140.603102922																																																								2015_Jul_07_1410	59.87774062850001	LearningTask	1	82	
6	-200.0	a	-200.0				0.0	5.0	5.0	7.0																																														a	1.0	0.367735862732	None	0.0	0.5	invertedtriangleblue.gif	go	0.0	0.5144951343540001	0.0009241104125980002	0.367735862732	1.0	a	143.606050968																																																								2015_Jul_07_1410	59.87774062850001	LearningTask	1	82	
7	-200.0	q	200.0				0.0	6.0	6.0	5.0																																														q	1.0	0.41749906539899995	None	0.0	1.0	hexagoncyan.gif	stop	0.94	0.515202045441	0.0349450111389	0.41749906539899995	1.0	q	146.609487057																																																								2015_Jul_07_1410	59.87774062850001	LearningTask	1	82	
8	200.0	w	200.0				0.0	7.0	7.0	4.0																																														w	1.0	0.40144395828199997	None	0.0	2.0	squaremagenta.gif	stop	1.88	0.5150001049040001	0.0010449886322	0.40144395828199997	1.0	w	149.612663031																																																								2015_Jul_07_1410	59.87774062850001	LearningTask	1	82	
9	-200.0	a	-200.0				0.0	8.0	8.0	3.0																																														a	1.0	0.417685031891	None	0.0	0.5	invertedtriangleblue.gif	go	0.0	0.5150949954990001	0.00101017951965	0.417685031891	1.0	a	152.616396904																																																								2015_Jul_07_1410	59.87774062850001	LearningTask	1	82	
10	-200.0	q	200.0				0.0	9.0	9.0	1.0																																														q	1.0	0.40063285827600004	None	0.0	4.0	diamondgray.gif	stop	4.1	0.5151021480560001	0.060246944427500004	0.40063285827600004	1.0	q	155.619561911																																																								2015_Jul_07_1410	59.87774062850001	LearningTask	1	82	
11				m	0.0	200.0										0.0	0.0	0.0	1.0																																																				206.31855893099998	stop	diamondgray.gif	stop	4.0	m	1.0	0.534753084183	None	0.0	0.00165700912476	0.50644493103	0.7570409774779999	209.312933922																																										2015_Jul_07_1410	59.87774062850001	LearningTask	1	82	
12				z	0.0	-200.0										0.0	1.0	1.0	0.0																																																				209.313334942	go	lineorange.gif	go	4.0	z	1.0	0.634423017502	None	0.0	0.0786430835724	0.515855073929		212.316606045																																										2015_Jul_07_1410	59.87774062850001	LearningTask	1	82	
13				z	0.0	-200.0										1.0	0.0	2.0	0.0																																																				212.31696987200002	stop	diamondgray.gif	stop	4.0	None	0.0		None	0.0	0.0012519359588599999	0.515595912933	0.7656579017640001	215.31991195700002																																										2015_Jul_07_1410	59.87774062850001	LearningTask	1	82	
14				m	0.0	200.0										1.0	1.0	3.0	1.0																																																				215.32027006099997	go	circleyellow.gif	go	2.0	m	1.0	0.417628765106	None	0.0	0.0013129711151099999	0.516170024872		218.32355904599999																																										2015_Jul_07_1410	59.87774062850001	LearningTask	1	82	
15				z	0.0	-200.0										2.0	0.0	4.0	0.0																																																				218.323930979	go	lineorange.gif	go	4.0	z	1.0	0.601101875305	None	0.0	0.00109195709229	0.515106916428		221.32649588599998																																										2015_Jul_07_1410	59.87774062850001	LearningTask	1	82	
16				m	0.0	200.0										2.0	1.0	5.0	1.0																																																				221.326858044	go	invertedtriangleblue.gif	go	0.5	m	1.0	0.534148216248	None	0.0	0.0013108253479	0.516015052795		224.329908848																																										2015_Jul_07_1410	59.87774062850001	LearningTask	1	82	
17				m	0.0	200.0										3.0	0.0	6.0	1.0																																																				224.33027195900002	stop	hexagoncyan.gif	stop	1.0	m	1.0	0.434353113174	None	0.0	0.0013840198516800002	0.515774965286	0.76601600647	227.33355093																																										2015_Jul_07_1410	59.87774062850001	LearningTask	1	82	
18				z	0.0	-200.0										3.0	1.0	7.0	0.0																																																				227.33397603	go	invertedtriangleblue.gif	go	0.5	z	1.0	0.534409046173	None	0.0	0.00103306770325	0.515373945236		230.336703062																																										2015_Jul_07_1410	59.87774062850001	LearningTask	1	82	
19				z	0.0	-200.0										4.0	0.0	8.0	0.0																																																				230.337065935	go	lineorange.gif	go	4.0	z	1.0	0.48395490646399997	None	0.0	0.0009469985961910001	0.5159771442409999		233.339804888																																										2015_Jul_07_1410	59.87774062850001	LearningTask	1	82	
20				m	0.0	200.0										4.0	1.0	9.0	1.0																																																				233.340177059	stop	trianglewhite.gif	stop	0.5	m	1.0	0.384641885757	None	0.0	0.0238308906555	0.515759944916	0.750211000443	236.343564987																																										2015_Jul_07_1410	59.87774062850001	LearningTask	1	82	
21																																																																																					9.0	3.42765498161																																								2015_Jul_07_1410	59.87774062850001	LearningTask	1	82	
22																																																						9.0	100.32971096																																																																							2015_Jul_07_1410	59.87774062850001	LearningTask	1	82	
23	200.0	s	-200.0																	0.0	0.0	0.0	0.0	0.0	0.0	0.0	2.0																													s	1.0	0.48417592048600006	None	0.0	0.5	trianglewhite.gif	stop																								0.34	0.504989147186	0.0008931159973139998	0.48417592048600006	1.0	s	343.2816329																																	2015_Jul_07_1410	59.87774062850001	LearningTask	1	82	
24	-200.0	a	-200.0																	0.0	0.0	0.0	0.0	0.0	1.0	1.0	3.0																													a	1.0	0.45090413093599996	None	0.0	2.0	squaremagenta.gif	stop																								2.22	0.513658046722	0.00127601623535	0.45090413093599996	1.0	a	346.284708977																																	2015_Jul_07_1410	59.87774062850001	LearningTask	1	82	
25	200.0	s	-200.0																	0.0	0.0	0.0	0.0	0.0	2.0	2.0	2.0																													s	1.0	0.40129899978600003	None	0.0	0.5	invertedtriangleblue.gif	go																								0.67	0.514183998108	0.0009150505065920001	0.40129899978600003	1.0	s	349.287832022																																	2015_Jul_07_1410	59.87774062850001	LearningTask	1	82	
26	-200.0	a	-200.0																	0.0	0.0	0.0	0.0	0.0	3.0	3.0	3.0																													a	1.0	0.467945098877	None	0.0	2.0	circleyellow.gif	go																								1.78	0.514307975769	0.0008950233459470001	0.467945098877	1.0	a	352.29161787																																	2015_Jul_07_1410	59.87774062850001	LearningTask	1	82	
27	-200.0	q	200.0																	0.0	0.0	0.0	0.0	1.0	0.0	4.0	1.0																													q	1.0	0.350665092468	None	0.0	2.0	circleyellow.gif	go																								2.08	0.514028072357	0.000942945480347	0.350665092468	1.0	q	355.294698954																																	2015_Jul_07_1410	59.87774062850001	LearningTask	1	82	
28	200.0	w	200.0																	0.0	0.0	0.0	0.0	1.0	1.0	5.0	0.0																													w	1.0	0.484213113785	None	0.0	4.0	lineorange.gif	go																								4.09	0.514404058456	0.0008981227874760001	0.484213113785	1.0	w	358.298060894																																	2015_Jul_07_1410	59.87774062850001	LearningTask	1	82	
29	200.0	s	-200.0																	0.0	0.0	0.0	0.0	1.0	2.0	6.0	2.0																													s	1.0	0.334568977356	None	0.0	0.5	trianglewhite.gif	stop																								0.38	0.514261960983	0.00092887878418	0.334568977356	1.0	s	361.301444054																																	2015_Jul_07_1410	59.87774062850001	LearningTask	1	82	
30	-200.0	q	200.0																	0.0	0.0	0.0	0.0	1.0	3.0	7.0	1.0																													q	1.0	0.35054087638899994	None	0.0	0.5	trianglewhite.gif	stop																								0.62	0.514064788818	0.000902891159058	0.35054087638899994	1.0	q	364.304760933																																	2015_Jul_07_1410	59.87774062850001	LearningTask	1	82	
31	-200.0	a	-200.0																	0.0	0.0	0.0	0.0	2.0	0.0	8.0	3.0																													a	1.0	0.33400416374200004	None	0.0	1.0	crossgreen.gif	go																								1.22	0.5144538879389999	0.00128698348999	0.33400416374200004	1.0	a	367.308475971																																	2015_Jul_07_1410	59.87774062850001	LearningTask	1	82	
32	-200.0	a	-200.0																	0.0	0.0	0.0	0.0	2.0	1.0	9.0	3.0																													a	1.0	0.384493112564	None	0.0	2.0	circleyellow.gif	go																								1.79	0.513593196869	0.0009210109710689999	0.384493112564	1.0	a	370.311790943																																	2015_Jul_07_1410	59.87774062850001	LearningTask	1	82	
33	200.0	s	-200.0																	0.0	0.0	0.0	0.0	2.0	2.0	10.0	2.0																													s	1.0	0.38442492485	None	0.0	1.0	hexagoncyan.gif	stop																								1.04	0.5141181945800001	0.000888109207153	0.38442492485	1.0	s	373.314935923																																	2015_Jul_07_1410	59.87774062850001	LearningTask	1	82	
34	200.0	w	200.0																	0.0	0.0	0.0	0.0	2.0	3.0	11.0	0.0																													w	1.0	0.38411211967500003	None	0.0	2.0	squaremagenta.gif	stop																								1.91	0.514389038086	0.000998020172119	0.38411211967500003	1.0	w	376.318214893																																	2015_Jul_07_1410	59.87774062850001	LearningTask	1	82	
35	-200.0	q	200.0																	0.0	0.0	0.0	0.0	3.0	0.0	12.0	1.0																													q	1.0	0.334137916565	None	0.0	4.0	diamondgray.gif	stop																								4.21	0.514422893524	0.0008909702301030001	0.334137916565	1.0	q	379.32170105																																	2015_Jul_07_1410	59.87774062850001	LearningTask	1	82	
36	200.0	s	-200.0																	0.0	0.0	0.0	0.0	3.0	1.0	13.0	2.0																													s	1.0	0.351161956787	None	0.0	4.0	diamondgray.gif	stop																								0.0	0.5142300128939999	0.00118517875671	0.351161956787	1.0	s	382.325026035																																	2015_Jul_07_1410	59.87774062850001	LearningTask	1	82	
37	200.0	w	200.0																	0.0	0.0	0.0	0.0	3.0	2.0	14.0	0.0																													w	1.0	0.350912094116	None	0.0	4.0	diamondgray.gif	stop																								0.0	0.514338970184	0.0010070800781199999	0.350912094116	1.0	w	385.32878089																																	2015_Jul_07_1410	59.87774062850001	LearningTask	1	82	
38	200.0	w	200.0																	0.0	0.0	0.0	0.0	3.0	3.0	15.0	0.0																													w	1.0	0.367249011993	None	0.0	2.0	squaremagenta.gif	stop																								1.81	0.514215946198	0.0008909702301030001	0.367249011993	1.0	w	388.331806898																																	2015_Jul_07_1410	59.87774062850001	LearningTask	1	82	
39	200.0	w	200.0																	0.0	0.0	0.0	0.0	4.0	0.0	16.0	0.0																													w	1.0	0.367567062378	None	0.0	1.0	crossgreen.gif	go																								0.77	0.514409065247	0.000922918319702	0.367567062378	1.0	w	391.335053921																																	2015_Jul_07_1410	59.87774062850001	LearningTask	1	82	
40	200.0	s	-200.0																	0.0	0.0	0.0	0.0	4.0	1.0	17.0	2.0																													s	1.0	0.43457603454599997	None	0.0	1.0	hexagoncyan.gif	stop																								0.75	0.514087915421	0.0009248256683350001	0.43457603454599997	1.0	s	394.338654041																																	2015_Jul_07_1410	59.87774062850001	LearningTask	1	82	
41	-200.0	a	-200.0																	0.0	0.0	0.0	0.0	4.0	2.0	18.0	3.0																													a	1.0	0.41817402839699996	None	0.0	1.0	hexagoncyan.gif	stop																								1.05	0.514347791672	0.0008978843688960001	0.41817402839699996	1.0	a	397.342005014																																	2015_Jul_07_1410	59.87774062850001	LearningTask	1	82	
42	-200.0	q	200.0																	0.0	0.0	0.0	0.0	4.0	3.0	19.0	1.0																													q	1.0	0.400542974472	None	0.0	4.0	lineorange.gif	go																								3.83	0.5145897865300001	0.0009608268737789999	0.400542974472	1.0	q	400.345479965																																	2015_Jul_07_1410	59.87774062850001	LearningTask	1	82	
43	200.0	s	-200.0																	0.0	0.0	0.0	0.0	5.0	0.0	20.0	2.0																													s	1.0	0.350771188736	None	0.0	4.0	diamondgray.gif	stop																								3.91	0.514093875885	0.00125002861023	0.350771188736	1.0	s	403.348796844																																	2015_Jul_07_1410	59.87774062850001	LearningTask	1	82	
44	200.0	s	-200.0																	0.0	0.0	0.0	0.0	5.0	1.0	21.0	2.0																													s	1.0	0.40151596069300005	None	0.0	0.5	invertedtriangleblue.gif	go																								0.0	0.514069795609	0.0009670257568360001	0.40151596069300005	1.0	s	406.351992846																																	2015_Jul_07_1410	59.87774062850001	LearningTask	1	82	
45	200.0	s	-200.0																	0.0	0.0	0.0	0.0	5.0	2.0	22.0	2.0																													s	1.0	0.334362983704	None	0.0	2.0	circleyellow.gif	go																								2.22	0.514323949814	0.0009479522705080001	0.334362983704	1.0	s	409.35581588699995																																	2015_Jul_07_1410	59.87774062850001	LearningTask	1	82	
46	200.0	s	-200.0																	0.0	0.0	0.0	0.0	5.0	3.0	23.0	2.0																													s	1.0	0.367694139481	None	0.0	0.5	trianglewhite.gif	stop																								0.0	0.514019966125	0.00090503692627	0.367694139481	1.0	s	412.35876894																																	2015_Jul_07_1410	59.87774062850001	LearningTask	1	82	
47	200.0	w	200.0																	0.0	0.0	0.0	0.0	6.0	0.0	24.0	0.0																													w	1.0	0.41724705696099995	None	0.0	4.0	diamondgray.gif	stop																								4.03	0.514544963837	0.000885009765625	0.41724705696099995	1.0	w	415.362119913																																	2015_Jul_07_1410	59.87774062850001	LearningTask	1	82	
48	200.0	w	200.0																	0.0	0.0	0.0	0.0	6.0	1.0	25.0	0.0																													w	1.0	0.38377904892	None	0.0	1.0	hexagoncyan.gif	stop																								0.98	0.514523029327	0.000890016555786	0.38377904892	1.0	w	418.365567923																																	2015_Jul_07_1410	59.87774062850001	LearningTask	1	82	
49	200.0	w	200.0																	0.0	0.0	0.0	0.0	6.0	2.0	26.0	0.0																													w	1.0	0.38435196876500005	None	0.0	2.0	squaremagenta.gif	stop																								1.9	0.514225006104	0.0008990764617919999	0.38435196876500005	1.0	w	421.36897492400004																																	2015_Jul_07_1410	59.87774062850001	LearningTask	1	82	
50	200.0	w	200.0																	0.0	0.0	0.0	0.0	6.0	3.0	27.0	0.0																													w	1.0	0.38393402099600005	None	0.0	0.5	trianglewhite.gif	stop																								0.0	0.514317989349	0.00104808807373	0.38393402099600005	1.0	w	424.372876883																																	2015_Jul_07_1410	59.87774062850001	LearningTask	1	82	
51	-200.0	a	-200.0																	0.0	0.0	0.0	0.0	7.0	0.0	28.0	3.0																													a	1.0	0.38431596755999997	None	0.0	0.5	trianglewhite.gif	stop																								0.67	0.513714075089	0.00089693069458	0.38431596755999997	1.0	a	427.37580394699995																																	2015_Jul_07_1410	59.87774062850001	LearningTask	1	82	
52	200.0	s	-200.0																	0.0	0.0	0.0	0.0	7.0	1.0	29.0	2.0																													s	1.0	0.350589036942	None	0.0	1.0	hexagoncyan.gif	stop																								1.22	0.5145130157469999	0.0008931159973139998	0.350589036942	1.0	s	430.37900686300003																																	2015_Jul_07_1410	59.87774062850001	LearningTask	1	82	
53	-200.0	q	200.0																	0.0	0.0	0.0	0.0	7.0	2.0	30.0	1.0																													q	1.0	0.317401170731	None	0.0	0.5	invertedtriangleblue.gif	go																								0.43	0.51437497139	0.00104093551636	0.317401170731	1.0	q	433.38261199																																	2015_Jul_07_1410	59.87774062850001	LearningTask	1	82	
54	200.0	s	-200.0																	0.0	0.0	0.0	0.0	7.0	3.0	31.0	2.0																													s	1.0	0.317494869232	None	0.0	4.0	diamondgray.gif	stop																								3.94	0.514096975327	0.000908851623535	0.317494869232	1.0	s	436.385808945																																	2015_Jul_07_1410	59.87774062850001	LearningTask	1	82	
55	-200.0	q	200.0																	0.0	0.0	0.0	0.0	8.0	0.0	32.0	1.0																													q	1.0	0.41760492324799997	None	0.0	4.0	lineorange.gif	go																								0.0	0.5143401622770001	0.0009100437164310001	0.41760492324799997	1.0	q	439.38901400599997																																	2015_Jul_07_1410	59.87774062850001	LearningTask	1	82	
56	200.0	w	200.0																	0.0	0.0	0.0	0.0	8.0	1.0	33.0	0.0																													w	1.0	0.384021043777	None	0.0	1.0	hexagoncyan.gif	stop																								1.04	0.514716148376	0.00092601776123	0.384021043777	1.0	w	442.39261794099997																																	2015_Jul_07_1410	59.87774062850001	LearningTask	1	82	
57	-200.0	a	-200.0																	0.0	0.0	0.0	0.0	8.0	2.0	34.0	3.0																													a	1.0	0.451039075851	None	0.0	2.0	circleyellow.gif	go																								1.76	0.51444196701	0.000907897949219	0.451039075851	1.0	a	445.395959854																																	2015_Jul_07_1410	59.87774062850001	LearningTask	1	82	
58	200.0	s	-200.0																	0.0	0.0	0.0	0.0	8.0	3.0	35.0	2.0																													s	1.0	0.367812156677	None	0.0	0.5	invertedtriangleblue.gif	go																								0.0	0.514200210571	0.0009591579437260001	0.367812156677	1.0	s	448.399466038																																	2015_Jul_07_1410	59.87774062850001	LearningTask	1	82	
59	-200.0	q	200.0																	0.0	0.0	0.0	0.0	9.0	0.0	36.0	1.0																													q	1.0	0.401087999344	None	0.0	4.0	diamondgray.gif	stop																								0.0	0.5137491226199999	0.0009059906005860001	0.401087999344	1.0	q	451.402714014																																	2015_Jul_07_1410	59.87774062850001	LearningTask	1	82	
60	200.0	s	-200.0																	0.0	0.0	0.0	0.0	9.0	1.0	37.0	2.0																													s	1.0	0.334275007248	None	0.0	4.0	lineorange.gif	go																								4.03	0.514148950577	0.0008990764617919999	0.334275007248	1.0	s	454.40635895699995																																	2015_Jul_07_1410	59.87774062850001	LearningTask	1	82	
61	200.0	s	-200.0																	0.0	0.0	0.0	0.0	9.0	2.0	38.0	2.0																													s	1.0	0.384325027466	None	0.0	2.0	squaremagenta.gif	stop																								2.02	0.513758897781	0.000926971435547	0.384325027466	1.0	s	457.40971803699995																																	2015_Jul_07_1410	59.87774062850001	LearningTask	1	82	
62	200.0	s	-200.0																	0.0	0.0	0.0	0.0	9.0	3.0	39.0	2.0																													s	1.0	0.400760173798	None	0.0	1.0	crossgreen.gif	go																								0.85	0.514404058456	0.000900983810425	0.400760173798	1.0	s	460.412883997																																	2015_Jul_07_1410	59.87774062850001	LearningTask	1	82	
63	200.0	w	200.0																	0.0	0.0	0.0	0.0	10.0	0.0	40.0	0.0																													w	1.0	0.333956003189	None	0.0	1.0	hexagoncyan.gif	stop																								1.12	0.514349937439	0.000913858413696	0.333956003189	1.0	w	463.416344881																																	2015_Jul_07_1410	59.87774062850001	LearningTask	1	82	
64	200.0	w	200.0																	0.0	0.0	0.0	0.0	10.0	1.0	41.0	0.0																													w	1.0	0.333933830261	None	0.0	2.0	circleyellow.gif	go																								0.0	0.514189958572	0.0009100437164310001	0.333933830261	1.0	w	466.41968488699996																																	2015_Jul_07_1410	59.87774062850001	LearningTask	1	82	
65	200.0	w	200.0																	0.0	0.0	0.0	0.0	10.0	2.0	42.0	0.0																													w	1.0	0.334219932556	None	0.0	2.0	circleyellow.gif	go																								2.04	0.514135122299	0.0008919239044189998	0.334219932556	1.0	w	469.423357964																																	2015_Jul_07_1410	59.87774062850001	LearningTask	1	82	
66	-200.0	a	-200.0																	0.0	0.0	0.0	0.0	10.0	3.0	43.0	3.0																													a	1.0	0.43432188034100006	None	0.0	0.5	trianglewhite.gif	stop																								0.44	0.513554096222	0.000943899154663	0.43432188034100006	1.0	a	472.426828861																																	2015_Jul_07_1410	59.87774062850001	LearningTask	1	82	
67	200.0	w	200.0																	0.0	0.0	0.0	0.0	11.0	0.0	44.0	0.0																													w	1.0	0.35091900825499994	None	0.0	4.0	lineorange.gif	go																								4.19	0.514245033264	0.0008981227874760001	0.35091900825499994	1.0	w	475.42975807199997																																	2015_Jul_07_1410	59.87774062850001	LearningTask	1	82	
68	-200.0	q	200.0																	0.0	0.0	0.0	0.0	11.0	1.0	45.0	1.0																													q	1.0	0.33456993103	None	0.0	2.0	circleyellow.gif	go																								0.0	0.514434099197	0.0008990764617919999	0.33456993103	1.0	q	478.43311190599997																																	2015_Jul_07_1410	59.87774062850001	LearningTask	1	82	
69	200.0	w	200.0																	0.0	0.0	0.0	0.0	11.0	2.0	46.0	0.0																													w	1.0	0.334501981735	None	0.0	1.0	crossgreen.gif	go																								1.04	0.514191865921	0.0009717941284180001	0.334501981735	1.0	w	481.43665599800005																																	2015_Jul_07_1410	59.87774062850001	LearningTask	1	82	
70	200.0	s	-200.0																	0.0	0.0	0.0	0.0	11.0	3.0	47.0	2.0																													s	1.0	0.334187030792	None	0.0	1.0	hexagoncyan.gif	stop																								0.87	0.514181137085	0.00103712081909	0.334187030792	1.0	s	484.43986797300005																																	2015_Jul_07_1410	59.87774062850001	LearningTask	1	82	
71	-200.0	q	200.0																	0.0	0.0	0.0	0.0	12.0	0.0	48.0	1.0																													q	1.0	0.38408899307300004	None	0.0	2.0	circleyellow.gif	go																								2.04	0.514243841171	0.0011968612670899999	0.38408899307300004	1.0	q	487.443609953																																	2015_Jul_07_1410	59.87774062850001	LearningTask	1	82	
72	200.0	s	-200.0																	0.0	0.0	0.0	0.0	12.0	1.0	49.0	2.0																													s	1.0	0.367099046707	None	0.0	4.0	diamondgray.gif	stop																								4.04	0.513845920563	0.000907897949219	0.367099046707	1.0	s	490.44667697																																	2015_Jul_07_1410	59.87774062850001	LearningTask	1	82	
73	200.0	w	200.0																	0.0	0.0	0.0	0.0	12.0	2.0	50.0	0.0																													w	1.0	0.384596824646	None	0.0	4.0	diamondgray.gif	stop																								3.95	0.514350175858	0.0009901523590089998	0.384596824646	1.0	w	493.450011015																																	2015_Jul_07_1410	59.87774062850001	LearningTask	1	82	
74	-200.0	a	-200.0																	0.0	0.0	0.0	0.0	12.0	3.0	51.0	3.0																													a	1.0	0.38474583625799996	None	0.0	4.0	lineorange.gif	go																								3.92	0.514235973358	0.00094199180603	0.38474583625799996	1.0	a	496.453938961																																	2015_Jul_07_1410	59.87774062850001	LearningTask	1	82	
75	200.0	w	200.0																	0.0	0.0	0.0	0.0	13.0	0.0	52.0	0.0																													w	1.0	0.30021905899	None	0.0	2.0	squaremagenta.gif	stop																								0.0	0.514056921005	0.00089693069458	0.30021905899	1.0	w	499.456815004																																	2015_Jul_07_1410	59.87774062850001	LearningTask	1	82	
76	-200.0	a	-200.0																	0.0	0.0	0.0	0.0	13.0	1.0	53.0	3.0																													a	1.0	0.38454008102399995	None	0.0	0.5	invertedtriangleblue.gif	go																								0.56	0.514196872711	0.000913858413696	0.38454008102399995	1.0	a	502.460084915																																	2015_Jul_07_1410	59.87774062850001	LearningTask	1	82	
77	200.0	w	200.0																	0.0	0.0	0.0	0.0	13.0	2.0	54.0	0.0																													w	1.0	0.35078501701399994	None	0.0	2.0	squaremagenta.gif	stop																								0.0	0.514573812485	0.000900983810425	0.35078501701399994	1.0	w	505.46367502199996																																	2015_Jul_07_1410	59.87774062850001	LearningTask	1	82	
78	-200.0	a	-200.0																	0.0	0.0	0.0	0.0	13.0	3.0	55.0	3.0																													a	1.0	0.450911998749	None	0.0	2.0	squaremagenta.gif	stop																								1.95	0.513530015945	0.0010859966278099998	0.450911998749	1.0	a	508.46692395199995																																	2015_Jul_07_1410	59.87774062850001	LearningTask	1	82	
79	-200.0	q	200.0																	0.0	0.0	0.0	0.0	14.0	0.0	56.0	1.0																													q	1.0	0.367643117905	None	0.0	0.5	invertedtriangleblue.gif	go																								0.28	0.514315843582	0.00102281570435	0.367643117905	1.0	q	511.471385002																																	2015_Jul_07_1410	59.87774062850001	LearningTask	1	82	
80	200.0	s	-200.0																	0.0	0.0	0.0	0.0	14.0	1.0	57.0	2.0																													s	1.0	0.384382009506	None	0.0	2.0	circleyellow.gif	go																								2.17	0.513419866562	0.0009448528289790001	0.384382009506	1.0	s	514.473736048																																	2015_Jul_07_1410	59.87774062850001	LearningTask	1	82	
81	-200.0	a	-200.0																	0.0	0.0	0.0	0.0	14.0	2.0	58.0	3.0																													a	1.0	0.383655071259	None	0.0	0.5	trianglewhite.gif	stop																								0.5	0.514653921127	0.000938892364502	0.383655071259	1.0	a	517.476980925																																	2015_Jul_07_1410	59.87774062850001	LearningTask	1	82	
82	-200.0	q	200.0																	0.0	0.0	0.0	0.0	14.0	3.0	59.0	1.0																													q	1.0	0.383900880814	None	0.0	2.0	squaremagenta.gif	stop																								1.98	0.514456033707	0.000951051712036	0.383900880814	1.0	q	520.480279922																																	2015_Jul_07_1410	59.87774062850001	LearningTask	1	82	
83	-200.0	q	200.0																	0.0	0.0	0.0	0.0	15.0	0.0	60.0	1.0																													q	1.0	0.41747188568099997	None	0.0	4.0	diamondgray.gif	stop																								0.0	0.514419078827	0.0010268688201900001	0.41747188568099997	1.0	q	523.483752012																																	2015_Jul_07_1410	59.87774062850001	LearningTask	1	82	
84	-200.0	q	200.0																	0.0	0.0	0.0	0.0	15.0	1.0	61.0	1.0																													q	1.0	0.500926017761	None	0.0	2.0	circleyellow.gif	go																								2.25	0.514492988586	0.0008981227874760001	0.500926017761	1.0	q	526.486973047																																	2015_Jul_07_1410	59.87774062850001	LearningTask	1	82	
85	-200.0	q	200.0																	0.0	0.0	0.0	0.0	15.0	2.0	62.0	1.0																													q	1.0	0.417835950851	None	0.0	2.0	circleyellow.gif	go																								0.0	0.5140299797060001	0.0009279251098630001	0.417835950851	1.0	q	529.490563869																																	2015_Jul_07_1410	59.87774062850001	LearningTask	1	82	
86	-200.0	a	-200.0																	0.0	0.0	0.0	0.0	15.0	3.0	63.0	3.0																													a	1.0	0.46722483634900003	None	0.0	2.0	squaremagenta.gif	stop																								2.08	0.514647960663	0.0008950233459470001	0.46722483634900003	1.0	a	532.493898869																																	2015_Jul_07_1410	59.87774062850001	LearningTask	1	82	
87	-200.0	a	-200.0																	0.0	0.0	0.0	0.0	16.0	0.0	64.0	3.0																													a	1.0	0.384682178497	None	0.0	0.5	invertedtriangleblue.gif	go																								0.32	0.514183998108	0.0009469985961910001	0.384682178497	1.0	a	535.497699022																																	2015_Jul_07_1410	59.87774062850001	LearningTask	1	82	
88	-200.0	a	-200.0																	0.0	0.0	0.0	0.0	16.0	1.0	65.0	3.0																													a	1.0	0.367887020111	None	0.0	1.0	hexagoncyan.gif	stop																								0.88	0.513656139374	0.000888109207153	0.367887020111	1.0	a	538.50068903																																	2015_Jul_07_1410	59.87774062850001	LearningTask	1	82	
89	-200.0	a	-200.0																	0.0	0.0	0.0	0.0	16.0	2.0	66.0	3.0																													a	1.0	0.334336042404	None	0.0	2.0	circleyellow.gif	go																								2.16	0.514596939087	0.0008919239044189998	0.334336042404	1.0	a	541.504366875																																	2015_Jul_07_1410	59.87774062850001	LearningTask	1	82	
90	-200.0	a	-200.0																	0.0	0.0	0.0	0.0	16.0	3.0	67.0	3.0																													a	1.0	0.367852926254	None	0.0	0.5	invertedtriangleblue.gif	go																								0.51	0.513761997223	0.000921964645386	0.367852926254	1.0	a	544.507688046																																	2015_Jul_07_1410	59.87774062850001	LearningTask	1	82	
91	200.0	w	200.0																	0.0	0.0	0.0	0.0	17.0	0.0	68.0	0.0																													w	1.0	0.400606155396	None	0.0	4.0	diamondgray.gif	stop																								4.17	0.514229059219	0.000988006591797	0.400606155396	1.0	w	547.510793924																																	2015_Jul_07_1410	59.87774062850001	LearningTask	1	82	
92	-200.0	q	200.0																	0.0	0.0	0.0	0.0	17.0	1.0	69.0	1.0																													q	1.0	0.350680112839	None	0.0	1.0	hexagoncyan.gif	stop																								0.77	0.514366865158	0.000892877578735	0.350680112839	1.0	q	550.514153004																																	2015_Jul_07_1410	59.87774062850001	LearningTask	1	82	
93	-200.0	a	-200.0																	0.0	0.0	0.0	0.0	17.0	2.0	70.0	3.0																													a	1.0	0.384114980698	None	0.0	4.0	lineorange.gif	go																								0.0	0.514620065689	0.000908851623535	0.384114980698	1.0	a	553.517451048																																	2015_Jul_07_1410	59.87774062850001	LearningTask	1	82	
94	-200.0	q	200.0																	0.0	0.0	0.0	0.0	17.0	3.0	71.0	1.0																													q	1.0	0.384573936462	None	0.0	4.0	lineorange.gif	go																								3.98	0.514528036118	0.0008919239044189998	0.384573936462	1.0	q	556.520750999																																	2015_Jul_07_1410	59.87774062850001	LearningTask	1	82	
95	200.0	s	-200.0																	0.0	0.0	0.0	0.0	18.0	0.0	72.0	2.0																													s	1.0	0.38371014594999997	None	0.0	4.0	lineorange.gif	go																								0.0	0.515048027039	0.0011830329895	0.38371014594999997	1.0	s	559.524781942																																	2015_Jul_07_1410	59.87774062850001	LearningTask	1	82	
96	-200.0	a	-200.0																	0.0	0.0	0.0	0.0	18.0	1.0	73.0	3.0																													a	1.0	0.35107898712200003	None	0.0	0.5	invertedtriangleblue.gif	go																								0.0	0.514128923416	0.000892877578735	0.35107898712200003	1.0	a	562.527719975																																	2015_Jul_07_1410	59.87774062850001	LearningTask	1	82	
97	-200.0	q	200.0																	0.0	0.0	0.0	0.0	18.0	2.0	74.0	1.0																													q	1.0	0.38430094718900004	None	0.0	1.0	crossgreen.gif	go																								1.21	0.514146089554	0.00102019309998	0.38430094718900004	1.0	q	565.531028986																																	2015_Jul_07_1410	59.87774062850001	LearningTask	1	82	
98	200.0	s	-200.0																	0.0	0.0	0.0	0.0	18.0	3.0	75.0	2.0																													s	1.0	0.484539985657	None	0.0	2.0	squaremagenta.gif	stop																								1.8	0.514194965363	0.0009520053863530001	0.484539985657	1.0	s	568.534512997																																	2015_Jul_07_1410	59.87774062850001	LearningTask	1	82	
99	200.0	s	-200.0																	0.0	0.0	0.0	0.0	19.0	0.0	76.0	2.0																													s	1.0	0.384151935577	None	0.0	2.0	circleyellow.gif	go																								2.17	0.51432800293	0.00090217590332	0.384151935577	1.0	s	571.537919998																																	2015_Jul_07_1410	59.87774062850001	LearningTask	1	82	
100	-200.0	q	200.0																	0.0	0.0	0.0	0.0	19.0	1.0	77.0	1.0																													q	1.0	0.500851869583	None	0.0	2.0	squaremagenta.gif	stop																								2.21	0.514352798462	0.0009398460388180001	0.500851869583	1.0	q	574.541769028																																	2015_Jul_07_1410	59.87774062850001	LearningTask	1	82	
101	-200.0	a	-200.0																	0.0	0.0	0.0	0.0	19.0	2.0	78.0	3.0																													a	1.0	0.567363023758	None	0.0	1.0	crossgreen.gif	go																								1.11	0.5138390064239999	0.0008940696716310001	0.567363023758	1.0	a	577.5447578430001																																	2015_Jul_07_1410	59.87774062850001	LearningTask	1	82	
102	200.0	w	200.0																	0.0	0.0	0.0	0.0	19.0	3.0	79.0	0.0																													w	1.0	0.367046117783	None	0.0	0.5	trianglewhite.gif	stop																								0.0	0.514166116714	0.0009031295776369999	0.367046117783	1.0	w	580.547960043																																	2015_Jul_07_1410	59.87774062850001	LearningTask	1	82	
103	200.0	w	200.0																	0.0	0.0	0.0	0.0	20.0	0.0	80.0	0.0																													w	1.0	0.468268156052	None	0.0	0.5	invertedtriangleblue.gif	go																								0.0	0.5142149925230001	0.0009400844573969999	0.468268156052	1.0	w	583.551316023																																	2015_Jul_07_1410	59.87774062850001	LearningTask	1	82	
104	200.0	s	-200.0																	0.0	0.0	0.0	0.0	20.0	1.0	81.0	2.0																													s	1.0	0.401104927063	None	0.0	4.0	diamondgray.gif	stop																								3.95	0.514057159424	0.0009140968322749999	0.401104927063	1.0	s	586.55470705																																	2015_Jul_07_1410	59.87774062850001	LearningTask	1	82	
105	-200.0	q	200.0																	0.0	0.0	0.0	0.0	20.0	2.0	82.0	1.0																													q	1.0	0.5508799552920001	None	0.0	2.0	squaremagenta.gif	stop																								1.95	0.514415979385	0.0009069442749019998	0.5508799552920001	1.0	q	589.557967901																																	2015_Jul_07_1410	59.87774062850001	LearningTask	1	82	
106	-200.0	a	-200.0																	0.0	0.0	0.0	0.0	20.0	3.0	83.0	3.0																													a	1.0	0.384194850922	None	0.0	0.5	invertedtriangleblue.gif	go																								0.36	0.514177799225	0.0009739398956299999	0.384194850922	1.0	a	592.561676025																																	2015_Jul_07_1410	59.87774062850001	LearningTask	1	82	
107	-200.0	a	-200.0																	0.0	0.0	0.0	0.0	21.0	0.0	84.0	3.0																													a	1.0	0.36736798286399996	None	0.0	4.0	diamondgray.gif	stop																								0.0	0.514297962189	0.0011830329895	0.36736798286399996	1.0	a	595.5648138519999																																	2015_Jul_07_1410	59.87774062850001	LearningTask	1	82	
108	200.0	s	-200.0																	0.0	0.0	0.0	0.0	21.0	1.0	85.0	2.0																													s	1.0	0.367611885071	None	0.0	4.0	diamondgray.gif	stop																								3.85	0.514487981796	0.00108504295349	0.367611885071	1.0	s	598.568469048																																	2015_Jul_07_1410	59.87774062850001	LearningTask	1	82	
109	-200.0	q	200.0																	0.0	0.0	0.0	0.0	21.0	2.0	86.0	1.0																													q	1.0	0.367172002792	None	0.0	2.0	squaremagenta.gif	stop																								2.02	0.514359951019	0.000890016555786	0.367172002792	1.0	q	601.572093964																																	2015_Jul_07_1410	59.87774062850001	LearningTask	1	82	
110	-200.0	q	200.0																	0.0	0.0	0.0	0.0	21.0	3.0	87.0	1.0																													q	1.0	0.400652170181	None	0.0	4.0	lineorange.gif	go																								0.0	0.5140888690950001	0.00090503692627	0.400652170181	1.0	q	604.575036049																																	2015_Jul_07_1410	59.87774062850001	LearningTask	1	82	
111	-200.0	q	200.0																	0.0	0.0	0.0	0.0	22.0	0.0	88.0	1.0																													q	1.0	0.46735811233499996	None	0.0	2.0	circleyellow.gif	go																								1.85	0.514337062836	0.00104188919067	0.46735811233499996	1.0	q	607.578325033																																	2015_Jul_07_1410	59.87774062850001	LearningTask	1	82	
112	200.0	w	200.0																	0.0	0.0	0.0	0.0	22.0	1.0	89.0	0.0																													w	1.0	0.383742809296	None	0.0	4.0	diamondgray.gif	stop																								3.8	0.5144071578980001	0.0008981227874760001	0.383742809296	1.0	w	610.581711054																																	2015_Jul_07_1410	59.87774062850001	LearningTask	1	82	
113	200.0	w	200.0																	0.0	0.0	0.0	0.0	22.0	2.0	90.0	0.0																													w	1.0	0.35105299949600005	None	0.0	2.0	squaremagenta.gif	stop																								2.05	0.514462947845	0.0008959770202639998	0.35105299949600005	1.0	w	613.58501792																																	2015_Jul_07_1410	59.87774062850001	LearningTask	1	82	
114	-200.0	q	200.0																	0.0	0.0	0.0	0.0	22.0	3.0	91.0	1.0																													q	1.0	0.334427118301	None	0.0	2.0	squaremagenta.gif	stop																								1.93	0.513654947281	0.0009360313415529999	0.334427118301	1.0	q	616.588732958																																	2015_Jul_07_1410	59.87774062850001	LearningTask	1	82	
115	-200.0	q	200.0																	0.0	0.0	0.0	0.0	23.0	0.0	92.0	1.0																													q	1.0	0.5337388515470001	None	0.0	1.0	crossgreen.gif	go																								1.1	0.514528036118	0.0008938312530519999	0.5337388515470001	1.0	q	619.592336893																																	2015_Jul_07_1410	59.87774062850001	LearningTask	1	82	
116	200.0	w	200.0																	0.0	0.0	0.0	0.0	23.0	1.0	93.0	0.0																													w	1.0	0.35068297386200004	None	0.0	4.0	lineorange.gif	go																								4.09	0.5137050151820001	0.000986814498901	0.35068297386200004	1.0	w	622.595556021																																	2015_Jul_07_1410	59.87774062850001	LearningTask	1	82	
117	-200.0	a	-200.0																	0.0	0.0	0.0	0.0	23.0	2.0	94.0	3.0																													a	1.0	0.450796127319	None	0.0	4.0	lineorange.gif	go																								3.92	0.5140898227690001	0.0008978843688960001	0.450796127319	1.0	a	625.5988860130001																																	2015_Jul_07_1410	59.87774062850001	LearningTask	1	82	
118	-200.0	a	-200.0																	0.0	0.0	0.0	0.0	23.0	3.0	95.0	3.0																													a	1.0	0.41761898994400004	None	0.0	0.5	invertedtriangleblue.gif	go																								0.68	0.514157056808	0.0008909702301030001	0.41761898994400004	1.0	a	628.602000952																																	2015_Jul_07_1410	59.87774062850001	LearningTask	1	82	
119	200.0	s	-200.0																	0.0	0.0	0.0	0.0	24.0	0.0	96.0	2.0																													s	1.0	0.35108590126	None	0.0	0.5	invertedtriangleblue.gif	go																								0.56	0.514177083969	0.000931024551392	0.35108590126	1.0	s	631.605939865																																	2015_Jul_07_1410	59.87774062850001	LearningTask	1	82	
120	-200.0	a	-200.0																	0.0	0.0	0.0	0.0	24.0	1.0	97.0	3.0																													a	1.0	0.38421392440800006	None	0.0	2.0	squaremagenta.gif	stop																								1.85	0.513688087463	0.0009191036224369998	0.38421392440800006	1.0	a	634.608945847																																	2015_Jul_07_1410	59.87774062850001	LearningTask	1	82	
121	-200.0	q	200.0																	0.0	0.0	0.0	0.0	24.0	2.0	98.0	1.0																													q	1.0	0.350672006607	None	0.0	1.0	hexagoncyan.gif	stop																								1.03	0.514205932617	0.0012578964233399999	0.350672006607	1.0	q	637.61202693																																	2015_Jul_07_1410	59.87774062850001	LearningTask	1	82	
122	200.0	w	200.0																	0.0	0.0	0.0	0.0	24.0	3.0	99.0	0.0																													w	1.0	0.350896120071	None	0.0	0.5	trianglewhite.gif	stop																								0.32	0.514379024506	0.000978946685791	0.350896120071	1.0	w	640.615633011																																	2015_Jul_07_1410	59.87774062850001	LearningTask	1	82	
123																				0.0	0.0	0.0	0.0																																																																							9.0	48.415520906400005																															2015_Jul_07_1410	59.87774062850001	LearningTask	1	82	
124	200.0	w	200.0																	1.0	0.0	1.0	0.0	0.0	0.0	0.0	0.0																													w	1.0	0.41682600975	None	0.0	2.0	circleyellow.gif	go																								2.04	0.509990930557	0.000892877578735	0.41682600975	1.0	w	692.4077630039999																																	2015_Jul_07_1410	59.87774062850001	LearningTask	1	82	
125	200.0	s	-200.0																	1.0	0.0	1.0	0.0	0.0	1.0	1.0	2.0																													s	1.0	0.36779022216799995	None	0.0	2.0	circleyellow.gif	go																								0.0	0.513428926468	0.0008919239044189998	0.36779022216799995	1.0	s	695.410960913																																	2015_Jul_07_1410	59.87774062850001	LearningTask	1	82	
126	200.0	s	-200.0																	1.0	0.0	1.0	0.0	0.0	2.0	2.0	2.0																													s	1.0	0.417919158936	None	0.0	2.0	squaremagenta.gif	stop																								1.88	0.5139858722689999	0.00089693069458	0.417919158936	1.0	s	698.41387105																																	2015_Jul_07_1410	59.87774062850001	LearningTask	1	82	
127	-200.0	a	-200.0																	1.0	0.0	1.0	0.0	0.0	3.0	3.0	3.0																													a	1.0	0.41772890090899994	None	0.0	2.0	squaremagenta.gif	stop																								0.0	0.514358997345	0.000892877578735	0.417363882065	0.0	q	701.41720295			1.88	0.5154960155489999	0.00102400779724	0.41772890090899994	1.0	a	704.420706987																								2015_Jul_07_1410	59.87774062850001	LearningTask	1	82	
128	200.0	w	200.0																	1.0	0.0	1.0	0.0	1.0	0.0	4.0	0.0																													w	1.0	0.401041030884	None	0.0	1.0	crossgreen.gif	go																								0.77	0.514101982117	0.000887155532837	0.401041030884	1.0	w	707.4240548610001																																	2015_Jul_07_1410	59.87774062850001	LearningTask	1	82	
129	-200.0	a	-200.0																	1.0	0.0	1.0	0.0	1.0	1.0	5.0	3.0																													a	1.0	0.451756000519	None	0.0	1.0	crossgreen.gif	go																								0.0	0.513833999634	0.0009570121765139998	0.451756000519	1.0	a	710.427273035																																	2015_Jul_07_1410	59.87774062850001	LearningTask	1	82	
130	200.0	s	-200.0																	1.0	0.0	1.0	0.0	1.0	2.0	6.0	2.0																													s	1.0	0.40112113952600004	None	0.0	4.0	diamondgray.gif	stop																								0.0	0.514313936234	0.0008959770202639998	0.40112113952600004	1.0	s	713.430680037																																	2015_Jul_07_1410	59.87774062850001	LearningTask	1	82	
131	200.0	w	200.0																	1.0	0.0	1.0	0.0	1.0	3.0	7.0	0.0																													w	1.0	0.35113000869800004	None	0.0	4.0	diamondgray.gif	stop																								0.0	0.514302968979	0.0009059906005860001	0.35113000869800004	1.0	w	716.434005022																																	2015_Jul_07_1410	59.87774062850001	LearningTask	1	82	
132	200.0	s	-200.0																	1.0	0.0	1.0	0.0	2.0	0.0	8.0	2.0																													s	1.0	0.434713125229	None	0.0	1.0	hexagoncyan.gif	stop																								0.92	0.514081954956	0.000942945480347	0.434713125229	1.0	s	719.437658072																																	2015_Jul_07_1410	59.87774062850001	LearningTask	1	82	
133	-200.0	q	200.0																	1.0	0.0	1.0	0.0	2.0	1.0	9.0	1.0																													q	1.0	0.401413202286	None	0.0	2.0	circleyellow.gif	go																								1.91	0.514115095139	0.0009541511535639998	0.401413202286	1.0	q	722.440839052																																	2015_Jul_07_1410	59.87774062850001	LearningTask	1	82	
134	-200.0	a	-200.0																	1.0	0.0	1.0	0.0	2.0	2.0	10.0	3.0																													a	1.0	0.41821885108900003	None	0.0	0.5	trianglewhite.gif	stop																								0.67	0.514364957809	0.000953912734985	0.41821885108900003	1.0	a	725.444270849																																	2015_Jul_07_1410	59.87774062850001	LearningTask	1	82	
135	-200.0	q	200.0																	1.0	0.0	1.0	0.0	2.0	3.0	11.0	1.0																													q	1.0	0.534729003906	None	0.0	1.0	crossgreen.gif	go																								1.0	0.514050006866	0.000898838043213	0.534729003906	1.0	q	728.44768095																																	2015_Jul_07_1410	59.87774062850001	LearningTask	1	82	
136	200.0	s	-200.0																	1.0	0.0	1.0	0.0	3.0	0.0	12.0	2.0																													s	1.0	0.38439702987700003	None	0.0	2.0	squaremagenta.gif	stop																								0.0	0.514152050018	0.0009338855743410001	0.38439702987700003	1.0	s	731.4508378510001																																	2015_Jul_07_1410	59.87774062850001	LearningTask	1	82	
137	-200.0	a	-200.0																	1.0	0.0	1.0	0.0	3.0	1.0	13.0	3.0																													a	1.0	0.351011991501	None	0.0	2.0	circleyellow.gif	go																								1.91	0.5147480964660001	0.0008859634399410001	0.351011991501	1.0	a	734.4547619819999																																	2015_Jul_07_1410	59.87774062850001	LearningTask	1	82	
138	-200.0	a	-200.0																	1.0	0.0	1.0	0.0	3.0	2.0	14.0	3.0																													a	1.0	0.350558996201	None	0.0	0.5	trianglewhite.gif	stop																								0.42	0.514070987701	0.000888824462891	0.350558996201	1.0	a	737.45777607																																	2015_Jul_07_1410	59.87774062850001	LearningTask	1	82	
139	200.0	w	200.0																	1.0	0.0	1.0	0.0	3.0	3.0	15.0	0.0																													w	1.0	0.434090852737	None	0.0	1.0	hexagoncyan.gif	stop																								0.95	0.514602899551	0.0009069442749019998	0.434090852737	1.0	w	740.46114707																																	2015_Jul_07_1410	59.87774062850001	LearningTask	1	82	
140	200.0	s	-200.0																	1.0	0.0	1.0	0.0	4.0	0.0	16.0	2.0																													s	1.0	0.333822965622	None	0.0	1.0	crossgreen.gif	go																								0.96	0.514466047287	0.0008959770202639998	0.333822965622	1.0	s	743.464452028																																	2015_Jul_07_1410	59.87774062850001	LearningTask	1	82	
141	200.0	w	200.0																	1.0	0.0	1.0	0.0	4.0	1.0	17.0	0.0																													w	1.0	0.43484592437700004	None	0.0	1.0	crossgreen.gif	go																								0.0	0.514102935791	0.00100588798523	0.43484592437700004	1.0	w	746.4679419989999																																	2015_Jul_07_1410	59.87774062850001	LearningTask	1	82	
142	200.0	w	200.0																	1.0	0.0	1.0	0.0	4.0	2.0	18.0	0.0																													w	1.0	0.417248010635	None	0.0	1.0	hexagoncyan.gif	stop																								0.0	0.514282941818	0.0010738372802700001	0.417248010635	1.0	w	749.47111702																																	2015_Jul_07_1410	59.87774062850001	LearningTask	1	82	
143	-200.0	a	-200.0																	1.0	0.0	1.0	0.0	4.0	3.0	19.0	3.0																													a	1.0	0.417048215866	None	0.0	1.0	crossgreen.gif	go																								1.11	0.514938831329	0.0008709430694580001	0.417048215866	1.0	a	752.47456193																																	2015_Jul_07_1410	59.87774062850001	LearningTask	1	82	
144	200.0	s	-200.0																	1.0	0.0	1.0	0.0	5.0	0.0	20.0	2.0																													s	1.0	0.333775043488	None	0.0	1.0	hexagoncyan.gif	stop																								1.06	0.514631986618	0.000877141952515	0.333775043488	1.0	s	755.478222847																																	2015_Jul_07_1410	59.87774062850001	LearningTask	1	82	
145	-200.0	q	200.0																	1.0	0.0	1.0	0.0	5.0	1.0	21.0	1.0																													q	1.0	0.367969989777	None	0.0	2.0	circleyellow.gif	go																								1.77	0.51393198967	0.0369930267334	0.367969989777	1.0	q	758.481334925																																	2015_Jul_07_1410	59.87774062850001	LearningTask	1	82	
146	200.0	w	200.0																	1.0	0.0	1.0	0.0	5.0	2.0	22.0	0.0																													w	1.0	0.35097193718	None	0.0	0.5	invertedtriangleblue.gif	go																								0.0	0.514634132385	0.0008821487426760002	0.35097193718	1.0	w	761.484811068																																	2015_Jul_07_1410	59.87774062850001	LearningTask	1	82	
147	200.0	s	-200.0																	1.0	0.0	1.0	0.0	5.0	3.0	23.0	2.0																													s	1.0	0.40159201622	None	0.0	1.0	crossgreen.gif	go																								0.0	0.514191865921	0.0008838176727290001	0.40159201622	1.0	s	764.487931013																																	2015_Jul_07_1410	59.87774062850001	LearningTask	1	82	
148	200.0	s	-200.0																	1.0	0.0	1.0	0.0	6.0	0.0	24.0	2.0																													s	1.0	0.401310920715	None	0.0	1.0	hexagoncyan.gif	stop																								0.93	0.514173984528	0.0009200572967529999	0.401310920715	1.0	s	767.491546869																																	2015_Jul_07_1410	59.87774062850001	LearningTask	1	82	
149	200.0	w	200.0																	1.0	0.0	1.0	0.0	6.0	1.0	25.0	0.0																													w	1.0	0.35089302063	None	0.0	0.5	trianglewhite.gif	stop																								0.51	0.514341115952	0.0009241104125980002	0.35089302063	1.0	w	770.494945049																																	2015_Jul_07_1410	59.87774062850001	LearningTask	1	82	
150	-200.0	q	200.0																	1.0	0.0	1.0	0.0	6.0	2.0	26.0	1.0																													q	1.0	0.401075124741	None	0.0	4.0	diamondgray.gif	stop																								3.79	0.5140831470489999	0.0008749961853029999	0.401075124741	1.0	q	773.498340845																																	2015_Jul_07_1410	59.87774062850001	LearningTask	1	82	
151	-200.0	a	-200.0																	1.0	0.0	1.0	0.0	6.0	3.0	27.0	3.0																													a	1.0	0.38394188880900004	None	0.0	4.0	lineorange.gif	go																								4.09	0.513954162598	0.0008950233459470001	0.38394188880900004	1.0	a	776.501821995																																	2015_Jul_07_1410	59.87774062850001	LearningTask	1	82	
152	200.0	w	200.0																	1.0	0.0	1.0	0.0	7.0	0.0	28.0	0.0																													w	1.0	0.317762136459	None	0.0	2.0	circleyellow.gif	go																								0.0	0.513986825943	0.0008749961853029999	0.317762136459	1.0	w	779.5051679610001																																	2015_Jul_07_1410	59.87774062850001	LearningTask	1	82	
153	200.0	w	200.0																	1.0	0.0	1.0	0.0	7.0	1.0	29.0	0.0																													w	1.0	0.36770009994499997	None	0.0	2.0	circleyellow.gif	go																								0.0	0.514050960541	0.0008990764617919999	0.36770009994499997	1.0	w	782.5090348719999																																	2015_Jul_07_1410	59.87774062850001	LearningTask	1	82	
154	200.0	s	-200.0																	1.0	0.0	1.0	0.0	7.0	2.0	30.0	2.0																													s	1.0	0.401052951813	None	0.0	4.0	diamondgray.gif	stop																								4.06	0.513366937637	0.0009469985961910001	0.401052951813	1.0	s	785.512264967																																	2015_Jul_07_1410	59.87774062850001	LearningTask	1	82	
155	-200.0	q	200.0																	1.0	0.0	1.0	0.0	7.0	3.0	31.0	1.0																													q	1.0	0.40069818496699994	None	0.0	1.0	crossgreen.gif	go																								0.9	0.514130830765	0.0188598632812	0.40069818496699994	1.0	q	788.5151009560001																																	2015_Jul_07_1410	59.87774062850001	LearningTask	1	82	
156	-200.0	a	-200.0																	1.0	0.0	1.0	0.0	8.0	0.0	32.0	3.0																													a	1.0	0.36790108680699996	None	0.0	2.0	circleyellow.gif	go																								2.04	0.514174938202	0.0010619163513200002	0.36790108680699996	1.0	a	791.518461943																																	2015_Jul_07_1410	59.87774062850001	LearningTask	1	82	
157	200.0	w	200.0																	1.0	0.0	1.0	0.0	8.0	1.0	33.0	0.0																													w	1.0	0.334220170975	None	0.0	0.5	invertedtriangleblue.gif	go																								0.58	0.51432800293	0.0199830532074	0.334220170975	1.0	w	794.5224280360001																																	2015_Jul_07_1410	59.87774062850001	LearningTask	1	82	
158	-200.0	q	200.0																	1.0	0.0	1.0	0.0	8.0	2.0	34.0	1.0																													q	1.0	0.317344903946	None	0.0	1.0	hexagoncyan.gif	stop																								0.0	0.5138461589810001	0.060266017913800006	0.317344903946	1.0	q	797.52560091																																	2015_Jul_07_1410	59.87774062850001	LearningTask	1	82	
159	200.0	s	-200.0																	1.0	0.0	1.0	0.0	8.0	3.0	35.0	2.0																													s	1.0	0.367640018463	None	0.0	4.0	diamondgray.gif	stop																								0.0	0.513864040375	0.00104093551636	0.367640018463	1.0	s	800.528692007																																	2015_Jul_07_1410	59.87774062850001	LearningTask	1	82	
160	200.0	s	-200.0																	1.0	0.0	1.0	0.0	9.0	0.0	36.0	2.0																													s	1.0	0.417861938477	None	0.0	4.0	lineorange.gif	go																								3.88	0.514346122742	0.000826120376587	0.417861938477	1.0	s	803.532188892																																	2015_Jul_07_1410	59.87774062850001	LearningTask	1	82	
161	200.0	w	200.0																	1.0	0.0	1.0	0.0	9.0	1.0	37.0	0.0																													w	1.0	0.401482105255	None	0.0	1.0	crossgreen.gif	go																								0.83	0.51332783699	0.0011479854583699997	0.401482105255	1.0	w	806.535606861																																	2015_Jul_07_1410	59.87774062850001	LearningTask	1	82	
162	200.0	s	-200.0																	1.0	0.0	1.0	0.0	9.0	2.0	38.0	2.0																													s	1.0	0.40116190910300004	None	0.0	4.0	lineorange.gif	go																								0.0	0.514193058014	0.00158309936523	0.40116190910300004	1.0	s	809.538954973																																	2015_Jul_07_1410	59.87774062850001	LearningTask	1	82	
163	-200.0	q	200.0																	1.0	0.0	1.0	0.0	9.0	3.0	39.0	1.0																													q	1.0	0.418050050735	None	0.0	0.5	invertedtriangleblue.gif	go																								0.73	0.51420712471	0.0012769699096700001	0.418050050735	1.0	q	812.542810917																																	2015_Jul_07_1410	59.87774062850001	LearningTask	1	82	
164	-200.0	a	-200.0																	1.0	0.0	1.0	0.0	10.0	0.0	40.0	3.0																													a	1.0	0.41773295402500005	None	0.0	4.0	lineorange.gif	go																								0.0	0.5136091709139999	0.0008931159973139998	0.41773295402500005	1.0	a	815.545553923																																	2015_Jul_07_1410	59.87774062850001	LearningTask	1	82	
165	-200.0	a	-200.0																	1.0	0.0	1.0	0.0	10.0	1.0	41.0	3.0																													a	1.0	0.434187889099	None	0.0	1.0	crossgreen.gif	go																								0.0	0.514219045639	0.000938892364502	0.434187889099	1.0	a	818.5489418510001																																	2015_Jul_07_1410	59.87774062850001	LearningTask	1	82	
166	200.0	s	-200.0																	1.0	0.0	1.0	0.0	10.0	2.0	42.0	2.0																													s	1.0	0.384440898895	None	0.0	0.5	trianglewhite.gif	stop																								0.55	0.51442193985	0.0174291133881	0.384440898895	1.0	s	821.553061962																																	2015_Jul_07_1410	59.87774062850001	LearningTask	1	82	
167	200.0	s	-200.0																	1.0	0.0	1.0	0.0	10.0	3.0	43.0	2.0																													s	1.0	0.351050138474	None	0.0	1.0	crossgreen.gif	go																								1.01	0.513463973999	0.000888109207153	0.351050138474	1.0	s	824.556028843																																	2015_Jul_07_1410	59.87774062850001	LearningTask	1	82	
168	-200.0	a	-200.0																	1.0	0.0	1.0	0.0	11.0	0.0	44.0	3.0																													a	1.0	0.384251117706	None	0.0	0.5	trianglewhite.gif	stop																								0.64	0.514245033264	0.000917911529541	0.384251117706	1.0	a	827.5588998789999																																	2015_Jul_07_1410	59.87774062850001	LearningTask	1	82	
169	200.0	s	-200.0																	1.0	0.0	1.0	0.0	11.0	1.0	45.0	2.0																													s	1.0	0.35094690322899996	None	0.0	1.0	hexagoncyan.gif	stop																								0.91	0.5137870311739999	0.00164103507996	0.35094690322899996	1.0	s	830.562676907																																	2015_Jul_07_1410	59.87774062850001	LearningTask	1	82	
170	-200.0	q	200.0																	1.0	0.0	1.0	0.0	11.0	2.0	46.0	1.0																													q	1.0	0.385200977325	None	0.0	0.5	trianglewhite.gif	stop																								0.0	0.514069795609	0.0008709430694580001	0.385200977325	1.0	q	833.5659458639999																																	2015_Jul_07_1410	59.87774062850001	LearningTask	1	82	
171	200.0	s	-200.0																	1.0	0.0	1.0	0.0	11.0	3.0	47.0	2.0																													s	1.0	0.36736011505099997	None	0.0	2.0	squaremagenta.gif	stop																								1.92	0.514338970184	0.0689408779144	0.36736011505099997	1.0	s	836.56894803																																	2015_Jul_07_1410	59.87774062850001	LearningTask	1	82	
172	200.0	w	200.0																	1.0	0.0	1.0	0.0	12.0	0.0	48.0	0.0																													w	1.0	0.350969076157	None	0.0	2.0	squaremagenta.gif	stop																								0.0	0.514559030533	0.000869035720825	0.350969076157	1.0	w	839.5728390219999																																	2015_Jul_07_1410	59.87774062850001	LearningTask	1	82	
173	-200.0	q	200.0																	1.0	0.0	1.0	0.0	12.0	1.0	49.0	1.0																													q	1.0	0.483959913254	None	0.0	2.0	circleyellow.gif	go																								2.11	0.514439105988	0.0013029575347899998	0.483959913254	1.0	q	842.5761148930001																																	2015_Jul_07_1410	59.87774062850001	LearningTask	1	82	
174	-200.0	q	200.0																	1.0	0.0	1.0	0.0	12.0	2.0	50.0	1.0																													q	1.0	0.35102987289399995	None	0.0	2.0	squaremagenta.gif	stop																								0.0	0.514208078384	0.000917911529541	0.35102987289399995	1.0	q	845.579254866																																	2015_Jul_07_1410	59.87774062850001	LearningTask	1	82	
175	-200.0	a	-200.0																	1.0	0.0	1.0	0.0	12.0	3.0	51.0	3.0																													a	1.0	0.417679071426	None	0.0	2.0	squaremagenta.gif	stop																								2.24	0.51442694664	0.00092887878418	0.417679071426	1.0	a	848.582639933																																	2015_Jul_07_1410	59.87774062850001	LearningTask	1	82	
176	200.0	w	200.0																	1.0	0.0	1.0	0.0	13.0	0.0	52.0	0.0																													w	1.0	0.367406129837	None	0.0	4.0	diamondgray.gif	stop																								3.84	0.51419210434	0.0012669563293499998	0.367406129837	1.0	w	851.586112022																																	2015_Jul_07_1410	59.87774062850001	LearningTask	1	82	
177	200.0	s	-200.0																	1.0	0.0	1.0	0.0	13.0	1.0	53.0	2.0																													s	1.0	0.384032964706	None	0.0	2.0	squaremagenta.gif	stop																								2.12	0.514373064041	0.000913143157959	0.384032964706	1.0	s	854.589530945																																	2015_Jul_07_1410	59.87774062850001	LearningTask	1	82	
178	-200.0	q	200.0																	1.0	0.0	1.0	0.0	13.0	2.0	54.0	1.0																													q	1.0	0.400429010391	None	0.0	1.0	crossgreen.gif	go																								0.89	0.514668941498	0.0009109973907470001	0.400429010391	1.0	q	857.592848063																																	2015_Jul_07_1410	59.87774062850001	LearningTask	1	82	
179	-200.0	q	200.0																	1.0	0.0	1.0	0.0	13.0	3.0	55.0	1.0																													q	1.0	0.400990009308	None	0.0	4.0	lineorange.gif	go																								3.83	0.514410972595	0.00141191482544	0.400990009308	1.0	q	860.596538067																																	2015_Jul_07_1410	59.87774062850001	LearningTask	1	82	
180	200.0	w	200.0																	1.0	0.0	1.0	0.0	14.0	0.0	56.0	0.0																													w	1.0	0.351032972336	None	0.0	0.5	invertedtriangleblue.gif	go																								0.36	0.513865947723	0.00088095664978	0.351032972336	1.0	w	863.599453926																																	2015_Jul_07_1410	59.87774062850001	LearningTask	1	82	
181	-200.0	a	-200.0																	1.0	0.0	1.0	0.0	14.0	1.0	57.0	3.0																													a	1.0	0.501627922058	None	0.0	2.0	squaremagenta.gif	stop																								0.0	0.514179944992	0.0009119510650630002	0.35091900825499994	0.0	q	866.6032609939999			0.0	0.515347957611	0.0009350776672360002	0.501627922058	1.0	a	869.606850863																								2015_Jul_07_1410	59.87774062850001	LearningTask	1	82	
182	200.0	w	200.0																	1.0	0.0	1.0	0.0	14.0	2.0	58.0	0.0																													w	1.0	0.333773851395	None	0.0	0.5	invertedtriangleblue.gif	go																								0.0	0.5142390728	0.0008740425109860002	0.333773851395	1.0	w	872.609828949																																	2015_Jul_07_1410	59.87774062850001	LearningTask	1	82	
183	-200.0	q	200.0																	1.0	0.0	1.0	0.0	14.0	3.0	59.0	1.0																													q	1.0	0.48429107666	None	0.0	4.0	diamondgray.gif	stop																								3.81	0.51435303688	0.000909090042114	0.48429107666	1.0	q	875.613126993																																	2015_Jul_07_1410	59.87774062850001	LearningTask	1	82	
184	-200.0	q	200.0																	1.0	0.0	1.0	0.0	15.0	0.0	60.0	1.0																													q	1.0	0.584463119507	None	0.0	1.0	crossgreen.gif	go																								0.96	0.51457285881	0.0008759498596189999	0.584463119507	1.0	q	878.6167058939999																																	2015_Jul_07_1410	59.87774062850001	LearningTask	1	82	
185	-200.0	q	200.0																	1.0	0.0	1.0	0.0	15.0	1.0	61.0	1.0																													q	1.0	0.6020100116730001	None	0.0	0.5	trianglewhite.gif	stop																								0.0	0.514050006866	0.0008780956268310002	0.6020100116730001	1.0	q	881.6201300619999																																	2015_Jul_07_1410	59.87774062850001	LearningTask	1	82	
186	200.0	s	-200.0																	1.0	0.0	1.0	0.0	15.0	2.0	62.0	2.0																													s	1.0	0.418209075928	None	0.0	0.5	trianglewhite.gif	stop																								0.61	0.5140600204469999	0.00109791755676	0.418209075928	1.0	s	884.6236128810001																																	2015_Jul_07_1410	59.87774062850001	LearningTask	1	82	
187	-200.0	a	-200.0																	1.0	0.0	1.0	0.0	15.0	3.0	63.0	3.0																													a	1.0	0.367382049561	None	0.0	2.0	squaremagenta.gif	stop																								2.14	0.514193058014	0.0008630752563480002	0.367382049561	1.0	a	887.626493931																																	2015_Jul_07_1410	59.87774062850001	LearningTask	1	82	
188	-200.0	a	-200.0																	1.0	0.0	1.0	0.0	16.0	0.0	64.0	3.0																													a	1.0	0.450773954391	None	0.0	2.0	squaremagenta.gif	stop																								1.85	0.5146138668060001	0.000884771347046	0.450773954391	1.0	a	890.630142927																																	2015_Jul_07_1410	59.87774062850001	LearningTask	1	82	
189	-200.0	q	200.0																	1.0	0.0	1.0	0.0	16.0	1.0	65.0	1.0																													q	1.0	0.46778202056900003	None	0.0	1.0	crossgreen.gif	go																								1.2	0.513991117477	0.0009241104125980002	0.46778202056900003	1.0	q	893.633486032																																	2015_Jul_07_1410	59.87774062850001	LearningTask	1	82	
190	200.0	w	200.0																	1.0	0.0	1.0	0.0	16.0	2.0	66.0	0.0																													w	1.0	0.45105719566299995	None	0.0	2.0	circleyellow.gif	go																								0.0	0.514559030533	0.000930070877075	0.45105719566299995	1.0	w	896.637086868																																	2015_Jul_07_1410	59.87774062850001	LearningTask	1	82	
191	200.0	s	-200.0																	1.0	0.0	1.0	0.0	16.0	3.0	67.0	2.0																													s	1.0	0.567414999008	None	0.0	0.5	invertedtriangleblue.gif	go																								0.37	0.514303922653	0.000880002975464	0.567414999008	1.0	s	899.6401698589999																																	2015_Jul_07_1410	59.87774062850001	LearningTask	1	82	
192	-200.0	a	-200.0																	1.0	0.0	1.0	0.0	17.0	0.0	68.0	3.0																													a	1.0	0.434038877487	None	0.0	4.0	lineorange.gif	go																								3.94	0.5141971111300001	0.0008859634399410001	0.434038877487	1.0	a	902.6437170510001																																	2015_Jul_07_1410	59.87774062850001	LearningTask	1	82	
193	200.0	w	200.0																	1.0	0.0	1.0	0.0	17.0	1.0	69.0	0.0																													w	1.0	0.40087294578599997	None	0.0	1.0	hexagoncyan.gif	stop																								0.88	0.514028072357	0.000965118408203	0.40087294578599997	1.0	w	905.646906853																																	2015_Jul_07_1410	59.87774062850001	LearningTask	1	82	
194	-200.0	a	-200.0																	1.0	0.0	1.0	0.0	17.0	2.0	70.0	3.0																													a	1.0	0.41775393486	None	0.0	4.0	diamondgray.gif	stop																								3.76	0.514130115509	0.0009031295776369999	0.41775393486	1.0	a	908.6507940289999																																	2015_Jul_07_1410	59.87774062850001	LearningTask	1	82	
195	200.0	s	-200.0																	1.0	0.0	1.0	0.0	17.0	3.0	71.0	2.0																													s	1.0	0.735178947449	None	0.0	1.0	crossgreen.gif	go																								1.0	0.513794898987	0.00095796585083	0.735178947449	1.0	s	911.653812885																																	2015_Jul_07_1410	59.87774062850001	LearningTask	1	82	
196	200.0	w	200.0																	1.0	0.0	1.0	0.0	18.0	0.0	72.0	0.0																													w	1.0	0.433931112289	None	0.0	4.0	diamondgray.gif	stop																								3.95	0.514497995377	0.000877857208252	0.433931112289	1.0	w	914.65712595																																	2015_Jul_07_1410	59.87774062850001	LearningTask	1	82	
197	200.0	s	-200.0																	1.0	0.0	1.0	0.0	18.0	1.0	73.0	2.0																													s	1.0	0.834259986877	None	0.0	2.0	squaremagenta.gif	stop																								0.0	0.5145008564	0.0009059906005860001	0.834259986877	1.0	s	917.660552025																																	2015_Jul_07_1410	59.87774062850001	LearningTask	1	82	
198	-200.0	q	200.0																	1.0	0.0	1.0	0.0	18.0	2.0	74.0	1.0																													q	1.0	0.45139002799999994	None	0.0	2.0	circleyellow.gif	go																								1.88	0.5140461921689999	0.0008790493011469999	0.45139002799999994	1.0	q	920.6638739110001																																	2015_Jul_07_1410	59.87774062850001	LearningTask	1	82	
199	-200.0	a	-200.0																	1.0	0.0	1.0	0.0	18.0	3.0	75.0	3.0																													a	1.0	0.434036016464	None	0.0	4.0	lineorange.gif	go																								3.89	0.514262914658	0.0013229846954300002	0.434036016464	1.0	a	923.667068005																																	2015_Jul_07_1410	59.87774062850001	LearningTask	1	82	
200	-200.0	q	200.0																	1.0	0.0	1.0	0.0	19.0	0.0	76.0	1.0																													q	1.0	0.483928918839	None	0.0	2.0	circleyellow.gif	go																								2.0	0.514607191086	0.00090503692627	0.483928918839	1.0	q	926.6709349160001																																	2015_Jul_07_1410	59.87774062850001	LearningTask	1	82	
201	-200.0	a	-200.0																	1.0	0.0	1.0	0.0	19.0	1.0	77.0	3.0																													a	1.0	0.40102314949	None	0.0	4.0	diamondgray.gif	stop																								4.18	0.513922929764	0.0008790493011469999	0.40102314949	1.0	a	929.6740808489999																																	2015_Jul_07_1410	59.87774062850001	LearningTask	1	82	
202	-200.0	a	-200.0																	1.0	0.0	1.0	0.0	19.0	2.0	78.0	3.0																													a	1.0	0.48465299606299994	None	0.0	2.0	squaremagenta.gif	stop																								0.0	0.513916015625	0.00100302696228	0.48465299606299994	1.0	a	932.6774668689999																																	2015_Jul_07_1410	59.87774062850001	LearningTask	1	82	
203	200.0	w	200.0																	1.0	0.0	1.0	0.0	19.0	3.0	79.0	0.0																													w	1.0	0.418219089508	None	0.0	2.0	circleyellow.gif	go																								2.04	0.514094114304	0.0009601116180419999	0.418219089508	1.0	w	935.6805520060001																																	2015_Jul_07_1410	59.87774062850001	LearningTask	1	82	
204	-200.0	q	200.0																	1.0	0.0	1.0	0.0	20.0	0.0	80.0	1.0																													q	1.0	0.450479030609	None	0.0	0.5	trianglewhite.gif	stop																								0.61	0.51477599144	0.0008831024169919999	0.450479030609	1.0	q	938.68406105																																	2015_Jul_07_1410	59.87774062850001	LearningTask	1	82	
205	200.0	w	200.0																	1.0	0.0	1.0	0.0	20.0	1.0	81.0	0.0																													w	1.0	0.5009229183199999	None	0.0	0.5	invertedtriangleblue.gif	go																								0.0	0.513930082321	0.0009181499481200001	0.5009229183199999	1.0	w	941.687440872																																	2015_Jul_07_1410	59.87774062850001	LearningTask	1	82	
206	200.0	s	-200.0																	1.0	0.0	1.0	0.0	20.0	2.0	82.0	2.0																													s	1.0	0.584369182587	None	0.0	1.0	hexagoncyan.gif	stop																								1.14	0.514070987701	0.0009520053863530001	0.584369182587	1.0	s	944.690870047																																	2015_Jul_07_1410	59.87774062850001	LearningTask	1	82	
207	200.0	w	200.0																	1.0	0.0	1.0	0.0	20.0	3.0	83.0	0.0																													w	1.0	0.35095500946	None	0.0	2.0	squaremagenta.gif	stop																								1.79	0.514141082764	0.000900983810425	0.35095500946	1.0	w	947.694017887																																	2015_Jul_07_1410	59.87774062850001	LearningTask	1	82	
208	-200.0	a	-200.0																	1.0	0.0	1.0	0.0	21.0	0.0	84.0	3.0																													a	1.0	0.48411107063299996	None	0.0	1.0	hexagoncyan.gif	stop																								1.05	0.514434814453	0.00104188919067	0.48411107063299996	1.0	a	950.697980881																																	2015_Jul_07_1410	59.87774062850001	LearningTask	1	82	
209	-200.0	a	-200.0																	1.0	0.0	1.0	0.0	21.0	1.0	85.0	3.0																													a	1.0	0.5178079605100001	None	0.0	2.0	circleyellow.gif	go																								2.25	0.513758897781	0.000992774963379	0.5178079605100001	1.0	a	953.7010769839999																																	2015_Jul_07_1410	59.87774062850001	LearningTask	1	82	
210	-200.0	q	200.0																	1.0	0.0	1.0	0.0	21.0	2.0	86.0	1.0																													q	1.0	0.350914001465	None	0.0	0.5	trianglewhite.gif	stop																								0.7	0.514346122742	0.00087308883667	0.350914001465	1.0	q	956.7048928739999																																	2015_Jul_07_1410	59.87774062850001	LearningTask	1	82	
211	-200.0	a	-200.0																	1.0	0.0	1.0	0.0	21.0	3.0	87.0	3.0																													a	1.0	0.48468899726899994	None	0.0	0.5	trianglewhite.gif	stop																								0.0	0.51359295845	0.0008769035339360002	0.48468899726899994	1.0	a	959.7077109810001																																	2015_Jul_07_1410	59.87774062850001	LearningTask	1	82	
212	200.0	w	200.0																	1.0	0.0	1.0	0.0	22.0	0.0	88.0	0.0																													w	1.0	0.350497961044	None	0.0	1.0	crossgreen.gif	go																								0.0	0.514588117599	0.0008959770202639998	0.350497961044	1.0	w	962.711091995																																	2015_Jul_07_1410	59.87774062850001	LearningTask	1	82	
213	200.0	w	200.0																	1.0	0.0	1.0	0.0	22.0	1.0	89.0	0.0																													w	1.0	0.417538881302	None	0.0	0.5	invertedtriangleblue.gif	go																								0.0	0.51448392868	0.000877141952515	0.417538881302	1.0	w	965.714585066																																	2015_Jul_07_1410	59.87774062850001	LearningTask	1	82	
214	200.0	s	-200.0																	1.0	0.0	1.0	0.0	22.0	2.0	90.0	2.0																													s	1.0	0.601548910141	None	0.0	0.5	invertedtriangleblue.gif	go																								0.62	0.513943195343	0.0008761882781980001	0.601548910141	1.0	s	968.718430042																																	2015_Jul_07_1410	59.87774062850001	LearningTask	1	82	
215	-200.0	q	200.0																	1.0	0.0	1.0	0.0	22.0	3.0	91.0	1.0																													q	1.0	0.650985002518	None	0.0	1.0	hexagoncyan.gif	stop																								0.0	0.513068914413	0.00094199180603	0.517721176147	0.0	a	971.7216370110001			0.84	0.515423059464	0.00094199180603	0.650985002518	1.0	q	974.724627972																								2015_Jul_07_1410	59.87774062850001	LearningTask	1	82	
216	200.0	s	-200.0																	1.0	0.0	1.0	0.0	23.0	0.0	92.0	2.0																													s	1.0	0.5348560810090001	None	0.0	2.0	squaremagenta.gif	stop																								2.01	0.514250040054	0.00086498260498	0.5348560810090001	1.0	s	977.7281260489999																																	2015_Jul_07_1410	59.87774062850001	LearningTask	1	82	
217	-200.0	a	-200.0																	1.0	0.0	1.0	0.0	23.0	1.0	93.0	3.0																													a	1.0	0.433966159821	None	0.0	0.5	trianglewhite.gif	stop																								0.0	0.514111042023	0.0009169578552250001	0.433966159821	1.0	a	980.731320858																																	2015_Jul_07_1410	59.87774062850001	LearningTask	1	82	
218	200.0	w	200.0																	1.0	0.0	1.0	0.0	23.0	2.0	94.0	0.0																													w	1.0	0.367520093918	None	0.0	1.0	crossgreen.gif	go																								1.06	0.514295816422	0.000923871994019	0.367520093918	1.0	w	983.735302925																																	2015_Jul_07_1410	59.87774062850001	LearningTask	1	82	
219	-200.0	a	-200.0																	1.0	0.0	1.0	0.0	23.0	3.0	95.0	3.0																													a	1.0	0.46791195869400004	None	0.0	0.5	invertedtriangleblue.gif	go																								0.0	0.513895988464	0.0008749961853029999	0.46791195869400004	1.0	a	986.738216877																																	2015_Jul_07_1410	59.87774062850001	LearningTask	1	82	
220	-200.0	q	200.0																	1.0	0.0	1.0	0.0	24.0	0.0	96.0	1.0																													q	1.0	0.484267950058	None	0.0	4.0	diamondgray.gif	stop																								3.91	0.513788938522	0.000903844833374	0.484267950058	1.0	q	989.74147892																																	2015_Jul_07_1410	59.87774062850001	LearningTask	1	82	
221	-200.0	q	200.0																	1.0	0.0	1.0	0.0	24.0	1.0	97.0	1.0																													q	1.0	0.483956098557	None	0.0	0.5	trianglewhite.gif	stop																								0.0	0.514341831207	0.0009329319000239999	0.483956098557	1.0	q	992.744910955																																	2015_Jul_07_1410	59.87774062850001	LearningTask	1	82	
222	-200.0	q	200.0																	1.0	0.0	1.0	0.0	24.0	2.0	98.0	1.0																													q	1.0	0.43395400047300003	None	0.0	0.5	trianglewhite.gif	stop																								0.0	0.514557123184	0.000923156738281	0.43395400047300003	1.0	q	995.748723984																																	2015_Jul_07_1410	59.87774062850001	LearningTask	1	82	
223	-200.0	q	200.0																	1.0	0.0	1.0	0.0	24.0	3.0	99.0	1.0																													q	1.0	0.400446891785	None	0.0	0.5	trianglewhite.gif	stop																								0.3	0.514002084732	0.0008990764617919999	0.400446891785	1.0	q	998.7519629000001																																	2015_Jul_07_1410	59.87774062850001	LearningTask	1	82	
224																				1.0	0.0	1.0	0.0																																																																							9.0	51.5233979225																															2015_Jul_07_1410	59.87774062850001	LearningTask	1	82	
225	200.0	s	-200.0																	2.0	0.0	2.0	0.0	0.0	0.0	0.0	2.0																													s	1.0	0.701453924179	None	0.0	4.0	lineorange.gif	go																								3.9	0.508769989014	0.0009608268737789999	0.701453924179	1.0	s	1053.93083906																																	2015_Jul_07_1410	59.87774062850001	LearningTask	1	82	
226	-200.0	q	200.0																	2.0	0.0	2.0	0.0	0.0	1.0	1.0	1.0																													q	1.0	0.46781611442599996	None	0.0	4.0	diamondgray.gif	stop																								4.24	0.5134980678559999	0.0008790493011469999	0.46781611442599996	1.0	q	1056.93385291																																	2015_Jul_07_1410	59.87774062850001	LearningTask	1	82	
227	200.0	s	-200.0																	2.0	0.0	2.0	0.0	0.0	2.0	2.0	2.0																													s	1.0	0.601109027863	None	0.0	0.5	trianglewhite.gif	stop																								0.49	0.51437497139	0.0008749961853029999	0.601109027863	1.0	s	1059.93726492																																	2015_Jul_07_1410	59.87774062850001	LearningTask	1	82	
228	200.0	w	200.0																	2.0	0.0	2.0	0.0	0.0	3.0	3.0	0.0																													w	1.0	0.401215076447	None	0.0	1.0	crossgreen.gif	go																								1.22	0.514099836349	0.0008749961853029999	0.401215076447	1.0	w	1062.94071198																																	2015_Jul_07_1410	59.87774062850001	LearningTask	1	82	
229	-200.0	q	200.0																	2.0	0.0	2.0	0.0	1.0	0.0	4.0	1.0																													q	1.0	0.40056991577100004	None	0.0	4.0	lineorange.gif	go																								3.93	0.5142970085140001	0.0009019374847410001	0.40056991577100004	1.0	q	1065.94400096																																	2015_Jul_07_1410	59.87774062850001	LearningTask	1	82	
230	200.0	s	-200.0																	2.0	0.0	2.0	0.0	1.0	1.0	5.0	2.0																													s	1.0	0.601050853729	None	0.0	0.5	invertedtriangleblue.gif	go																								0.32	0.51450419426	0.011006116867100001	0.601050853729	1.0	s	1068.94744492																																	2015_Jul_07_1410	59.87774062850001	LearningTask	1	82	
231	200.0	s	-200.0																	2.0	0.0	2.0	0.0	1.0	2.0	6.0	2.0																													s	1.0	0.584448814392	None	0.0	1.0	crossgreen.gif	go																								1.05	0.5140960216520001	0.00128817558289	0.584448814392	1.0	s	1071.950881																																	2015_Jul_07_1410	59.87774062850001	LearningTask	1	82	
232	200.0	w	200.0																	2.0	0.0	2.0	0.0	1.0	3.0	7.0	0.0																													w	1.0	0.45141816139200003	None	0.0	0.5	invertedtriangleblue.gif	go																								0.0	0.513633012772	0.0009291172027589999	0.45141816139200003	1.0	w	1074.95394707																																	2015_Jul_07_1410	59.87774062850001	LearningTask	1	82	
233	200.0	w	200.0																	2.0	0.0	2.0	0.0	2.0	0.0	8.0	0.0																													w	1.0	0.483892917633	None	0.0	4.0	diamondgray.gif	stop																								3.92	0.51485991478	0.000869989395142	0.483892917633	1.0	w	1077.95753598																																	2015_Jul_07_1410	59.87774062850001	LearningTask	1	82	
234	-200.0	q	200.0																	2.0	0.0	2.0	0.0	2.0	1.0	9.0	1.0																													q	1.0	0.43422913551299996	None	0.0	2.0	circleyellow.gif	go																								0.0	0.514206886292	0.0013649463653599998	0.43422913551299996	1.0	q	1080.96101093																																	2015_Jul_07_1410	59.87774062850001	LearningTask	1	82	
235	200.0	s	-200.0																	2.0	0.0	2.0	0.0	2.0	2.0	10.0	2.0																													s	1.0	0.600983858109	None	0.0	1.0	hexagoncyan.gif	stop																								1.24	0.514248847961	0.0009338855743410001	0.600983858109	1.0	s	1083.9642179000002																																	2015_Jul_07_1410	59.87774062850001	LearningTask	1	82	
236	200.0	w	200.0																	2.0	0.0	2.0	0.0	2.0	3.0	11.0	0.0																													w	1.0	0.400943040848	None	0.0	2.0	squaremagenta.gif	stop																								1.77	0.5142061710360001	0.00102305412292	0.400943040848	1.0	w	1086.9684279																																	2015_Jul_07_1410	59.87774062850001	LearningTask	1	82	
237	-200.0	a	-200.0																	2.0	0.0	2.0	0.0	3.0	0.0	12.0	3.0																													a	1.0	0.43435597419699995	None	0.0	4.0	lineorange.gif	go																								0.0	0.513541936874	0.0008909702301030001	0.43435597419699995	1.0	a	1089.97090888																																	2015_Jul_07_1410	59.87774062850001	LearningTask	1	82	
238	-200.0	q	200.0																	2.0	0.0	2.0	0.0	3.0	1.0	13.0	1.0																													q	1.0	0.41800093650799997	None	0.0	4.0	lineorange.gif	go																								3.75	0.514110088348	0.000890016555786	0.41800093650799997	1.0	q	1092.97432804																																	2015_Jul_07_1410	59.87774062850001	LearningTask	1	82	
239	-200.0	q	200.0																	2.0	0.0	2.0	0.0	3.0	2.0	14.0	1.0																													q	1.0	0.418020009995	None	0.0	4.0	diamondgray.gif	stop																								4.07	0.5138318538669999	0.0009329319000239999	0.418020009995	1.0	q	1095.97768593																																	2015_Jul_07_1410	59.87774062850001	LearningTask	1	82	
240	-200.0	a	-200.0																	2.0	0.0	2.0	0.0	3.0	3.0	15.0	3.0																													a	1.0	0.416908979416	None	0.0	1.0	crossgreen.gif	go																								0.0	0.5149250030520001	0.0008709430694580001	0.416908979416	1.0	a	1098.98140192																																	2015_Jul_07_1410	59.87774062850001	LearningTask	1	82	
241	-200.0	a	-200.0																	2.0	0.0	2.0	0.0	4.0	0.0	16.0	3.0																													a	1.0	0.451195001602	None	0.0	1.0	crossgreen.gif	go																								0.82	0.513899087906	0.00092601776123	0.451195001602	1.0	a	1101.9845109																																	2015_Jul_07_1410	59.87774062850001	LearningTask	1	82	
242	-200.0	a	-200.0																	2.0	0.0	2.0	0.0	4.0	1.0	17.0	3.0																													a	1.0	0.401571989059	None	0.0	1.0	hexagoncyan.gif	stop																								0.0	0.513566017151	0.0009119510650630002	0.401571989059	1.0	a	1104.98773503																																	2015_Jul_07_1410	59.87774062850001	LearningTask	1	82	
243	-200.0	a	-200.0																	2.0	0.0	2.0	0.0	4.0	2.0	18.0	3.0																													a	1.0	0.434453010559	None	0.0	1.0	hexagoncyan.gif	stop																								0.81	0.5144588947300001	0.0008749961853029999	0.434453010559	1.0	a	1107.99132705																																	2015_Jul_07_1410	59.87774062850001	LearningTask	1	82	
244	200.0	w	200.0																	2.0	0.0	2.0	0.0	4.0	3.0	19.0	0.0																													w	1.0	0.384491920471	None	0.0	0.5	invertedtriangleblue.gif	go																								0.69	0.514106988907	0.000867128372192	0.384491920471	1.0	w	1110.9946959000001																																	2015_Jul_07_1410	59.87774062850001	LearningTask	1	82	
245	-200.0	q	200.0																	2.0	0.0	2.0	0.0	5.0	0.0	20.0	1.0																													q	1.0	0.367074966431	None	0.0	4.0	diamondgray.gif	stop																								3.8	0.5141639709470001	0.000917911529541	0.367074966431	1.0	q	1113.99798799																																	2015_Jul_07_1410	59.87774062850001	LearningTask	1	82	
246	200.0	w	200.0																	2.0	0.0	2.0	0.0	5.0	1.0	21.0	0.0																													w	1.0	0.451246976852	None	0.0	4.0	diamondgray.gif	stop																								0.0	0.514132022858	0.000890016555786	0.451246976852	1.0	w	1117.00157905																																	2015_Jul_07_1410	59.87774062850001	LearningTask	1	82	
247	-200.0	q	200.0																	2.0	0.0	2.0	0.0	5.0	2.0	22.0	1.0																													q	1.0	0.317970991135	None	0.0	4.0	diamondgray.gif	stop																								4.06	0.5139801502229999	0.00087308883667	0.317970991135	1.0	q	1120.00493002																																	2015_Jul_07_1410	59.87774062850001	LearningTask	1	82	
248	200.0	w	200.0																	2.0	0.0	2.0	0.0	5.0	3.0	23.0	0.0																													w	1.0	0.35050511360200004	None	0.0	1.0	hexagoncyan.gif	stop																								0.0	0.514442920685	0.00098991394043	0.35050511360200004	1.0	w	1123.00834394																																	2015_Jul_07_1410	59.87774062850001	LearningTask	1	82	
249	200.0	w	200.0																	2.0	0.0	2.0	0.0	6.0	0.0	24.0	0.0																													w	1.0	0.43435096740699997	None	0.0	0.5	trianglewhite.gif	stop																								0.61	0.513957977295	0.000986814498901	0.43435096740699997	1.0	w	1126.01154685																																	2015_Jul_07_1410	59.87774062850001	LearningTask	1	82	
250	-200.0	q	200.0																	2.0	0.0	2.0	0.0	6.0	1.0	25.0	1.0																													q	1.0	0.36720609664899995	None	0.0	0.5	invertedtriangleblue.gif	go																								0.36	0.51487994194	0.0008740425109860002	0.36720609664899995	1.0	q	1129.0149609999999																																	2015_Jul_07_1410	59.87774062850001	LearningTask	1	82	
251	200.0	s	-200.0																	2.0	0.0	2.0	0.0	6.0	2.0	26.0	2.0																													s	1.0	0.751374006271	None	0.0	4.0	lineorange.gif	go																								3.95	0.514127969742	0.0009350776672360002	0.751374006271	1.0	s	1132.01849103																																	2015_Jul_07_1410	59.87774062850001	LearningTask	1	82	
252	200.0	s	-200.0																	2.0	0.0	2.0	0.0	6.0	3.0	27.0	2.0																													s	1.0	0.650650024414	None	0.0	2.0	circleyellow.gif	go																								2.08	0.514138936996	0.00094199180603	0.650650024414	1.0	s	1135.02192187																																	2015_Jul_07_1410	59.87774062850001	LearningTask	1	82	
253	200.0	s	-200.0																	2.0	0.0	2.0	0.0	7.0	0.0	28.0	2.0																													s	1.0	0.584447145462	None	0.0	4.0	diamondgray.gif	stop																								0.0	0.514004945755	0.0008709430694580001	0.584447145462	1.0	s	1138.02519393																																	2015_Jul_07_1410	59.87774062850001	LearningTask	1	82	
254	200.0	w	200.0																	2.0	0.0	2.0	0.0	7.0	1.0	29.0	0.0																													w	1.0	0.467418193817	None	0.0	4.0	diamondgray.gif	stop																								3.88	0.5143899917600001	0.000869035720825	0.467418193817	1.0	w	1141.02820992																																	2015_Jul_07_1410	59.87774062850001	LearningTask	1	82	
255	-200.0	q	200.0																	2.0	0.0	2.0	0.0	7.0	2.0	30.0	1.0																													q	1.0	0.434710979462	None	0.0	1.0	crossgreen.gif	go																								1.19	0.5141701698300001	0.0009591579437260001	0.434710979462	1.0	q	1144.03184605																																	2015_Jul_07_1410	59.87774062850001	LearningTask	1	82	
256	-200.0	q	200.0																	2.0	0.0	2.0	0.0	7.0	3.0	31.0	1.0																													q	1.0	0.434024095535	None	0.0	1.0	crossgreen.gif	go																								0.0	0.514858961105	0.000869035720825	0.434024095535	1.0	q	1147.03505492																																	2015_Jul_07_1410	59.87774062850001	LearningTask	1	82	
257	200.0	s	-200.0																	2.0	0.0	2.0	0.0	8.0	0.0	32.0	2.0																													s	1.0	0.618313074112	None	0.0	0.5	trianglewhite.gif	stop																								0.28	0.514189004898	0.0009779930114750001	0.618313074112	1.0	s	1150.03853202																																	2015_Jul_07_1410	59.87774062850001	LearningTask	1	82	
258	200.0	s	-200.0																	2.0	0.0	2.0	0.0	8.0	1.0	33.0	2.0																													s	1.0	0.650892972946	None	0.0	4.0	lineorange.gif	go																								3.84	0.514173984528	0.000881910324097	0.650892972946	1.0	s	1153.04207993																																	2015_Jul_07_1410	59.87774062850001	LearningTask	1	82	
259	-200.0	q	200.0																	2.0	0.0	2.0	0.0	8.0	2.0	34.0	1.0																													q	1.0	0.501013994217	None	0.0	0.5	trianglewhite.gif	stop																								0.47	0.513883113861	0.0008740425109860002	0.501013994217	1.0	q	1156.04541588																																	2015_Jul_07_1410	59.87774062850001	LearningTask	1	82	
260	200.0	s	-200.0																	2.0	0.0	2.0	0.0	8.0	3.0	35.0	2.0																													s	1.0	0.584417104721	None	0.0	2.0	squaremagenta.gif	stop																								1.79	0.514173984528	0.0008769035339360002	0.584417104721	1.0	s	1159.04933906																																	2015_Jul_07_1410	59.87774062850001	LearningTask	1	82	
261	-200.0	q	200.0																	2.0	0.0	2.0	0.0	9.0	0.0	36.0	1.0																													q	1.0	0.5015418529510001	None	0.0	2.0	squaremagenta.gif	stop																								1.75	0.513549089432	0.00092601776123	0.5015418529510001	1.0	q	1162.05197597																																	2015_Jul_07_1410	59.87774062850001	LearningTask	1	82	
262	200.0	w	200.0																	2.0	0.0	2.0	0.0	9.0	1.0	37.0	0.0																													w	1.0	0.417713165283	None	0.0	4.0	lineorange.gif	go																								4.09	0.5142509937290001	0.0008740425109860002	0.417713165283	1.0	w	1165.05551291																																	2015_Jul_07_1410	59.87774062850001	LearningTask	1	82	
263	-200.0	q	200.0																	2.0	0.0	2.0	0.0	9.0	2.0	38.0	1.0																													q	1.0	0.383723020554	None	0.0	2.0	circleyellow.gif	go																								2.25	0.514595985413	0.0008749961853029999	0.383723020554	1.0	q	1168.05871606																																	2015_Jul_07_1410	59.87774062850001	LearningTask	1	82	
264	200.0	s	-200.0																	2.0	0.0	2.0	0.0	9.0	3.0	39.0	2.0																													s	1.0	0.484492063522	None	0.0	1.0	hexagoncyan.gif	stop																								0.77	0.51424407959	0.0009541511535639998	0.484492063522	1.0	s	1171.06220007																																	2015_Jul_07_1410	59.87774062850001	LearningTask	1	82	
265	200.0	s	-200.0																	2.0	0.0	2.0	0.0	10.0	0.0	40.0	2.0																													s	1.0	0.9511029720309999	None	0.0	2.0	circleyellow.gif	go																								2.14	0.514345884323	0.00106406211853	0.9511029720309999	1.0	s	1174.06524491																																	2015_Jul_07_1410	59.87774062850001	LearningTask	1	82	
266	200.0	w	200.0																	2.0	0.0	2.0	0.0	10.0	1.0	41.0	0.0																													w	1.0	0.383840799332	None	0.0	0.5	invertedtriangleblue.gif	go																								0.45	0.514772891998	0.00088906288147	0.383840799332	1.0	w	1177.06883097																																	2015_Jul_07_1410	59.87774062850001	LearningTask	1	82	
267	-200.0	q	200.0																	2.0	0.0	2.0	0.0	10.0	2.0	42.0	1.0																													q	1.0	0.417707920074	None	0.0	1.0	hexagoncyan.gif	stop																								1.22	0.514131069183	0.000913143157959	0.417707920074	1.0	q	1180.07246494																																	2015_Jul_07_1410	59.87774062850001	LearningTask	1	82	
268	200.0	s	-200.0																	2.0	0.0	2.0	0.0	10.0	3.0	43.0	2.0																													s	1.0	0.568335056305	None	0.0	0.5	trianglewhite.gif	stop																								0.3	0.513866901398	0.00095009803772	0.568335056305	1.0	s	1183.07559586																																	2015_Jul_07_1410	59.87774062850001	LearningTask	1	82	
269	-200.0	a	-200.0																	2.0	0.0	2.0	0.0	11.0	0.0	44.0	3.0																													a	1.0	0.500921010971	None	0.0	1.0	crossgreen.gif	go																								1.09	0.514676094055	0.000869989395142	0.500921010971	1.0	a	1186.07921791																																	2015_Jul_07_1410	59.87774062850001	LearningTask	1	82	
270	-200.0	a	-200.0																	2.0	0.0	2.0	0.0	11.0	1.0	45.0	3.0																													a	1.0	0.517420053482	None	0.0	1.0	hexagoncyan.gif	stop																								1.15	0.514374017715	0.000930070877075	0.517420053482	1.0	a	1189.08241391																																	2015_Jul_07_1410	59.87774062850001	LearningTask	1	82	
271	-200.0	q	200.0																	2.0	0.0	2.0	0.0	11.0	2.0	46.0	1.0																													q	1.0	0.435074806213	None	0.0	0.5	invertedtriangleblue.gif	go																								0.6	0.513832807541	0.0009717941284180001	0.435074806213	1.0	q	1192.08569789																																	2015_Jul_07_1410	59.87774062850001	LearningTask	1	82	
272	-200.0	a	-200.0																	2.0	0.0	2.0	0.0	11.0	3.0	47.0	3.0																													a	1.0	0.601105928421	None	0.0	2.0	circleyellow.gif	go																								1.78	0.514415979385	0.0008718967437739999	0.601105928421	1.0	a	1195.08923197																																	2015_Jul_07_1410	59.87774062850001	LearningTask	1	82	
273	-200.0	a	-200.0																	2.0	0.0	2.0	0.0	12.0	0.0	48.0	3.0																													a	1.0	0.40125894546499996	None	0.0	0.5	trianglewhite.gif	stop																								0.68	0.5141940116879999	0.000880002975464	0.40125894546499996	1.0	a	1198.09280705																																	2015_Jul_07_1410	59.87774062850001	LearningTask	1	82	
274	-200.0	a	-200.0																	2.0	0.0	2.0	0.0	12.0	1.0	49.0	3.0																													a	1.0	0.500982999802	None	0.0	2.0	squaremagenta.gif	stop																								0.0	0.5138750076290001	0.0008859634399410001	0.500982999802	1.0	a	1201.09600997																																	2015_Jul_07_1410	59.87774062850001	LearningTask	1	82	
275	200.0	w	200.0																	2.0	0.0	2.0	0.0	12.0	2.0	50.0	0.0																													w	1.0	0.367582082748	None	0.0	1.0	hexagoncyan.gif	stop																								0.78	0.514251947403	0.0008821487426760002	0.367582082748	1.0	w	1204.09930897																																	2015_Jul_07_1410	59.87774062850001	LearningTask	1	82	
276	-200.0	a	-200.0																	2.0	0.0	2.0	0.0	12.0	3.0	51.0	3.0																													a	1.0	0.417781114578	None	0.0	1.0	hexagoncyan.gif	stop																								0.92	0.514087915421	0.0008897781372069999	0.417781114578	1.0	a	1207.10292387																																	2015_Jul_07_1410	59.87774062850001	LearningTask	1	82	
277	200.0	w	200.0																	2.0	0.0	2.0	0.0	13.0	0.0	52.0	0.0																													w	1.0	0.41684603691100003	None	0.0	2.0	circleyellow.gif	go																								2.21	0.514446973801	0.0009589195251460001	0.41684603691100003	1.0	w	1210.10602403																																	2015_Jul_07_1410	59.87774062850001	LearningTask	1	82	
278	-200.0	q	200.0																	2.0	0.0	2.0	0.0	13.0	1.0	53.0	1.0																													q	1.0	0.46767616272	None	0.0	2.0	squaremagenta.gif	stop																								2.12	0.514278888702	0.0008680820465089999	0.46767616272	1.0	q	1213.10928893																																	2015_Jul_07_1410	59.87774062850001	LearningTask	1	82	
279	-200.0	a	-200.0																	2.0	0.0	2.0	0.0	13.0	2.0	54.0	3.0																													a	1.0	0.401036977768	None	0.0	0.5	trianglewhite.gif	stop																								0.54	0.514523983002	0.0009160041809079999	0.401036977768	1.0	a	1216.11280894																																	2015_Jul_07_1410	59.87774062850001	LearningTask	1	82	
280	-200.0	q	200.0																	2.0	0.0	2.0	0.0	13.0	3.0	55.0	1.0																													q	1.0	0.38427901268	None	0.0	4.0	diamondgray.gif	stop																								4.14	0.514054775238	0.000913858413696	0.38427901268	1.0	q	1219.1160109000002																																	2015_Jul_07_1410	59.87774062850001	LearningTask	1	82	
281	-200.0	a	-200.0																	2.0	0.0	2.0	0.0	14.0	0.0	56.0	3.0																													a	1.0	0.384140014648	None	0.0	2.0	circleyellow.gif	go																								2.08	0.514559030533	0.0009360313415529999	0.384140014648	1.0	a	1222.11993194																																	2015_Jul_07_1410	59.87774062850001	LearningTask	1	82	
282	200.0	s	-200.0																	2.0	0.0	2.0	0.0	14.0	1.0	57.0	2.0																													s	1.0	0.5511260032649999	None	0.0	0.5	invertedtriangleblue.gif	go																								0.72	0.514364004135	0.0008740425109860002	0.5511260032649999	1.0	s	1225.12291694																																	2015_Jul_07_1410	59.87774062850001	LearningTask	1	82	
283	200.0	w	200.0																	2.0	0.0	2.0	0.0	14.0	2.0	58.0	0.0																													w	1.0	0.351129055023	None	0.0	0.5	trianglewhite.gif	stop																								0.4	0.513927936554	0.0008759498596189999	0.351129055023	1.0	w	1228.12629199																																	2015_Jul_07_1410	59.87774062850001	LearningTask	1	82	
284	200.0	s	-200.0																	2.0	0.0	2.0	0.0	14.0	3.0	59.0	2.0																													s	1.0	0.568089962006	None	0.0	4.0	lineorange.gif	go																								3.76	0.514012098312	0.000994920730591	0.568089962006	1.0	s	1231.12971091																																	2015_Jul_07_1410	59.87774062850001	LearningTask	1	82	
285	200.0	s	-200.0																	2.0	0.0	2.0	0.0	15.0	0.0	60.0	2.0																													s	1.0	0.451375007629	None	0.0	1.0	hexagoncyan.gif	stop																								1.16	0.51410984993	0.0008909702301030001	0.451375007629	1.0	s	1234.13339686																																	2015_Jul_07_1410	59.87774062850001	LearningTask	1	82	
286	200.0	s	-200.0																	2.0	0.0	2.0	0.0	15.0	1.0	61.0	2.0																													s	1.0	0.500618934631	None	0.0	1.0	crossgreen.gif	go																								1.02	0.514007091522	0.0008740425109860002	0.500618934631	1.0	s	1237.13712692																																	2015_Jul_07_1410	59.87774062850001	LearningTask	1	82	
287	200.0	s	-200.0																	2.0	0.0	2.0	0.0	15.0	2.0	62.0	2.0																													s	1.0	0.433214902878	None	0.0	1.0	hexagoncyan.gif	stop																								1.17	0.513883113861	0.000880002975464	0.433214902878	1.0	s	1240.14018393																																	2015_Jul_07_1410	59.87774062850001	LearningTask	1	82	
288	-200.0	q	200.0																	2.0	0.0	2.0	0.0	15.0	3.0	63.0	1.0																													q	1.0	0.400429010391	None	0.0	4.0	lineorange.gif	go																								4.15	0.51392698288	0.000869035720825	0.400429010391	1.0	q	1243.14332104																																	2015_Jul_07_1410	59.87774062850001	LearningTask	1	82	
289	-200.0	a	-200.0																	2.0	0.0	2.0	0.0	16.0	0.0	64.0	3.0																													a	1.0	0.40079402923600005	None	0.0	0.5	invertedtriangleblue.gif	go																								0.48	0.5141780376430001	0.000877857208252	0.40079402923600005	1.0	a	1246.1473279000002																																	2015_Jul_07_1410	59.87774062850001	LearningTask	1	82	
