	xPos	corrAns	yPos	corrGoResp	yPosGoStim	xPosGoStim	pracTrials.thisRepN	pracTrials.thisTrialN	pracTrials.thisN	pracTrials.thisIndex	ReDoLoopPrac.thisRepN	ReDoLoopPrac.thisTrialN	ReDoLoopPrac.thisN	ReDoLoopPrac.thisIndex	ReDoLoopPrac.thisTrial	pracStopTrials.thisRepN	pracStopTrials.thisTrialN	pracStopTrials.thisN	pracStopTrials.thisIndex	Blocks.thisRepN	Blocks.thisTrialN	Blocks.thisN	Blocks.thisIndex	trials.thisRepN	trials.thisTrialN	trials.thisN	trials.thisIndex	ReDoLoopMain.thisRepN	ReDoLoopMain.thisTrialN	ReDoLoopMain.thisN	ReDoLoopMain.thisIndex	ReDoLoopMain.thisTrial	StopBlocks.thisRepN	StopBlocks.thisTrialN	StopBlocks.thisN	StopBlocks.thisIndex	StopTrials.thisRepN	StopTrials.thisTrialN	StopTrials.thisN	StopTrials.thisIndex	auctionBlocks.thisRepN	auctionBlocks.thisTrialN	auctionBlocks.thisN	auctionBlocks.thisIndex	auctionTrials.thisRepN	auctionTrials.thisTrialN	auctionTrials.thisN	auctionTrials.thisIndex	learningTrialList	learningPracTrialList	stopTrialList	stopPracTrialList	auctionTrialList	ok1.keys	ok1.rt	resp.keys	resp.corr	feedbackResp.keys	feedbackResp.corr	currentReward	currentStimulus	currentStimType	firstPracComputedRewardOutput	firstPracLearningStimOnset	firstPracLearningFixOnset	firstPracPresentationRT	firstPracPresentationAcc	firstPracPresentationResp	firstPracEndTrialTimeStamp	resp.rt	secondPracComputedRewardOutput	secondPracLearningStimOnset	secondPracLearningFixOnset	secondPracPresentationRT	secondPracPresentationAcc	secondPracPresentationResp	secondPracEndTrialTimeStamp	StartTrialTimeStamp	trialType	goStim	stimType	stopStimValue	goResp.keys	goResp.corr	goResp.rt	key_resp_9.keys	key_resp_9.corr	fixStopOnset	goStimOnset	EndTrialTimeStamp	stopSignalOnset	key_resp_3.keys	key_resp_3.rt	firstComputedRewardOutput	firstLearningStimOnset	firstLearningFixOnset	firstPresentationRT	firstPresentationAcc	firstPresentationResp	firstEndTrialTimeStamp	feedbackResp.rt	key_resp_7.keys	key_resp_7.rt	secondComputedRewardOutput	secondLearningStimOnset	secondLearningFixOnset	secondPresentationRT	secondPresentationAcc	secondPresentationResp	secondEndTrialTimeStamp	beginningSSD	EndingSSD	key_resp_9.rt	key_resp_4.keys	key_resp_4.rt	auctionResponse.keys	auctionStimDuration	auctionStim	auctionAmounts	auctionStimValue	auctionCondition	chosenAuctionAmount	auctionResponse.rt	key_resp_5.keys	key_resp_5.rt	shuffledRewardList	chosenReward1	chosenReward2	chosenReward3	chosenReward4	chosenReward5	key_resp_6.keys	key_resp_6.rt	date	frameRate	expName	session	participant	Unnamed: 138
0																																																	[]	[]	[]	[]	[]	9.0	49.7560279369																																																																															2015_Jul_06_1138	60.0283088672	LearningTask	1	57	
1	200.0	s	-200.0				0.0	0.0	0.0	6.0																																														s	1.0	None	0.0	1.0	crosscyan.gif	stop	0.0	0.505164146423	0.0311121940613	[]	0.0	None	78.4798970222	0.43425798416100003	1.06	0.515933990479	0.000961065292358	0.43425798416100003	1.0	s	81.4833619595																																																									2015_Jul_06_1138	60.0283088672	LearningTask	1	57	
2	-200.0	a	-200.0				0.0	1.0	1.0	7.0																																														a	1.0	None	0.0	2.0	squaregray.gif	go	1.77	0.51460313797	0.00101900100708	0.434639930725	1.0	a	84.4863021374	0.43463993072499996																																																																2015_Jul_06_1138	60.0283088672	LearningTask	1	57	
3	200.0	w	200.0				0.0	2.0	2.0	8.0																																														w	1.0	None	0.0	1.0	crosscyan.gif	stop	1.02	0.515167951584	0.000900983810425	0.50084400177	1.0	w	87.48974108700001	0.50084400177																																																																2015_Jul_06_1138	60.0283088672	LearningTask	1	57	
4	-200.0	a	-200.0				0.0	3.0	3.0	3.0																																														a	1.0	None	0.0	1.0	invertedtriangleyellow.gif	go	0.0	0.5149259567260001	0.0409250259399	0.417452096939	1.0	a	90.4927351475	0.417452096939																																																																2015_Jul_06_1138	60.0283088672	LearningTask	1	57	
5	-200.0	q	200.0				0.0	4.0	4.0	1.0																																														q	1.0	None	0.0	0.5	circleorange.gif	stop	0.56	0.5150868892670001	0.0314619541168	0.517493009567	1.0	q	93.49632406229999	0.517493009567																																																																2015_Jul_06_1138	60.0283088672	LearningTask	1	57	
6	200.0	s	-200.0				0.0	5.0	5.0	2.0																																														s	1.0	None	0.0	1.0	crosscyan.gif	stop	0.93	0.515126943588	0.000900030136108	0.517272949219	1.0	s	96.4993190765	0.517272949219																																																																2015_Jul_06_1138	60.0283088672	LearningTask	1	57	
7	200.0	w	200.0				0.0	6.0	6.0	4.0																																														w	1.0	None	0.0	1.0	crosscyan.gif	stop	0.96	0.5156869888310001	0.0011820793151900001	0.400469064713	1.0	w	99.5030109882	0.400469064713																																																																2015_Jul_06_1138	60.0283088672	LearningTask	1	57	
8	-200.0	q	200.0				0.0	7.0	7.0	9.0																																														q	1.0	None	0.0	0.5	linewhite.gif	go	0.67	0.5150511264800001	0.0433859825134	0.467510938644	1.0	q	102.50651311899999	0.467510938644																																																																2015_Jul_06_1138	60.0283088672	LearningTask	1	57	
9	200.0	w	200.0				0.0	8.0	8.0	0.0																																														w	1.0	None	0.0	2.0	diamondgreen.gif	stop	2.16	0.515033960342	0.0618669986725	0.4176030159	1.0	w	105.50970506700001	0.41760301590000004																																																																2015_Jul_06_1138	60.0283088672	LearningTask	1	57	
10	-200.0	q	200.0				0.0	9.0	9.0	5.0																																														q	1.0	None	0.0	0.5	linewhite.gif	go	0.39	0.5151329040529999	0.000902891159058	0.451335906982	1.0	q	108.513075113	0.45133590698200005																																																																2015_Jul_06_1138	60.0283088672	LearningTask	1	57	
11				m	0.0	200.0										0.0	0.0	0.0	1.0																																																											155.970240116	go	invertedtriangleyellow.gif	go	1.0	m	1.0	0.534260988235	None	0.0	0.00133299827576	0.511455059052	158.969385147																																												2015_Jul_06_1138	60.0283088672	LearningTask	1	57	
12				m	0.0	200.0										0.0	1.0	1.0	1.0																																																											158.969782114	stop	diamondgreen.gif	stop	2.0	None	0.0		None	0.0	0.000962018966675	0.5156350135800001	161.97265005100002	0.765640974045																																											2015_Jul_06_1138	60.0283088672	LearningTask	1	57	
13				z	0.0	-200.0										1.0	0.0	2.0	0.0																																																											161.973020077	stop	diamondgreen.gif	stop	2.0	z	1.0	0.36766505241400005	None	0.0	0.0011169910430899998	0.515772104263	164.975821972	0.7662570476530001																																											2015_Jul_06_1138	60.0283088672	LearningTask	1	57	
14				z	0.0	-200.0										1.0	1.0	3.0	0.0																																																											164.976264954	stop	hexagonmagenta.gif	stop	4.0	None	0.0		None	0.0	0.0411691665649	0.5159311294560001	167.979295969	0.766049146652																																											2015_Jul_06_1138	60.0283088672	LearningTask	1	57	
15				m	0.0	200.0										2.0	0.0	4.0	1.0																																																											167.97971510899998	go	triangleblue.gif	go	4.0	m	1.0	0.851353168488	None	0.0	0.00100207328796	0.515648126602	170.982912064																																												2015_Jul_06_1138	60.0283088672	LearningTask	1	57	
16				z	0.0	-200.0										2.0	1.0	5.0	0.0																																																											170.983275175	stop	hexagonmagenta.gif	stop	4.0	None	0.0		None	0.0	0.00102114677429	0.515553951263	173.986103058	0.766363143921																																											2015_Jul_06_1138	60.0283088672	LearningTask	1	57	
17				z	0.0	-200.0										3.0	0.0	6.0	0.0																																																											173.98646712299998	stop	diamondgreen.gif	stop	2.0	None	0.0		None	0.0	0.0009717941284180001	0.515824794769	176.98980212200001	0.7661759853360001																																											2015_Jul_06_1138	60.0283088672	LearningTask	1	57	
18				m	0.0	200.0										3.0	1.0	7.0	1.0																																																											176.990185976	stop	crosscyan.gif	stop	1.0	None	0.0		None	0.0	0.000959873199463	0.515709877014	179.99273109400002	0.765441894531																																											2015_Jul_06_1138	60.0283088672	LearningTask	1	57	
19				z	0.0	-200.0										4.0	0.0	8.0	0.0																																																											179.993093014	stop	hexagonmagenta.gif	stop	4.0	None	0.0		None	0.0	0.00095009803772	0.515756130219	182.99601197200002	0.766201019287																																											2015_Jul_06_1138	60.0283088672	LearningTask	1	57	
20				m	0.0	200.0										4.0	1.0	9.0	1.0																																																											182.99637508400002	go	linewhite.gif	go	0.5	m	1.0	0.534425020218	None	0.0	0.0009560585021970001	0.515886068344	185.999612093																																												2015_Jul_06_1138	60.0283088672	LearningTask	1	57	
21																																																																																												9.0	48.854054212600005																																									2015_Jul_06_1138	60.0283088672	LearningTask	1	57	
22																																																						9.0	3.37039017677																																																																															2015_Jul_06_1138	60.0283088672	LearningTask	1	57	
23	-200.0	q	200.0																	0.0	0.0	0.0	0.0	0.0	0.0	0.0	1.0																													q	1.0	None	0.0	4.0	hexagonmagenta.gif	stop								0.5176150798800001																								4.19	0.503880977631	0.0008940696716310001	0.5176150798800001	1.0	q	241.413110018																																		2015_Jul_06_1138	60.0283088672	LearningTask	1	57	
24	200.0	w	200.0																	0.0	0.0	0.0	0.0	0.0	1.0	1.0	0.0																													w	1.0	None	0.0	1.0	crosscyan.gif	stop								0.33318901062																								0.0	0.513584852219	0.000923871994019	0.33318901062	1.0	w	244.415380955																																		2015_Jul_06_1138	60.0283088672	LearningTask	1	57	
25	200.0	w	200.0																	0.0	0.0	0.0	0.0	0.0	2.0	2.0	0.0																													w	1.0	None	0.0	1.0	crosscyan.gif	stop								0.43459391593900004																								1.16	0.5144591331480001	0.0008859634399410001	0.43459391593900004	1.0	w	247.418694973																																		2015_Jul_06_1138	60.0283088672	LearningTask	1	57	
26	-200.0	q	200.0																	0.0	0.0	0.0	0.0	0.0	3.0	3.0	1.0																													q	1.0	None	0.0	0.5	linewhite.gif	go								0.36729717254600003																								0.0	0.514546871185	0.0009059906005860001	0.36729717254600003	1.0	q	250.422217131																																		2015_Jul_06_1138	60.0283088672	LearningTask	1	57	
27	200.0	s	-200.0																	0.0	0.0	0.0	0.0	1.0	0.0	4.0	2.0																													s	1.0	None	0.0	1.0	crosscyan.gif	stop								0.367699146271																								1.04	0.514339923859	0.00092601776123	0.367699146271	1.0	s	253.425572157																																		2015_Jul_06_1138	60.0283088672	LearningTask	1	57	
28	200.0	s	-200.0																	0.0	0.0	0.0	0.0	1.0	1.0	5.0	2.0																													s	1.0	None	0.0	0.5	circleorange.gif	stop								0.367729187012																								0.51	0.514253854752	0.0009069442749019998	0.367729187012	1.0	s	256.428850174																																		2015_Jul_06_1138	60.0283088672	LearningTask	1	57	
29	200.0	s	-200.0																	0.0	0.0	0.0	0.0	1.0	2.0	6.0	2.0																													s	1.0	None	0.0	2.0	squaregray.gif	go								0.350707054138																								1.75	0.514589071274	0.000909090042114	0.350707054138	1.0	s	259.432633162																																		2015_Jul_06_1138	60.0283088672	LearningTask	1	57	
30	-200.0	q	200.0																	0.0	0.0	0.0	0.0	1.0	3.0	7.0	1.0																													q	1.0	None	0.0	2.0	squaregray.gif	go								0.400788068771																								2.2	0.513840913773	0.0009140968322749999	0.400788068771	1.0	q	262.435662985																																		2015_Jul_06_1138	60.0283088672	LearningTask	1	57	
31	200.0	s	-200.0																	0.0	0.0	0.0	0.0	2.0	0.0	8.0	2.0																													s	1.0	None	0.0	1.0	crosscyan.gif	stop								0.433730125427																								0.0	0.514662981033	0.000902891159058	0.433730125427	1.0	s	265.439002991																																		2015_Jul_06_1138	60.0283088672	LearningTask	1	57	
32	200.0	w	200.0																	0.0	0.0	0.0	0.0	2.0	1.0	9.0	0.0																													w	1.0	None	0.0	0.5	linewhite.gif	go								0.33452296256999997																								0.69	0.514251947403	0.0008950233459470001	0.33452296256999997	1.0	w	268.442392111																																		2015_Jul_06_1138	60.0283088672	LearningTask	1	57	
33	-200.0	a	-200.0																	0.0	0.0	0.0	0.0	2.0	2.0	10.0	3.0																													a	1.0	None	0.0	4.0	hexagonmagenta.gif	stop								0.383635044098																								0.0	0.514073133469	0.0009329319000239999	0.383635044098	1.0	a	271.446165085																																		2015_Jul_06_1138	60.0283088672	LearningTask	1	57	
34	200.0	w	200.0																	0.0	0.0	0.0	0.0	2.0	3.0	11.0	0.0																													w	1.0	None	0.0	2.0	diamondgreen.gif	stop								0.43447017669699994																								2.09	0.513688802719	0.0009489059448239998	0.43447017669699994	1.0	w	274.449249983																																		2015_Jul_06_1138	60.0283088672	LearningTask	1	57	
35	200.0	s	-200.0																	0.0	0.0	0.0	0.0	3.0	0.0	12.0	2.0																													s	1.0	None	0.0	2.0	diamondgreen.gif	stop								0.351182937622																								2.15	0.5143048763279999	0.000898838043213	0.351182937622	1.0	s	277.452413082																																		2015_Jul_06_1138	60.0283088672	LearningTask	1	57	
36	200.0	s	-200.0																	0.0	0.0	0.0	0.0	3.0	1.0	13.0	2.0																													s	1.0	None	0.0	4.0	triangleblue.gif	go								0.384416818619																								4.0	0.514255046844	0.000951051712036	0.384416818619	1.0	s	280.455674171																																		2015_Jul_06_1138	60.0283088672	LearningTask	1	57	
37	-200.0	a	-200.0																	0.0	0.0	0.0	0.0	3.0	2.0	14.0	3.0																													a	1.0	None	0.0	4.0	triangleblue.gif	go								0.434740066528																								3.75	0.514151096344	0.0009479522705080001	0.434740066528	1.0	a	283.459243059																																		2015_Jul_06_1138	60.0283088672	LearningTask	1	57	
38	-200.0	a	-200.0																	0.0	0.0	0.0	0.0	3.0	3.0	15.0	3.0																													a	1.0	None	0.0	4.0	hexagonmagenta.gif	stop								0.367923974991																								4.2	0.514251947403	0.000898838043213	0.367923974991	1.0	a	286.46252894400004																																		2015_Jul_06_1138	60.0283088672	LearningTask	1	57	
39	200.0	w	200.0																	0.0	0.0	0.0	0.0	4.0	0.0	16.0	0.0																													w	1.0	None	0.0	0.5	linewhite.gif	go								0.433805942535																								0.0	0.514495849609	0.0009169578552250001	0.433805942535	1.0	w	289.465741158																																		2015_Jul_06_1138	60.0283088672	LearningTask	1	57	
40	-200.0	a	-200.0																	0.0	0.0	0.0	0.0	4.0	1.0	17.0	3.0																													a	1.0	None	0.0	0.5	linewhite.gif	go								0.350471973419																								0.75	0.514588117599	0.000921964645386	0.350471973419	1.0	a	292.469099045																																		2015_Jul_06_1138	60.0283088672	LearningTask	1	57	
41	200.0	w	200.0																	0.0	0.0	0.0	0.0	4.0	2.0	18.0	0.0																													w	1.0	None	0.0	2.0	squaregray.gif	go								0.36749100685099995																								2.14	0.5143041610719999	0.00122594833374	0.36749100685099995	1.0	w	295.47240710299997																																		2015_Jul_06_1138	60.0283088672	LearningTask	1	57	
42	200.0	s	-200.0																	0.0	0.0	0.0	0.0	4.0	3.0	19.0	2.0																													s	1.0	None	0.0	1.0	crosscyan.gif	stop								0.317445993423																								0.0	0.51438498497	0.000921964645386	0.317445993423	1.0	s	298.475960016																																		2015_Jul_06_1138	60.0283088672	LearningTask	1	57	
43	-200.0	q	200.0																	0.0	0.0	0.0	0.0	5.0	0.0	20.0	1.0																													q	1.0	None	0.0	0.5	circleorange.gif	stop								0.434586048126																								0.28	0.51396894455	0.00095009803772	0.434586048126	1.0	q	301.479285955																																		2015_Jul_06_1138	60.0283088672	LearningTask	1	57	
44	200.0	w	200.0																	0.0	0.0	0.0	0.0	5.0	1.0	21.0	0.0																													w	1.0	None	0.0	4.0	hexagonmagenta.gif	stop								0.300609827042																								4.16	0.514326095581	0.0008919239044189998	0.300609827042	1.0	w	304.482522964																																		2015_Jul_06_1138	60.0283088672	LearningTask	1	57	
45	200.0	w	200.0																	0.0	0.0	0.0	0.0	5.0	2.0	22.0	0.0																													w	1.0	None	0.0	1.0	invertedtriangleyellow.gif	go								0.334277153015																								1.08	0.514756917953	0.0008950233459470001	0.334277153015	1.0	w	307.486670017																																		2015_Jul_06_1138	60.0283088672	LearningTask	1	57	
46	200.0	s	-200.0																	0.0	0.0	0.0	0.0	5.0	3.0	23.0	2.0																													s	1.0	None	0.0	0.5	circleorange.gif	stop								0.367436885834																								0.67	0.5135409832	0.00094199180603	0.367436885834	1.0	s	310.489542007																																		2015_Jul_06_1138	60.0283088672	LearningTask	1	57	
47	-200.0	q	200.0																	0.0	0.0	0.0	0.0	6.0	0.0	24.0	1.0																													q	1.0	None	0.0	1.0	invertedtriangleyellow.gif	go								0.401304960251																								0.78	0.514018058777	0.000900030136108	0.401304960251	1.0	q	313.492686033																																		2015_Jul_06_1138	60.0283088672	LearningTask	1	57	
48	200.0	w	200.0																	0.0	0.0	0.0	0.0	6.0	1.0	25.0	0.0																													w	1.0	None	0.0	4.0	hexagonmagenta.gif	stop								0.400727987289																								3.88	0.514321088791	0.00104594230652	0.400727987289	1.0	w	316.495895147																																		2015_Jul_06_1138	60.0283088672	LearningTask	1	57	
49	-200.0	q	200.0																	0.0	0.0	0.0	0.0	6.0	2.0	26.0	1.0																													q	1.0	None	0.0	2.0	diamondgreen.gif	stop								0.367984056473																								1.76	0.514385938644	0.00092887878418	0.367984056473	1.0	q	319.499441147																																		2015_Jul_06_1138	60.0283088672	LearningTask	1	57	
50	-200.0	q	200.0																	0.0	0.0	0.0	0.0	6.0	3.0	27.0	1.0																													q	1.0	None	0.0	2.0	squaregray.gif	go								0.36748099327100003																								2.12	0.51443696022	0.000942945480347	0.36748099327100003	1.0	q	322.503137112																																		2015_Jul_06_1138	60.0283088672	LearningTask	1	57	
51	-200.0	q	200.0																	0.0	0.0	0.0	0.0	7.0	0.0	28.0	1.0																													q	1.0	None	0.0	2.0	squaregray.gif	go								0.401039838791																								1.9	0.513988018036	0.000877857208252	0.401039838791	1.0	q	325.50605917																																		2015_Jul_06_1138	60.0283088672	LearningTask	1	57	
52	200.0	w	200.0																	0.0	0.0	0.0	0.0	7.0	1.0	29.0	0.0																													w	1.0	None	0.0	2.0	squaregray.gif	go								0.35056710243199996																								0.0	0.514643907547	0.000890016555786	0.35056710243199996	1.0	w	328.509396076																																		2015_Jul_06_1138	60.0283088672	LearningTask	1	57	
53	-200.0	a	-200.0																	0.0	0.0	0.0	0.0	7.0	2.0	30.0	3.0																													a	1.0	None	0.0	2.0	squaregray.gif	go								0.417413949966																								1.85	0.514061927795	0.00094199180603	0.417413949966	1.0	a	331.512746096																																		2015_Jul_06_1138	60.0283088672	LearningTask	1	57	
54	-200.0	q	200.0																	0.0	0.0	0.0	0.0	7.0	3.0	31.0	1.0																													q	1.0	None	0.0	4.0	hexagonmagenta.gif	stop								0.368088960648																								0.0	0.51412987709	0.0008950233459470001	0.368088960648	1.0	q	334.516241074																																		2015_Jul_06_1138	60.0283088672	LearningTask	1	57	
55	-200.0	q	200.0																	0.0	0.0	0.0	0.0	8.0	0.0	32.0	1.0																													q	1.0	None	0.0	1.0	crosscyan.gif	stop								0.40102314949																								0.85	0.5141248703	0.0008909702301030001	0.40102314949	1.0	q	337.519529104																																		2015_Jul_06_1138	60.0283088672	LearningTask	1	57	
56	-200.0	a	-200.0																	0.0	0.0	0.0	0.0	8.0	1.0	33.0	3.0																													a	1.0	None	0.0	1.0	invertedtriangleyellow.gif	go								0.35036110878																								0.99	0.51437497139	0.0009739398956299999	0.35036110878	1.0	a	340.523244143																																		2015_Jul_06_1138	60.0283088672	LearningTask	1	57	
57	-200.0	q	200.0																	0.0	0.0	0.0	0.0	8.0	2.0	34.0	1.0																													q	1.0	None	0.0	4.0	triangleblue.gif	go								0.417445898056																								4.22	0.514038085938	0.0009529590606689998	0.417445898056	1.0	q	343.526266098																																		2015_Jul_06_1138	60.0283088672	LearningTask	1	57	
58	200.0	w	200.0																	0.0	0.0	0.0	0.0	8.0	3.0	35.0	0.0																													w	1.0	None	0.0	2.0	diamondgreen.gif	stop								0.41813993454000004																								2.14	0.513822078705	0.00132989883423	0.41813993454000004	1.0	w	346.52978611																																		2015_Jul_06_1138	60.0283088672	LearningTask	1	57	
59	200.0	w	200.0																	0.0	0.0	0.0	0.0	9.0	0.0	36.0	0.0																													w	1.0	None	0.0	2.0	diamondgreen.gif	stop								0.38426899909999995																								2.01	0.5138599872590001	0.000998020172119	0.38426899909999995	1.0	w	349.533332109																																		2015_Jul_06_1138	60.0283088672	LearningTask	1	57	
60	-200.0	a	-200.0																	0.0	0.0	0.0	0.0	9.0	1.0	37.0	3.0																													a	1.0	None	0.0	4.0	triangleblue.gif	go								0.350687980652																								4.0	0.51393699646	0.0009589195251460001	0.350687980652	1.0	a	352.536581039																																		2015_Jul_06_1138	60.0283088672	LearningTask	1	57	
61	-200.0	a	-200.0																	0.0	0.0	0.0	0.0	9.0	2.0	38.0	3.0																													a	1.0	None	0.0	1.0	crosscyan.gif	stop								0.38382506370499997																								1.06	0.514262199402	0.00090503692627	0.38382506370499997	1.0	a	355.539806128																																		2015_Jul_06_1138	60.0283088672	LearningTask	1	57	
62	-200.0	q	200.0																	0.0	0.0	0.0	0.0	9.0	3.0	39.0	1.0																													q	1.0	None	0.0	2.0	squaregray.gif	go								0.351081848145																								1.91	0.51403594017	0.0009169578552250001	0.351081848145	1.0	q	358.54302597																																		2015_Jul_06_1138	60.0283088672	LearningTask	1	57	
63	200.0	w	200.0																	0.0	0.0	0.0	0.0	10.0	0.0	40.0	0.0																													w	1.0	None	0.0	0.5	linewhite.gif	go								0.417991161346																								0.64	0.5139198303220001	0.00103783607483	0.417991161346	1.0	w	361.546378136																																		2015_Jul_06_1138	60.0283088672	LearningTask	1	57	
64	-200.0	q	200.0																	0.0	0.0	0.0	0.0	10.0	1.0	41.0	1.0																													q	1.0	None	0.0	4.0	hexagonmagenta.gif	stop								0.367470026016																								3.96	0.514398097992	0.0009779930114750001	0.367470026016	1.0	q	364.54987812																																		2015_Jul_06_1138	60.0283088672	LearningTask	1	57	
65	-200.0	a	-200.0																	0.0	0.0	0.0	0.0	10.0	2.0	42.0	3.0																													a	1.0	None	0.0	1.0	invertedtriangleyellow.gif	go								0.401138067245																								0.0	0.514162063599	0.0009150505065920001	0.401138067245	1.0	a	367.553431034																																		2015_Jul_06_1138	60.0283088672	LearningTask	1	57	
66	200.0	s	-200.0																	0.0	0.0	0.0	0.0	10.0	3.0	43.0	2.0																													s	1.0	None	0.0	0.5	circleorange.gif	stop								0.35039305687																								0.0	0.514402866364	0.000992059707642	0.35039305687	1.0	s	370.556516171																																		2015_Jul_06_1138	60.0283088672	LearningTask	1	57	
67	-200.0	a	-200.0																	0.0	0.0	0.0	0.0	11.0	0.0	44.0	3.0																													a	1.0	None	0.0	1.0	crosscyan.gif	stop								0.35094690322899996																								1.17	0.5142970085140001	0.0008938312530519999	0.35094690322899996	1.0	a	373.55972194699996																																		2015_Jul_06_1138	60.0283088672	LearningTask	1	57	
68	200.0	w	200.0																	0.0	0.0	0.0	0.0	11.0	1.0	45.0	0.0																													w	1.0	None	0.0	1.0	invertedtriangleyellow.gif	go								0.367498874664																								1.02	0.514365196228	0.0008940696716310001	0.367498874664	1.0	w	376.563143969																																		2015_Jul_06_1138	60.0283088672	LearningTask	1	57	
69	-200.0	a	-200.0																	0.0	0.0	0.0	0.0	11.0	2.0	46.0	3.0																													a	1.0	None	0.0	1.0	crosscyan.gif	stop								0.36760091781599996																								0.8	0.51428103447	0.00154185295105	0.36760091781599996	1.0	a	379.56646204																																		2015_Jul_06_1138	60.0283088672	LearningTask	1	57	
70	-200.0	q	200.0																	0.0	0.0	0.0	0.0	11.0	3.0	47.0	1.0																													q	1.0	None	0.0	4.0	triangleblue.gif	go								0.36719202995300004																								4.2	0.514693021774	0.000892162322998	0.36719202995300004	1.0	q	382.56996417																																		2015_Jul_06_1138	60.0283088672	LearningTask	1	57	
71	200.0	w	200.0																	0.0	0.0	0.0	0.0	12.0	0.0	48.0	0.0																													w	1.0	None	0.0	4.0	triangleblue.gif	go								0.333943128586																								3.93	0.5144798755650001	0.0008859634399410001	0.333943128586	1.0	w	385.573552132																																		2015_Jul_06_1138	60.0283088672	LearningTask	1	57	
72	200.0	w	200.0																	0.0	0.0	0.0	0.0	12.0	1.0	49.0	0.0																													w	1.0	None	0.0	2.0	squaregray.gif	go								0.36764597892800005																								2.08	0.513911962509	0.0009169578552250001	0.36764597892800005	1.0	w	388.57649707800005																																		2015_Jul_06_1138	60.0283088672	LearningTask	1	57	
73	-200.0	a	-200.0																	0.0	0.0	0.0	0.0	12.0	2.0	50.0	3.0																													a	1.0	None	0.0	2.0	diamondgreen.gif	stop								0.36721777916000004																								2.25	0.514452934265	0.0008990764617919999	0.36721777916000004	1.0	a	391.579826117																																		2015_Jul_06_1138	60.0283088672	LearningTask	1	57	
74	200.0	w	200.0																	0.0	0.0	0.0	0.0	12.0	3.0	51.0	0.0																													w	1.0	None	0.0	2.0	diamondgreen.gif	stop								0.317776918411																								2.13	0.514497041702	0.0008990764617919999	0.317776918411	1.0	w	394.58344411800005																																		2015_Jul_06_1138	60.0283088672	LearningTask	1	57	
75	200.0	s	-200.0																	0.0	0.0	0.0	0.0	13.0	0.0	52.0	2.0																													s	1.0	None	0.0	1.0	crosscyan.gif	stop								0.334287881851																								1.0	0.51389503479	0.000921964645386	0.334287881851	1.0	s	397.586730003																																		2015_Jul_06_1138	60.0283088672	LearningTask	1	57	
76	200.0	s	-200.0																	0.0	0.0	0.0	0.0	13.0	1.0	53.0	2.0																													s	1.0	None	0.0	1.0	invertedtriangleyellow.gif	go								0.317837953568																								0.0	0.514083862305	0.000909805297852	0.317837953568	1.0	s	400.590286016																																		2015_Jul_06_1138	60.0283088672	LearningTask	1	57	
77	-200.0	q	200.0																	0.0	0.0	0.0	0.0	13.0	2.0	54.0	1.0																													q	1.0	None	0.0	2.0	squaregray.gif	go								0.36723089218099997																								2.09	0.514398097992	0.0009059906005860001	0.36723089218099997	1.0	q	403.59366512300005																																		2015_Jul_06_1138	60.0283088672	LearningTask	1	57	
78	200.0	s	-200.0																	0.0	0.0	0.0	0.0	13.0	3.0	55.0	2.0																													s	1.0	q	0.0	4.0	hexagonmagenta.gif	stop								0.40091586113000005																								3.82	0.514120101929	0.0009119510650630002	0.40091586113000005	1.0	s	406.59669494599996	0.424268960953																																	2015_Jul_06_1138	60.0283088672	LearningTask	1	57	
79	-200.0	a	-200.0																	0.0	0.0	0.0	0.0	14.0	0.0	56.0	3.0																													a	1.0	None	0.0	0.5	linewhite.gif	go								0.350745916367																								0.0	0.514419078827	0.0009019374847410001	0.350745916367	1.0	a	409.60010194800003																																		2015_Jul_06_1138	60.0283088672	LearningTask	1	57	
80	-200.0	q	200.0																	0.0	0.0	0.0	0.0	14.0	1.0	57.0	1.0																													q	1.0	None	0.0	4.0	hexagonmagenta.gif	stop								0.417228937149																								3.91	0.514358997345	0.000983953475952	0.417228937149	1.0	q	412.603527069																																		2015_Jul_06_1138	60.0283088672	LearningTask	1	57	
81	200.0	s	-200.0																	0.0	0.0	0.0	0.0	14.0	2.0	58.0	2.0																													s	1.0	None	0.0	1.0	invertedtriangleyellow.gif	go								0.38453197479199996																								1.18	0.514290809631	0.000943899154663	0.38453197479199996	1.0	s	415.606796026																																		2015_Jul_06_1138	60.0283088672	LearningTask	1	57	
82	-200.0	a	-200.0																	0.0	0.0	0.0	0.0	14.0	3.0	59.0	3.0																													a	1.0	None	0.0	4.0	hexagonmagenta.gif	stop								0.41738510131800005																								4.12	0.514648914337	0.00112795829773	0.41738510131800005	1.0	a	418.61039304699995																																		2015_Jul_06_1138	60.0283088672	LearningTask	1	57	
83	-200.0	a	-200.0																	0.0	0.0	0.0	0.0	15.0	0.0	60.0	3.0																													a	1.0	None	0.0	1.0	invertedtriangleyellow.gif	go								0.317043066025																								0.0	0.514367818832	0.000922918319702	0.317043066025	1.0	a	421.61375498800004																																		2015_Jul_06_1138	60.0283088672	LearningTask	1	57	
84	200.0	s	-200.0																	0.0	0.0	0.0	0.0	15.0	1.0	61.0	2.0																													s	1.0	None	0.0	0.5	circleorange.gif	stop								0.33428287506099996																								0.0	0.5138239860530001	0.0009448528289790001	0.33428287506099996	1.0	s	424.616840124																																		2015_Jul_06_1138	60.0283088672	LearningTask	1	57	
85	200.0	s	-200.0																	0.0	0.0	0.0	0.0	15.0	2.0	62.0	2.0																													s	1.0	None	0.0	1.0	crosscyan.gif	stop								0.317589998245																								0.89	0.514203071594	0.0009560585021970001	0.317589998245	1.0	s	427.620265961																																		2015_Jul_06_1138	60.0283088672	LearningTask	1	57	
86	200.0	w	200.0																	0.0	0.0	0.0	0.0	15.0	3.0	63.0	0.0																													w	1.0	None	0.0	4.0	triangleblue.gif	go								0.367285013199																								3.94	0.514277219772	0.000892162322998	0.367285013199	1.0	w	430.623533964																																		2015_Jul_06_1138	60.0283088672	LearningTask	1	57	
87	-200.0	a	-200.0																	0.0	0.0	0.0	0.0	16.0	0.0	64.0	3.0																													a	1.0	None	0.0	1.0	crosscyan.gif	stop								0.38396096229599996																								0.77	0.514266967773	0.000974893569946	0.38396096229599996	1.0	a	433.62693095199995																																		2015_Jul_06_1138	60.0283088672	LearningTask	1	57	
88	-200.0	a	-200.0																	0.0	0.0	0.0	0.0	16.0	1.0	65.0	3.0																													a	1.0	None	0.0	2.0	squaregray.gif	go								0.334090948105																								1.93	0.51446890831	0.00089693069458	0.334090948105	1.0	a	436.630251169																																		2015_Jul_06_1138	60.0283088672	LearningTask	1	57	
89	200.0	s	-200.0																	0.0	0.0	0.0	0.0	16.0	2.0	66.0	2.0																													s	1.0	None	0.0	2.0	squaregray.gif	go								0.301017999649																								2.05	0.514395952225	0.0008919239044189998	0.301017999649	1.0	s	439.63361406300004																																		2015_Jul_06_1138	60.0283088672	LearningTask	1	57	
90	200.0	s	-200.0																	0.0	0.0	0.0	0.0	16.0	3.0	67.0	2.0																													s	1.0	None	0.0	4.0	triangleblue.gif	go								0.300694942474																								3.98	0.514329910278	0.00089693069458	0.300694942474	1.0	s	442.637158155																																		2015_Jul_06_1138	60.0283088672	LearningTask	1	57	
91	-200.0	q	200.0																	0.0	0.0	0.0	0.0	17.0	0.0	68.0	1.0																													q	1.0	None	0.0	2.0	squaregray.gif	go								0.40084290504500003																								1.93	0.513885974884	0.000881910324097	0.40084290504500003	1.0	q	445.640383005																																		2015_Jul_06_1138	60.0283088672	LearningTask	1	57	
92	200.0	s	-200.0																	0.0	0.0	0.0	0.0	17.0	1.0	69.0	2.0																													s	1.0	None	0.0	2.0	squaregray.gif	go								0.334624052048																								2.17	0.514208078384	0.0008940696716310001	0.334624052048	1.0	s	448.64379406																																		2015_Jul_06_1138	60.0283088672	LearningTask	1	57	
93	200.0	w	200.0																	0.0	0.0	0.0	0.0	17.0	2.0	70.0	0.0																													w	1.0	None	0.0	1.0	crosscyan.gif	stop								0.351018190384																								0.0	0.514108896255	0.000900983810425	0.351018190384	1.0	w	451.647467136																																		2015_Jul_06_1138	60.0283088672	LearningTask	1	57	
94	200.0	s	-200.0																	0.0	0.0	0.0	0.0	17.0	3.0	71.0	2.0																													s	1.0	None	0.0	0.5	circleorange.gif	stop								0.300899028778																								0.0	0.513607025146	0.0008959770202639998	0.300899028778	1.0	s	454.65043211																																		2015_Jul_06_1138	60.0283088672	LearningTask	1	57	
95	-200.0	q	200.0																	0.0	0.0	0.0	0.0	18.0	0.0	72.0	1.0																													q	1.0	None	0.0	1.0	crosscyan.gif	stop								0.384469985962																								0.0	0.514385938644	0.000931024551392	0.384469985962	1.0	q	457.65367198																																		2015_Jul_06_1138	60.0283088672	LearningTask	1	57	
96	200.0	s	-200.0																	0.0	0.0	0.0	0.0	18.0	1.0	73.0	2.0																													s	1.0	None	0.0	4.0	triangleblue.gif	go								0.350241184235																								4.02	0.514828920364	0.0009100437164310001	0.350241184235	1.0	s	460.65722203300004																																		2015_Jul_06_1138	60.0283088672	LearningTask	1	57	
97	200.0	s	-200.0																	0.0	0.0	0.0	0.0	18.0	2.0	74.0	2.0																													s	1.0	None	0.0	4.0	triangleblue.gif	go								0.36782097816500003																								3.93	0.514008998871	0.000888824462891	0.36782097816500003	1.0	s	463.660493135																																		2015_Jul_06_1138	60.0283088672	LearningTask	1	57	
98	-200.0	q	200.0																	0.0	0.0	0.0	0.0	18.0	3.0	75.0	1.0																													q	1.0	None	0.0	0.5	circleorange.gif	stop								0.41783499717699996																								0.59	0.514279127121	0.000981092453003	0.41783499717699996	1.0	q	466.66404104199995																																		2015_Jul_06_1138	60.0283088672	LearningTask	1	57	
99	-200.0	a	-200.0																	0.0	0.0	0.0	0.0	19.0	0.0	76.0	3.0																													a	1.0	None	0.0	1.0	invertedtriangleyellow.gif	go								0.384280920029																								1.1	0.5141780376430001	0.0009119510650630002	0.384280920029	1.0	a	469.667348146																																		2015_Jul_06_1138	60.0283088672	LearningTask	1	57	
100	-200.0	a	-200.0																	0.0	0.0	0.0	0.0	19.0	1.0	77.0	3.0																													a	1.0	None	0.0	0.5	circleorange.gif	stop								0.45137405395499997																								0.31	0.5140810012820001	0.00090217590332	0.45137405395499997	1.0	a	472.67054796199994																																		2015_Jul_06_1138	60.0283088672	LearningTask	1	57	
101	-200.0	q	200.0																	0.0	0.0	0.0	0.0	19.0	2.0	78.0	1.0																													q	1.0	None	0.0	0.5	linewhite.gif	go								0.41762685775799996																								0.0	0.5139210224149999	0.000942945480347	0.41762685775799996	1.0	q	475.674000025																																		2015_Jul_06_1138	60.0283088672	LearningTask	1	57	
102	-200.0	a	-200.0																	0.0	0.0	0.0	0.0	19.0	3.0	79.0	3.0																													a	1.0	None	0.0	4.0	hexagonmagenta.gif	stop								0.35084104538000005																								0.0	0.5145030021670001	0.0009109973907470001	0.35084104538000005	1.0	a	478.677086115																																		2015_Jul_06_1138	60.0283088672	LearningTask	1	57	
103	-200.0	q	200.0																	0.0	0.0	0.0	0.0	20.0	0.0	80.0	1.0																													q	1.0	None	0.0	1.0	crosscyan.gif	stop								0.350399971008																								0.8	0.514969110489	0.000888109207153	0.350399971008	1.0	q	481.681264162																																		2015_Jul_06_1138	60.0283088672	LearningTask	1	57	
104	200.0	w	200.0																	0.0	0.0	0.0	0.0	20.0	1.0	81.0	0.0																													w	1.0	None	0.0	4.0	triangleblue.gif	go								0.45084691047700004																								3.96	0.513918161392	0.000904083251953	0.45084691047700004	1.0	w	484.68388104400003																																		2015_Jul_06_1138	60.0283088672	LearningTask	1	57	
105	200.0	w	200.0																	0.0	0.0	0.0	0.0	20.0	2.0	82.0	0.0																													w	1.0	None	0.0	2.0	diamondgreen.gif	stop								0.43429684639																								1.87	0.5145988464360001	0.0009119510650630002	0.43429684639	1.0	w	487.68734598199995																																		2015_Jul_06_1138	60.0283088672	LearningTask	1	57	
106	200.0	w	200.0																	0.0	0.0	0.0	0.0	20.0	3.0	83.0	0.0																													w	1.0	None	0.0	1.0	invertedtriangleyellow.gif	go								0.36767387390100004																								1.12	0.514280080795	0.0008981227874760001	0.36767387390100004	1.0	w	490.69107294099996																																		2015_Jul_06_1138	60.0283088672	LearningTask	1	57	
107	-200.0	a	-200.0																	0.0	0.0	0.0	0.0	21.0	0.0	84.0	3.0																													a	1.0	None	0.0	1.0	crosscyan.gif	stop								0.450892925262																								1.01	0.5138151645660001	0.0009250640869139999	0.450892925262	1.0	a	493.694178104																																		2015_Jul_06_1138	60.0283088672	LearningTask	1	57	
108	200.0	w	200.0																	0.0	0.0	0.0	0.0	21.0	1.0	85.0	0.0																													w	1.0	None	0.0	1.0	crosscyan.gif	stop								0.434283971786																								1.01	0.514063119888	0.0009160041809079999	0.434283971786	1.0	w	496.697474957																																		2015_Jul_06_1138	60.0283088672	LearningTask	1	57	
109	200.0	w	200.0																	0.0	0.0	0.0	0.0	21.0	2.0	86.0	0.0																													w	1.0	None	0.0	4.0	hexagonmagenta.gif	stop								0.43398904800399996																								3.84	0.5144670009610001	0.0009059906005860001	0.43398904800399996	1.0	w	499.70114612599997																																		2015_Jul_06_1138	60.0283088672	LearningTask	1	57	
110	-200.0	a	-200.0																	0.0	0.0	0.0	0.0	21.0	3.0	87.0	3.0																													a	1.0	None	0.0	1.0	crosscyan.gif	stop								0.6173839569089999																								0.92	0.513495922089	0.000902891159058	0.6173839569089999	1.0	a	502.70410513900003																																		2015_Jul_06_1138	60.0283088672	LearningTask	1	57	
111	-200.0	q	200.0																	0.0	0.0	0.0	0.0	22.0	0.0	88.0	1.0																													q	1.0	None	0.0	0.5	linewhite.gif	go								0.434066057205																								0.44	0.514444828033	0.0008938312530519999	0.434066057205	1.0	q	505.707349062																																		2015_Jul_06_1138	60.0283088672	LearningTask	1	57	
112	-200.0	a	-200.0																	0.0	0.0	0.0	0.0	22.0	1.0	89.0	3.0																													a	1.0	None	0.0	4.0	hexagonmagenta.gif	stop								0.433971166611																								4.14	0.514821052551	0.0009019374847410001	0.433971166611	1.0	a	508.710797071																																		2015_Jul_06_1138	60.0283088672	LearningTask	1	57	
113	200.0	s	-200.0																	0.0	0.0	0.0	0.0	22.0	2.0	90.0	2.0																													s	1.0	None	0.0	2.0	squaregray.gif	go								0.40057897567699996																								0.0	0.51448392868	0.000993967056274	0.40057897567699996	1.0	s	511.71421003300003																																		2015_Jul_06_1138	60.0283088672	LearningTask	1	57	
114	-200.0	q	200.0																	0.0	0.0	0.0	0.0	22.0	3.0	91.0	1.0																													q	1.0	None	0.0	1.0	invertedtriangleyellow.gif	go								0.43455386161799997																								1.05	0.514232873917	0.0009360313415529999	0.43455386161799997	1.0	q	514.717710018																																		2015_Jul_06_1138	60.0283088672	LearningTask	1	57	
115	-200.0	q	200.0																	0.0	0.0	0.0	0.0	23.0	0.0	92.0	1.0																													q	1.0	None	0.0	2.0	diamondgreen.gif	stop								0.434399843216																								2.19	0.5141639709470001	0.0008978843688960001	0.434399843216	1.0	q	517.720986128																																		2015_Jul_06_1138	60.0283088672	LearningTask	1	57	
116	200.0	s	-200.0																	0.0	0.0	0.0	0.0	23.0	1.0	93.0	2.0																													s	1.0	None	0.0	2.0	diamondgreen.gif	stop								0.367718935013																								0.0	0.514348983765	0.0008981227874760001	0.367718935013	1.0	s	520.7243399619999																																		2015_Jul_06_1138	60.0283088672	LearningTask	1	57	
117	200.0	w	200.0																	0.0	0.0	0.0	0.0	23.0	2.0	94.0	0.0																													w	1.0	None	0.0	2.0	diamondgreen.gif	stop								0.350634813309																								1.75	0.5140299797060001	0.0009570121765139998	0.350634813309	1.0	w	523.727607012																																		2015_Jul_06_1138	60.0283088672	LearningTask	1	57	
118	200.0	s	-200.0																	0.0	0.0	0.0	0.0	23.0	3.0	95.0	2.0																													s	1.0	None	0.0	0.5	circleorange.gif	stop								0.40084004402199996																								0.52	0.514361143112	0.0009529590606689998	0.40084004402199996	1.0	s	526.730963945																																		2015_Jul_06_1138	60.0283088672	LearningTask	1	57	
119	200.0	s	-200.0																	0.0	0.0	0.0	0.0	24.0	0.0	96.0	2.0																													s	1.0	None	0.0	4.0	hexagonmagenta.gif	stop								0.31758093833900003																								0.0	0.514292001724	0.0009059906005860001	0.31758093833900003	1.0	s	529.7345790859999																																		2015_Jul_06_1138	60.0283088672	LearningTask	1	57	
120	-200.0	q	200.0																	0.0	0.0	0.0	0.0	24.0	1.0	97.0	1.0																													q	1.0	None	0.0	2.0	diamondgreen.gif	stop								0.350712060928																								2.03	0.514074087143	0.0009291172027589999	0.350712060928	1.0	q	532.737751961																																		2015_Jul_06_1138	60.0283088672	LearningTask	1	57	
121	-200.0	a	-200.0																	0.0	0.0	0.0	0.0	24.0	2.0	98.0	3.0																													a	1.0	None	0.0	0.5	linewhite.gif	go								0.417513847351																								0.73	0.51432800293	0.000900030136108	0.417513847351	1.0	a	535.7411580090001																																		2015_Jul_06_1138	60.0283088672	LearningTask	1	57	
122	-200.0	a	-200.0																	0.0	0.0	0.0	0.0	24.0	3.0	99.0	3.0																													a	1.0	None	0.0	1.0	crosscyan.gif	stop								0.351066112518																								1.06	0.5142021179199999	0.0008990764617919999	0.351066112518	1.0	a	538.7444911																																		2015_Jul_06_1138	60.0283088672	LearningTask	1	57	
123																				0.0	0.0	0.0	0.0																																																																															9.0	4.09225583076																															2015_Jul_06_1138	60.0283088672	LearningTask	1	57	
124	-200.0	q	200.0																	1.0	0.0	1.0	0.0	0.0	0.0	0.0	1.0																													q	1.0	None	0.0	4.0	triangleblue.gif	go								0.534379005432																								3.88	0.509961843491	0.000913858413696	0.534379005432	1.0	q	546.169902086																																		2015_Jul_06_1138	60.0283088672	LearningTask	1	57	
125	-200.0	a	-200.0																	1.0	0.0	1.0	0.0	0.0	1.0	1.0	3.0																													a	1.0	None	0.0	0.5	circleorange.gif	stop								0.367653846741																								0.42	0.513925075531	0.0008940696716310001	0.367653846741	1.0	a	549.17298007																																		2015_Jul_06_1138	60.0283088672	LearningTask	1	57	
126	200.0	w	200.0																	1.0	0.0	1.0	0.0	0.0	2.0	2.0	0.0																													w	1.0	None	0.0	1.0	invertedtriangleyellow.gif	go								0.400909900665																								0.98	0.5140461921689999	0.0008950233459470001	0.400909900665	1.0	w	552.176258087																																		2015_Jul_06_1138	60.0283088672	LearningTask	1	57	
127	-200.0	q	200.0																	1.0	0.0	1.0	0.0	0.0	3.0	3.0	1.0																													q	1.0	None	0.0	2.0	diamondgreen.gif	stop								0.350319862366																								1.75	0.5146369934080001	0.00109100341797	0.350319862366	1.0	q	555.17943716																																		2015_Jul_06_1138	60.0283088672	LearningTask	1	57	
128	200.0	w	200.0																	1.0	0.0	1.0	0.0	1.0	0.0	4.0	0.0																													w	1.0	None	0.0	1.0	invertedtriangleyellow.gif	go								0.368057012558																								0.0	0.514470100403	0.000892877578735	0.368057012558	1.0	w	558.182672024																																		2015_Jul_06_1138	60.0283088672	LearningTask	1	57	
129	200.0	s	-200.0																	1.0	0.0	1.0	0.0	1.0	1.0	5.0	2.0																													s	1.0	None	0.0	1.0	crosscyan.gif	stop								0.33399105071999996																								0.93	0.514256000519	0.0009360313415529999	0.33399105071999996	1.0	s	561.18643117																																		2015_Jul_06_1138	60.0283088672	LearningTask	1	57	
130	200.0	s	-200.0																	1.0	0.0	1.0	0.0	1.0	2.0	6.0	2.0																													s	1.0	None	0.0	4.0	hexagonmagenta.gif	stop								0.334183931351																								4.23	0.513673067093	0.0009589195251460001	0.334183931351	1.0	s	564.189619064																																		2015_Jul_06_1138	60.0283088672	LearningTask	1	57	
131	200.0	s	-200.0																	1.0	0.0	1.0	0.0	1.0	3.0	7.0	2.0																													s	1.0	None	0.0	4.0	hexagonmagenta.gif	stop								0.317276000977																								3.81	0.51438498497	0.000926971435547	0.317276000977	1.0	s	567.193068981																																		2015_Jul_06_1138	60.0283088672	LearningTask	1	57	
132	-200.0	q	200.0																	1.0	0.0	1.0	0.0	2.0	0.0	8.0	1.0																													q	1.0	None	0.0	1.0	crosscyan.gif	stop								0.617945194244																								0.93	0.51403594017	0.0009019374847410001	0.617945194244	1.0	q	570.196269989																																		2015_Jul_06_1138	60.0283088672	LearningTask	1	57	
133	200.0	s	-200.0																	1.0	0.0	1.0	0.0	2.0	1.0	9.0	2.0																													s	1.0	None	0.0	0.5	circleorange.gif	stop								0.318321943283																								0.65	0.5138251781459999	0.0009169578552250001	0.318321943283	1.0	s	573.1995539669999																																		2015_Jul_06_1138	60.0283088672	LearningTask	1	57	
134	-200.0	a	-200.0																	1.0	0.0	1.0	0.0	2.0	2.0	10.0	3.0																													a	1.0	None	0.0	2.0	squaregray.gif	go								0.450795173645																								0.0	0.514385938644	0.000926971435547	0.467679977417	0.0	q	576.202949047	0.509459018707			2.16	0.515534877777	0.000977039337158	0.450795173645	1.0	a	579.2068860530001																								2015_Jul_06_1138	60.0283088672	LearningTask	1	57	
135	-200.0	q	200.0																	1.0	0.0	1.0	0.0	2.0	3.0	11.0	1.0																													q	1.0	None	0.0	2.0	diamondgreen.gif	stop								0.48410487174999994																								1.87	0.5135071277619999	0.000984907150269	0.48410487174999994	1.0	q	582.209797144																																		2015_Jul_06_1138	60.0283088672	LearningTask	1	57	
136	200.0	w	200.0																	1.0	0.0	1.0	0.0	3.0	0.0	12.0	0.0																													w	1.0	None	0.0	4.0	hexagonmagenta.gif	stop								0.484436988831																								3.95	0.514188051224	0.000951051712036	0.484436988831	1.0	w	585.212777138																																		2015_Jul_06_1138	60.0283088672	LearningTask	1	57	
137	-200.0	a	-200.0																	1.0	0.0	1.0	0.0	3.0	1.0	13.0	3.0																													a	1.0	None	0.0	0.5	linewhite.gif	go								0.38453793525700003																								0.55	0.514376878738	0.0008909702301030001	0.38453793525700003	1.0	a	588.217174053																																		2015_Jul_06_1138	60.0283088672	LearningTask	1	57	
138	200.0	s	-200.0																	1.0	0.0	1.0	0.0	3.0	2.0	14.0	2.0																													s	1.0	None	0.0	1.0	crosscyan.gif	stop								0.367562055588																								0.8	0.512931108475	0.000904083251953	0.367562055588	1.0	s	591.219694138																																		2015_Jul_06_1138	60.0283088672	LearningTask	1	57	
139	200.0	w	200.0																	1.0	0.0	1.0	0.0	3.0	3.0	15.0	0.0																													w	1.0	None	0.0	4.0	hexagonmagenta.gif	stop								0.451261997223																								4.22	0.514245033264	0.000951051712036	0.451261997223	1.0	w	594.222988129																																		2015_Jul_06_1138	60.0283088672	LearningTask	1	57	
140	-200.0	q	200.0																	1.0	0.0	1.0	0.0	4.0	0.0	16.0	1.0																													q	1.0	None	0.0	1.0	invertedtriangleyellow.gif	go								0.433969974518																								0.97	0.514491081238	0.0008919239044189998	0.433969974518	1.0	q	597.226984024																																		2015_Jul_06_1138	60.0283088672	LearningTask	1	57	
141	-200.0	a	-200.0																	1.0	0.0	1.0	0.0	4.0	1.0	17.0	3.0																													a	1.0	None	0.0	0.5	circleorange.gif	stop								0.38395690918000003																								0.0	0.513940095901	0.000900030136108	0.38395690918000003	1.0	a	600.230160952																																		2015_Jul_06_1138	60.0283088672	LearningTask	1	57	
142	-200.0	a	-200.0																	1.0	0.0	1.0	0.0	4.0	2.0	18.0	3.0																													a	1.0	None	0.0	0.5	circleorange.gif	stop								0.384136915207																								0.53	0.513998031616	0.00147700309753	0.384136915207	1.0	a	603.233566046																																		2015_Jul_06_1138	60.0283088672	LearningTask	1	57	
143	200.0	w	200.0																	1.0	0.0	1.0	0.0	4.0	3.0	19.0	0.0																													w	1.0	None	0.0	4.0	triangleblue.gif	go								0.451236963272																								4.05	0.513928174973	0.0008749961853029999	0.451236963272	1.0	w	606.236541033																																		2015_Jul_06_1138	60.0283088672	LearningTask	1	57	
144	-200.0	a	-200.0																	1.0	0.0	1.0	0.0	5.0	0.0	20.0	3.0																													a	1.0	None	0.0	0.5	circleorange.gif	stop								0.367410898209																								0.51	0.514341115952	0.000892162322998	0.367410898209	1.0	a	609.239719152																																		2015_Jul_06_1138	60.0283088672	LearningTask	1	57	
145	200.0	s	-200.0																	1.0	0.0	1.0	0.0	5.0	1.0	21.0	2.0																													s	1.0	None	0.0	1.0	crosscyan.gif	stop								0.334270000458																								0.81	0.514117002487	0.00107598304749	0.334270000458	1.0	s	612.2434630390001																																		2015_Jul_06_1138	60.0283088672	LearningTask	1	57	
146	-200.0	q	200.0																	1.0	0.0	1.0	0.0	5.0	2.0	22.0	1.0																													q	1.0	None	0.0	0.5	linewhite.gif	go								0.334563016891																								0.68	0.514211177826	0.000877141952515	0.334563016891	1.0	q	615.246538162																																		2015_Jul_06_1138	60.0283088672	LearningTask	1	57	
147	-200.0	q	200.0																	1.0	0.0	1.0	0.0	5.0	3.0	23.0	1.0																													q	1.0	None	0.0	2.0	diamondgreen.gif	stop								0.451275110245																								2.0	0.5142970085140001	0.0008790493011469999	0.451275110245	1.0	q	618.250456095																																		2015_Jul_06_1138	60.0283088672	LearningTask	1	57	
148	200.0	w	200.0																	1.0	0.0	1.0	0.0	6.0	0.0	24.0	0.0																													w	1.0	None	0.0	0.5	circleorange.gif	stop								0.384527921677																								0.28	0.513102054596	0.00090217590332	0.384527921677	1.0	w	621.2532410619999																																		2015_Jul_06_1138	60.0283088672	LearningTask	1	57	
149	200.0	s	-200.0																	1.0	0.0	1.0	0.0	6.0	1.0	25.0	2.0																													s	1.0	None	0.0	2.0	diamondgreen.gif	stop								0.334608793259																								1.78	0.51394701004	0.0008780956268310002	0.334608793259	1.0	s	624.256626129																																		2015_Jul_06_1138	60.0283088672	LearningTask	1	57	
150	200.0	w	200.0																	1.0	0.0	1.0	0.0	6.0	2.0	26.0	0.0																													w	1.0	None	0.0	1.0	invertedtriangleyellow.gif	go								0.36741399765																								1.1	0.514302015305	0.0008981227874760001	0.36741399765	1.0	w	627.260317087																																		2015_Jul_06_1138	60.0283088672	LearningTask	1	57	
151	200.0	w	200.0																	1.0	0.0	1.0	0.0	6.0	3.0	27.0	0.0																													w	1.0	None	0.0	1.0	crosscyan.gif	stop								0.384007930756																								0.92	0.51392698288	0.0008759498596189999	0.384007930756	1.0	w	630.263277054																																		2015_Jul_06_1138	60.0283088672	LearningTask	1	57	
152	-200.0	q	200.0																	1.0	0.0	1.0	0.0	7.0	0.0	28.0	1.0																													q	1.0	None	0.0	1.0	crosscyan.gif	stop								0.367887020111																								0.83	0.514342069626	0.0009560585021970001	0.367887020111	1.0	q	633.267110109																																		2015_Jul_06_1138	60.0283088672	LearningTask	1	57	
153	200.0	s	-200.0																	1.0	0.0	1.0	0.0	7.0	1.0	29.0	2.0																													s	1.0	None	0.0	4.0	triangleblue.gif	go								0.36757516861																								0.0	0.513944864273	0.0008718967437739999	0.36757516861	1.0	s	636.270437956																																		2015_Jul_06_1138	60.0283088672	LearningTask	1	57	
154	200.0	s	-200.0																	1.0	0.0	1.0	0.0	7.0	2.0	30.0	2.0																													s	1.0	None	0.0	4.0	triangleblue.gif	go								0.367202997208																								3.85	0.513874053955	0.00089693069458	0.367202997208	1.0	s	639.27343297																																		2015_Jul_06_1138	60.0283088672	LearningTask	1	57	
155	-200.0	a	-200.0																	1.0	0.0	1.0	0.0	7.0	3.0	31.0	3.0																													a	1.0	None	0.0	2.0	squaregray.gif	go								0.417457103729																								1.86	0.5142590999600001	0.00122213363647	0.417457103729	1.0	a	642.276710987																																		2015_Jul_06_1138	60.0283088672	LearningTask	1	57	
156	200.0	s	-200.0																	1.0	0.0	1.0	0.0	8.0	0.0	32.0	2.0																													s	1.0	None	0.0	0.5	linewhite.gif	go								0.35089802742																								0.73	0.514508008957	0.0008759498596189999	0.35089802742	1.0	s	645.280293941																																		2015_Jul_06_1138	60.0283088672	LearningTask	1	57	
157	200.0	s	-200.0																	1.0	0.0	1.0	0.0	8.0	1.0	33.0	2.0																													s	1.0	None	0.0	1.0	crosscyan.gif	stop								0.334290027618																								0.83	0.5141780376430001	0.000887155532837	0.334290027618	1.0	s	648.283215046																																		2015_Jul_06_1138	60.0283088672	LearningTask	1	57	
158	-200.0	a	-200.0																	1.0	0.0	1.0	0.0	8.0	2.0	34.0	3.0																													a	1.0	None	0.0	1.0	invertedtriangleyellow.gif	go								0.41688799858099995																								0.84	0.5150780677800001	0.00110697746277	0.41688799858099995	1.0	a	651.2866270540001																																		2015_Jul_06_1138	60.0283088672	LearningTask	1	57	
159	200.0	w	200.0																	1.0	0.0	1.0	0.0	8.0	3.0	35.0	0.0																													w	1.0	None	0.0	0.5	circleorange.gif	stop								0.567902088165																								0.26	0.5145411491390001	0.0008790493011469999	0.567902088165	1.0	w	654.290363073																																		2015_Jul_06_1138	60.0283088672	LearningTask	1	57	
160	200.0	w	200.0																	1.0	0.0	1.0	0.0	9.0	0.0	36.0	0.0																													w	1.0	None	0.0	4.0	triangleblue.gif	go								0.45070719718900004																								4.15	0.514205932617	0.0008709430694580001	0.45070719718900004	1.0	w	657.293583155																																		2015_Jul_06_1138	60.0283088672	LearningTask	1	57	
161	200.0	s	-200.0																	1.0	0.0	1.0	0.0	9.0	1.0	37.0	2.0																													s	1.0	None	0.0	2.0	diamondgreen.gif	stop								0.350989818573																								2.2	0.513871192932	0.0009350776672360002	0.350989818573	1.0	s	660.2969479559999																																		2015_Jul_06_1138	60.0283088672	LearningTask	1	57	
162	-200.0	q	200.0																	1.0	0.0	1.0	0.0	9.0	2.0	38.0	1.0																													q	1.0	None	0.0	0.5	linewhite.gif	go								0.5010199546809999																								0.41	0.514425992966	0.000885009765625	0.5010199546809999	1.0	q	663.300294161																																		2015_Jul_06_1138	60.0283088672	LearningTask	1	57	
163	-200.0	q	200.0																	1.0	0.0	1.0	0.0	9.0	3.0	39.0	1.0																													q	1.0	None	0.0	1.0	crosscyan.gif	stop								0.38422894477799996																								1.15	0.514054059982	0.0009601116180419999	0.38422894477799996	1.0	q	666.303802967																																		2015_Jul_06_1138	60.0283088672	LearningTask	1	57	
164	-200.0	q	200.0																	1.0	0.0	1.0	0.0	10.0	0.0	40.0	1.0																													q	1.0	None	0.0	2.0	squaregray.gif	go								0.350864887238																								2.2	0.5137271881100001	0.0008931159973139998	0.350864887238	1.0	q	669.306930065																																		2015_Jul_06_1138	60.0283088672	LearningTask	1	57	
165	-200.0	a	-200.0																	1.0	0.0	1.0	0.0	10.0	1.0	41.0	3.0																													a	1.0	None	0.0	0.5	linewhite.gif	go								0.417744874954																								0.71	0.514129161835	0.000869989395142	0.417744874954	1.0	a	672.310297966																																		2015_Jul_06_1138	60.0283088672	LearningTask	1	57	
166	200.0	w	200.0																	1.0	0.0	1.0	0.0	10.0	2.0	42.0	0.0																													w	1.0	None	0.0	1.0	crosscyan.gif	stop								0.350870847702																								0.0	0.514385938644	0.0009160041809079999	0.350870847702	1.0	w	675.31396699																																		2015_Jul_06_1138	60.0283088672	LearningTask	1	57	
167	200.0	w	200.0																	1.0	0.0	1.0	0.0	10.0	3.0	43.0	0.0																													w	1.0	None	0.0	0.5	linewhite.gif	go								0.400576114655																								0.55	0.513735055923	0.0008950233459470001	0.400576114655	1.0	w	678.317290068																																		2015_Jul_06_1138	60.0283088672	LearningTask	1	57	
168	200.0	w	200.0																	1.0	0.0	1.0	0.0	11.0	0.0	44.0	0.0																													w	1.0	None	0.0	4.0	triangleblue.gif	go								0.33440709114100003																								4.2	0.514003992081	0.0009520053863530001	0.33440709114100003	1.0	w	681.320687056																																		2015_Jul_06_1138	60.0283088672	LearningTask	1	57	
169	200.0	w	200.0																	1.0	0.0	1.0	0.0	11.0	1.0	45.0	0.0																													w	1.0	None	0.0	1.0	invertedtriangleyellow.gif	go								0.367399930954																								0.93	0.514121055603	0.0008740425109860002	0.367399930954	1.0	w	684.3240950109999																																		2015_Jul_06_1138	60.0283088672	LearningTask	1	57	
170	200.0	s	-200.0																	1.0	0.0	1.0	0.0	11.0	2.0	46.0	2.0																													s	1.0	None	0.0	1.0	invertedtriangleyellow.gif	go								0.40084099769599996																								1.13	0.514011859894	0.000900983810425	0.40084099769599996	1.0	s	687.32717514																																		2015_Jul_06_1138	60.0283088672	LearningTask	1	57	
171	-200.0	a	-200.0																	1.0	0.0	1.0	0.0	11.0	3.0	47.0	3.0																													a	1.0	None	0.0	0.5	circleorange.gif	stop								0.400948047638																								0.0	0.514144897461	0.000962018966675	0.400948047638	1.0	a	690.3304729460001																																		2015_Jul_06_1138	60.0283088672	LearningTask	1	57	
172	200.0	w	200.0																	1.0	0.0	1.0	0.0	12.0	0.0	48.0	0.0																													w	1.0	None	0.0	4.0	triangleblue.gif	go								0.300770044327																								4.02	0.514471054077	0.00119805335999	0.300770044327	1.0	w	693.3338849539999																																		2015_Jul_06_1138	60.0283088672	LearningTask	1	57	
173	-200.0	q	200.0																	1.0	0.0	1.0	0.0	12.0	1.0	49.0	1.0																													q	1.0	None	0.0	0.5	linewhite.gif	go								0.40119695663500005																								0.38	0.51434803009	0.0008840560913089999	0.40119695663500005	1.0	q	696.3372039789999																																		2015_Jul_06_1138	60.0283088672	LearningTask	1	57	
174	-200.0	a	-200.0																	1.0	0.0	1.0	0.0	12.0	2.0	50.0	3.0																													a	1.0	None	0.0	4.0	hexagonmagenta.gif	stop								0.367240905762																								3.87	0.514646053314	0.0010130405426	0.367240905762	1.0	a	699.340986013																																		2015_Jul_06_1138	60.0283088672	LearningTask	1	57	
175	200.0	w	200.0																	1.0	0.0	1.0	0.0	12.0	3.0	51.0	0.0																													w	1.0	None	0.0	1.0	crosscyan.gif	stop								0.333899974823																								1.0	0.5139720439909999	0.000882863998413	0.333899974823	1.0	w	702.343954086																																		2015_Jul_06_1138	60.0283088672	LearningTask	1	57	
176	-200.0	a	-200.0																	1.0	0.0	1.0	0.0	13.0	0.0	52.0	3.0																													a	1.0	None	0.0	0.5	linewhite.gif	go								0.40083694458																								0.43	0.514270067215	0.0008831024169919999	0.40083694458	1.0	a	705.347401142																																		2015_Jul_06_1138	60.0283088672	LearningTask	1	57	
177	200.0	w	200.0																	1.0	0.0	1.0	0.0	13.0	1.0	53.0	0.0																													w	1.0	None	0.0	2.0	squaregray.gif	go								0.333891153336																								1.77	0.51398396492	0.00103497505188	0.333891153336	1.0	w	708.350610971																																		2015_Jul_06_1138	60.0283088672	LearningTask	1	57	
178	-200.0	a	-200.0																	1.0	0.0	1.0	0.0	13.0	2.0	54.0	3.0																													a	1.0	None	0.0	0.5	linewhite.gif	go								0.417115926743																								0.39	0.514704942703	0.00088095664978	0.417115926743	1.0	a	711.354333162																																		2015_Jul_06_1138	60.0283088672	LearningTask	1	57	
179	-200.0	q	200.0																	1.0	0.0	1.0	0.0	13.0	3.0	55.0	1.0																													q	1.0	None	0.0	0.5	circleorange.gif	stop								0.41787314415																								0.0	0.5139210224149999	0.00117206573486	0.41787314415	1.0	q	714.357831001																																		2015_Jul_06_1138	60.0283088672	LearningTask	1	57	
180	-200.0	q	200.0																	1.0	0.0	1.0	0.0	14.0	0.0	56.0	1.0																													q	1.0	None	0.0	1.0	invertedtriangleyellow.gif	go								0.35083484649700003																								1.21	0.513547182083	0.0009059906005860001	0.35083484649700003	1.0	q	717.360568047																																		2015_Jul_06_1138	60.0283088672	LearningTask	1	57	
181	-200.0	a	-200.0																	1.0	0.0	1.0	0.0	14.0	1.0	57.0	3.0																													a	1.0	None	0.0	1.0	invertedtriangleyellow.gif	go								0.41806888580300006																								0.0	0.514388084412	0.0008959770202639998	0.41806888580300006	1.0	a	720.364381075																																		2015_Jul_06_1138	60.0283088672	LearningTask	1	57	
182	200.0	s	-200.0																	1.0	0.0	1.0	0.0	14.0	2.0	58.0	2.0																													s	1.0	None	0.0	0.5	circleorange.gif	stop								0.384186983109																								0.0	0.513997077942	0.000888109207153	0.384186983109	1.0	s	723.3676199910001																																		2015_Jul_06_1138	60.0283088672	LearningTask	1	57	
183	-200.0	a	-200.0																	1.0	0.0	1.0	0.0	14.0	3.0	59.0	3.0																													a	1.0	None	0.0	2.0	diamondgreen.gif	stop								0.634238004684																								2.11	0.51388502121	0.000904083251953	0.634238004684	1.0	a	726.370766163																																		2015_Jul_06_1138	60.0283088672	LearningTask	1	57	
184	200.0	w	200.0																	1.0	0.0	1.0	0.0	15.0	0.0	60.0	0.0																													w	1.0	None	0.0	0.5	linewhite.gif	go								0.40088081359899996																								0.28	0.514223098755	0.000994920730591	0.40088081359899996	1.0	w	729.373847008																																		2015_Jul_06_1138	60.0283088672	LearningTask	1	57	
185	200.0	s	-200.0																	1.0	0.0	1.0	0.0	15.0	1.0	61.0	2.0																													s	1.0	None	0.0	2.0	diamondgreen.gif	stop								0.36707520484899997																								1.92	0.514947891235	0.000888824462891	0.36707520484899997	1.0	s	732.378121138																																		2015_Jul_06_1138	60.0283088672	LearningTask	1	57	
186	200.0	s	-200.0																	1.0	0.0	1.0	0.0	15.0	2.0	62.0	2.0																													s	1.0	None	0.0	4.0	hexagonmagenta.gif	stop								0.351090908051																								3.83	0.513621091843	0.000888109207153	0.351090908051	1.0	s	735.380856037																																		2015_Jul_06_1138	60.0283088672	LearningTask	1	57	
187	-200.0	q	200.0																	1.0	0.0	1.0	0.0	15.0	3.0	63.0	1.0																													q	1.0	None	0.0	4.0	triangleblue.gif	go								0.567713975906																								4.23	0.5142140388490001	0.000946044921875	0.567713975906	1.0	q	738.3842339519999																																		2015_Jul_06_1138	60.0283088672	LearningTask	1	57	
188	200.0	w	200.0																	1.0	0.0	1.0	0.0	16.0	0.0	64.0	0.0																													w	1.0	None	0.0	1.0	crosscyan.gif	stop								0.45144081115699997																								0.88	0.5140311717989999	0.0008862018585209999	0.45144081115699997	1.0	w	741.3876211639999																																		2015_Jul_06_1138	60.0283088672	LearningTask	1	57	
189	-200.0	a	-200.0																	1.0	0.0	1.0	0.0	16.0	1.0	65.0	3.0																													a	1.0	None	0.0	1.0	crosscyan.gif	stop								0.38400292396499996																								1.04	0.5145690441130001	0.000885009765625	0.38400292396499996	1.0	a	744.3908660410001																																		2015_Jul_06_1138	60.0283088672	LearningTask	1	57	
190	-200.0	q	200.0																	1.0	0.0	1.0	0.0	16.0	2.0	66.0	1.0																													q	1.0	None	0.0	1.0	crosscyan.gif	stop								0.517899036407																								0.81	0.514053106308	0.00112509727478	0.517899036407	1.0	q	747.394606113																																		2015_Jul_06_1138	60.0283088672	LearningTask	1	57	
191	200.0	s	-200.0																	1.0	0.0	1.0	0.0	16.0	3.0	67.0	2.0																													s	1.0	None	0.0	0.5	circleorange.gif	stop								0.333798885345																								0.49	0.514061927795	0.0008878707885739998	0.333798885345	1.0	s	750.397618055																																		2015_Jul_06_1138	60.0283088672	LearningTask	1	57	
192	-200.0	a	-200.0																	1.0	0.0	1.0	0.0	17.0	0.0	68.0	3.0																													a	1.0	None	0.0	4.0	hexagonmagenta.gif	stop								0.434066057205																								4.12	0.514355897903	0.0008759498596189999	0.434066057205	1.0	a	753.401064157																																		2015_Jul_06_1138	60.0283088672	LearningTask	1	57	
193	200.0	s	-200.0																	1.0	0.0	1.0	0.0	17.0	1.0	69.0	2.0																													s	1.0	None	0.0	4.0	hexagonmagenta.gif	stop								0.317533969879																								3.88	0.514021873474	0.0010879039764400001	0.317533969879	1.0	s	756.404348135																																		2015_Jul_06_1138	60.0283088672	LearningTask	1	57	
194	-200.0	q	200.0																	1.0	0.0	1.0	0.0	17.0	2.0	70.0	1.0																													q	1.0	None	0.0	2.0	diamondgreen.gif	stop								0.684494972229																								0.0	0.514499902725	0.0008769035339360002	0.684494972229	1.0	q	759.407565117																																		2015_Jul_06_1138	60.0283088672	LearningTask	1	57	
195	-200.0	a	-200.0																	1.0	0.0	1.0	0.0	17.0	3.0	71.0	3.0																													a	1.0	None	0.0	4.0	hexagonmagenta.gif	stop								0.367647886276																								4.24	0.514241933823	0.0008950233459470001	0.367647886276	1.0	a	762.411503077																																		2015_Jul_06_1138	60.0283088672	LearningTask	1	57	
196	200.0	s	-200.0																	1.0	0.0	1.0	0.0	18.0	0.0	72.0	2.0																													s	1.0	None	0.0	2.0	squaregray.gif	go								0.334444046021																								1.82	0.513252019882	0.0008859634399410001	0.334444046021	1.0	s	765.4143581389999																																		2015_Jul_06_1138	60.0283088672	LearningTask	1	57	
197	200.0	s	-200.0																	1.0	0.0	1.0	0.0	18.0	1.0	73.0	2.0																													s	1.0	None	0.0	2.0	squaregray.gif	go								0.334868907928																								1.88	0.514400005341	0.0008790493011469999	0.334868907928	1.0	s	768.41774416																																		2015_Jul_06_1138	60.0283088672	LearningTask	1	57	
198	-200.0	a	-200.0																	1.0	0.0	1.0	0.0	18.0	2.0	74.0	3.0																													a	1.0	None	0.0	0.5	linewhite.gif	go								0.45075511932400003																								0.26	0.514253854752	0.000964879989624	0.45075511932400003	1.0	a	771.421431065																																		2015_Jul_06_1138	60.0283088672	LearningTask	1	57	
199	-200.0	q	200.0																	1.0	0.0	1.0	0.0	18.0	3.0	75.0	1.0																													q	1.0	None	0.0	1.0	invertedtriangleyellow.gif	go								0.41760110855099997																								1.2	0.513757944107	0.0008981227874760001	0.41760110855099997	1.0	q	774.424457073																																		2015_Jul_06_1138	60.0283088672	LearningTask	1	57	
200	-200.0	a	-200.0																	1.0	0.0	1.0	0.0	19.0	0.0	76.0	3.0																													a	1.0	None	0.0	2.0	diamondgreen.gif	stop								0.36772012710600005																								2.08	0.514323949814	0.0009570121765139998	0.36772012710600005	1.0	a	777.4282810689999																																		2015_Jul_06_1138	60.0283088672	LearningTask	1	57	
201	200.0	w	200.0																	1.0	0.0	1.0	0.0	19.0	1.0	77.0	0.0																													w	1.0	None	0.0	0.5	linewhite.gif	go								0.384428024292																								0.56	0.5138380527499999	0.0008769035339360002	0.384428024292	1.0	w	780.431579113																																		2015_Jul_06_1138	60.0283088672	LearningTask	1	57	
202	-200.0	a	-200.0																	1.0	0.0	1.0	0.0	19.0	2.0	78.0	3.0																													a	1.0	None	0.0	2.0	diamondgreen.gif	stop								0.351052045822																								0.0	0.513533115387	0.0008971691131589999	0.351052045822	1.0	a	783.43444109																																		2015_Jul_06_1138	60.0283088672	LearningTask	1	57	
203	-200.0	a	-200.0																	1.0	0.0	1.0	0.0	19.0	3.0	79.0	3.0																													a	1.0	None	0.0	2.0	squaregray.gif	go								0.384051084518																								1.92	0.514387845993	0.00092601776123	0.384051084518	1.0	a	786.4379739760001																																		2015_Jul_06_1138	60.0283088672	LearningTask	1	57	
204	200.0	s	-200.0																	1.0	0.0	1.0	0.0	20.0	0.0	80.0	2.0																													s	1.0	None	0.0	2.0	squaregray.gif	go								0.28417396545400003																								0.0	0.514302968979	0.000882863998413	0.28417396545400003	1.0	s	789.4416699410001																																		2015_Jul_06_1138	60.0283088672	LearningTask	1	57	
205	200.0	w	200.0																	1.0	0.0	1.0	0.0	20.0	1.0	81.0	0.0																													w	1.0	None	0.0	1.0	crosscyan.gif	stop								0.400871992111																								1.02	0.5138821601870001	0.000890016555786	0.400871992111	1.0	w	792.444988012																																		2015_Jul_06_1138	60.0283088672	LearningTask	1	57	
206	200.0	s	-200.0																	1.0	0.0	1.0	0.0	20.0	2.0	82.0	2.0																													s	1.0	None	0.0	0.5	circleorange.gif	stop								0.284163951874																								0.65	0.513692855835	0.00117778778076	0.284163951874	1.0	s	795.448347092																																		2015_Jul_06_1138	60.0283088672	LearningTask	1	57	
207	-200.0	q	200.0																	1.0	0.0	1.0	0.0	20.0	3.0	83.0	1.0																													q	1.0	None	0.0	2.0	squaregray.gif	go								0.36809206008900003																								0.0	0.5136380195620001	0.000887155532837	0.36809206008900003	1.0	q	798.451298952																																		2015_Jul_06_1138	60.0283088672	LearningTask	1	57	
208	-200.0	a	-200.0																	1.0	0.0	1.0	0.0	21.0	0.0	84.0	3.0																													a	1.0	None	0.0	1.0	crosscyan.gif	stop								0.5512142181399999																								0.0	0.514397144318	0.0008759498596189999	0.5512142181399999	1.0	a	801.454703093																																		2015_Jul_06_1138	60.0283088672	LearningTask	1	57	
209	200.0	s	-200.0																	1.0	0.0	1.0	0.0	21.0	1.0	85.0	2.0																													s	1.0	None	0.0	2.0	squaregray.gif	go								0.334256887436																								0.0	0.513991117477	0.0009250640869139999	0.334256887436	1.0	s	804.4584300519999																																		2015_Jul_06_1138	60.0283088672	LearningTask	1	57	
210	200.0	w	200.0																	1.0	0.0	1.0	0.0	21.0	2.0	86.0	0.0																													w	1.0	None	0.0	4.0	hexagonmagenta.gif	stop								0.551498174667																								0.0	0.5140378475190001	0.0008878707885739998	0.334273099899	0.0	s	807.46145606				4.18	0.515234947205	0.000946044921875	0.551498174667	1.0	w	810.4645521639999																								2015_Jul_06_1138	60.0283088672	LearningTask	1	57	
211	-200.0	q	200.0																	1.0	0.0	1.0	0.0	21.0	3.0	87.0	1.0																													q	1.0	None	0.0	0.5	circleorange.gif	stop								0.401563167572																								0.67	0.514083862305	0.0009198188781739999	0.401563167572	1.0	q	813.4682371619999																																		2015_Jul_06_1138	60.0283088672	LearningTask	1	57	
212	-200.0	q	200.0																	1.0	0.0	1.0	0.0	22.0	0.0	88.0	1.0																													q	1.0	None	0.0	2.0	squaregray.gif	go								0.36734104156499997																								2.18	0.514330148697	0.000890016555786	0.36734104156499997	1.0	q	816.4714529510001																																		2015_Jul_06_1138	60.0283088672	LearningTask	1	57	
213	200.0	w	200.0																	1.0	0.0	1.0	0.0	22.0	1.0	89.0	0.0																													w	1.0	None	0.0	0.5	linewhite.gif	go								0.400642871857																								0.73	0.514205932617	0.000898838043213	0.400642871857	1.0	w	819.474930048																																		2015_Jul_06_1138	60.0283088672	LearningTask	1	57	
214	-200.0	q	200.0																	1.0	0.0	1.0	0.0	22.0	2.0	90.0	1.0																													q	1.0	None	0.0	0.5	circleorange.gif	stop								0.617777824402																								0.29	0.513917922974	0.0009059906005860001	0.617777824402	1.0	q	822.478379011																																		2015_Jul_06_1138	60.0283088672	LearningTask	1	57	
215	-200.0	q	200.0																	1.0	0.0	1.0	0.0	22.0	3.0	91.0	1.0																													q	1.0	None	0.0	0.5	linewhite.gif	go								0.384122848511																								0.55	0.514182806015	0.000922918319702	0.384122848511	1.0	q	825.481938124																																		2015_Jul_06_1138	60.0283088672	LearningTask	1	57	
216	-200.0	a	-200.0																	1.0	0.0	1.0	0.0	23.0	0.0	92.0	3.0																													a	1.0	None	0.0	2.0	diamondgreen.gif	stop								0.484490871429																								1.9	0.513902902603	0.0013108253479	0.484490871429	1.0	a	828.485491037																																		2015_Jul_06_1138	60.0283088672	LearningTask	1	57	
217	200.0	s	-200.0																	1.0	0.0	1.0	0.0	23.0	1.0	93.0	2.0																													s	1.0	None	0.0	4.0	triangleblue.gif	go								0.36729001998899996																								3.87	0.513659954071	0.000898838043213	0.36729001998899996	1.0	s	831.4882600310001																																		2015_Jul_06_1138	60.0283088672	LearningTask	1	57	
218	200.0	w	200.0																	1.0	0.0	1.0	0.0	23.0	2.0	94.0	0.0																													w	1.0	None	0.0	0.5	circleorange.gif	stop								0.383755922318																								0.0	0.514266014099	0.0009140968322749999	0.383755922318	1.0	w	834.491353035																																		2015_Jul_06_1138	60.0283088672	LearningTask	1	57	
219	-200.0	q	200.0																	1.0	0.0	1.0	0.0	23.0	3.0	95.0	1.0																													q	1.0	None	0.0	2.0	diamondgreen.gif	stop								0.383883953094																								1.76	0.514852046967	0.0009150505065920001	0.383883953094	1.0	q	837.495012045																																		2015_Jul_06_1138	60.0283088672	LearningTask	1	57	
220	-200.0	q	200.0																	1.0	0.0	1.0	0.0	24.0	0.0	96.0	1.0																													q	1.0	None	0.0	4.0	hexagonmagenta.gif	stop								0.35081696510300003																								0.0	0.5142509937290001	0.000880002975464	0.35081696510300003	1.0	q	840.4980950360001																																		2015_Jul_06_1138	60.0283088672	LearningTask	1	57	
221	-200.0	a	-200.0																	1.0	0.0	1.0	0.0	24.0	1.0	97.0	3.0																													a	1.0	None	0.0	2.0	diamondgreen.gif	stop								0.450341939926																								2.07	0.515086174011	0.00106406211853	0.450341939926	1.0	a	843.501485109																																		2015_Jul_06_1138	60.0283088672	LearningTask	1	57	
222	200.0	s	-200.0																	1.0	0.0	1.0	0.0	24.0	2.0	98.0	2.0																													s	1.0	None	0.0	1.0	invertedtriangleyellow.gif	go								0.38441491127																								0.82	0.514739990234	0.000926971435547	0.38441491127	1.0	s	846.505006075																																		2015_Jul_06_1138	60.0283088672	LearningTask	1	57	
223	200.0	w	200.0																	1.0	0.0	1.0	0.0	24.0	3.0	99.0	0.0																													w	1.0	None	0.0	2.0	diamondgreen.gif	stop								0.36782288551299996																								1.77	0.514381170273	0.0008759498596189999	0.36782288551299996	1.0	w	849.508510113																																		2015_Jul_06_1138	60.0283088672	LearningTask	1	57	
224																				1.0	0.0	1.0	0.0																																																																															9.0	2.25649499893																															2015_Jul_06_1138	60.0283088672	LearningTask	1	57	
225	-200.0	q	200.0																	2.0	0.0	2.0	0.0	0.0	0.0	0.0	1.0																													q	1.0	None	0.0	2.0	squaregray.gif	go								0.41775608062700004																								2.17	0.509958028793	0.00086498260498	0.41775608062700004	1.0	q	855.3820171360001																																		2015_Jul_06_1138	60.0283088672	LearningTask	1	57	
226	200.0	s	-200.0																	2.0	0.0	2.0	0.0	0.0	1.0	1.0	2.0																													s	1.0	None	0.0	1.0	crosscyan.gif	stop								0.333855867386																								1.21	0.513844013214	0.0010688304901099999	0.333855867386	1.0	s	858.3850591180001																																		2015_Jul_06_1138	60.0283088672	LearningTask	1	57	
227	-200.0	q	200.0																	2.0	0.0	2.0	0.0	0.0	2.0	2.0	1.0																													q	1.0	None	0.0	2.0	squaregray.gif	go								0.35070204734800003																								1.78	0.514255046844	0.0011351108550999999	0.35070204734800003	1.0	q	861.38825202																																		2015_Jul_06_1138	60.0283088672	LearningTask	1	57	
228	200.0	s	-200.0																	2.0	0.0	2.0	0.0	0.0	3.0	3.0	2.0																													s	1.0	None	0.0	0.5	circleorange.gif	stop								0.35053014755199996																								0.32	0.5145790576929999	0.0008862018585209999	0.35053014755199996	1.0	s	864.3922050000001																																		2015_Jul_06_1138	60.0283088672	LearningTask	1	57	
229	-200.0	q	200.0																	2.0	0.0	2.0	0.0	1.0	0.0	4.0	1.0																													q	1.0	None	0.0	4.0	triangleblue.gif	go								0.41809320449799997																								0.0	0.5133290290829999	0.000904083251953	0.41809320449799997	1.0	q	867.3950390819999																																		2015_Jul_06_1138	60.0283088672	LearningTask	1	57	
230	200.0	w	200.0																	2.0	0.0	2.0	0.0	1.0	1.0	5.0	0.0																													w	1.0	None	0.0	0.5	linewhite.gif	go								0.36705303192100003																								0.74	0.514539957047	0.00089693069458	0.36705303192100003	1.0	w	870.398394108																																		2015_Jul_06_1138	60.0283088672	LearningTask	1	57	
231	-200.0	q	200.0																	2.0	0.0	2.0	0.0	1.0	2.0	6.0	1.0																													q	1.0	None	0.0	2.0	squaregray.gif	go								0.367911100388																								1.86	0.5141780376430001	0.0008749961853029999	0.367911100388	1.0	q	873.4017651080001																																		2015_Jul_06_1138	60.0283088672	LearningTask	1	57	
232	200.0	s	-200.0																	2.0	0.0	2.0	0.0	1.0	3.0	7.0	2.0																													s	1.0	None	0.0	1.0	invertedtriangleyellow.gif	go								0.333577156067																								0.98	0.514215946198	0.00089693069458	0.333577156067	1.0	s	876.405581951																																		2015_Jul_06_1138	60.0283088672	LearningTask	1	57	
233	200.0	s	-200.0																	2.0	0.0	2.0	0.0	2.0	0.0	8.0	2.0																													s	1.0	None	0.0	1.0	invertedtriangleyellow.gif	go								0.351002931595																								1.03	0.5134100914	0.00103712081909	0.351002931595	1.0	s	879.408807993																																		2015_Jul_06_1138	60.0283088672	LearningTask	1	57	
234	-200.0	a	-200.0																	2.0	0.0	2.0	0.0	2.0	1.0	9.0	3.0																													a	1.0	None	0.0	2.0	squaregray.gif	go								0.451066017151																								0.0	0.513869047165	0.000869035720825	0.451066017151	1.0	a	882.412071943																																		2015_Jul_06_1138	60.0283088672	LearningTask	1	57	
235	200.0	s	-200.0																	2.0	0.0	2.0	0.0	2.0	2.0	10.0	2.0																													s	1.0	None	0.0	0.5	linewhite.gif	go								0.33410787582400003																								0.6	0.513777971268	0.0008869171142580001	0.33410787582400003	1.0	s	885.4151551719999																																		2015_Jul_06_1138	60.0283088672	LearningTask	1	57	
236	-200.0	q	200.0																	2.0	0.0	2.0	0.0	2.0	3.0	11.0	1.0																													q	1.0	None	0.0	0.5	circleorange.gif	stop								0.334194898605																								0.4	0.5143861770629999	0.000881195068359	0.334194898605	1.0	q	888.418589115																																		2015_Jul_06_1138	60.0283088672	LearningTask	1	57	
237	200.0	w	200.0																	2.0	0.0	2.0	0.0	3.0	0.0	12.0	0.0																													w	1.0	None	0.0	4.0	hexagonmagenta.gif	stop								0.367513895035																								0.0	0.51448392868	0.00095009803772	0.367513895035	1.0	w	891.422013998																																		2015_Jul_06_1138	60.0283088672	LearningTask	1	57	
238	-200.0	q	200.0																	2.0	0.0	2.0	0.0	3.0	1.0	13.0	1.0																													q	1.0	None	0.0	2.0	squaregray.gif	go								0.418168067932																								2.21	0.514198064804	0.000890016555786	0.418168067932	1.0	q	894.425721169																																		2015_Jul_06_1138	60.0283088672	LearningTask	1	57	
239	200.0	w	200.0																	2.0	0.0	2.0	0.0	3.0	2.0	14.0	0.0																													w	1.0	None	0.0	0.5	linewhite.gif	go								0.400676012039																								0.37	0.513818025589	0.000904083251953	0.400676012039	1.0	w	897.428980112																																		2015_Jul_06_1138	60.0283088672	LearningTask	1	57	
240	-200.0	a	-200.0																	2.0	0.0	2.0	0.0	3.0	3.0	15.0	3.0																													a	1.0	None	0.0	0.5	circleorange.gif	stop								0.417694091797																								0.59	0.513783931732	0.000881910324097	0.417694091797	1.0	a	900.4320411680001																																		2015_Jul_06_1138	60.0283088672	LearningTask	1	57	
241	-200.0	a	-200.0																	2.0	0.0	2.0	0.0	4.0	0.0	16.0	3.0																													a	1.0	None	0.0	4.0	triangleblue.gif	go								0.38382911682099996																								3.86	0.514390945435	0.0008718967437739999	0.38382911682099996	1.0	a	903.435274124																																		2015_Jul_06_1138	60.0283088672	LearningTask	1	57	
242	200.0	w	200.0																	2.0	0.0	2.0	0.0	4.0	1.0	17.0	0.0																													w	1.0	None	0.0	4.0	triangleblue.gif	go								0.41779303550700003																								4.19	0.514095067978	0.0009589195251460001	0.41779303550700003	1.0	w	906.438903093																																		2015_Jul_06_1138	60.0283088672	LearningTask	1	57	
243	200.0	s	-200.0																	2.0	0.0	2.0	0.0	4.0	2.0	18.0	2.0																													s	1.0	None	0.0	4.0	hexagonmagenta.gif	stop								0.31721901893599996																								4.23	0.5140600204469999	0.000934839248657	0.31721901893599996	1.0	s	909.4423511030001																																		2015_Jul_06_1138	60.0283088672	LearningTask	1	57	
244	200.0	w	200.0																	2.0	0.0	2.0	0.0	4.0	3.0	19.0	0.0																													w	1.0	None	0.0	0.5	linewhite.gif	go								0.383852005005																								0.0	0.5142061710360001	0.000877141952515	0.383852005005	1.0	w	912.4451920989999																																		2015_Jul_06_1138	60.0283088672	LearningTask	1	57	
245	-200.0	q	200.0																	2.0	0.0	2.0	0.0	5.0	0.0	20.0	1.0																													q	1.0	None	0.0	4.0	hexagonmagenta.gif	stop								0.35138297081000003																								3.9	0.514230966568	0.000926971435547	0.35138297081000003	1.0	q	915.448945999																																		2015_Jul_06_1138	60.0283088672	LearningTask	1	57	
246	200.0	s	-200.0																	2.0	0.0	2.0	0.0	5.0	1.0	21.0	2.0																													s	1.0	None	0.0	1.0	crosscyan.gif	stop								0.367059230804																								0.0	0.5144741535189999	0.00116801261902	0.367059230804	1.0	s	918.4520921710001																																		2015_Jul_06_1138	60.0283088672	LearningTask	1	57	
247	200.0	w	200.0																	2.0	0.0	2.0	0.0	5.0	2.0	22.0	0.0																													w	1.0	None	0.0	2.0	diamondgreen.gif	stop								0.38389706611599994																								1.75	0.514630079269	0.0008761882781980001	0.38389706611599994	1.0	w	921.455574036																																		2015_Jul_06_1138	60.0283088672	LearningTask	1	57	
248	-200.0	a	-200.0																	2.0	0.0	2.0	0.0	5.0	3.0	23.0	3.0																													a	1.0	None	0.0	1.0	crosscyan.gif	stop								0.383954048157																								1.04	0.514136075974	0.0008831024169919999	0.383954048157	1.0	a	924.458801985																																		2015_Jul_06_1138	60.0283088672	LearningTask	1	57	
249	-200.0	a	-200.0																	2.0	0.0	2.0	0.0	6.0	0.0	24.0	3.0																													a	1.0	None	0.0	2.0	squaregray.gif	go								0.41747784614600003																								0.0	0.514129161835	0.0009331703186039999	0.41747784614600003	1.0	a	927.4622039789999																																		2015_Jul_06_1138	60.0283088672	LearningTask	1	57	
250	200.0	s	-200.0																	2.0	0.0	2.0	0.0	6.0	1.0	25.0	2.0																													s	1.0	None	0.0	0.5	linewhite.gif	go								0.334400177002																								0.0	0.514196872711	0.00088095664978	0.334400177002	1.0	s	930.465579033																																		2015_Jul_06_1138	60.0283088672	LearningTask	1	57	
251	-200.0	q	200.0																	2.0	0.0	2.0	0.0	6.0	2.0	26.0	1.0																													q	1.0	None	0.0	4.0	triangleblue.gif	go								0.551205873489																								4.02	0.513786077499	0.0009450912475589999	0.551205873489	1.0	q	933.4685571189999																																		2015_Jul_06_1138	60.0283088672	LearningTask	1	57	
252	-200.0	q	200.0																	2.0	0.0	2.0	0.0	6.0	3.0	27.0	1.0																													q	1.0	None	0.0	4.0	hexagonmagenta.gif	stop								0.384151935577																								3.93	0.514561891556	0.0008769035339360002	0.384151935577	1.0	q	936.47213006																																		2015_Jul_06_1138	60.0283088672	LearningTask	1	57	
253	200.0	w	200.0																	2.0	0.0	2.0	0.0	7.0	0.0	28.0	0.0																													w	1.0	None	0.0	1.0	invertedtriangleyellow.gif	go								0.40037608146700004																								0.0	0.514691114426	0.0008740425109860002	0.40037608146700004	1.0	w	939.4757120610001																																		2015_Jul_06_1138	60.0283088672	LearningTask	1	57	
254	-200.0	q	200.0																	2.0	0.0	2.0	0.0	7.0	1.0	29.0	1.0																													q	1.0	None	0.0	0.5	circleorange.gif	stop								0.367217063904																								0.0	0.514059066772	0.0008959770202639998	0.367217063904	1.0	q	942.4792070389999																																		2015_Jul_06_1138	60.0283088672	LearningTask	1	57	
255	200.0	s	-200.0																	2.0	0.0	2.0	0.0	7.0	2.0	30.0	2.0																													s	1.0	None	0.0	0.5	circleorange.gif	stop								0.33448600769000003																								0.63	0.5141270160679999	0.000996828079224	0.33448600769000003	1.0	s	945.482551098																																		2015_Jul_06_1138	60.0283088672	LearningTask	1	57	
256	-200.0	a	-200.0																	2.0	0.0	2.0	0.0	7.0	3.0	31.0	3.0																													a	1.0	None	0.0	4.0	hexagonmagenta.gif	stop								0.417675018311																								3.86	0.5139491558070001	0.0008940696716310001	0.417675018311	1.0	a	948.4857079980001																																		2015_Jul_06_1138	60.0283088672	LearningTask	1	57	
257	-200.0	a	-200.0																	2.0	0.0	2.0	0.0	8.0	0.0	32.0	3.0																													a	1.0	None	0.0	2.0	squaregray.gif	go								0.46752500534100006																								2.09	0.514464855194	0.0008718967437739999	0.46752500534100006	1.0	a	951.4890329839999																																		2015_Jul_06_1138	60.0283088672	LearningTask	1	57	
258	200.0	s	-200.0																	2.0	0.0	2.0	0.0	8.0	1.0	33.0	2.0																													s	1.0	None	0.0	2.0	squaregray.gif	go								0.334262132645																								2.2	0.514242887497	0.000968933105469	0.334262132645	1.0	s	954.4924590589999																																		2015_Jul_06_1138	60.0283088672	LearningTask	1	57	
259	-200.0	q	200.0																	2.0	0.0	2.0	0.0	8.0	2.0	34.0	1.0																													q	1.0	None	0.0	4.0	hexagonmagenta.gif	stop								0.334141016006																								4.1	0.514476060867	0.000881195068359	0.334141016006	1.0	q	957.495697975																																		2015_Jul_06_1138	60.0283088672	LearningTask	1	57	
260	-200.0	q	200.0																	2.0	0.0	2.0	0.0	8.0	3.0	35.0	1.0																													q	1.0	None	0.0	2.0	diamondgreen.gif	stop								0.36766982078599997																								2.05	0.514097929001	0.000881910324097	0.36766982078599997	1.0	q	960.499063969																																		2015_Jul_06_1138	60.0283088672	LearningTask	1	57	
261	-200.0	q	200.0																	2.0	0.0	2.0	0.0	9.0	0.0	36.0	1.0																													q	1.0	None	0.0	2.0	squaregray.gif	go								0.38424992561300003																								2.23	0.514004945755	0.0009169578552250001	0.38424992561300003	1.0	q	963.502334118																																		2015_Jul_06_1138	60.0283088672	LearningTask	1	57	
262	200.0	w	200.0																	2.0	0.0	2.0	0.0	9.0	1.0	37.0	0.0																													w	1.0	None	0.0	1.0	invertedtriangleyellow.gif	go								0.434049129486																								0.0	0.514466047287	0.0008780956268310002	0.434049129486	1.0	w	966.505861998																																		2015_Jul_06_1138	60.0283088672	LearningTask	1	57	
263	200.0	s	-200.0																	2.0	0.0	2.0	0.0	9.0	2.0	38.0	2.0																													s	1.0	None	0.0	1.0	invertedtriangleyellow.gif	go								0.350644826889																								0.87	0.514367103577	0.000880002975464	0.350644826889	1.0	s	969.509220123																																		2015_Jul_06_1138	60.0283088672	LearningTask	1	57	
264	-200.0	q	200.0																	2.0	0.0	2.0	0.0	9.0	3.0	39.0	1.0																													q	1.0	None	0.0	4.0	hexagonmagenta.gif	stop								0.41736602783200005																								4.14	0.514256954193	0.0008950233459470001	0.41736602783200005	1.0	q	972.5124211310001																																		2015_Jul_06_1138	60.0283088672	LearningTask	1	57	
265	200.0	s	-200.0																	2.0	0.0	2.0	0.0	10.0	0.0	40.0	2.0																													s	1.0	None	0.0	4.0	triangleblue.gif	go								0.367617845535																								0.0	0.5142171382899999	0.000930070877075	0.367617845535	1.0	s	975.5156519410001																																		2015_Jul_06_1138	60.0283088672	LearningTask	1	57	
266	200.0	w	200.0																	2.0	0.0	2.0	0.0	10.0	1.0	41.0	0.0																													w	1.0	None	0.0	0.5	circleorange.gif	stop								0.36765885353100003																								0.62	0.514704227448	0.000877141952515	0.36765885353100003	1.0	w	978.519623995																																		2015_Jul_06_1138	60.0283088672	LearningTask	1	57	
267	200.0	s	-200.0																	2.0	0.0	2.0	0.0	10.0	2.0	42.0	2.0																													s	1.0	None	0.0	0.5	circleorange.gif	stop								0.333622932434																								0.44	0.513947963715	0.0009129047393799999	0.333622932434	1.0	s	981.5225980280001																																		2015_Jul_06_1138	60.0283088672	LearningTask	1	57	
268	-200.0	a	-200.0																	2.0	0.0	2.0	0.0	10.0	3.0	43.0	3.0																													a	1.0	None	0.0	2.0	diamondgreen.gif	stop								0.400961875916																								0.0	0.514414072037	0.0008761882781980001	0.384569168091	0.0	q	984.525943041				0.0	0.515771150589	0.000962018966675	0.400961875916	1.0	a	987.52986002																								2015_Jul_06_1138	60.0283088672	LearningTask	1	57	
269	200.0	s	-200.0																	2.0	0.0	2.0	0.0	11.0	0.0	44.0	2.0																													s	1.0	None	0.0	1.0	crosscyan.gif	stop								0.38450193405199995																								1.03	0.513473987579	0.0008749961853029999	0.38450193405199995	1.0	s	990.5329451560001																																		2015_Jul_06_1138	60.0283088672	LearningTask	1	57	
270	-200.0	q	200.0																	2.0	0.0	2.0	0.0	11.0	1.0	45.0	1.0																													q	1.0	None	0.0	0.5	linewhite.gif	go								0.434159994125																								0.34	0.51411485672	0.00100207328796	0.434159994125	1.0	q	993.5357551569999																																		2015_Jul_06_1138	60.0283088672	LearningTask	1	57	
271	-200.0	a	-200.0																	2.0	0.0	2.0	0.0	11.0	2.0	46.0	3.0																													a	1.0	None	0.0	2.0	diamondgreen.gif	stop								0.417422056198																								2.06	0.514601945877	0.0008959770202639998	0.417422056198	1.0	a	996.53948617																																		2015_Jul_06_1138	60.0283088672	LearningTask	1	57	
272	200.0	w	200.0																	2.0	0.0	2.0	0.0	11.0	3.0	47.0	0.0																													w	1.0	None	0.0	0.5	circleorange.gif	stop								0.434586048126																								0.63	0.514122009277	0.0008869171142580001	0.434586048126	1.0	w	999.5426919460001																																		2015_Jul_06_1138	60.0283088672	LearningTask	1	57	
273	200.0	w	200.0																	2.0	0.0	2.0	0.0	12.0	0.0	48.0	0.0																													w	1.0	None	0.0	2.0	diamondgreen.gif	stop								0.4510409832																								1.82	0.514292955399	0.0009808540344239999	0.4510409832	1.0	w	1002.54636598																																		2015_Jul_06_1138	60.0283088672	LearningTask	1	57	
274	200.0	w	200.0																	2.0	0.0	2.0	0.0	12.0	1.0	49.0	0.0																													w	1.0	None	0.0	0.5	circleorange.gif	stop								0.400862932205																								0.38	0.514044046402	0.00088906288147	0.400862932205	1.0	w	1005.54954195																																		2015_Jul_06_1138	60.0283088672	LearningTask	1	57	
275	-200.0	q	200.0																	2.0	0.0	2.0	0.0	12.0	2.0	50.0	1.0																													q	1.0	None	0.0	4.0	hexagonmagenta.gif	stop								0.53420996666																								4.15	0.514323949814	0.000881910324097	0.53420996666	1.0	q	1008.55313706																																		2015_Jul_06_1138	60.0283088672	LearningTask	1	57	
276	-200.0	q	200.0																	2.0	0.0	2.0	0.0	12.0	3.0	51.0	1.0																													q	1.0	None	0.0	2.0	diamondgreen.gif	stop								0.518410921097																								2.06	0.513438940048	0.000888109207153	0.518410921097	1.0	q	1011.55630112																																		2015_Jul_06_1138	60.0283088672	LearningTask	1	57	
277	200.0	w	200.0																	2.0	0.0	2.0	0.0	13.0	0.0	52.0	0.0																													w	1.0	None	0.0	4.0	triangleblue.gif	go								0.467664957047																								0.0	0.514368057251	0.0008780956268310002	0.467664957047	1.0	w	1014.55946898																																		2015_Jul_06_1138	60.0283088672	LearningTask	1	57	
278	-200.0	q	200.0																	2.0	0.0	2.0	0.0	13.0	1.0	53.0	1.0																													q	1.0	None	0.0	1.0	crosscyan.gif	stop								0.401361942291																								0.79	0.5142381191250001	0.0008831024169919999	0.401361942291	1.0	q	1017.56291103																																		2015_Jul_06_1138	60.0283088672	LearningTask	1	57	
279	-200.0	q	200.0																	2.0	0.0	2.0	0.0	13.0	2.0	54.0	1.0																													q	1.0	None	0.0	4.0	triangleblue.gif	go								0.45074796676600004																								4.01	0.5142819881440001	0.000890016555786	0.45074796676600004	1.0	q	1020.56623602																																		2015_Jul_06_1138	60.0283088672	LearningTask	1	57	
280	-200.0	a	-200.0																	2.0	0.0	2.0	0.0	13.0	3.0	55.0	3.0																													a	1.0	None	0.0	4.0	hexagonmagenta.gif	stop								0.48414683342																								0.0	0.514381885529	0.0011510848999000001	0.48414683342	1.0	a	1023.56973004																																		2015_Jul_06_1138	60.0283088672	LearningTask	1	57	
281	200.0	w	200.0																	2.0	0.0	2.0	0.0	14.0	0.0	56.0	0.0																													w	1.0	None	0.0	4.0	triangleblue.gif	go								0.417441129684																								3.82	0.514056921005	0.0008978843688960001	0.417441129684	1.0	w	1026.57312703																																		2015_Jul_06_1138	60.0283088672	LearningTask	1	57	
282	200.0	w	200.0																	2.0	0.0	2.0	0.0	14.0	1.0	57.0	0.0																													w	1.0	None	0.0	0.5	circleorange.gif	stop								0.384439945221																								0.56	0.514042139053	0.000900983810425	0.384439945221	1.0	w	1029.57617402																																		2015_Jul_06_1138	60.0283088672	LearningTask	1	57	
283	200.0	s	-200.0																	2.0	0.0	2.0	0.0	14.0	2.0	58.0	2.0																													s	1.0	None	0.0	2.0	diamondgreen.gif	stop								0.38405704498300003																								1.89	0.514609098434	0.000881195068359	0.38405704498300003	1.0	s	1032.57963896																																		2015_Jul_06_1138	60.0283088672	LearningTask	1	57	
284	200.0	s	-200.0																	2.0	0.0	2.0	0.0	14.0	3.0	59.0	2.0																													s	1.0	None	0.0	2.0	squaregray.gif	go								0.40063905715899994																								2.23	0.51457285881	0.0008859634399410001	0.40063905715899994	1.0	s	1035.5831461																																		2015_Jul_06_1138	60.0283088672	LearningTask	1	57	
