	xPos	corrAns	yPos	corrGoResp	yPosGoStim	xPosGoStim	pracTrials.thisRepN	pracTrials.thisTrialN	pracTrials.thisN	pracTrials.thisIndex	ReDoLoopPrac.thisRepN	ReDoLoopPrac.thisTrialN	ReDoLoopPrac.thisN	ReDoLoopPrac.thisIndex	ReDoLoopPrac.thisTrial	pracStopTrials.thisRepN	pracStopTrials.thisTrialN	pracStopTrials.thisN	pracStopTrials.thisIndex	Blocks.thisRepN	Blocks.thisTrialN	Blocks.thisN	Blocks.thisIndex	trials.thisRepN	trials.thisTrialN	trials.thisN	trials.thisIndex	ReDoLoopMain.thisRepN	ReDoLoopMain.thisTrialN	ReDoLoopMain.thisN	ReDoLoopMain.thisIndex	ReDoLoopMain.thisTrial	StopBlocks.thisRepN	StopBlocks.thisTrialN	StopBlocks.thisN	StopBlocks.thisIndex	StopTrials.thisRepN	StopTrials.thisTrialN	StopTrials.thisN	StopTrials.thisIndex	auctionBlocks.thisRepN	auctionBlocks.thisTrialN	auctionBlocks.thisN	auctionBlocks.thisIndex	auctionTrials.thisRepN	auctionTrials.thisTrialN	auctionTrials.thisN	auctionTrials.thisIndex	learningTrialList	learningPracTrialList	stopTrialList	stopPracTrialList	auctionTrialList	ok1.keys	ok1.rt	resp.keys	resp.corr	resp.rt	feedbackResp.keys	feedbackResp.corr	currentReward	currentStimulus	currentStimType	firstPracComputedRewardOutput	firstPracLearningStimOnset	firstPracLearningFixOnset	firstPracPresentationRT	firstPracPresentationAcc	firstPracPresentationResp	firstPracEndTrialTimeStamp	StartTrialTimeStamp	trialType	goStim	stimType	stopStimValue	goResp.keys	goResp.corr	goResp.rt	key_resp_9.keys	key_resp_9.corr	fixStopOnset	goStimOnset	stopSignalOnset	EndTrialTimeStamp	key_resp_3.keys	key_resp_3.rt	firstComputedRewardOutput	firstLearningStimOnset	firstLearningFixOnset	firstPresentationRT	firstPresentationAcc	firstPresentationResp	firstEndTrialTimeStamp	secondComputedRewardOutput	secondLearningStimOnset	secondLearningFixOnset	secondPresentationRT	secondPresentationAcc	secondPresentationResp	secondEndTrialTimeStamp	key_resp_7.keys	key_resp_7.rt	feedbackResp.rt	beginningSSD	EndingSSD	key_resp_4.keys	key_resp_4.rt	auctionResponse.keys	auctionResponse.rt	auctionStimDuration	auctionStim	auctionAmounts	auctionStimValue	auctionCondition	chosenAuctionAmount	key_resp_5.keys	key_resp_5.rt	shuffledRewardList	chosenReward1	chosenReward2	chosenReward3	chosenReward4	chosenReward5	key_resp_6.keys	key_resp_6.rt	date	frameRate	expName	session	participant	Unnamed: 130
0																																																	[]	[]	[]	[]	[]	9.0	56.8163540363																																																																							2015_Jun_24_1324	59.9645442796	LearningTask	1	64	
1	-200.0	a	-200.0				0.0	0.0	0.0	7.0																																														a	1.0	0.550843000412	None	0.0	4.0	squareyellow.gif	go	3.86	0.507936954498	0.043079853057900006	0.550843000412	1.0	a	76.6458880901																																																								2015_Jun_24_1324	59.9645442796	LearningTask	1	64	
2	200.0	s	-200.0				0.0	1.0	1.0	6.0																																														s	1.0	0.417273044586	None	0.0	1.0	invertedtrianglegreen.gif	go	0.9	0.514786958694	0.00170207023621	0.417273044586	1.0	s	79.6486420631																																																								2015_Jun_24_1324	59.9645442796	LearningTask	1	64	
3	-200.0	q	200.0				0.0	2.0	2.0	1.0																																														q	1.0	0.250417947769	None	0.0	0.5	trianglemagenta.gif	stop	0.32	0.515404939651	0.00180006027222	0.250417947769	1.0	q	82.652146101																																																								2015_Jun_24_1324	59.9645442796	LearningTask	1	64	
4	-200.0	q	200.0				0.0	3.0	3.0	5.0																																														q	1.0	0.317353963852	None	0.0	0.5	diamondgray.gif	go	0.26	0.515433073044	0.0017101764679	0.317353963852	1.0	q	85.6559331417																																																								2015_Jun_24_1324	59.9645442796	LearningTask	1	64	
5	-200.0	a	-200.0				0.0	4.0	4.0	3.0																																														a	1.0	0.417272090912	None	0.0	2.0	linecyan.gif	stop	1.86	0.514677047729	0.00167393684387	0.417272090912	1.0	a	88.6587181091																																																								2015_Jun_24_1324	59.9645442796	LearningTask	1	64	
6	200.0	s	-200.0				0.0	5.0	5.0	2.0																																														s	1.0	0.38469409942599997	None	0.0	0.5	trianglemagenta.gif	stop	0.0	0.515054941177	0.0009400844573969999	0.38469409942599997	1.0	s	91.6621370316																																																								2015_Jun_24_1324	59.9645442796	LearningTask	1	64	
7	200.0	w	200.0				0.0	6.0	6.0	4.0																																														w	1.0	0.35118699073799997	None	0.0	2.0	hexagonorange.gif	go	1.83	0.515238046646	0.0016911029815699999	0.35118699073799997	1.0	w	94.6656761169																																																								2015_Jun_24_1324	59.9645442796	LearningTask	1	64	
8	200.0	w	200.0				0.0	7.0	7.0	8.0																																														w	1.0	0.417510986328	None	0.0	1.0	invertedtrianglegreen.gif	go	1.07	0.5149271488189999	0.000900030136108	0.417510986328	1.0	w	97.6689321995																																																								2015_Jun_24_1324	59.9645442796	LearningTask	1	64	
9	200.0	w	200.0				0.0	8.0	8.0	0.0																																														w	1.0	0.567771911621	None	0.0	1.0	circlewhite.gif	stop	1.19	0.514953136444	0.0207841396332	0.567771911621	1.0	w	100.672311068																																																								2015_Jun_24_1324	59.9645442796	LearningTask	1	64	
10	-200.0	q	200.0				0.0	9.0	9.0	9.0																																														q	1.0	0.334029197693	None	0.0	2.0	hexagonorange.gif	go	1.95	0.51522898674	0.0009059906005860001	0.334029197693	1.0	q	103.67571520799999																																																								2015_Jun_24_1324	59.9645442796	LearningTask	1	64	
11				m	0.0	200.0										0.0	0.0	0.0	1.0																																																				173.392596006	stop	crossblue.gif	stop	4.0	m	1.0	0.400753974915	None	0.0	0.013350963592499999	0.509443044662	0.759742021561	176.39010906200002																																										2015_Jun_24_1324	59.9645442796	LearningTask	1	64	
12				m	0.0	200.0										0.0	1.0	1.0	1.0																																																				176.39050316799998	go	diamondgray.gif	go	0.5	m	1.0	0.7009329795839999	None	0.0	0.0009670257568360001	0.515612125397		179.39342618																																										2015_Jun_24_1324	59.9645442796	LearningTask	1	64	
13				m	0.0	200.0										1.0	0.0	2.0	1.0																																																				179.393854141	go	squareyellow.gif	go	4.0	m	1.0	0.417531967163	None	0.0	0.0009799003601070001	0.51581788063		182.396650076																																										2015_Jun_24_1324	59.9645442796	LearningTask	1	64	
14				z	0.0	-200.0										1.0	1.0	3.0	0.0																																																				182.39701819400003	go	diamondgray.gif	go	0.5	z	1.0	0.283568143845	None	0.0	0.000949859619141	0.51602602005		185.399960995																																										2015_Jun_24_1324	59.9645442796	LearningTask	1	64	
15				m	0.0	200.0										2.0	0.0	4.0	1.0																																																				185.400329113	stop	linecyan.gif	stop	2.0	m	1.0	0.266788959503	None	0.0	0.0010778903961199998	0.515900850296	0.7660760879520001	188.40342712400002																																										2015_Jun_24_1324	59.9645442796	LearningTask	1	64	
16				z	0.0	-200.0										2.0	1.0	5.0	0.0																																																				188.403792143	go	invertedtrianglegreen.gif	go	1.0	z	1.0	0.316838979721	None	0.0	0.00108504295349	0.5161170959470001		191.406637192																																										2015_Jun_24_1324	59.9645442796	LearningTask	1	64	
17				z	0.0	-200.0										3.0	0.0	6.0	0.0																																																				191.407005072	go	hexagonorange.gif	go	2.0	z	1.0	0.317532062531	None	0.0	0.0009570121765139998	0.515789031982		194.41012406299998																																										2015_Jun_24_1324	59.9645442796	LearningTask	1	64	
18				z	0.0	-200.0										3.0	1.0	7.0	0.0																																																				194.410497189	go	invertedtrianglegreen.gif	go	1.0	z	1.0	0.400759935379	None	0.0	0.00103402137756	0.515850067139		197.413442135																																										2015_Jun_24_1324	59.9645442796	LearningTask	1	64	
19				z	0.0	-200.0										4.0	0.0	8.0	0.0																																																				197.41388821599998	stop	crossblue.gif	stop	4.0	z	1.0	0.467166185379	None	0.0	0.000982999801636	0.5154898166659999	0.765635967255	200.416994095																																										2015_Jun_24_1324	59.9645442796	LearningTask	1	64	
20				m	0.0	200.0										4.0	1.0	9.0	1.0																																																				200.417365074	stop	linecyan.gif	stop	2.0	None	0.0		None	0.0	0.0009729862213130002	0.515914916992	0.765810012817	203.420198202																																										2015_Jun_24_1324	59.9645442796	LearningTask	1	64	
21																																																																																					9.0	53.322344064700005																																								2015_Jun_24_1324	59.9645442796	LearningTask	1	64	
22																																																						9.0	5.70631599426																																																																							2015_Jun_24_1324	59.9645442796	LearningTask	1	64	
23	-200.0	a	-200.0																	0.0	0.0	0.0	0.0	0.0	0.0	0.0	3.0																													a	1.0	0.41771602630599997	None	0.0	4.0	squareyellow.gif	go																								3.89	0.508680820465	0.0010440349578899998	0.417716026306	1.0	a	265.591025114																																	2015_Jun_24_1324	59.9645442796	LearningTask	1	64	
24	-200.0	q	200.0																	0.0	0.0	0.0	0.0	0.0	1.0	1.0	1.0																													q	1.0	0.267637968063	None	0.0	0.5	diamondgray.gif	go																								0.55	0.513515949249	0.0009109973907470001	0.267637968063	1.0	q	268.59335303299997																																	2015_Jun_24_1324	59.9645442796	LearningTask	1	64	
25	-200.0	q	200.0																	0.0	0.0	0.0	0.0	0.0	2.0	2.0	1.0																													q	1.0	0.283578157425	None	0.0	0.5	diamondgray.gif	go																								0.74	0.514519929886	0.000913858413696	0.283578157425	1.0	q	271.597014189																																	2015_Jun_24_1324	59.9645442796	LearningTask	1	64	
26	-200.0	a	-200.0																	0.0	0.0	0.0	0.0	0.0	3.0	3.0	3.0																													a	1.0	0.367164134979	None	0.0	4.0	crossblue.gif	stop																								3.95	0.514420986176	0.000945806503296	0.367164134979	1.0	a	274.60040617																																	2015_Jun_24_1324	59.9645442796	LearningTask	1	64	
27	200.0	s	-200.0																	0.0	0.0	0.0	0.0	1.0	0.0	4.0	2.0																													s	1.0	0.417587041855	None	0.0	2.0	hexagonorange.gif	go																								0.0	0.514136075974	0.0009109973907470001	0.250607967377	0.0	q	277.603551149	1.92	0.515562057495	0.000978946685791	0.417587041855	1.0	s	280.607326984																										2015_Jun_24_1324	59.9645442796	LearningTask	1	64	
28	200.0	s	-200.0																	0.0	0.0	0.0	0.0	1.0	1.0	5.0	2.0																													s	1.0	0.41750407218900004	None	0.0	0.5	diamondgray.gif	go																								0.71	0.513812065125	0.000978946685791	0.417504072189	1.0	s	283.61038518																																	2015_Jun_24_1324	59.9645442796	LearningTask	1	64	
29	200.0	s	-200.0																	0.0	0.0	0.0	0.0	1.0	2.0	6.0	2.0																													s	1.0	0.351315021515	None	0.0	4.0	crossblue.gif	stop																								4.21	0.514238834381	0.000934839248657	0.351315021515	1.0	s	286.613718033																																	2015_Jun_24_1324	59.9645442796	LearningTask	1	64	
30	-200.0	a	-200.0																	0.0	0.0	0.0	0.0	1.0	3.0	7.0	3.0																													a	1.0	0.333918094635	None	0.0	2.0	linecyan.gif	stop																								2.06	0.514365911484	0.000946044921875	0.333918094635	1.0	a	289.617087126																																	2015_Jun_24_1324	59.9645442796	LearningTask	1	64	
31	200.0	s	-200.0																	0.0	0.0	0.0	0.0	2.0	0.0	8.0	2.0																													s	1.0	0.333847999573	None	0.0	0.5	trianglemagenta.gif	stop																								0.36	0.514375209808	0.000946044921875	0.333847999573	1.0	s	292.620448112																																	2015_Jun_24_1324	59.9645442796	LearningTask	1	64	
32	200.0	w	200.0																	0.0	0.0	0.0	0.0	2.0	1.0	9.0	0.0																													w	1.0	0.33385515213000005	None	0.0	0.5	diamondgray.gif	go																								0.65	0.5143198966979999	0.000913858413696	0.33385515213	1.0	w	295.623764038																																	2015_Jun_24_1324	59.9645442796	LearningTask	1	64	
33	200.0	s	-200.0																	0.0	0.0	0.0	0.0	2.0	2.0	10.0	2.0																													s	1.0	0.284050941467	None	0.0	0.5	trianglemagenta.gif	stop																								0.32	0.5140810012820001	0.0009469985961910001	0.284050941467	1.0	s	298.627019167																																	2015_Jun_24_1324	59.9645442796	LearningTask	1	64	
34	200.0	s	-200.0																	0.0	0.0	0.0	0.0	2.0	3.0	11.0	2.0																													s	1.0	0.334029912949	None	0.0	4.0	squareyellow.gif	go																								4.06	0.514290094376	0.0009019374847410001	0.334029912949	1.0	s	301.630417109																																	2015_Jun_24_1324	59.9645442796	LearningTask	1	64	
35	-200.0	q	200.0																	0.0	0.0	0.0	0.0	3.0	0.0	12.0	1.0																													q	1.0	0.40049099922200004	None	0.0	2.0	linecyan.gif	stop																								1.85	0.5145649909969999	0.000922203063965	0.400490999222	1.0	q	304.633979082																																	2015_Jun_24_1324	59.9645442796	LearningTask	1	64	
36	200.0	w	200.0																	0.0	0.0	0.0	0.0	3.0	1.0	13.0	0.0																													w	1.0	0.367279052734	None	0.0	4.0	crossblue.gif	stop																								3.84	0.514124155045	0.000900030136108	0.367279052734	1.0	w	307.637368202																																	2015_Jun_24_1324	59.9645442796	LearningTask	1	64	
37	200.0	w	200.0																	0.0	0.0	0.0	0.0	3.0	2.0	14.0	0.0																													w	1.0	0.367630958557	None	0.0	0.5	trianglemagenta.gif	stop																								0.64	0.514205932617	0.000900983810425	0.367630958557	1.0	w	310.640488148																																	2015_Jun_24_1324	59.9645442796	LearningTask	1	64	
38	-200.0	q	200.0																	0.0	0.0	0.0	0.0	3.0	3.0	15.0	1.0																													q	1.0	0.334000110626	None	0.0	1.0	circlewhite.gif	stop																								0.0	0.514366149902	0.0008931159973139998	0.367594957352	0.0	a	313.644113064	0.0	0.5153269767759999	0.0009760856628420001	0.334000110626	1.0	q	316.647261143																										2015_Jun_24_1324	59.9645442796	LearningTask	1	64	
39	-200.0	q	200.0																	0.0	0.0	0.0	0.0	4.0	0.0	16.0	1.0																													q	1.0	0.334568977356	None	0.0	1.0	invertedtrianglegreen.gif	go																								0.0	0.514225959778	0.0008990764617919999	0.334568977356	1.0	q	319.650740147																																	2015_Jun_24_1324	59.9645442796	LearningTask	1	64	
40	-200.0	a	-200.0																	0.0	0.0	0.0	0.0	4.0	1.0	17.0	3.0																													a	1.0	0.36788201332099996	None	0.0	0.5	diamondgray.gif	go																								0.32	0.514358043671	0.00100111961365	0.367882013321	1.0	a	322.654333115																																	2015_Jun_24_1324	59.9645442796	LearningTask	1	64	
41	200.0	w	200.0																	0.0	0.0	0.0	0.0	4.0	2.0	18.0	0.0																													w	1.0	0.334635972977	None	0.0	1.0	circlewhite.gif	stop																								0.96	0.5139620304110001	0.00088906288147	0.334635972977	1.0	w	325.65727305400003																																	2015_Jun_24_1324	59.9645442796	LearningTask	1	64	
42	200.0	w	200.0																	0.0	0.0	0.0	0.0	4.0	3.0	19.0	0.0																													w	1.0	0.484351873398	None	0.0	4.0	crossblue.gif	stop																								4.15	0.514414072037	0.0009019374847410001	0.484351873398	1.0	w	328.660560131																																	2015_Jun_24_1324	59.9645442796	LearningTask	1	64	
43	-200.0	a	-200.0																	0.0	0.0	0.0	0.0	5.0	0.0	20.0	3.0																													a	1.0	0.401067018509	None	0.0	2.0	linecyan.gif	stop																								1.96	0.5143949985499999	0.0009250640869139999	0.401067018509	1.0	a	331.664022207																																	2015_Jun_24_1324	59.9645442796	LearningTask	1	64	
44	200.0	w	200.0																	0.0	0.0	0.0	0.0	5.0	1.0	21.0	0.0																													w	1.0	0.35104417800899995	None	0.0	4.0	squareyellow.gif	go																								3.91	0.5142099857329999	0.0008931159973139998	0.351044178009	1.0	w	334.667320013																																	2015_Jun_24_1324	59.9645442796	LearningTask	1	64	
45	-200.0	q	200.0																	0.0	0.0	0.0	0.0	5.0	2.0	22.0	1.0																													q	1.0	0.41768598556500003	None	0.0	4.0	crossblue.gif	stop																								3.98	0.514611005783	0.00105810165405	0.417685985565	1.0	q	337.670974016																																	2015_Jun_24_1324	59.9645442796	LearningTask	1	64	
46	-200.0	a	-200.0																	0.0	0.0	0.0	0.0	5.0	3.0	23.0	3.0																													a	1.0	0.38410782814000005	None	0.0	4.0	crossblue.gif	stop																								3.97	0.514345169067	0.000892162322998	0.38410782814	1.0	a	340.673998117																																	2015_Jun_24_1324	59.9645442796	LearningTask	1	64	
47	200.0	w	200.0																	0.0	0.0	0.0	0.0	6.0	0.0	24.0	0.0																													w	1.0	0.417856216431	None	0.0	1.0	circlewhite.gif	stop																								1.22	0.5143568515779999	0.0009059906005860001	0.417856216431	1.0	w	343.677376032																																	2015_Jun_24_1324	59.9645442796	LearningTask	1	64	
48	-200.0	a	-200.0																	0.0	0.0	0.0	0.0	6.0	1.0	25.0	3.0																													a	1.0	0.35096883773800003	None	0.0	4.0	squareyellow.gif	go																								3.76	0.51411986351	0.00094199180603	0.350968837738	1.0	a	346.680826187																																	2015_Jun_24_1324	59.9645442796	LearningTask	1	64	
49	-200.0	a	-200.0																	0.0	0.0	0.0	0.0	6.0	2.0	26.0	3.0																													a	1.0	0.384332180023	None	0.0	1.0	invertedtrianglegreen.gif	go																								0.82	0.514287948608	0.000904083251953	0.384332180023	1.0	a	349.68407011																																	2015_Jun_24_1324	59.9645442796	LearningTask	1	64	
50	200.0	s	-200.0																	0.0	0.0	0.0	0.0	6.0	3.0	27.0	2.0																													s	1.0	0.384691953659	None	0.0	4.0	squareyellow.gif	go																								4.08	0.51446390152	0.000882863998413	0.384691953659	1.0	s	352.687609196																																	2015_Jun_24_1324	59.9645442796	LearningTask	1	64	
51	200.0	w	200.0																	0.0	0.0	0.0	0.0	7.0	0.0	28.0	0.0																													w	1.0	0.43443012237499995	None	0.0	4.0	squareyellow.gif	go																								3.95	0.5137128829959999	0.0009279251098630001	0.434430122375	1.0	w	355.691049099																																	2015_Jun_24_1324	59.9645442796	LearningTask	1	64	
52	-200.0	q	200.0																	0.0	0.0	0.0	0.0	7.0	1.0	29.0	1.0																													q	1.0	0.351264953613	None	0.0	0.5	diamondgray.gif	go																								0.72	0.51403594017	0.00090503692627	0.351264953613	1.0	q	358.694086075																																	2015_Jun_24_1324	59.9645442796	LearningTask	1	64	
53	-200.0	a	-200.0																	0.0	0.0	0.0	0.0	7.0	2.0	30.0	3.0																													a	1.0	0.267192840576	None	0.0	4.0	crossblue.gif	stop																								3.98	0.514418840408	0.000903844833374	0.267192840576	1.0	a	361.697800159																																	2015_Jun_24_1324	59.9645442796	LearningTask	1	64	
54	-200.0	q	200.0																	0.0	0.0	0.0	0.0	7.0	3.0	31.0	1.0																													q	1.0	0.367509126663	None	0.0	2.0	hexagonorange.gif	go																								2.14	0.513854980469	0.0009400844573969999	0.367509126663	1.0	q	364.701008081																																	2015_Jun_24_1324	59.9645442796	LearningTask	1	64	
55	-200.0	q	200.0																	0.0	0.0	0.0	0.0	8.0	0.0	32.0	1.0																													q	1.0	0.334063053131	None	0.0	0.5	diamondgray.gif	go																								0.73	0.51425409317	0.000922918319702	0.334063053131	1.0	q	367.704385996																																	2015_Jun_24_1324	59.9645442796	LearningTask	1	64	
56	-200.0	a	-200.0																	0.0	0.0	0.0	0.0	8.0	1.0	33.0	3.0																													a	1.0	0.384027004242	None	0.0	4.0	squareyellow.gif	go																								0.0	0.514580011368	0.000951051712036	0.384027004242	1.0	a	370.70816302300005																																	2015_Jun_24_1324	59.9645442796	LearningTask	1	64	
57	200.0	s	-200.0																	0.0	0.0	0.0	0.0	8.0	2.0	34.0	2.0																													s	1.0	0.46756792068499997	None	0.0	0.5	diamondgray.gif	go																								0.62	0.5137050151820001	0.0008909702301030001	0.467567920685	1.0	s	373.710958004																																	2015_Jun_24_1324	59.9645442796	LearningTask	1	64	
58	200.0	w	200.0																	0.0	0.0	0.0	0.0	8.0	3.0	35.0	0.0																													w	1.0	0.4006960392	None	0.0	0.5	trianglemagenta.gif	stop																								0.38	0.514367103577	0.00090503692627	0.4006960392	1.0	w	376.714089155																																	2015_Jun_24_1324	59.9645442796	LearningTask	1	64	
59	-200.0	q	200.0																	0.0	0.0	0.0	0.0	9.0	0.0	36.0	1.0																													q	1.0	0.300721883774	None	0.0	1.0	invertedtrianglegreen.gif	go																								1.14	0.5144538879389999	0.000961065292358	0.300721883774	1.0	q	379.717725039																																	2015_Jun_24_1324	59.9645442796	LearningTask	1	64	
60	200.0	s	-200.0																	0.0	0.0	0.0	0.0	9.0	1.0	37.0	2.0																													s	1.0	0.38437891006499997	None	0.0	0.5	diamondgray.gif	go																								0.45	0.5145640373229999	0.00113701820374	0.384378910065	1.0	s	382.720890045																																	2015_Jun_24_1324	59.9645442796	LearningTask	1	64	
61	200.0	w	200.0																	0.0	0.0	0.0	0.0	9.0	2.0	38.0	0.0																													w	1.0	0.43438696861299997	None	0.0	1.0	invertedtrianglegreen.gif	go																								0.0	0.514745950699	0.00100898742676	0.434386968613	1.0	w	385.724299192																																	2015_Jun_24_1324	59.9645442796	LearningTask	1	64	
62	-200.0	q	200.0																	0.0	0.0	0.0	0.0	9.0	3.0	39.0	1.0																													q	1.0	0.367074966431	None	0.0	2.0	hexagonorange.gif	go																								1.84	0.5146918296809999	0.000903844833374	0.367074966431	1.0	q	388.727724075																																	2015_Jun_24_1324	59.9645442796	LearningTask	1	64	
63	-200.0	q	200.0																	0.0	0.0	0.0	0.0	10.0	0.0	40.0	1.0																													q	1.0	0.384475946426	None	0.0	1.0	circlewhite.gif	stop																								0.79	0.514321088791	0.0008950233459470001	0.384475946426	1.0	q	391.731036186																																	2015_Jun_24_1324	59.9645442796	LearningTask	1	64	
64	200.0	w	200.0																	0.0	0.0	0.0	0.0	10.0	1.0	41.0	0.0																													w	1.0	0.434080839157	None	0.0	4.0	crossblue.gif	stop																								4.24	0.5140450000760001	0.0010359287262	0.434080839157	1.0	w	394.73441314699994																																	2015_Jun_24_1324	59.9645442796	LearningTask	1	64	
65	-200.0	q	200.0																	0.0	0.0	0.0	0.0	10.0	2.0	42.0	1.0																													q	1.0	0.384677171707	None	0.0	2.0	hexagonorange.gif	go																								0.0	0.514253854752	0.00143980979919	0.384677171707	1.0	q	397.737659216																																	2015_Jun_24_1324	59.9645442796	LearningTask	1	64	
66	-200.0	a	-200.0																	0.0	0.0	0.0	0.0	10.0	3.0	43.0	3.0																													a	1.0	0.41724705696099995	None	0.0	0.5	diamondgray.gif	go																								0.35	0.514651060104	0.000904083251953	0.417247056961	1.0	a	400.741164207																																	2015_Jun_24_1324	59.9645442796	LearningTask	1	64	
67	200.0	s	-200.0																	0.0	0.0	0.0	0.0	11.0	0.0	44.0	2.0																													s	1.0	0.38450503349299997	None	0.0	4.0	squareyellow.gif	go																								0.0	0.514193058014	0.0008959770202639998	0.384505033493	1.0	s	403.744624138																																	2015_Jun_24_1324	59.9645442796	LearningTask	1	64	
68	200.0	w	200.0																	0.0	0.0	0.0	0.0	11.0	1.0	45.0	0.0																													w	1.0	0.467664957047	None	0.0	2.0	linecyan.gif	stop																								2.18	0.514245986938	0.0009100437164310001	0.467664957047	1.0	w	406.74763917900003																																	2015_Jun_24_1324	59.9645442796	LearningTask	1	64	
69	-200.0	q	200.0																	0.0	0.0	0.0	0.0	11.0	2.0	46.0	1.0																													q	1.0	0.36796402931199995	None	0.0	0.5	diamondgray.gif	go																								0.0	0.514336824417	0.0009679794311519998	0.367964029312	1.0	q	409.75145816800006																																	2015_Jun_24_1324	59.9645442796	LearningTask	1	64	
70	200.0	w	200.0																	0.0	0.0	0.0	0.0	11.0	3.0	47.0	0.0																													w	1.0	0.384337902069	None	0.0	1.0	circlewhite.gif	stop																								0.75	0.513776063919	0.0009319782257080001	0.384337902069	1.0	w	412.75468611699995																																	2015_Jun_24_1324	59.9645442796	LearningTask	1	64	
71	200.0	w	200.0																	0.0	0.0	0.0	0.0	12.0	0.0	48.0	0.0																													w	1.0	0.40065121650700003	None	0.0	2.0	linecyan.gif	stop																								1.94	0.514330863953	0.0009069442749019998	0.400651216507	1.0	w	415.757974148																																	2015_Jun_24_1324	59.9645442796	LearningTask	1	64	
72	-200.0	q	200.0																	0.0	0.0	0.0	0.0	12.0	1.0	49.0	1.0																													q	1.0	0.317695140839	None	0.0	0.5	trianglemagenta.gif	stop																								0.64	0.514508008957	0.00095009803772	0.317695140839	1.0	q	418.761965036																																	2015_Jun_24_1324	59.9645442796	LearningTask	1	64	
73	200.0	s	-200.0																	0.0	0.0	0.0	0.0	12.0	2.0	50.0	2.0																													s	1.0	0.434220075607	None	0.0	0.5	trianglemagenta.gif	stop																								0.0	0.5136148929600001	0.0009109973907470001	0.434220075607	1.0	s	421.764602184																																	2015_Jun_24_1324	59.9645442796	LearningTask	1	64	
74	-200.0	a	-200.0																	0.0	0.0	0.0	0.0	12.0	3.0	51.0	3.0																													a	1.0	0.333889007568	None	0.0	2.0	hexagonorange.gif	go																								0.0	0.514345169067	0.000907182693481	0.333889007568	1.0	a	424.76776719099996																																	2015_Jun_24_1324	59.9645442796	LearningTask	1	64	
75	-200.0	q	200.0																	0.0	0.0	0.0	0.0	13.0	0.0	52.0	1.0																													q	1.0	0.351039886475	None	0.0	1.0	invertedtrianglegreen.gif	go																								1.11	0.514565944672	0.0009601116180419999	0.351039886475	1.0	q	427.77124214199995																																	2015_Jun_24_1324	59.9645442796	LearningTask	1	64	
76	200.0	s	-200.0																	0.0	0.0	0.0	0.0	13.0	1.0	53.0	2.0																													s	1.0	0.534221887589	None	0.0	0.5	trianglemagenta.gif	stop																								0.61	0.514418125153	0.0009200572967529999	0.534221887589	1.0	s	430.774688005																																	2015_Jun_24_1324	59.9645442796	LearningTask	1	64	
77	200.0	w	200.0																	0.0	0.0	0.0	0.0	13.0	2.0	54.0	0.0																													w	1.0	0.400961875916	None	0.0	0.5	trianglemagenta.gif	stop																								0.58	0.514071941376	0.0010359287262	0.400961875916	1.0	w	433.778326035																																	2015_Jun_24_1324	59.9645442796	LearningTask	1	64	
78	200.0	w	200.0																	0.0	0.0	0.0	0.0	13.0	3.0	55.0	0.0																													w	1.0	0.4671189785	None	0.0	2.0	hexagonorange.gif	go																								0.0	0.514497041702	0.0009019374847410001	0.4671189785	1.0	w	436.78128814699994																																	2015_Jun_24_1324	59.9645442796	LearningTask	1	64	
79	200.0	s	-200.0																	0.0	0.0	0.0	0.0	14.0	0.0	56.0	2.0																													s	1.0	0.384088039398	None	0.0	0.5	diamondgray.gif	go																								0.0	0.514334201813	0.0008959770202639998	0.384088039398	1.0	s	439.784868002																																	2015_Jun_24_1324	59.9645442796	LearningTask	1	64	
80	-200.0	a	-200.0																	0.0	0.0	0.0	0.0	14.0	1.0	57.0	3.0																													a	1.0	0.401143074036	None	0.0	0.5	diamondgray.gif	go																								0.36	0.513991832733	0.0009298324584960001	0.401143074036	1.0	a	442.78828311																																	2015_Jun_24_1324	59.9645442796	LearningTask	1	64	
81	-200.0	a	-200.0																	0.0	0.0	0.0	0.0	14.0	2.0	58.0	3.0																													a	1.0	0.568065881729	None	0.0	0.5	diamondgray.gif	go																								0.0	0.514030218124	0.0008950233459470001	0.568065881729	1.0	a	445.79161405599996																																	2015_Jun_24_1324	59.9645442796	LearningTask	1	64	
82	-200.0	q	200.0																	0.0	0.0	0.0	0.0	14.0	3.0	59.0	1.0																													q	1.0	0.41729998588600004	None	0.0	4.0	squareyellow.gif	go																								4.23	0.514211177826	0.0008912086486819999	0.417299985886	1.0	q	448.79480719599997																																	2015_Jun_24_1324	59.9645442796	LearningTask	1	64	
83	200.0	s	-200.0																	0.0	0.0	0.0	0.0	15.0	0.0	60.0	2.0																													s	1.0	0.351142168045	None	0.0	4.0	crossblue.gif	stop																								0.0	0.513682842255	0.000976800918579	0.351142168045	1.0	s	451.79832506199995																																	2015_Jun_24_1324	59.9645442796	LearningTask	1	64	
84	200.0	w	200.0																	0.0	0.0	0.0	0.0	15.0	1.0	61.0	0.0																													w	1.0	0.38417100906400004	None	0.0	4.0	squareyellow.gif	go																								3.94	0.514088153839	0.0008981227874760001	0.384171009064	1.0	w	454.80134415599997																																	2015_Jun_24_1324	59.9645442796	LearningTask	1	64	
85	200.0	w	200.0																	0.0	0.0	0.0	0.0	15.0	2.0	62.0	0.0																													w	1.0	0.550982952118	None	0.0	4.0	squareyellow.gif	go																								4.22	0.514486074448	0.000900983810425	0.550982952118	1.0	w	457.805092096																																	2015_Jun_24_1324	59.9645442796	LearningTask	1	64	
86	-200.0	a	-200.0																	0.0	0.0	0.0	0.0	15.0	3.0	63.0	3.0																													a	1.0	0.38384103775	None	0.0	4.0	squareyellow.gif	go																								3.75	0.514023065567	0.0008990764617919999	0.38384103775	1.0	a	460.80833411199995																																	2015_Jun_24_1324	59.9645442796	LearningTask	1	64	
87	-200.0	q	200.0																	0.0	0.0	0.0	0.0	16.0	0.0	64.0	1.0																													q	1.0	0.38426899909999995	None	0.0	2.0	linecyan.gif	stop																								2.2	0.514303922653	0.0008909702301030001	0.3842689991	1.0	q	463.81181216199997																																	2015_Jun_24_1324	59.9645442796	LearningTask	1	64	
88	-200.0	a	-200.0																	0.0	0.0	0.0	0.0	16.0	1.0	65.0	3.0																													a	1.0	0.36715602874799996	None	0.0	2.0	linecyan.gif	stop																								1.76	0.514391183853	0.000949144363403	0.367156028748	1.0	a	466.815428019																																	2015_Jun_24_1324	59.9645442796	LearningTask	1	64	
89	200.0	s	-200.0																	0.0	0.0	0.0	0.0	16.0	2.0	66.0	2.0																													s	1.0	0.350977897644	None	0.0	2.0	linecyan.gif	stop																								1.91	0.5138518810270001	0.0008978843688960001	0.350977897644	1.0	s	469.818309069																																	2015_Jun_24_1324	59.9645442796	LearningTask	1	64	
90	-200.0	a	-200.0																	0.0	0.0	0.0	0.0	16.0	3.0	67.0	3.0																													a	1.0	0.367552995682	None	0.0	2.0	linecyan.gif	stop																								0.0	0.514101982117	0.0008909702301030001	0.367552995682	1.0	a	472.82172107699995																																	2015_Jun_24_1324	59.9645442796	LearningTask	1	64	
91	200.0	s	-200.0																	0.0	0.0	0.0	0.0	17.0	0.0	68.0	2.0																													s	1.0	0.40063905715899994	None	0.0	2.0	linecyan.gif	stop																								0.0	0.51417517662	0.0009601116180419999	0.400639057159	1.0	s	475.825519085																																	2015_Jun_24_1324	59.9645442796	LearningTask	1	64	
92	200.0	s	-200.0																	0.0	0.0	0.0	0.0	17.0	1.0	69.0	2.0																													s	1.0	0.400285959244	None	0.0	1.0	invertedtrianglegreen.gif	go																								1.14	0.51393699646	0.0009319782257080001	0.400285959244	1.0	s	478.82843303699997																																	2015_Jun_24_1324	59.9645442796	LearningTask	1	64	
93	200.0	s	-200.0																	0.0	0.0	0.0	0.0	17.0	2.0	70.0	2.0																													s	1.0	0.35095810890199997	None	0.0	0.5	diamondgray.gif	go																								0.57	0.5142099857329999	0.00103902816772	0.350958108902	1.0	s	481.831903219																																	2015_Jun_24_1324	59.9645442796	LearningTask	1	64	
94	-200.0	q	200.0																	0.0	0.0	0.0	0.0	17.0	3.0	71.0	1.0																													q	1.0	0.367494106293	None	0.0	2.0	linecyan.gif	stop																								0.0	0.5137510299679999	0.0008940696716310001	0.384390115738	0.0	a	484.834966183	2.25	0.515506982803	0.000959873199463	0.367494106293	1.0	q	487.83827614800003																										2015_Jun_24_1324	59.9645442796	LearningTask	1	64	
95	200.0	s	-200.0																	0.0	0.0	0.0	0.0	18.0	0.0	72.0	2.0																													s	1.0	0.400787115097	None	0.0	4.0	squareyellow.gif	go																								4.15	0.514272928238	0.0009520053863530001	0.400787115097	1.0	s	490.841717005																																	2015_Jun_24_1324	59.9645442796	LearningTask	1	64	
96	-200.0	a	-200.0																	0.0	0.0	0.0	0.0	18.0	1.0	73.0	3.0																													a	1.0	0.317680120468	None	0.0	4.0	crossblue.gif	stop																								4.16	0.513943910599	0.0009069442749019998	0.317680120468	1.0	a	493.844997168																																	2015_Jun_24_1324	59.9645442796	LearningTask	1	64	
97	200.0	s	-200.0																	0.0	0.0	0.0	0.0	18.0	2.0	74.0	2.0																													s	1.0	0.36732006073	None	0.0	2.0	hexagonorange.gif	go																								1.78	0.514766931534	0.0009100437164310001	0.36732006073	1.0	s	496.84882807699995																																	2015_Jun_24_1324	59.9645442796	LearningTask	1	64	
98	200.0	w	200.0																	0.0	0.0	0.0	0.0	18.0	3.0	75.0	0.0																													w	1.0	0.384277105331	None	0.0	2.0	linecyan.gif	stop																								0.0	0.5138750076290001	0.0008978843688960001	0.367345809937	0.0	s	499.851966143	2.25	0.515319108963	0.0009891986846919999	0.384277105331	1.0	w	502.85512018199995																										2015_Jun_24_1324	59.9645442796	LearningTask	1	64	
99	-200.0	a	-200.0																	0.0	0.0	0.0	0.0	19.0	0.0	76.0	3.0																													a	1.0	0.484019994736	None	0.0	1.0	invertedtrianglegreen.gif	go																								0.0	0.514372110367	0.000946044921875	0.484019994736	1.0	a	505.85871315																																	2015_Jun_24_1324	59.9645442796	LearningTask	1	64	
100	-200.0	q	200.0																	0.0	0.0	0.0	0.0	19.0	1.0	77.0	1.0																													q	1.0	0.283981084824	None	0.0	1.0	circlewhite.gif	stop																								0.97	0.513934850693	0.0009059906005860001	0.283981084824	1.0	q	508.86215019199994																																	2015_Jun_24_1324	59.9645442796	LearningTask	1	64	
101	-200.0	q	200.0																	0.0	0.0	0.0	0.0	19.0	2.0	78.0	1.0																													q	1.0	0.384361982346	None	0.0	1.0	invertedtrianglegreen.gif	go																								0.98	0.514018774033	0.0008997917175289999	0.384361982346	1.0	q	511.86544609099997																																	2015_Jun_24_1324	59.9645442796	LearningTask	1	64	
102	-200.0	a	-200.0																	0.0	0.0	0.0	0.0	19.0	3.0	79.0	3.0																													a	1.0	0.383970022202	None	0.0	0.5	trianglemagenta.gif	stop																								0.57	0.514401912689	0.000996828079224	0.383970022202	1.0	a	514.869055986																																	2015_Jun_24_1324	59.9645442796	LearningTask	1	64	
103	200.0	w	200.0																	0.0	0.0	0.0	0.0	20.0	0.0	80.0	0.0																													w	1.0	0.400859832764	None	0.0	2.0	linecyan.gif	stop																								0.0	0.513953208923	0.000896215438843	0.400859832764	1.0	w	517.871885061																																	2015_Jun_24_1324	59.9645442796	LearningTask	1	64	
104	200.0	s	-200.0																	0.0	0.0	0.0	0.0	20.0	1.0	81.0	2.0																													s	1.0	0.400985002518	None	0.0	1.0	invertedtrianglegreen.gif	go																								0.86	0.5144438743590001	0.00089693069458	0.400985002518	1.0	s	520.87510705																																	2015_Jun_24_1324	59.9645442796	LearningTask	1	64	
105	-200.0	a	-200.0																	0.0	0.0	0.0	0.0	20.0	2.0	82.0	3.0																													a	1.0	0.401260137558	None	0.0	1.0	invertedtrianglegreen.gif	go																								0.85	0.514533042908	0.0009629726409910001	0.401260137558	1.0	a	523.8787460330001																																	2015_Jun_24_1324	59.9645442796	LearningTask	1	64	
106	-200.0	a	-200.0																	0.0	0.0	0.0	0.0	20.0	3.0	83.0	3.0																													a	1.0	0.417937040329	None	0.0	1.0	invertedtrianglegreen.gif	go																								0.76	0.514199018478	0.0009160041809079999	0.417937040329	1.0	a	526.881957054																																	2015_Jun_24_1324	59.9645442796	LearningTask	1	64	
107	-200.0	a	-200.0																	0.0	0.0	0.0	0.0	21.0	0.0	84.0	3.0																													a	1.0	0.517302036285	None	0.0	4.0	squareyellow.gif	go																								0.0	0.514545917511	0.00105285644531	0.517302036285	1.0	a	529.885556221																																	2015_Jun_24_1324	59.9645442796	LearningTask	1	64	
108	-200.0	a	-200.0																	0.0	0.0	0.0	0.0	21.0	1.0	85.0	3.0																													a	1.0	0.40104699134800004	None	0.0	2.0	hexagonorange.gif	go																								2.14	0.513833999634	0.0009059906005860001	0.401046991348	1.0	a	532.888614178																																	2015_Jun_24_1324	59.9645442796	LearningTask	1	64	
109	-200.0	q	200.0																	0.0	0.0	0.0	0.0	21.0	2.0	86.0	1.0																													q	1.0	0.350811958313	None	0.0	0.5	trianglemagenta.gif	stop																								0.0	0.514509916306	0.00094199180603	0.350811958313	1.0	q	535.892359018																																	2015_Jun_24_1324	59.9645442796	LearningTask	1	64	
110	200.0	w	200.0																	0.0	0.0	0.0	0.0	21.0	3.0	87.0	0.0																													w	1.0	0.400822162628	None	0.0	4.0	squareyellow.gif	go																								4.1	0.513855934143	0.0009400844573969999	0.400822162628	1.0	w	538.89542222																																	2015_Jun_24_1324	59.9645442796	LearningTask	1	64	
111	-200.0	q	200.0																	0.0	0.0	0.0	0.0	22.0	0.0	88.0	1.0																													q	1.0	0.333806037903	None	0.0	4.0	crossblue.gif	stop																								3.93	0.514434099197	0.0008909702301030001	0.333806037903	1.0	q	541.898766994																																	2015_Jun_24_1324	59.9645442796	LearningTask	1	64	
112	200.0	w	200.0																	0.0	0.0	0.0	0.0	22.0	1.0	89.0	0.0																													w	1.0	0.43381404876699997	None	0.0	2.0	hexagonorange.gif	go																								1.83	0.514761209488	0.000941038131714	0.433814048767	1.0	w	544.9022040369999																																	2015_Jun_24_1324	59.9645442796	LearningTask	1	64	
113	200.0	s	-200.0																	0.0	0.0	0.0	0.0	22.0	2.0	90.0	2.0																													s	1.0	0.333555936813	None	0.0	1.0	invertedtrianglegreen.gif	go																								1.08	0.514147043228	0.0009601116180419999	0.333555936813	1.0	s	547.905692101																																	2015_Jun_24_1324	59.9645442796	LearningTask	1	64	
114	200.0	s	-200.0																	0.0	0.0	0.0	0.0	22.0	3.0	91.0	2.0																													s	1.0	0.300549030304	None	0.0	4.0	squareyellow.gif	go																								4.08	0.513999938965	0.0009469985961910001	0.300549030304	1.0	s	550.908786058																																	2015_Jun_24_1324	59.9645442796	LearningTask	1	64	
115	-200.0	q	200.0																	0.0	0.0	0.0	0.0	23.0	0.0	92.0	1.0																													q	1.0	0.36820912361100006	None	0.0	2.0	hexagonorange.gif	go																								1.89	0.514369010925	0.00125098228455	0.368209123611	1.0	q	553.912591219																																	2015_Jun_24_1324	59.9645442796	LearningTask	1	64	
116	200.0	s	-200.0																	0.0	0.0	0.0	0.0	23.0	1.0	93.0	2.0																													s	1.0	0.36767005920400003	None	0.0	0.5	diamondgray.gif	go																								0.55	0.513739109039	0.0009140968322749999	0.367670059204	1.0	s	556.915693998																																	2015_Jun_24_1324	59.9645442796	LearningTask	1	64	
117	200.0	w	200.0																	0.0	0.0	0.0	0.0	23.0	2.0	94.0	0.0																													w	1.0	0.401057004929	None	0.0	2.0	hexagonorange.gif	go																								0.0	0.514129161835	0.000892162322998	0.401057004929	1.0	w	559.918919086																																	2015_Jun_24_1324	59.9645442796	LearningTask	1	64	
118	200.0	w	200.0																	0.0	0.0	0.0	0.0	23.0	3.0	95.0	0.0																													w	1.0	0.40049481391900005	None	0.0	2.0	hexagonorange.gif	go																								1.86	0.514549970627	0.000970125198364	0.400494813919	1.0	w	562.922415018																																	2015_Jun_24_1324	59.9645442796	LearningTask	1	64	
119	-200.0	a	-200.0																	0.0	0.0	0.0	0.0	24.0	0.0	96.0	3.0																													a	1.0	0.400974988937	None	0.0	4.0	squareyellow.gif	go																								3.97	0.5141651630399999	0.0008940696716310001	0.400974988937	1.0	a	565.92545414																																	2015_Jun_24_1324	59.9645442796	LearningTask	1	64	
120	-200.0	q	200.0																	0.0	0.0	0.0	0.0	24.0	1.0	97.0	1.0																													q	1.0	0.351123094559	None	0.0	2.0	hexagonorange.gif	go																								2.13	0.514435052872	0.0009291172027589999	0.351123094559	1.0	q	568.9288761619999																																	2015_Jun_24_1324	59.9645442796	LearningTask	1	64	
121	200.0	w	200.0																	0.0	0.0	0.0	0.0	24.0	2.0	98.0	0.0																													w	1.0	0.451237916946	None	0.0	0.5	trianglemagenta.gif	stop																								0.26	0.514424085617	0.0009329319000239999	0.451237916946	1.0	w	571.932429075																																	2015_Jun_24_1324	59.9645442796	LearningTask	1	64	
122	200.0	s	-200.0																	0.0	0.0	0.0	0.0	24.0	3.0	99.0	2.0																													s	1.0	0.350480079651	None	0.0	2.0	linecyan.gif	stop																								2.25	0.5141499042509999	0.000900030136108	0.350480079651	1.0	s	574.935918093																																	2015_Jun_24_1324	59.9645442796	LearningTask	1	64	
123																				0.0	0.0	0.0	0.0																																																																														9.0	704.949434996																								2015_Jun_24_1324	59.9645442796	LearningTask	1	64	
124	-200.0	a	-200.0																	1.0	0.0	1.0	0.0	0.0	0.0	0.0	3.0																													a	1.0	0.41776800155599997	None	0.0	4.0	crossblue.gif	stop																								4.04	0.508270025253	0.0013251304626500002	0.417768001556	1.0	a	1283.32784605																																	2015_Jun_24_1324	59.9645442796	LearningTask	1	64	
125	-200.0	a	-200.0																	1.0	0.0	1.0	0.0	0.0	1.0	1.0	3.0																													a	1.0	0.351119995117	None	0.0	1.0	invertedtrianglegreen.gif	go																								0.82	0.513340950012	0.0012948513031	0.351119995117	1.0	a	1286.33023214																																	2015_Jun_24_1324	59.9645442796	LearningTask	1	64	
126	200.0	w	200.0																	1.0	0.0	1.0	0.0	0.0	2.0	2.0	0.0																													w	1.0	0.333997011185	None	0.0	4.0	squareyellow.gif	go																								4.04	0.5145711898800001	0.0012800693512	0.333997011185	1.0	w	1289.33394408																																	2015_Jun_24_1324	59.9645442796	LearningTask	1	64	
127	200.0	s	-200.0																	1.0	0.0	1.0	0.0	0.0	3.0	3.0	2.0																													s	1.0	0.367570877075	None	0.0	0.5	trianglemagenta.gif	stop																								0.0	0.5139930248260001	0.0012979507446300002	0.367570877075	1.0	s	1292.33726406																																	2015_Jun_24_1324	59.9645442796	LearningTask	1	64	
128	-200.0	q	200.0																	1.0	0.0	1.0	0.0	1.0	0.0	4.0	1.0																													q	1.0	0.334362030029	None	0.0	4.0	squareyellow.gif	go																								3.94	0.513865947723	0.0008878707885739998	0.334362030029	1.0	q	1295.34046507																																	2015_Jun_24_1324	59.9645442796	LearningTask	1	64	
129	200.0	w	200.0																	1.0	0.0	1.0	0.0	1.0	1.0	5.0	0.0																													w	1.0	0.350697994232	None	0.0	0.5	diamondgray.gif	go																								0.0	0.514187812805	0.0018608570098900001	0.350697994232	1.0	w	1298.343786																																	2015_Jun_24_1324	59.9645442796	LearningTask	1	64	
130	-200.0	q	200.0																	1.0	0.0	1.0	0.0	1.0	2.0	6.0	1.0																													q	1.0	0.384439945221	None	0.0	0.5	trianglemagenta.gif	stop																								0.54	0.5140759944919999	0.000903844833374	0.384439945221	1.0	q	1301.34726119																																	2015_Jun_24_1324	59.9645442796	LearningTask	1	64	
131	-200.0	a	-200.0																	1.0	0.0	1.0	0.0	1.0	3.0	7.0	3.0																													a	1.0	0.35057497024499995	None	0.0	1.0	circlewhite.gif	stop																								1.24	0.514191150665	0.0013000965118399998	0.350574970245	1.0	a	1304.3503951999999																																	2015_Jun_24_1324	59.9645442796	LearningTask	1	64	
132	200.0	w	200.0																	1.0	0.0	1.0	0.0	2.0	0.0	8.0	0.0																													w	1.0	0.401116847992	None	0.0	0.5	diamondgray.gif	go																								0.58	0.5142819881440001	0.00092887878418	0.401116847992	1.0	w	1307.35358405																																	2015_Jun_24_1324	59.9645442796	LearningTask	1	64	
133	-200.0	a	-200.0																	1.0	0.0	1.0	0.0	2.0	1.0	9.0	3.0																													a	1.0	0.350503921509	None	0.0	4.0	crossblue.gif	stop																								3.84	0.514750957489	0.000898838043213	0.350503921509	1.0	a	1310.35722208																																	2015_Jun_24_1324	59.9645442796	LearningTask	1	64	
134	200.0	w	200.0																	1.0	0.0	1.0	0.0	2.0	2.0	10.0	0.0																													w	1.0	0.36748790741	None	0.0	1.0	circlewhite.gif	stop																								0.79	0.514266014099	0.0008940696716310001	0.36748790741	1.0	w	1313.3605000999999																																	2015_Jun_24_1324	59.9645442796	LearningTask	1	64	
135	-200.0	q	200.0																	1.0	0.0	1.0	0.0	2.0	3.0	11.0	1.0																													q	1.0	0.367691040039	None	0.0	0.5	diamondgray.gif	go																								0.0	0.514554977417	0.0009670257568360001	0.334107160568	0.0	a	1316.36392021	0.7	0.5152568817140001	0.000974893569946	0.367691040039	1.0	q	1319.36750913																										2015_Jun_24_1324	59.9645442796	LearningTask	1	64	
136	-200.0	q	200.0																	1.0	0.0	1.0	0.0	3.0	0.0	12.0	1.0																													q	1.0	0.41758298873899996	None	0.0	1.0	invertedtrianglegreen.gif	go																								0.92	0.51404094696	0.0008959770202639998	0.417582988739	1.0	q	1322.37049603																																	2015_Jun_24_1324	59.9645442796	LearningTask	1	64	
137	200.0	w	200.0																	1.0	0.0	1.0	0.0	3.0	1.0	13.0	0.0																													w	1.0	0.43445110321	None	0.0	0.5	trianglemagenta.gif	stop																								0.67	0.514134883881	0.0009820461273189998	0.43445110321	1.0	w	1325.37393403																																	2015_Jun_24_1324	59.9645442796	LearningTask	1	64	
138	-200.0	a	-200.0																	1.0	0.0	1.0	0.0	3.0	2.0	14.0	3.0																													a	1.0	0.367525815964	None	0.0	1.0	circlewhite.gif	stop																								1.15	0.514231920242	0.0009069442749019998	0.367525815964	1.0	a	1328.37731814																																	2015_Jun_24_1324	59.9645442796	LearningTask	1	64	
139	-200.0	q	200.0																	1.0	0.0	1.0	0.0	3.0	3.0	15.0	1.0																													q	1.0	0.350672960281	None	0.0	0.5	diamondgray.gif	go																								0.67	0.514508962631	0.000881910324097	0.350672960281	1.0	q	1331.38067698																																	2015_Jun_24_1324	59.9645442796	LearningTask	1	64	
140	200.0	s	-200.0																	1.0	0.0	1.0	0.0	4.0	0.0	16.0	2.0																													s	1.0	0.367239952087	None	0.0	0.5	trianglemagenta.gif	stop																								0.56	0.514269828796	0.000921964645386	0.367239952087	1.0	s	1334.38395715																																	2015_Jun_24_1324	59.9645442796	LearningTask	1	64	
141	-200.0	q	200.0																	1.0	0.0	1.0	0.0	4.0	1.0	17.0	1.0																													q	1.0	0.334265947342	None	0.0	0.5	diamondgray.gif	go																								0.59	0.514482975006	0.000900030136108	0.334265947342	1.0	q	1337.38732004																																	2015_Jun_24_1324	59.9645442796	LearningTask	1	64	
142	-200.0	q	200.0																	1.0	0.0	1.0	0.0	4.0	2.0	18.0	1.0																													q	1.0	0.45053601265	None	0.0	2.0	hexagonorange.gif	go																								0.0	0.514667987823	0.00129699707031	0.45053601265	1.0	q	1340.39092803																																	2015_Jun_24_1324	59.9645442796	LearningTask	1	64	
143	-200.0	a	-200.0																	1.0	0.0	1.0	0.0	4.0	3.0	19.0	3.0																													a	1.0	0.36739301681500003	None	0.0	2.0	hexagonorange.gif	go																								2.13	0.513869047165	0.000900983810425	0.367393016815	1.0	a	1343.39408207																																	2015_Jun_24_1324	59.9645442796	LearningTask	1	64	
144	-200.0	q	200.0																	1.0	0.0	1.0	0.0	5.0	0.0	20.0	1.0																													q	1.0	0.31736779213000005	None	0.0	4.0	crossblue.gif	stop																								3.83	0.514373064041	0.0008831024169919999	0.31736779213	1.0	q	1346.39749408																																	2015_Jun_24_1324	59.9645442796	LearningTask	1	64	
145	-200.0	q	200.0																	1.0	0.0	1.0	0.0	5.0	1.0	21.0	1.0																													q	1.0	0.38417196273800003	None	0.0	1.0	invertedtrianglegreen.gif	go																								0.95	0.514339923859	0.0008749961853029999	0.384171962738	1.0	q	1349.40111113																																	2015_Jun_24_1324	59.9645442796	LearningTask	1	64	
146	-200.0	a	-200.0																	1.0	0.0	1.0	0.0	5.0	2.0	22.0	3.0																													a	1.0	0.38407993316699995	None	0.0	1.0	invertedtrianglegreen.gif	go																								0.93	0.513914108276	0.0008821487426760002	0.384079933167	1.0	a	1352.40422201																																	2015_Jun_24_1324	59.9645442796	LearningTask	1	64	
147	200.0	s	-200.0																	1.0	0.0	1.0	0.0	5.0	3.0	23.0	2.0																													s	1.0	0.401176929474	None	0.0	0.5	trianglemagenta.gif	stop																								0.45	0.513974189758	0.00102519989014	0.401176929474	1.0	s	1355.40737915																																	2015_Jun_24_1324	59.9645442796	LearningTask	1	64	
148	200.0	w	200.0																	1.0	0.0	1.0	0.0	6.0	0.0	24.0	0.0																													w	1.0	0.367416143417	None	0.0	2.0	hexagonorange.gif	go																								2.12	0.514465093613	0.000880002975464	0.367416143417	1.0	w	1358.41103721																																	2015_Jun_24_1324	59.9645442796	LearningTask	1	64	
149	-200.0	q	200.0																	1.0	0.0	1.0	0.0	6.0	1.0	25.0	1.0																													q	1.0	0.33403396606400004	None	0.0	2.0	hexagonorange.gif	go																								0.0	0.514250040054	0.0008909702301030001	0.334033966064	1.0	q	1361.41414118																																	2015_Jun_24_1324	59.9645442796	LearningTask	1	64	
150	-200.0	q	200.0																	1.0	0.0	1.0	0.0	6.0	2.0	26.0	1.0																													q	1.0	0.5010399818419999	None	0.0	0.5	trianglemagenta.gif	stop																								0.55	0.514456987381	0.0010302066803	0.501039981842	1.0	q	1364.4175992																																	2015_Jun_24_1324	59.9645442796	LearningTask	1	64	
151	-200.0	a	-200.0																	1.0	0.0	1.0	0.0	6.0	3.0	27.0	3.0																													a	1.0	0.333926916122	None	0.0	1.0	invertedtrianglegreen.gif	go																								1.25	0.514433860779	0.0008769035339360002	0.333926916122	1.0	a	1367.42083216																																	2015_Jun_24_1324	59.9645442796	LearningTask	1	64	
152	200.0	w	200.0																	1.0	0.0	1.0	0.0	7.0	0.0	28.0	0.0																													w	1.0	0.351339101791	None	0.0	0.5	diamondgray.gif	go																								0.53	0.51429605484	0.0008821487426760002	0.351339101791	1.0	w	1370.42425108																																	2015_Jun_24_1324	59.9645442796	LearningTask	1	64	
153	-200.0	q	200.0																	1.0	0.0	1.0	0.0	7.0	1.0	29.0	1.0																													q	1.0	0.368147850037	None	0.0	0.5	trianglemagenta.gif	stop																								0.59	0.514043092728	0.0009591579437260001	0.368147850037	1.0	q	1373.4277072																																	2015_Jun_24_1324	59.9645442796	LearningTask	1	64	
154	-200.0	q	200.0																	1.0	0.0	1.0	0.0	7.0	2.0	30.0	1.0																													q	1.0	0.36761403083800004	None	0.0	4.0	crossblue.gif	stop																								4.16	0.514097929001	0.000940799713135	0.367614030838	1.0	q	1376.43096399																																	2015_Jun_24_1324	59.9645442796	LearningTask	1	64	
155	-200.0	q	200.0																	1.0	0.0	1.0	0.0	7.0	3.0	31.0	1.0																													q	1.0	0.367547035217	None	0.0	2.0	hexagonorange.gif	go																								1.76	0.514355182648	0.00088095664978	0.367547035217	1.0	q	1379.43453002																																	2015_Jun_24_1324	59.9645442796	LearningTask	1	64	
156	200.0	s	-200.0																	1.0	0.0	1.0	0.0	8.0	0.0	32.0	2.0																													s	1.0	0.40103197097800003	None	0.0	2.0	linecyan.gif	stop																								2.08	0.513994932175	0.0012938976287799999	0.401031970978	1.0	s	1382.43776321																																	2015_Jun_24_1324	59.9645442796	LearningTask	1	64	
157	200.0	s	-200.0																	1.0	0.0	1.0	0.0	8.0	1.0	33.0	2.0																													s	1.0	0.38406300544699995	None	0.0	1.0	circlewhite.gif	stop																								0.79	0.514266014099	0.000885009765625	0.384063005447	1.0	s	1385.44098115																																	2015_Jun_24_1324	59.9645442796	LearningTask	1	64	
158	-200.0	a	-200.0																	1.0	0.0	1.0	0.0	8.0	2.0	34.0	3.0																													a	1.0	0.384018182755	None	0.0	2.0	hexagonorange.gif	go																								1.8	0.514376878738	0.00088906288147	0.384018182755	1.0	a	1388.44468021																																	2015_Jun_24_1324	59.9645442796	LearningTask	1	64	
159	-200.0	a	-200.0																	1.0	0.0	1.0	0.0	8.0	3.0	35.0	3.0																													a	1.0	0.36747694015500004	None	0.0	1.0	invertedtrianglegreen.gif	go																								0.0	0.5140001773830001	0.0009140968322749999	0.367476940155	1.0	a	1391.44775605																																	2015_Jun_24_1324	59.9645442796	LearningTask	1	64	
160	200.0	s	-200.0																	1.0	0.0	1.0	0.0	9.0	0.0	36.0	2.0																													s	1.0	0.38397192955	None	0.0	0.5	diamondgray.gif	go																								0.27	0.5145308971410001	0.00284290313721	0.38397192955	1.0	s	1394.45095611																																	2015_Jun_24_1324	59.9645442796	LearningTask	1	64	
161	200.0	w	200.0																	1.0	0.0	1.0	0.0	9.0	1.0	37.0	0.0																													w	1.0	0.416980981827	None	0.0	0.5	diamondgray.gif	go																								0.42	0.5144820213319999	0.0009100437164310001	0.416980981827	1.0	w	1397.45475006																																	2015_Jun_24_1324	59.9645442796	LearningTask	1	64	
162	-200.0	q	200.0																	1.0	0.0	1.0	0.0	9.0	2.0	38.0	1.0																													q	1.0	0.267731904984	None	0.0	0.5	trianglemagenta.gif	stop																								0.61	0.514073133469	0.0008940696716310001	0.267731904984	1.0	q	1400.45778918																																	2015_Jun_24_1324	59.9645442796	LearningTask	1	64	
163	200.0	s	-200.0																	1.0	0.0	1.0	0.0	9.0	3.0	39.0	2.0																													s	1.0	0.351279020309	None	0.0	4.0	squareyellow.gif	go																								4.2	0.5143249034880001	0.000881910324097	0.351279020309	1.0	s	1403.46102715																																	2015_Jun_24_1324	59.9645442796	LearningTask	1	64	
164	200.0	s	-200.0																	1.0	0.0	1.0	0.0	10.0	0.0	40.0	2.0																													s	1.0	0.417402982712	None	0.0	2.0	linecyan.gif	stop																								2.24	0.5145628452300001	0.000877857208252	0.417402982712	1.0	s	1406.46491122																																	2015_Jun_24_1324	59.9645442796	LearningTask	1	64	
165	200.0	w	200.0																	1.0	0.0	1.0	0.0	10.0	1.0	41.0	0.0																													w	1.0	0.38406705856299994	None	0.0	4.0	crossblue.gif	stop																								4.0	0.514014005661	0.0008769035339360002	0.384067058563	1.0	w	1409.46795511																																	2015_Jun_24_1324	59.9645442796	LearningTask	1	64	
166	-200.0	a	-200.0																	1.0	0.0	1.0	0.0	10.0	2.0	42.0	3.0																													a	1.0	0.317826032639	None	0.0	1.0	circlewhite.gif	stop																								0.99	0.514209032059	0.0009479522705080001	0.317826032639	1.0	a	1412.47122121																																	2015_Jun_24_1324	59.9645442796	LearningTask	1	64	
167	200.0	s	-200.0																	1.0	0.0	1.0	0.0	10.0	3.0	43.0	2.0																													s	1.0	0.350796937943	None	0.0	4.0	crossblue.gif	stop																								4.22	0.514759778976	0.00088095664978	0.350796937943	1.0	s	1415.47459316																																	2015_Jun_24_1324	59.9645442796	LearningTask	1	64	
168	-200.0	a	-200.0																	1.0	0.0	1.0	0.0	11.0	0.0	44.0	3.0																													a	1.0	0.350935220718	None	0.0	0.5	diamondgray.gif	go																								0.68	0.514153003693	0.0010769367217999999	0.350935220718	1.0	a	1418.47799611																																	2015_Jun_24_1324	59.9645442796	LearningTask	1	64	
169	200.0	s	-200.0																	1.0	0.0	1.0	0.0	11.0	1.0	45.0	2.0																													s	1.0	0.334609031677	None	0.0	2.0	hexagonorange.gif	go																								2.08	0.514126062393	0.000923871994019	0.334609031677	1.0	s	1421.48131418																																	2015_Jun_24_1324	59.9645442796	LearningTask	1	64	
170	-200.0	q	200.0																	1.0	0.0	1.0	0.0	11.0	2.0	46.0	1.0																													q	1.0	0.351044893265	None	0.0	0.5	trianglemagenta.gif	stop																								0.43	0.514374017715	0.000888824462891	0.351044893265	1.0	q	1424.48496199																																	2015_Jun_24_1324	59.9645442796	LearningTask	1	64	
171	200.0	s	-200.0																	1.0	0.0	1.0	0.0	11.0	3.0	47.0	2.0																													s	1.0	0.36734509468099996	None	0.0	2.0	linecyan.gif	stop																								1.93	0.514117002487	0.0008859634399410001	0.367345094681	1.0	s	1427.48819804																																	2015_Jun_24_1324	59.9645442796	LearningTask	1	64	
172	200.0	w	200.0																	1.0	0.0	1.0	0.0	12.0	0.0	48.0	0.0																													w	1.0	0.41739988327	None	0.0	4.0	crossblue.gif	stop																								0.0	0.514156103134	0.0010659694671599999	0.41739988327	1.0	w	1430.49140501																																	2015_Jun_24_1324	59.9645442796	LearningTask	1	64	
173	200.0	w	200.0																	1.0	0.0	1.0	0.0	12.0	1.0	49.0	0.0																													w	1.0	0.4006960392	None	0.0	1.0	invertedtrianglegreen.gif	go																								0.0	0.514349937439	0.000885009765625	0.4006960392	1.0	w	1433.49479103																																	2015_Jun_24_1324	59.9645442796	LearningTask	1	64	
174	200.0	s	-200.0																	1.0	0.0	1.0	0.0	12.0	2.0	50.0	2.0																													s	1.0	0.401062965393	None	0.0	0.5	diamondgray.gif	go																								0.57	0.514064073563	0.00090503692627	0.401062965393	1.0	s	1436.49840522																																	2015_Jun_24_1324	59.9645442796	LearningTask	1	64	
175	-200.0	a	-200.0																	1.0	0.0	1.0	0.0	12.0	3.0	51.0	3.0																													a	1.0	0.33457207679699996	None	0.0	4.0	crossblue.gif	stop																								4.04	0.5135710239410001	0.0009100437164310001	0.334572076797	1.0	a	1439.50147319																																	2015_Jun_24_1324	59.9645442796	LearningTask	1	64	
176	200.0	s	-200.0																	1.0	0.0	1.0	0.0	13.0	0.0	52.0	2.0																													s	1.0	0.35080003738399995	None	0.0	1.0	circlewhite.gif	stop																								1.2	0.514360189438	0.0008780956268310002	0.350800037384	1.0	s	1442.50482607																																	2015_Jun_24_1324	59.9645442796	LearningTask	1	64	
177	200.0	s	-200.0																	1.0	0.0	1.0	0.0	13.0	1.0	53.0	2.0																													s	1.0	0.367300033569	None	0.0	1.0	circlewhite.gif	stop																								1.15	0.514420986176	0.0008840560913089999	0.367300033569	1.0	s	1445.50862718																																	2015_Jun_24_1324	59.9645442796	LearningTask	1	64	
178	200.0	w	200.0																	1.0	0.0	1.0	0.0	13.0	2.0	54.0	0.0																													w	1.0	0.367648839951	None	0.0	0.5	diamondgray.gif	go																								0.46	0.5137560367580001	0.000882863998413	0.367648839951	1.0	w	1448.51166701																																	2015_Jun_24_1324	59.9645442796	LearningTask	1	64	
179	-200.0	a	-200.0																	1.0	0.0	1.0	0.0	13.0	3.0	55.0	3.0																													a	1.0	0.33456993103	None	0.0	2.0	linecyan.gif	stop																								0.0	0.513942956924	0.0009529590606689998	0.33456993103	1.0	a	1451.51478815																																	2015_Jun_24_1324	59.9645442796	LearningTask	1	64	
180	200.0	s	-200.0																	1.0	0.0	1.0	0.0	14.0	0.0	56.0	2.0																													s	1.0	0.350878000259	None	0.0	4.0	crossblue.gif	stop																								4.16	0.514367818832	0.00089693069458	0.350878000259	1.0	s	1454.51851821																																	2015_Jun_24_1324	59.9645442796	LearningTask	1	64	
181	200.0	w	200.0																	1.0	0.0	1.0	0.0	14.0	1.0	57.0	0.0																													w	1.0	0.36805486679099997	None	0.0	2.0	linecyan.gif	stop																								1.76	0.5140399932859999	0.0008759498596189999	0.368054866791	1.0	w	1457.521559																																	2015_Jun_24_1324	59.9645442796	LearningTask	1	64	
182	-200.0	q	200.0																	1.0	0.0	1.0	0.0	14.0	2.0	58.0	1.0																													q	1.0	0.317775011063	None	0.0	1.0	circlewhite.gif	stop																								0.84	0.5142381191250001	0.000974178314209	0.317775011063	1.0	q	1460.52499413																																	2015_Jun_24_1324	59.9645442796	LearningTask	1	64	
183	-200.0	a	-200.0																	1.0	0.0	1.0	0.0	14.0	3.0	59.0	3.0																													a	1.0	0.301253080368	None	0.0	4.0	squareyellow.gif	go																								4.03	0.514403104782	0.000880002975464	0.301253080368	1.0	a	1463.52836919																																	2015_Jun_24_1324	59.9645442796	LearningTask	1	64	
184	-200.0	q	200.0																	1.0	0.0	1.0	0.0	15.0	0.0	60.0	1.0																													q	1.0	0.251256942749	None	0.0	4.0	squareyellow.gif	go																								0.0	0.514231920242	0.000942945480347	0.301250934601	0.0	a	1466.53168702	3.98	0.515387058258	0.00111603736877	0.251256942749	1.0	q	1469.53491211																										2015_Jun_24_1324	59.9645442796	LearningTask	1	64	
185	200.0	s	-200.0																	1.0	0.0	1.0	0.0	15.0	1.0	61.0	2.0																													s	1.0	0.401108026505	None	0.0	0.5	trianglemagenta.gif	stop																								0.3	0.514592885971	0.000885009765625	0.401108026505	1.0	s	1472.53859019																																	2015_Jun_24_1324	59.9645442796	LearningTask	1	64	
186	-200.0	a	-200.0																	1.0	0.0	1.0	0.0	15.0	2.0	62.0	3.0																													a	1.0	0.317510128021	None	0.0	1.0	circlewhite.gif	stop																								1.25	0.514347076416	0.000887155532837	0.317510128021	1.0	a	1475.54172611																																	2015_Jun_24_1324	59.9645442796	LearningTask	1	64	
187	200.0	s	-200.0																	1.0	0.0	1.0	0.0	15.0	3.0	63.0	2.0																													s	1.0	0.383823871613	None	0.0	1.0	invertedtrianglegreen.gif	go																								1.03	0.514284849167	0.000938892364502	0.383823871613	1.0	s	1478.5450592																																	2015_Jun_24_1324	59.9645442796	LearningTask	1	64	
188	200.0	w	200.0																	1.0	0.0	1.0	0.0	16.0	0.0	64.0	0.0																													w	1.0	0.333992004395	None	0.0	1.0	circlewhite.gif	stop																								0.0	0.514484882355	0.0008869171142580001	0.333992004395	1.0	w	1481.54852819																																	2015_Jun_24_1324	59.9645442796	LearningTask	1	64	
189	200.0	w	200.0																	1.0	0.0	1.0	0.0	16.0	1.0	65.0	0.0																													w	1.0	0.41787481307999996	None	0.0	2.0	hexagonorange.gif	go																								0.0	0.514127969742	0.000881910324097	0.217636108398	0.0	q	1484.55208421	1.96	0.515043973923	0.00112199783325	0.41787481307999996	1.0	w	1487.55506802																										2015_Jun_24_1324	59.9645442796	LearningTask	1	64	
190	200.0	s	-200.0																	1.0	0.0	1.0	0.0	16.0	2.0	66.0	2.0																													s	1.0	0.367478847504	None	0.0	1.0	invertedtrianglegreen.gif	go																								0.0	0.514357089996	0.00088906288147	0.367478847504	1.0	s	1490.5582880999998																																	2015_Jun_24_1324	59.9645442796	LearningTask	1	64	
191	-200.0	q	200.0																	1.0	0.0	1.0	0.0	16.0	3.0	67.0	1.0																													q	1.0	0.366625070572	None	0.0	2.0	linecyan.gif	stop																								1.83	0.514870882034	0.000880002975464	0.366625070572	1.0	q	1493.56227016																																	2015_Jun_24_1324	59.9645442796	LearningTask	1	64	
192	200.0	s	-200.0																	1.0	0.0	1.0	0.0	17.0	0.0	68.0	2.0																													s	1.0	0.367892980576	None	0.0	4.0	crossblue.gif	stop																								3.99	0.513864994049	0.000890016555786	0.367892980576	1.0	s	1496.56527305																																	2015_Jun_24_1324	59.9645442796	LearningTask	1	64	
193	-200.0	a	-200.0																	1.0	0.0	1.0	0.0	17.0	1.0	69.0	3.0																													a	1.0	0.333838939667	None	0.0	1.0	invertedtrianglegreen.gif	go																								1.02	0.5145418643949999	0.0008878707885739998	0.333838939667	1.0	a	1499.56867218																																	2015_Jun_24_1324	59.9645442796	LearningTask	1	64	
194	-200.0	a	-200.0																	1.0	0.0	1.0	0.0	17.0	2.0	70.0	3.0																													a	1.0	0.467162847519	None	0.0	0.5	trianglemagenta.gif	stop																								0.4	0.514402151108	0.0008790493011469999	0.467162847519	1.0	a	1502.57198715																																	2015_Jun_24_1324	59.9645442796	LearningTask	1	64	
195	-200.0	a	-200.0																	1.0	0.0	1.0	0.0	17.0	3.0	71.0	3.0																													a	1.0	0.367710113525	None	0.0	0.5	diamondgray.gif	go																								0.39	0.514492034912	0.000880002975464	0.367710113525	1.0	a	1505.57538414																																	2015_Jun_24_1324	59.9645442796	LearningTask	1	64	
196	-200.0	a	-200.0																	1.0	0.0	1.0	0.0	18.0	0.0	72.0	3.0																													a	1.0	0.36752080917400004	None	0.0	0.5	trianglemagenta.gif	stop																								0.52	0.514170885086	0.00107598304749	0.367520809174	1.0	a	1508.5786972																																	2015_Jun_24_1324	59.9645442796	LearningTask	1	64	
197	-200.0	a	-200.0																	1.0	0.0	1.0	0.0	18.0	1.0	73.0	3.0																													a	1.0	0.333960056305	None	0.0	1.0	circlewhite.gif	stop																								1.0	0.514526844025	0.000877857208252	0.333960056305	1.0	a	1511.58199501																																	2015_Jun_24_1324	59.9645442796	LearningTask	1	64	
198	-200.0	q	200.0																	1.0	0.0	1.0	0.0	18.0	2.0	74.0	1.0																													q	1.0	0.317763090134	None	0.0	2.0	hexagonorange.gif	go																								1.9	0.514350891113	0.000904083251953	0.317763090134	1.0	q	1514.58531809																																	2015_Jun_24_1324	59.9645442796	LearningTask	1	64	
199	-200.0	q	200.0																	1.0	0.0	1.0	0.0	18.0	3.0	75.0	1.0																													q	1.0	0.36799383163500005	None	0.0	2.0	linecyan.gif	stop																								1.96	0.51397895813	0.0009369850158689999	0.367993831635	1.0	q	1517.58864713																																	2015_Jun_24_1324	59.9645442796	LearningTask	1	64	
200	200.0	s	-200.0																	1.0	0.0	1.0	0.0	19.0	0.0	76.0	2.0																													s	1.0	0.33469700813299996	None	0.0	1.0	invertedtrianglegreen.gif	go																								0.95	0.514491081238	0.0008749961853029999	0.334697008133	1.0	s	1520.5925230999999																																	2015_Jun_24_1324	59.9645442796	LearningTask	1	64	
201	-200.0	a	-200.0																	1.0	0.0	1.0	0.0	19.0	1.0	77.0	3.0																													a	1.0	0.36807012557999996	None	0.0	1.0	invertedtrianglegreen.gif	go																								0.91	0.513817071915	0.000877141952515	0.36807012558	1.0	a	1523.59555912																																	2015_Jun_24_1324	59.9645442796	LearningTask	1	64	
202	-200.0	q	200.0																	1.0	0.0	1.0	0.0	19.0	2.0	78.0	1.0																													q	1.0	0.400684833527	None	0.0	0.5	trianglemagenta.gif	stop																								0.0	0.514211893082	0.0008869171142580001	0.400684833527	1.0	q	1526.59871602																																	2015_Jun_24_1324	59.9645442796	LearningTask	1	64	
203	200.0	w	200.0																	1.0	0.0	1.0	0.0	19.0	3.0	79.0	0.0																													w	1.0	0.41735100746200005	None	0.0	1.0	invertedtrianglegreen.gif	go																								1.25	0.514442920685	0.000880002975464	0.417351007462	1.0	w	1529.60213113																																	2015_Jun_24_1324	59.9645442796	LearningTask	1	64	
204	200.0	w	200.0																	1.0	0.0	1.0	0.0	20.0	0.0	80.0	0.0																													w	1.0	0.38422298431400004	None	0.0	1.0	invertedtrianglegreen.gif	go																								1.25	0.51428604126	0.0008759498596189999	0.384222984314	1.0	w	1532.6054789999998																																	2015_Jun_24_1324	59.9645442796	LearningTask	1	64	
205	200.0	w	200.0																	1.0	0.0	1.0	0.0	20.0	1.0	81.0	0.0																													w	1.0	0.43410491943400004	None	0.0	1.0	circlewhite.gif	stop																								1.03	0.514175891876	0.0009338855743410001	0.434104919434	1.0	w	1535.60891008																																	2015_Jun_24_1324	59.9645442796	LearningTask	1	64	
206	-200.0	a	-200.0																	1.0	0.0	1.0	0.0	20.0	2.0	82.0	3.0																													a	1.0	0.400707960129	None	0.0	4.0	squareyellow.gif	go																								3.98	0.514375209808	0.0008740425109860002	0.400707960129	1.0	a	1538.61231613																																	2015_Jun_24_1324	59.9645442796	LearningTask	1	64	
207	200.0	w	200.0																	1.0	0.0	1.0	0.0	20.0	3.0	83.0	0.0																													w	1.0	0.41736102104199996	None	0.0	2.0	linecyan.gif	stop																								2.2	0.51442193985	0.0008728504180910001	0.417361021042	1.0	w	1541.61571121																																	2015_Jun_24_1324	59.9645442796	LearningTask	1	64	
208	-200.0	q	200.0																	1.0	0.0	1.0	0.0	21.0	0.0	84.0	1.0																													q	1.0	0.36739516258199995	None	0.0	4.0	squareyellow.gif	go																								3.76	0.514290094376	0.0008680820465089999	0.367395162582	1.0	q	1544.61897302																																	2015_Jun_24_1324	59.9645442796	LearningTask	1	64	
209	200.0	w	200.0																	1.0	0.0	1.0	0.0	21.0	1.0	85.0	0.0																													w	1.0	0.334156990051	None	0.0	2.0	linecyan.gif	stop																								1.88	0.514279127121	0.0008862018585209999	0.334156990051	1.0	w	1547.62209916																																	2015_Jun_24_1324	59.9645442796	LearningTask	1	64	
210	200.0	s	-200.0																	1.0	0.0	1.0	0.0	21.0	2.0	86.0	2.0																													s	1.0	0.384238004684	None	0.0	2.0	linecyan.gif	stop																								2.16	0.5144438743590001	0.000873804092407	0.384238004684	1.0	s	1550.62552714																																	2015_Jun_24_1324	59.9645442796	LearningTask	1	64	
211	200.0	s	-200.0																	1.0	0.0	1.0	0.0	21.0	3.0	87.0	2.0																													s	1.0	0.350703001022	None	0.0	2.0	linecyan.gif	stop																								2.06	0.514534950256	0.000885009765625	0.350703001022	1.0	s	1553.62894106																																	2015_Jun_24_1324	59.9645442796	LearningTask	1	64	
212	200.0	s	-200.0																	1.0	0.0	1.0	0.0	22.0	0.0	88.0	2.0																													s	1.0	0.36694908142099997	None	0.0	2.0	linecyan.gif	stop																								1.85	0.514493942261	0.000977039337158	0.366949081421	1.0	s	1556.63230801																																	2015_Jun_24_1324	59.9645442796	LearningTask	1	64	
213	200.0	w	200.0																	1.0	0.0	1.0	0.0	22.0	1.0	89.0	0.0																													w	1.0	0.384609937668	None	0.0	4.0	squareyellow.gif	go																								0.0	0.514318943024	0.0008718967437739999	0.384609937668	1.0	w	1559.63573813																																	2015_Jun_24_1324	59.9645442796	LearningTask	1	64	
214	200.0	w	200.0																	1.0	0.0	1.0	0.0	22.0	2.0	90.0	0.0																													w	1.0	0.35125279426600003	None	0.0	0.5	trianglemagenta.gif	stop																								0.6	0.514331817627	0.0008769035339360002	0.351252794266	1.0	w	1562.63902402																																	2015_Jun_24_1324	59.9645442796	LearningTask	1	64	
215	200.0	s	-200.0																	1.0	0.0	1.0	0.0	22.0	3.0	91.0	2.0																													s	1.0	0.401387929916	None	0.0	4.0	crossblue.gif	stop																								0.0	0.514033079147	0.0009360313415529999	0.401387929916	1.0	s	1565.64233303																																	2015_Jun_24_1324	59.9645442796	LearningTask	1	64	
216	-200.0	q	200.0																	1.0	0.0	1.0	0.0	23.0	0.0	92.0	1.0																													q	1.0	0.33426809310899996	None	0.0	4.0	squareyellow.gif	go																								3.97	0.514345884323	0.0008749961853029999	0.334268093109	1.0	q	1568.64570618																																	2015_Jun_24_1324	59.9645442796	LearningTask	1	64	
217	200.0	s	-200.0																	1.0	0.0	1.0	0.0	23.0	1.0	93.0	2.0																													s	1.0	0.36749911308300004	None	0.0	4.0	squareyellow.gif	go																								4.01	0.514321088791	0.000871181488037	0.367499113083	1.0	s	1571.64922404																																	2015_Jun_24_1324	59.9645442796	LearningTask	1	64	
218	200.0	w	200.0																	1.0	0.0	1.0	0.0	23.0	2.0	94.0	0.0																													w	1.0	0.334336996078	None	0.0	0.5	trianglemagenta.gif	stop																								0.63	0.51393198967	0.000900030136108	0.334336996078	1.0	w	1574.65279603																																	2015_Jun_24_1324	59.9645442796	LearningTask	1	64	
219	-200.0	q	200.0																	1.0	0.0	1.0	0.0	23.0	3.0	95.0	1.0																													q	1.0	0.334245920181	None	0.0	2.0	hexagonorange.gif	go																								1.79	0.513530015945	0.0009751319885249999	0.334245920181	1.0	q	1577.65588903																																	2015_Jun_24_1324	59.9645442796	LearningTask	1	64	
220	200.0	w	200.0																	1.0	0.0	1.0	0.0	24.0	0.0	96.0	0.0																													w	1.0	0.36786293983499996	None	0.0	4.0	crossblue.gif	stop																								3.91	0.514278173447	0.0008831024169919999	0.367862939835	1.0	w	1580.65957904																																	2015_Jun_24_1324	59.9645442796	LearningTask	1	64	
221	-200.0	a	-200.0																	1.0	0.0	1.0	0.0	24.0	1.0	97.0	3.0																													a	1.0	0.484074831009	None	0.0	2.0	linecyan.gif	stop																								2.09	0.513990879059	0.00089693069458	0.484074831009	1.0	a	1583.66260219																																	2015_Jun_24_1324	59.9645442796	LearningTask	1	64	
222	-200.0	a	-200.0																	1.0	0.0	1.0	0.0	24.0	2.0	98.0	3.0																													a	1.0	0.41766500473000007	None	0.0	1.0	circlewhite.gif	stop																								0.8	0.5142061710360001	0.00117611885071	0.41766500473	1.0	a	1586.66606116																																	2015_Jun_24_1324	59.9645442796	LearningTask	1	64	
223	200.0	w	200.0																	1.0	0.0	1.0	0.0	24.0	3.0	99.0	0.0																													w	1.0	0.417959928513	None	0.0	1.0	invertedtrianglegreen.gif	go																								1.19	0.5138750076290001	0.0008859634399410001	0.417959928513	1.0	w	1589.66950822																																	2015_Jun_24_1324	59.9645442796	LearningTask	1	64	
224																				1.0	0.0	1.0	0.0																																																																														9.0	199.82748293900002																								2015_Jun_24_1324	59.9645442796	LearningTask	1	64	
225	200.0	w	200.0																	2.0	0.0	2.0	0.0	0.0	0.0	0.0	0.0																													w	1.0	0.351294994354	None	0.0	2.0	hexagonorange.gif	go																								0.0	0.508927822113	0.0010359287262	[]	0.0	None	1793.21395922	0.0	0.5144288539890001	0.0009670257568360001	0.351294994354	1.0	w	1796.21711707			0.40751099586499995																							2015_Jun_24_1324	59.9645442796	LearningTask	1	64	
226	200.0	s	-200.0																	2.0	0.0	2.0	0.0	0.0	1.0	1.0	2.0																													s	1.0	0.333899974823	None	0.0	2.0	hexagonorange.gif	go																								2.03	0.513790130615	0.000877141952515	0.333899974823	1.0	s	1799.22008014																																	2015_Jun_24_1324	59.9645442796	LearningTask	1	64	
227	200.0	w	200.0																	2.0	0.0	2.0	0.0	0.0	2.0	2.0	0.0																													w	1.0	0.384119033813	None	0.0	2.0	hexagonorange.gif	go																								1.86	0.5140981674189999	0.0008821487426760002	0.384119033813	1.0	w	1802.2234261																																	2015_Jun_24_1324	59.9645442796	LearningTask	1	64	
228	200.0	w	200.0																	2.0	0.0	2.0	0.0	0.0	3.0	3.0	0.0																													w	1.0	0.28403496742199996	None	0.0	2.0	hexagonorange.gif	go																								0.0	0.5143349170679999	0.0009169578552250001	0.234151124954	0.0	q	1805.22677302	2.15	0.515352010727	0.000943899154663	0.28403496742199996	1.0	w	1808.22995615																										2015_Jun_24_1324	59.9645442796	LearningTask	1	64	
229	-200.0	q	200.0																	2.0	0.0	2.0	0.0	1.0	0.0	4.0	1.0																													q	1.0	0.333455085754	None	0.0	4.0	squareyellow.gif	go																								0.0	0.5142390728	0.00139403343201	0.35081410408	0.0	a	1811.23366022	3.95	0.515503883362	0.0009608268737789999	0.333455085754	1.0	q	1814.23675513																										2015_Jun_24_1324	59.9645442796	LearningTask	1	64	
230	200.0	s	-200.0																	2.0	0.0	2.0	0.0	1.0	1.0	5.0	2.0																													s	1.0	0.40085411071800003	None	0.0	4.0	crossblue.gif	stop																								0.0	0.514575004578	0.0008931159973139998	0.400854110718	1.0	s	1817.24022007																																	2015_Jun_24_1324	59.9645442796	LearningTask	1	64	
231	-200.0	a	-200.0																	2.0	0.0	2.0	0.0	1.0	2.0	6.0	3.0																													a	1.0	0.333858966827	None	0.0	4.0	squareyellow.gif	go																								3.76	0.514524936676	0.000865936279297	0.333858966827	1.0	a	1820.24364519																																	2015_Jun_24_1324	59.9645442796	LearningTask	1	64	
232	200.0	w	200.0																	2.0	0.0	2.0	0.0	1.0	3.0	7.0	0.0																													w	1.0	0.284164905548	None	0.0	0.5	trianglemagenta.gif	stop																								0.57	0.514187812805	0.0008878707885739998	0.284164905548	1.0	w	1823.24690819																																	2015_Jun_24_1324	59.9645442796	LearningTask	1	64	
233	-200.0	a	-200.0																	2.0	0.0	2.0	0.0	2.0	0.0	8.0	3.0																													a	1.0	0.351031064987	None	0.0	1.0	invertedtrianglegreen.gif	go																								0.0	0.514283895493	0.0010359287262	0.283974885941	0.0	q	1826.25001621	1.04	0.515604972839	0.0009400844573969999	0.351031064987	1.0	a	1829.25349021																										2015_Jun_24_1324	59.9645442796	LearningTask	1	64	
234	200.0	s	-200.0																	2.0	0.0	2.0	0.0	2.0	1.0	9.0	2.0																													s	1.0	0.300935983658	None	0.0	2.0	hexagonorange.gif	go																								2.17	0.514470100403	0.0008821487426760002	0.300935983658	1.0	s	1832.25694919																																	2015_Jun_24_1324	59.9645442796	LearningTask	1	64	
235	-200.0	q	200.0																	2.0	0.0	2.0	0.0	2.0	2.0	10.0	1.0																													q	1.0	0.334224939346	None	0.0	2.0	hexagonorange.gif	go																								1.78	0.514454841614	0.000998973846436	0.334224939346	1.0	q	1835.26039505																																	2015_Jun_24_1324	59.9645442796	LearningTask	1	64	
236	-200.0	a	-200.0																	2.0	0.0	2.0	0.0	2.0	3.0	11.0	3.0																													a	1.0	0.367118835449	None	0.0	0.5	trianglemagenta.gif	stop																								0.55	0.514492988586	0.00087308883667	0.367118835449	1.0	a	1838.2637260000001																																	2015_Jun_24_1324	59.9645442796	LearningTask	1	64	
237	-200.0	q	200.0																	2.0	0.0	2.0	0.0	3.0	0.0	12.0	1.0																													q	1.0	0.300804138184	None	0.0	2.0	linecyan.gif	stop																								2.18	0.5143229961399999	0.00140404701233	0.300804138184	1.0	q	1841.26686716																																	2015_Jun_24_1324	59.9645442796	LearningTask	1	64	
238	-200.0	q	200.0																	2.0	0.0	2.0	0.0	3.0	1.0	13.0	1.0																													q	1.0	0.317195892334	None	0.0	2.0	linecyan.gif	stop																								0.0	0.514616966248	0.000921964645386	0.317195892334	1.0	q	1844.2702961																																	2015_Jun_24_1324	59.9645442796	LearningTask	1	64	
239	200.0	s	-200.0																	2.0	0.0	2.0	0.0	3.0	2.0	14.0	2.0																													s	1.0	0.300689935684	None	0.0	4.0	squareyellow.gif	go																								4.19	0.513673067093	0.000890016555786	0.300689935684	1.0	s	1847.2738502																																	2015_Jun_24_1324	59.9645442796	LearningTask	1	64	
240	-200.0	a	-200.0																	2.0	0.0	2.0	0.0	3.0	3.0	15.0	3.0																													a	1.0	0.333919048309	None	0.0	0.5	trianglemagenta.gif	stop																								0.42	0.5144300460819999	0.0008759498596189999	0.333919048309	1.0	a	1850.27720022																																	2015_Jun_24_1324	59.9645442796	LearningTask	1	64	
241	-200.0	q	200.0																	2.0	0.0	2.0	0.0	4.0	0.0	16.0	1.0																													q	1.0	0.283715009689	None	0.0	1.0	invertedtrianglegreen.gif	go																								0.0	0.513892889023	0.00090503692627	0.334536075592	0.0	a	1853.28039122	1.02	0.515778064728	0.000951051712036	0.283715009689	1.0	q	1856.28381109																										2015_Jun_24_1324	59.9645442796	LearningTask	1	64	
242	-200.0	q	200.0																	2.0	0.0	2.0	0.0	4.0	1.0	17.0	1.0																													q	1.0	0.351177930832	None	0.0	1.0	circlewhite.gif	stop																								0.9	0.514205932617	0.000882863998413	0.351177930832	1.0	q	1859.28753304																																	2015_Jun_24_1324	59.9645442796	LearningTask	1	64	
243	200.0	w	200.0																	2.0	0.0	2.0	0.0	4.0	2.0	18.0	0.0																													w	1.0	0.367887020111	None	0.0	4.0	crossblue.gif	stop																								4.15	0.513870954514	0.000880002975464	0.367887020111	1.0	w	1862.29064512																																	2015_Jun_24_1324	59.9645442796	LearningTask	1	64	
244	200.0	w	200.0																	2.0	0.0	2.0	0.0	4.0	3.0	19.0	0.0																													w	1.0	0.350490093231	None	0.0	4.0	crossblue.gif	stop																								3.94	0.5144388675689999	0.0008769035339360002	0.350490093231	1.0	w	1865.29387116																																	2015_Jun_24_1324	59.9645442796	LearningTask	1	64	
245	200.0	w	200.0																	2.0	0.0	2.0	0.0	5.0	0.0	20.0	0.0																													w	1.0	0.317974090576	None	0.0	0.5	trianglemagenta.gif	stop																								0.71	0.514425039291	0.000881910324097	0.317974090576	1.0	w	1868.29743505																																	2015_Jun_24_1324	59.9645442796	LearningTask	1	64	
246	-200.0	a	-200.0																	2.0	0.0	2.0	0.0	5.0	1.0	21.0	3.0																													a	1.0	0.35125803947400003	None	0.0	0.5	trianglemagenta.gif	stop																								0.3	0.51406788826	0.0008840560913089999	0.351258039474	1.0	a	1871.30071211																																	2015_Jun_24_1324	59.9645442796	LearningTask	1	64	
247	200.0	s	-200.0																	2.0	0.0	2.0	0.0	5.0	2.0	22.0	2.0																													s	1.0	0.333878040314	None	0.0	2.0	linecyan.gif	stop																								1.95	0.514282941818	0.00100994110107	0.333878040314	1.0	s	1874.30373216																																	2015_Jun_24_1324	59.9645442796	LearningTask	1	64	
248	-200.0	q	200.0																	2.0	0.0	2.0	0.0	5.0	3.0	23.0	1.0																													q	1.0	0.284202098846	None	0.0	1.0	circlewhite.gif	stop																								0.91	0.5143928527830001	0.0008769035339360002	0.284202098846	1.0	q	1877.30742621																																	2015_Jun_24_1324	59.9645442796	LearningTask	1	64	
249	200.0	s	-200.0																	2.0	0.0	2.0	0.0	6.0	0.0	24.0	2.0																													s	1.0	0.40086412429799995	None	0.0	2.0	linecyan.gif	stop																								2.18	0.514389038086	0.00088095664978	0.400864124298	1.0	s	1880.31068802																																	2015_Jun_24_1324	59.9645442796	LearningTask	1	64	
250	200.0	w	200.0																	2.0	0.0	2.0	0.0	6.0	1.0	25.0	0.0																													w	1.0	0.400663137436	None	0.0	2.0	hexagonorange.gif	go																								2.02	0.514323949814	0.000941038131714	0.400663137436	1.0	w	1883.31403518																																	2015_Jun_24_1324	59.9645442796	LearningTask	1	64	
251	200.0	s	-200.0																	2.0	0.0	2.0	0.0	6.0	2.0	26.0	2.0																													s	1.0	0.333966970444	None	0.0	0.5	trianglemagenta.gif	stop																								0.4	0.514367103577	0.0008749961853029999	0.333966970444	1.0	s	1886.31759405																																	2015_Jun_24_1324	59.9645442796	LearningTask	1	64	
252	200.0	w	200.0																	2.0	0.0	2.0	0.0	6.0	3.0	27.0	0.0																													w	1.0	0.35135698318499997	None	0.0	0.5	diamondgray.gif	go																								0.66	0.5141551494600001	0.0008862018585209999	0.351356983185	1.0	w	1889.32125616																																	2015_Jun_24_1324	59.9645442796	LearningTask	1	64	
253	-200.0	a	-200.0																	2.0	0.0	2.0	0.0	7.0	0.0	28.0	3.0																													a	1.0	0.58434009552	None	0.0	1.0	circlewhite.gif	stop																								0.0	0.5133368968959999	0.00090503692627	0.58434009552	1.0	a	1892.32406902																																	2015_Jun_24_1324	59.9645442796	LearningTask	1	64	
254	200.0	s	-200.0																	2.0	0.0	2.0	0.0	7.0	1.0	29.0	2.0																													s	1.0	0.334201097488	None	0.0	4.0	squareyellow.gif	go																								3.94	0.5142331123349999	0.0008749961853029999	0.334201097488	1.0	s	1895.327528																																	2015_Jun_24_1324	59.9645442796	LearningTask	1	64	
255	200.0	w	200.0																	2.0	0.0	2.0	0.0	7.0	2.0	30.0	0.0																													w	1.0	0.350858211517	None	0.0	1.0	invertedtrianglegreen.gif	go																								1.17	0.514354944229	0.0013380050659200001	0.350858211517	1.0	w	1898.33078718																																	2015_Jun_24_1324	59.9645442796	LearningTask	1	64	
256	200.0	w	200.0																	2.0	0.0	2.0	0.0	7.0	3.0	31.0	0.0																													w	1.0	0.300940036774	None	0.0	0.5	diamondgray.gif	go																								0.66	0.51424407959	0.0009109973907470001	0.300940036774	1.0	w	1901.33421612																																	2015_Jun_24_1324	59.9645442796	LearningTask	1	64	
257	-200.0	a	-200.0																	2.0	0.0	2.0	0.0	8.0	0.0	32.0	3.0																													a	1.0	0.33459711074799997	None	0.0	4.0	squareyellow.gif	go																								0.0	0.514245986938	0.00087308883667	0.501700162888	0.0	w	1904.33753109	4.0	0.515423059464	0.0009360313415529999	0.33459711074799997	1.0	a	1907.34107518																										2015_Jun_24_1324	59.9645442796	LearningTask	1	64	
258	-200.0	a	-200.0																	2.0	0.0	2.0	0.0	8.0	1.0	33.0	3.0																													a	1.0	0.35054802894599996	None	0.0	4.0	crossblue.gif	stop																								4.24	0.5141639709470001	0.000890016555786	0.350548028946	1.0	a	1910.34425807																																	2015_Jun_24_1324	59.9645442796	LearningTask	1	64	
259	200.0	s	-200.0																	2.0	0.0	2.0	0.0	8.0	2.0	34.0	2.0																													s	1.0	0.317468881607	None	0.0	4.0	squareyellow.gif	go																								3.93	0.514330863953	0.0008718967437739999	0.317468881607	1.0	s	1913.34766912																																	2015_Jun_24_1324	59.9645442796	LearningTask	1	64	
260	-200.0	q	200.0																	2.0	0.0	2.0	0.0	8.0	3.0	35.0	1.0																													q	1.0	0.283851146698	None	0.0	2.0	linecyan.gif	stop																								2.25	0.5143699646000001	0.0008759498596189999	0.283851146698	1.0	q	1916.35109615																																	2015_Jun_24_1324	59.9645442796	LearningTask	1	64	
261	-200.0	q	200.0																	2.0	0.0	2.0	0.0	9.0	0.0	36.0	1.0																													q	1.0	0.31748008728	None	0.0	0.5	diamondgray.gif	go																								0.32	0.514128923416	0.0008838176727290001	0.31748008728	1.0	q	1919.35431504																																	2015_Jun_24_1324	59.9645442796	LearningTask	1	64	
262	-200.0	q	200.0																	2.0	0.0	2.0	0.0	9.0	1.0	37.0	1.0																													q	1.0	0.267611026764	None	0.0	0.5	trianglemagenta.gif	stop																								0.0	0.514262199402	0.000962018966675	0.267611026764	1.0	q	1922.35786915																																	2015_Jun_24_1324	59.9645442796	LearningTask	1	64	
263	-200.0	q	200.0																	2.0	0.0	2.0	0.0	9.0	2.0	38.0	1.0																													q	1.0	0.28403997421300003	None	0.0	1.0	circlewhite.gif	stop																								0.81	0.514107942581	0.0009210109710689999	0.284039974213	1.0	q	1925.36104703																																	2015_Jun_24_1324	59.9645442796	LearningTask	1	64	
264	200.0	s	-200.0																	2.0	0.0	2.0	0.0	9.0	3.0	39.0	2.0																													s	1.0	0.333776950836	None	0.0	1.0	invertedtrianglegreen.gif	go																								0.75	0.514094114304	0.0009591579437260001	0.333776950836	1.0	s	1928.36441708																																	2015_Jun_24_1324	59.9645442796	LearningTask	1	64	
265	-200.0	a	-200.0																	2.0	0.0	2.0	0.0	10.0	0.0	40.0	3.0																													a	1.0	0.31763696670499997	None	0.0	4.0	crossblue.gif	stop																								3.97	0.5140821933749999	0.00119209289551	0.317636966705	1.0	a	1931.36769509																																	2015_Jun_24_1324	59.9645442796	LearningTask	1	64	
266	-200.0	q	200.0																	2.0	0.0	2.0	0.0	10.0	1.0	41.0	1.0																													q	1.0	0.367192983627	None	0.0	4.0	squareyellow.gif	go																								4.05	0.514555931091	0.000913143157959	0.367192983627	1.0	q	1934.37158608																																	2015_Jun_24_1324	59.9645442796	LearningTask	1	64	
267	-200.0	a	-200.0																	2.0	0.0	2.0	0.0	10.0	2.0	42.0	3.0																													a	1.0	0.400578022003	None	0.0	0.5	diamondgray.gif	go																								0.46	0.51389503479	0.0008759498596189999	0.400578022003	1.0	a	1937.37435007																																	2015_Jun_24_1324	59.9645442796	LearningTask	1	64	
268	-200.0	q	200.0																	2.0	0.0	2.0	0.0	10.0	3.0	43.0	1.0																													q	1.0	0.334394931793	None	0.0	1.0	circlewhite.gif	stop																								0.8	0.514100074768	0.0009150505065920001	0.334394931793	1.0	q	1940.37775421																																	2015_Jun_24_1324	59.9645442796	LearningTask	1	64	
269	-200.0	q	200.0																	2.0	0.0	2.0	0.0	11.0	0.0	44.0	1.0																													q	1.0	0.367489099503	None	0.0	2.0	linecyan.gif	stop																								2.22	0.514357089996	0.00087308883667	0.367489099503	1.0	q	1943.38112617																																	2015_Jun_24_1324	59.9645442796	LearningTask	1	64	
270	200.0	w	200.0																	2.0	0.0	2.0	0.0	11.0	1.0	45.0	0.0																													w	1.0	0.367146015167	None	0.0	2.0	linecyan.gif	stop																								2.06	0.514601945877	0.0008759498596189999	0.367146015167	1.0	w	1946.38442111																																	2015_Jun_24_1324	59.9645442796	LearningTask	1	64	
271	200.0	w	200.0																	2.0	0.0	2.0	0.0	11.0	2.0	46.0	0.0																													w	1.0	0.334110021591	None	0.0	4.0	crossblue.gif	stop																								3.86	0.5142588615420001	0.000988006591797	0.334110021591	1.0	w	1949.38784814																																	2015_Jun_24_1324	59.9645442796	LearningTask	1	64	
272	200.0	w	200.0																	2.0	0.0	2.0	0.0	11.0	3.0	47.0	0.0																													w	1.0	0.317723989487	None	0.0	0.5	diamondgray.gif	go																								0.58	0.514287948608	0.00088095664978	0.317723989487	1.0	w	1952.39126921																																	2015_Jun_24_1324	59.9645442796	LearningTask	1	64	
273	-200.0	a	-200.0																	2.0	0.0	2.0	0.0	12.0	0.0	48.0	3.0																													a	1.0	0.40107393264799995	None	0.0	4.0	crossblue.gif	stop																								0.0	0.514183998108	0.000890016555786	0.300750017166	0.0	q	1955.39498901	0.0	0.5148229599	0.000955820083618	0.40107393264799995	1.0	a	1958.39785099																										2015_Jun_24_1324	59.9645442796	LearningTask	1	64	
274	-200.0	q	200.0																	2.0	0.0	2.0	0.0	12.0	1.0	49.0	1.0																													q	1.0	0.45027589798	None	0.0	1.0	circlewhite.gif	stop																								1.23	0.51486992836	0.000873804092407	0.45027589798	1.0	q	1961.40131021																																	2015_Jun_24_1324	59.9645442796	LearningTask	1	64	
275	200.0	w	200.0																	2.0	0.0	2.0	0.0	12.0	2.0	50.0	0.0																													w	1.0	0.317896842957	None	0.0	0.5	trianglemagenta.gif	stop																								0.49	0.514269828796	0.000877857208252	0.317896842957	1.0	w	1964.40478611																																	2015_Jun_24_1324	59.9645442796	LearningTask	1	64	
276	200.0	s	-200.0																	2.0	0.0	2.0	0.0	12.0	3.0	51.0	2.0																													s	1.0	0.384384870529	None	0.0	1.0	circlewhite.gif	stop																								1.18	0.514346122742	0.0008790493011469999	0.384384870529	1.0	s	1967.40787005																																	2015_Jun_24_1324	59.9645442796	LearningTask	1	64	
277	-200.0	a	-200.0																	2.0	0.0	2.0	0.0	13.0	0.0	52.0	3.0																													a	1.0	0.350811958313	None	0.0	1.0	circlewhite.gif	stop																								1.23	0.5142588615420001	0.0011489391326900001	0.350811958313	1.0	a	1970.41114616																																	2015_Jun_24_1324	59.9645442796	LearningTask	1	64	
278	200.0	w	200.0																	2.0	0.0	2.0	0.0	13.0	1.0	53.0	0.0																													w	1.0	0.334180831909	None	0.0	1.0	circlewhite.gif	stop																								1.03	0.5145781040190001	0.0008740425109860002	0.334180831909	1.0	w	1973.41476822																																	2015_Jun_24_1324	59.9645442796	LearningTask	1	64	
279	-200.0	a	-200.0																	2.0	0.0	2.0	0.0	13.0	2.0	54.0	3.0																													a	1.0	0.350995063782	None	0.0	1.0	circlewhite.gif	stop																								0.97	0.514573097229	0.0008790493011469999	0.350995063782	1.0	a	1976.41839719																																	2015_Jun_24_1324	59.9645442796	LearningTask	1	64	
280	-200.0	q	200.0																	2.0	0.0	2.0	0.0	13.0	3.0	55.0	1.0																													q	1.0	0.35114884376500005	None	0.0	1.0	invertedtrianglegreen.gif	go																								0.0	0.513924837112	0.000917911529541	0.284122943878	0.0	a	1979.42141914	0.0	0.515643835068	0.0009448528289790001	0.35114884376500005	1.0	q	1982.42479014																										2015_Jun_24_1324	59.9645442796	LearningTask	1	64	
281	-200.0	a	-200.0																	2.0	0.0	2.0	0.0	14.0	0.0	56.0	3.0																													a	1.0	0.417849779129	None	0.0	2.0	linecyan.gif	stop																								0.0	0.514413833618	0.000894784927368	0.417849779129	1.0	a	1985.42807007																																	2015_Jun_24_1324	59.9645442796	LearningTask	1	64	
282	200.0	w	200.0																	2.0	0.0	2.0	0.0	14.0	1.0	57.0	0.0																													w	1.0	0.317788124084	None	0.0	1.0	invertedtrianglegreen.gif	go																								0.83	0.513989925385	0.0009148120880130001	0.317788124084	1.0	w	1988.43160319																																	2015_Jun_24_1324	59.9645442796	LearningTask	1	64	
283	-200.0	q	200.0																	2.0	0.0	2.0	0.0	14.0	2.0	58.0	1.0																													q	1.0	0.300980806351	None	0.0	0.5	diamondgray.gif	go																								0.0	0.514127969742	0.000873804092407	0.300980806351	1.0	q	1991.43493509																																	2015_Jun_24_1324	59.9645442796	LearningTask	1	64	
284	-200.0	a	-200.0																	2.0	0.0	2.0	0.0	14.0	3.0	59.0	3.0																													a	1.0	0.35068392753600003	None	0.0	2.0	hexagonorange.gif	go																								1.83	0.514367103577	0.0008780956268310002	0.350683927536	1.0	a	1994.43846917																																	2015_Jun_24_1324	59.9645442796	LearningTask	1	64	
285	200.0	s	-200.0																	2.0	0.0	2.0	0.0	15.0	0.0	60.0	2.0																													s	1.0	0.40047001838699997	None	0.0	1.0	invertedtrianglegreen.gif	go																								0.0	0.51395201683	0.0008931159973139998	0.400470018387	1.0	s	1997.44159102																																	2015_Jun_24_1324	59.9645442796	LearningTask	1	64	
286	-200.0	a	-200.0																	2.0	0.0	2.0	0.0	15.0	1.0	61.0	3.0																													a	1.0	0.400734186172	None	0.0	0.5	trianglemagenta.gif	stop																								0.58	0.514221906662	0.0008759498596189999	0.400734186172	1.0	a	2000.44511414																																	2015_Jun_24_1324	59.9645442796	LearningTask	1	64	
287	-200.0	q	200.0																	2.0	0.0	2.0	0.0	15.0	2.0	62.0	1.0																													q	1.0	0.333831071854	None	0.0	4.0	squareyellow.gif	go																								3.79	0.514173984528	0.000869989395142	0.333831071854	1.0	q	2003.44864917																																	2015_Jun_24_1324	59.9645442796	LearningTask	1	64	
288	-200.0	q	200.0																	2.0	0.0	2.0	0.0	15.0	3.0	63.0	1.0																													q	1.0	0.38397383689900005	None	0.0	4.0	crossblue.gif	stop																								3.99	0.513786077499	0.0009338855743410001	0.383973836899	1.0	q	2006.45173216																																	2015_Jun_24_1324	59.9645442796	LearningTask	1	64	
289	-200.0	a	-200.0																	2.0	0.0	2.0	0.0	16.0	0.0	64.0	3.0																													a	1.0	0.33403801918000003	None	0.0	1.0	invertedtrianglegreen.gif	go																								1.13	0.514448881149	0.0008718967437739999	0.33403801918	1.0	a	2009.45497322																																	2015_Jun_24_1324	59.9645442796	LearningTask	1	64	
290	200.0	s	-200.0																	2.0	0.0	2.0	0.0	16.0	1.0	65.0	2.0																													s	1.0	0.333923101425	None	0.0	1.0	circlewhite.gif	stop																								1.23	0.514497995377	0.0008780956268310002	0.333923101425	1.0	s	2012.45854521																																	2015_Jun_24_1324	59.9645442796	LearningTask	1	64	
291	200.0	s	-200.0																	2.0	0.0	2.0	0.0	16.0	2.0	66.0	2.0																													s	1.0	0.400759935379	None	0.0	1.0	invertedtrianglegreen.gif	go																								1.08	0.514397144318	0.0008950233459470001	0.400759935379	1.0	s	2015.46176505																																	2015_Jun_24_1324	59.9645442796	LearningTask	1	64	
