	xPos	corrAns	yPos	corrGoResp	yPosGoStim	xPosGoStim	pracTrials.thisRepN	pracTrials.thisTrialN	pracTrials.thisN	pracTrials.thisIndex	ReDoLoopPrac.thisRepN	ReDoLoopPrac.thisTrialN	ReDoLoopPrac.thisN	ReDoLoopPrac.thisIndex	ReDoLoopPrac.thisTrial	pracStopTrials.thisRepN	pracStopTrials.thisTrialN	pracStopTrials.thisN	pracStopTrials.thisIndex	Blocks.thisRepN	Blocks.thisTrialN	Blocks.thisN	Blocks.thisIndex	trials.thisRepN	trials.thisTrialN	trials.thisN	trials.thisIndex	ReDoLoopMain.thisRepN	ReDoLoopMain.thisTrialN	ReDoLoopMain.thisN	ReDoLoopMain.thisIndex	ReDoLoopMain.thisTrial	StopBlocks.thisRepN	StopBlocks.thisTrialN	StopBlocks.thisN	StopBlocks.thisIndex	StopTrials.thisRepN	StopTrials.thisTrialN	StopTrials.thisN	StopTrials.thisIndex	auctionBlocks.thisRepN	auctionBlocks.thisTrialN	auctionBlocks.thisN	auctionBlocks.thisIndex	auctionTrials.thisRepN	auctionTrials.thisTrialN	auctionTrials.thisN	auctionTrials.thisIndex	learningTrialList	learningPracTrialList	stopTrialList	stopPracTrialList	auctionTrialList	ok1.keys	ok1.rt	resp.keys	resp.corr	resp.rt	feedbackResp.keys	feedbackResp.corr	currentReward	currentStimulus	currentStimType	firstPracComputedRewardOutput	firstPracLearningStimOnset	firstPracLearningFixOnset	firstPracPresentationRT	firstPracPresentationAcc	firstPracPresentationResp	firstPracEndTrialTimeStamp	StartTrialTimeStamp	trialType	goStim	stimType	stopStimValue	goResp.keys	goResp.corr	goResp.rt	key_resp_9.keys	key_resp_9.corr	fixStopOnset	goStimOnset	EndTrialTimeStamp	stopSignalOnset	key_resp_3.keys	key_resp_3.rt	firstComputedRewardOutput	firstLearningStimOnset	firstLearningFixOnset	firstPresentationRT	firstPresentationAcc	firstPresentationResp	firstEndTrialTimeStamp	secondComputedRewardOutput	secondLearningStimOnset	secondLearningFixOnset	secondPresentationRT	secondPresentationAcc	secondPresentationResp	secondEndTrialTimeStamp	key_resp_7.keys	key_resp_7.rt	feedbackResp.rt	beginningSSD	EndingSSD	key_resp_9.rt	key_resp_4.keys	key_resp_4.rt	auctionResponse.keys	auctionStimDuration	auctionStim	auctionAmounts	auctionStimValue	auctionCondition	chosenAuctionAmount	auctionResponse.rt	key_resp_5.keys	key_resp_5.rt	shuffledRewardList	chosenReward1	chosenReward2	chosenReward3	chosenReward4	chosenReward5	key_resp_6.keys	key_resp_6.rt	date	frameRate	expName	session	participant	Unnamed: 131
0																																																	[]	[]	[]	[]	[]	9.0	52.0821931362																																																																								2015_Jul_02_1405	59.8236798453	LearningTask	1	76	
1	-200.0	q	200.0				0.0	0.0	0.0	1.0																																														q	1.0	0.7344169616699999	None	0.0	2.0	triangleblue.gif	go	1.84	0.5075359344479999	0.0743589401245	0.7344169616699999	1.0	q	80.6055920124																																																									2015_Jul_02_1405	59.8236798453	LearningTask	1	76	
2	-200.0	q	200.0				0.0	1.0	1.0	5.0																																														q	1.0	0.6517560482029999	None	0.0	4.0	invertedtrianglegreen.gif	stop	3.78	0.5140311717989999	0.0695099830627	0.6517560482029999	1.0	q	83.6079790592																																																									2015_Jul_02_1405	59.8236798453	LearningTask	1	76	
3	200.0	s	-200.0				0.0	2.0	2.0	2.0																																														s	1.0	0.384370088577	None	0.0	1.0	crosscyan.gif	stop	1.06	0.5150890350339999	0.0384640693665	0.384370088577	1.0	s	86.6112101078																																																									2015_Jul_02_1405	59.8236798453	LearningTask	1	76	
4	-200.0	a	-200.0				0.0	3.0	3.0	7.0																																														a	1.0	0.350968122482	None	0.0	1.0	circlegray.gif	go	0.84	0.515470027924	0.00189113616943	0.350968122482	1.0	a	89.6149880886																																																									2015_Jul_02_1405	59.8236798453	LearningTask	1	76	
5	-200.0	a	-200.0				0.0	4.0	4.0	3.0																																														a	1.0	0.401090145111	None	0.0	4.0	invertedtrianglegreen.gif	stop	3.75	0.514897823334	0.000898838043213	0.401090145111	1.0	a	92.6181299686																																																									2015_Jul_02_1405	59.8236798453	LearningTask	1	76	
6	200.0	w	200.0				0.0	5.0	5.0	0.0																																														w	1.0	0.367109060287	None	0.0	4.0	squareorange.gif	go	3.87	0.515274047852	0.0583729743958	0.367109060287	1.0	w	95.6214630604																																																									2015_Jul_02_1405	59.8236798453	LearningTask	1	76	
7	-200.0	q	200.0				0.0	6.0	6.0	9.0																																														q	1.0	0.401614904404	None	0.0	0.5	linewhite.gif	go	0.59	0.515062093735	0.0018131732940699999	0.401614904404	1.0	q	98.62481999399999																																																									2015_Jul_02_1405	59.8236798453	LearningTask	1	76	
8	200.0	w	200.0				0.0	7.0	7.0	8.0																																														w	1.0	0.350703001022	None	0.0	4.0	invertedtrianglegreen.gif	stop	3.78	0.515160083771	0.0008950233459470001	0.350703001022	1.0	w	101.628107071																																																									2015_Jul_02_1405	59.8236798453	LearningTask	1	76	
9	200.0	s	-200.0				0.0	8.0	8.0	6.0																																														s	1.0	0.351387023926	None	0.0	2.0	diamondmagenta.gif	stop	2.06	0.515229940414	0.043223857879599994	0.351387023926	1.0	s	104.63154006																																																									2015_Jul_02_1405	59.8236798453	LearningTask	1	76	
10	200.0	w	200.0				0.0	9.0	9.0	4.0																																														w	1.0	0.317222118378	None	0.0	2.0	triangleblue.gif	go	0.0	0.515189886093	0.0009319782257080001	0.317222118378	1.0	w	107.63513398200001																																																									2015_Jul_02_1405	59.8236798453	LearningTask	1	76	
11				z	0.0	-200.0										0.0	0.0	0.0	0.0																																																				157.913790941	go	triangleblue.gif	go	2.0	z	1.0	0.401046037674	None	0.0	0.00169396400452	0.510252952576	160.911621094																																												2015_Jul_02_1405	59.8236798453	LearningTask	1	76	
12				m	0.0	200.0										0.0	1.0	1.0	1.0																																																				160.912014008	stop	diamondmagenta.gif	stop	2.0	m	1.0	0.283607959747	None	0.0	0.0013241767883299998	0.5157339572909999	163.914803028	0.765874147415																																											2015_Jul_02_1405	59.8236798453	LearningTask	1	76	
13				m	0.0	200.0										1.0	0.0	2.0	1.0																																																				163.915169001	go	triangleblue.gif	go	2.0	m	1.0	0.467806100845	None	0.0	0.00096607208252	0.5155260562899999	166.91803503																																												2015_Jul_02_1405	59.8236798453	LearningTask	1	76	
14				z	0.0	-200.0										1.0	1.0	3.0	0.0																																																				166.918399096	stop	diamondmagenta.gif	stop	2.0	z	1.0	0.400989055634	None	0.0	0.0009739398956299999	0.515707015991	169.921422958	0.766366004944																																											2015_Jul_02_1405	59.8236798453	LearningTask	1	76	
15				m	0.0	200.0										2.0	0.0	4.0	1.0																																																				169.921781063	stop	diamondmagenta.gif	stop	2.0	None	0.0		None	0.0	0.00107097625732	0.515924930573	172.924806118	0.7658770084379999																																											2015_Jul_02_1405	59.8236798453	LearningTask	1	76	
16				z	0.0	-200.0										2.0	1.0	5.0	0.0																																																				172.925162077	go	squareorange.gif	go	4.0	z	1.0	0.467683076859	None	0.0	0.00148892402649	0.5157618522640001	175.928180933																																												2015_Jul_02_1405	59.8236798453	LearningTask	1	76	
17				m	0.0	200.0										3.0	0.0	6.0	1.0																																																				175.928544044	stop	invertedtrianglegreen.gif	stop	4.0	m	1.0	0.5009369850159999	None	0.0	0.00136590003967	0.516132831573	178.931623936	0.766300916672																																											2015_Jul_02_1405	59.8236798453	LearningTask	1	76	
18				m	0.0	200.0										3.0	1.0	7.0	1.0																																																				178.93198204	stop	invertedtrianglegreen.gif	stop	4.0	None	0.0		None	0.0	0.00101613998413	0.515757083893	181.934900045	0.7661831378939999																																											2015_Jul_02_1405	59.8236798453	LearningTask	1	76	
19				z	0.0	-200.0										4.0	0.0	8.0	0.0																																																				181.935261965	go	circlegray.gif	go	1.0	z	1.0	0.567495107651	None	0.0	0.0015721321106	0.516054153442	184.93829512599999																																												2015_Jul_02_1405	59.8236798453	LearningTask	1	76	
20				z	0.0	-200.0										4.0	1.0	9.0	0.0																																																				184.938698053	go	triangleblue.gif	go	2.0	None	0.0		None	0.0	0.0010008811950700002	0.515763998032	187.941679955																																												2015_Jul_02_1405	59.8236798453	LearningTask	1	76	
21																																																																																					9.0	34.5351810455																																									2015_Jul_02_1405	59.8236798453	LearningTask	1	76	
22																																																						9.0	9.14400100708																																																																								2015_Jul_02_1405	59.8236798453	LearningTask	1	76	
23	200.0	w	200.0																	0.0	0.0	0.0	0.0	0.0	0.0	0.0	0.0																													w	1.0	0.48422002792400004	None	0.0	0.5	hexagonyellow.gif	stop																								0.62	0.508142948151	0.0365700721741	0.48422002792400004	1.0	w	234.762725115																																		2015_Jul_02_1405	59.8236798453	LearningTask	1	76	
24	200.0	w	200.0																	0.0	0.0	0.0	0.0	0.0	1.0	1.0	0.0																													w	1.0	0.333978891373	None	0.0	1.0	crosscyan.gif	stop																								1.12	0.513688087463	0.0012710094451900001	0.333978891373	1.0	w	237.765501022																																		2015_Jul_02_1405	59.8236798453	LearningTask	1	76	
25	-200.0	a	-200.0																	0.0	0.0	0.0	0.0	0.0	2.0	2.0	3.0																													a	1.0	0.351063013077	None	0.0	0.5	linewhite.gif	go																								0.0	0.513841867447	0.00127983093262	0.351063013077	1.0	a	240.76855492599998																																		2015_Jul_02_1405	59.8236798453	LearningTask	1	76	
26	200.0	w	200.0																	0.0	0.0	0.0	0.0	0.0	3.0	3.0	0.0																													w	1.0	0.317593097687	None	0.0	2.0	diamondmagenta.gif	stop																								2.01	0.514605998993	0.00089693069458	0.317593097687	1.0	w	243.772197008																																		2015_Jul_02_1405	59.8236798453	LearningTask	1	76	
27	200.0	s	-200.0																	0.0	0.0	0.0	0.0	1.0	0.0	4.0	2.0																													s	1.0	0.5177278518680001	None	0.0	4.0	invertedtrianglegreen.gif	stop																								4.0	0.514079809189	0.000908851623535	0.5177278518680001	1.0	s	246.77537012099998																																		2015_Jul_02_1405	59.8236798453	LearningTask	1	76	
28	200.0	s	-200.0																	0.0	0.0	0.0	0.0	1.0	1.0	5.0	2.0																													s	1.0	0.501274108887	None	0.0	2.0	diamondmagenta.gif	stop																								1.94	0.514271974564	0.0009338855743410001	0.501274108887	1.0	s	249.77849602700002																																		2015_Jul_02_1405	59.8236798453	LearningTask	1	76	
29	-200.0	q	200.0																	0.0	0.0	0.0	0.0	1.0	2.0	6.0	1.0																													q	1.0	0.351000070572	None	0.0	4.0	squareorange.gif	go																								4.01	0.5141780376430001	0.0009710788726810001	0.351000070572	1.0	q	252.782292128																																		2015_Jul_02_1405	59.8236798453	LearningTask	1	76	
30	200.0	s	-200.0																	0.0	0.0	0.0	0.0	1.0	3.0	7.0	2.0																													s	1.0	0.41724491119400003	None	0.0	4.0	invertedtrianglegreen.gif	stop																								0.0	0.514295101166	0.0009150505065920001	0.41724491119400003	1.0	s	255.78563690200002																																		2015_Jul_02_1405	59.8236798453	LearningTask	1	76	
31	-200.0	q	200.0																	0.0	0.0	0.0	0.0	2.0	0.0	8.0	1.0																													q	1.0	0.400803089142	None	0.0	4.0	invertedtrianglegreen.gif	stop																								3.88	0.5139780044560001	0.000959873199463	0.400803089142	1.0	q	258.788888931																																		2015_Jul_02_1405	59.8236798453	LearningTask	1	76	
32	-200.0	q	200.0																	0.0	0.0	0.0	0.0	2.0	1.0	9.0	1.0																													q	1.0	0.401194095612	None	0.0	0.5	hexagonyellow.gif	stop																								0.0	0.514084815979	0.00094199180603	0.401194095612	1.0	q	261.792192936																																		2015_Jul_02_1405	59.8236798453	LearningTask	1	76	
33	200.0	w	200.0																	0.0	0.0	0.0	0.0	2.0	2.0	10.0	0.0																													w	1.0	0.384063959122	None	0.0	2.0	diamondmagenta.gif	stop																								2.02	0.51442694664	0.0008940696716310001	0.384063959122	1.0	w	264.795484066																																		2015_Jul_02_1405	59.8236798453	LearningTask	1	76	
34	-200.0	a	-200.0																	0.0	0.0	0.0	0.0	2.0	3.0	11.0	3.0																													a	1.0	0.317517995834	None	0.0	2.0	diamondmagenta.gif	stop																								1.87	0.514085054398	0.0009400844573969999	0.317517995834	1.0	a	267.798897982																																		2015_Jul_02_1405	59.8236798453	LearningTask	1	76	
35	-200.0	a	-200.0																	0.0	0.0	0.0	0.0	3.0	0.0	12.0	3.0																													a	1.0	0.317341804504	None	0.0	4.0	invertedtrianglegreen.gif	stop																								4.1	0.514307975769	0.000908136367798	0.317341804504	1.0	a	270.802295923																																		2015_Jul_02_1405	59.8236798453	LearningTask	1	76	
36	200.0	w	200.0																	0.0	0.0	0.0	0.0	3.0	1.0	13.0	0.0																													w	1.0	0.334494113922	None	0.0	2.0	diamondmagenta.gif	stop																								1.8	0.514285802841	0.000900983810425	0.334494113922	1.0	w	273.805649042																																		2015_Jul_02_1405	59.8236798453	LearningTask	1	76	
37	-200.0	q	200.0																	0.0	0.0	0.0	0.0	3.0	2.0	14.0	1.0																													q	1.0	0.351042985916	None	0.0	4.0	squareorange.gif	go																								4.02	0.5141038894650001	0.000922918319702	0.351042985916	1.0	q	276.80905294400003																																		2015_Jul_02_1405	59.8236798453	LearningTask	1	76	
38	-200.0	a	-200.0																	0.0	0.0	0.0	0.0	3.0	3.0	15.0	3.0																													a	1.0	0.400979995728	None	0.0	2.0	triangleblue.gif	go																								0.0	0.51433801651	0.0008919239044189998	0.400979995728	1.0	a	279.812453985																																		2015_Jul_02_1405	59.8236798453	LearningTask	1	76	
39	200.0	s	-200.0																	0.0	0.0	0.0	0.0	4.0	0.0	16.0	2.0																													s	1.0	0.43451499938999993	None	0.0	1.0	crosscyan.gif	stop																								0.0	0.514357089996	0.0008919239044189998	0.43451499938999993	1.0	s	282.816474915																																		2015_Jul_02_1405	59.8236798453	LearningTask	1	76	
40	-200.0	a	-200.0																	0.0	0.0	0.0	0.0	4.0	1.0	17.0	3.0																													a	1.0	0.43404316902199996	None	0.0	0.5	linewhite.gif	go																								0.47	0.513444900513	0.000926971435547	0.43404316902199996	1.0	a	285.819354057																																		2015_Jul_02_1405	59.8236798453	LearningTask	1	76	
41	200.0	w	200.0																	0.0	0.0	0.0	0.0	4.0	2.0	18.0	0.0																													w	1.0	0.43416595459	None	0.0	2.0	triangleblue.gif	go																								2.01	0.514180898666	0.0009119510650630002	0.43416595459	1.0	w	288.82246589700003																																		2015_Jul_02_1405	59.8236798453	LearningTask	1	76	
42	200.0	w	200.0																	0.0	0.0	0.0	0.0	4.0	3.0	19.0	0.0																													w	1.0	0.417098999023	None	0.0	0.5	hexagonyellow.gif	stop																								0.53	0.514623165131	0.0009551048278810001	0.417098999023	1.0	w	291.826080084																																		2015_Jul_02_1405	59.8236798453	LearningTask	1	76	
43	200.0	s	-200.0																	0.0	0.0	0.0	0.0	5.0	0.0	20.0	2.0																													s	1.0	0.334180116653	None	0.0	2.0	triangleblue.gif	go																								2.12	0.514008998871	0.0009319782257080001	0.334180116653	1.0	s	294.82932591400004																																		2015_Jul_02_1405	59.8236798453	LearningTask	1	76	
44	200.0	s	-200.0																	0.0	0.0	0.0	0.0	5.0	1.0	21.0	2.0																													s	1.0	0.350687980652	None	0.0	4.0	invertedtrianglegreen.gif	stop																								0.0	0.5143201351169999	0.00113701820374	0.350687980652	1.0	s	297.83306503299997																																		2015_Jul_02_1405	59.8236798453	LearningTask	1	76	
45	-200.0	q	200.0																	0.0	0.0	0.0	0.0	5.0	2.0	22.0	1.0																													q	1.0	0.634454965591	None	0.0	4.0	squareorange.gif	go																								4.2	0.5138750076290001	0.0009629726409910001	0.634454965591	1.0	q	300.836077929																																		2015_Jul_02_1405	59.8236798453	LearningTask	1	76	
46	200.0	w	200.0																	0.0	0.0	0.0	0.0	5.0	3.0	23.0	0.0																													w	1.0	0.284090995789	None	0.0	0.5	hexagonyellow.gif	stop																								0.59	0.514482975006	0.0008909702301030001	0.284090995789	1.0	w	303.83937192																																		2015_Jul_02_1405	59.8236798453	LearningTask	1	76	
47	-200.0	q	200.0																	0.0	0.0	0.0	0.0	6.0	0.0	24.0	1.0																													q	1.0	0.350862979889	None	0.0	0.5	hexagonyellow.gif	stop																								0.0	0.5142970085140001	0.0009658336639400001	0.350862979889	1.0	q	306.842989922																																		2015_Jul_02_1405	59.8236798453	LearningTask	1	76	
48	-200.0	q	200.0																	0.0	0.0	0.0	0.0	6.0	1.0	25.0	1.0																													q	1.0	0.334137916565	None	0.0	1.0	circlegray.gif	go																								1.16	0.514572143555	0.0008931159973139998	0.334137916565	1.0	q	309.846199036																																		2015_Jul_02_1405	59.8236798453	LearningTask	1	76	
49	200.0	w	200.0																	0.0	0.0	0.0	0.0	6.0	2.0	26.0	0.0																													w	1.0	0.31708908081099996	None	0.0	0.5	linewhite.gif	go																								0.51	0.514653921127	0.0008959770202639998	0.31708908081099996	1.0	w	312.849770069																																		2015_Jul_02_1405	59.8236798453	LearningTask	1	76	
50	200.0	s	-200.0																	0.0	0.0	0.0	0.0	6.0	3.0	27.0	2.0																													s	1.0	0.317422866821	None	0.0	2.0	diamondmagenta.gif	stop																								1.79	0.5138821601870001	0.000932216644287	0.317422866821	1.0	s	315.853104115																																		2015_Jul_02_1405	59.8236798453	LearningTask	1	76	
51	-200.0	a	-200.0																	0.0	0.0	0.0	0.0	7.0	0.0	28.0	3.0																													a	1.0	0.300588846207	None	0.0	0.5	hexagonyellow.gif	stop																								0.7	0.514057159424	0.0009059906005860001	0.300588846207	1.0	a	318.856324911																																		2015_Jul_02_1405	59.8236798453	LearningTask	1	76	
52	200.0	s	-200.0																	0.0	0.0	0.0	0.0	7.0	1.0	29.0	2.0																													s	1.0	0.35132908821099995	None	0.0	0.5	linewhite.gif	go																								0.48	0.514414072037	0.000890016555786	0.35132908821099995	1.0	s	321.860068083																																		2015_Jul_02_1405	59.8236798453	LearningTask	1	76	
53	200.0	s	-200.0																	0.0	0.0	0.0	0.0	7.0	2.0	30.0	2.0																													s	1.0	0.317780971527	None	0.0	0.5	linewhite.gif	go																								0.5	0.513674020767	0.000965118408203	0.317780971527	1.0	s	324.863378048																																		2015_Jul_02_1405	59.8236798453	LearningTask	1	76	
54	200.0	w	200.0																	0.0	0.0	0.0	0.0	7.0	3.0	31.0	0.0																													w	1.0	0.367219924927	None	0.0	2.0	triangleblue.gif	go																								2.21	0.514263868332	0.0009548664093019999	0.367219924927	1.0	w	327.866518021																																		2015_Jul_02_1405	59.8236798453	LearningTask	1	76	
55	200.0	w	200.0																	0.0	0.0	0.0	0.0	8.0	0.0	32.0	0.0																													w	1.0	0.30103111267099997	None	0.0	4.0	squareorange.gif	go																								0.0	0.514461040497	0.0009279251098630001	0.30103111267099997	1.0	w	330.870052099																																		2015_Jul_02_1405	59.8236798453	LearningTask	1	76	
56	200.0	s	-200.0																	0.0	0.0	0.0	0.0	8.0	1.0	33.0	2.0																													s	1.0	0.367812871933	None	0.0	0.5	linewhite.gif	go																								0.55	0.5140600204469999	0.0009200572967529999	0.367812871933	1.0	s	333.87333703																																		2015_Jul_02_1405	59.8236798453	LearningTask	1	76	
57	-200.0	a	-200.0																	0.0	0.0	0.0	0.0	8.0	2.0	34.0	3.0																													a	1.0	0.334119081497	None	0.0	0.5	linewhite.gif	go																								0.67	0.5142681598659999	0.000993013381958	0.334119081497	1.0	a	336.876578093																																		2015_Jul_02_1405	59.8236798453	LearningTask	1	76	
58	-200.0	a	-200.0																	0.0	0.0	0.0	0.0	8.0	3.0	35.0	3.0																													a	1.0	0.350400924683	None	0.0	1.0	circlegray.gif	go																								0.77	0.514572143555	0.0009431838989260002	0.350400924683	1.0	a	339.88023090400003																																		2015_Jul_02_1405	59.8236798453	LearningTask	1	76	
59	-200.0	q	200.0																	0.0	0.0	0.0	0.0	9.0	0.0	36.0	1.0																													q	1.0	0.484409809113	None	0.0	4.0	invertedtrianglegreen.gif	stop																								3.85	0.514083862305	0.0008940696716310001	0.484409809113	1.0	q	342.88404703099997																																		2015_Jul_02_1405	59.8236798453	LearningTask	1	76	
60	-200.0	a	-200.0																	0.0	0.0	0.0	0.0	9.0	1.0	37.0	3.0																													a	1.0	0.317552804947	None	0.0	1.0	crosscyan.gif	stop																								0.75	0.513602972031	0.0009400844573969999	0.317552804947	1.0	a	345.886893034																																		2015_Jul_02_1405	59.8236798453	LearningTask	1	76	
61	-200.0	a	-200.0																	0.0	0.0	0.0	0.0	9.0	2.0	38.0	3.0																													a	1.0	0.367626190186	None	0.0	2.0	triangleblue.gif	go																								0.0	0.514084100723	0.000922203063965	0.367626190186	1.0	a	348.890094995																																		2015_Jul_02_1405	59.8236798453	LearningTask	1	76	
62	200.0	w	200.0																	0.0	0.0	0.0	0.0	9.0	3.0	39.0	0.0																													w	1.0	0.41731595993	None	0.0	0.5	linewhite.gif	go																								0.31	0.514424085617	0.000904083251953	0.41731595993	1.0	w	351.893537045																																		2015_Jul_02_1405	59.8236798453	LearningTask	1	76	
63	-200.0	a	-200.0																	0.0	0.0	0.0	0.0	10.0	0.0	40.0	3.0																													a	1.0	0.367630004883	None	0.0	0.5	hexagonyellow.gif	stop																								0.55	0.5139710903170001	0.0009560585021970001	0.367630004883	1.0	a	354.896891117																																		2015_Jul_02_1405	59.8236798453	LearningTask	1	76	
64	200.0	s	-200.0																	0.0	0.0	0.0	0.0	10.0	1.0	41.0	2.0																													s	1.0	0.383904933929	None	0.0	4.0	squareorange.gif	go																								4.1	0.51461315155	0.000907182693481	0.383904933929	1.0	s	357.90021610300005																																		2015_Jul_02_1405	59.8236798453	LearningTask	1	76	
65	-200.0	q	200.0																	0.0	0.0	0.0	0.0	10.0	2.0	42.0	1.0																													q	1.0	0.38436293602	None	0.0	0.5	hexagonyellow.gif	stop																								0.69	0.5143492221829999	0.0008981227874760001	0.38436293602	1.0	q	360.90360713																																		2015_Jul_02_1405	59.8236798453	LearningTask	1	76	
66	-200.0	q	200.0																	0.0	0.0	0.0	0.0	10.0	3.0	43.0	1.0																													q	1.0	0.36780381202699997	None	0.0	1.0	circlegray.gif	go																								1.1	0.51407289505	0.0009379386901860002	0.36780381202699997	1.0	q	363.90707492800004																																		2015_Jul_02_1405	59.8236798453	LearningTask	1	76	
67	200.0	s	-200.0																	0.0	0.0	0.0	0.0	11.0	0.0	44.0	2.0																													s	1.0	0.317501068115	None	0.0	1.0	circlegray.gif	go																								1.2	0.514308929443	0.000909090042114	0.317501068115	1.0	s	366.910267115																																		2015_Jul_02_1405	59.8236798453	LearningTask	1	76	
68	200.0	s	-200.0																	0.0	0.0	0.0	0.0	11.0	1.0	45.0	2.0																													s	1.0	0.300701141357	None	0.0	4.0	squareorange.gif	go																								0.0	0.514401912689	0.000900030136108	0.300701141357	1.0	s	369.914160967																																		2015_Jul_02_1405	59.8236798453	LearningTask	1	76	
69	200.0	s	-200.0																	0.0	0.0	0.0	0.0	11.0	2.0	46.0	2.0																													s	1.0	0.350594997406	None	0.0	1.0	circlegray.gif	go																								0.0	0.514028787613	0.000898838043213	0.350594997406	1.0	s	372.91727709800006																																		2015_Jul_02_1405	59.8236798453	LearningTask	1	76	
70	200.0	s	-200.0																	0.0	0.0	0.0	0.0	11.0	3.0	47.0	2.0																													s	1.0	0.38413500785800003	None	0.0	1.0	crosscyan.gif	stop																								1.21	0.5140450000760001	0.00090503692627	0.38413500785800003	1.0	s	375.92042493800005																																		2015_Jul_02_1405	59.8236798453	LearningTask	1	76	
71	-200.0	a	-200.0																	0.0	0.0	0.0	0.0	12.0	0.0	48.0	3.0																													a	1.0	0.350811958313	None	0.0	0.5	linewhite.gif	go																								0.46	0.514509916306	0.0009670257568360001	0.350811958313	1.0	a	378.923868895																																		2015_Jul_02_1405	59.8236798453	LearningTask	1	76	
72	200.0	w	200.0																	0.0	0.0	0.0	0.0	12.0	1.0	49.0	0.0																													w	1.0	0.318114042282	None	0.0	1.0	crosscyan.gif	stop																								0.0	0.514415025711	0.000900983810425	0.317656993866	0.0	s	381.92794013	0.93	0.5148220062259999	0.0009858608245850002	0.318114042282	1.0	w	384.930701017																											2015_Jul_02_1405	59.8236798453	LearningTask	1	76	
73	-200.0	a	-200.0																	0.0	0.0	0.0	0.0	12.0	2.0	50.0	3.0																													a	1.0	0.35086798667900004	None	0.0	2.0	diamondmagenta.gif	stop																								2.08	0.514302968979	0.000926971435547	0.35086798667900004	1.0	a	387.934099913																																		2015_Jul_02_1405	59.8236798453	LearningTask	1	76	
74	-200.0	a	-200.0																	0.0	0.0	0.0	0.0	12.0	3.0	51.0	3.0																													a	1.0	0.333603143692	None	0.0	2.0	triangleblue.gif	go																								2.05	0.514241933823	0.000951051712036	0.333603143692	1.0	a	390.937422037																																		2015_Jul_02_1405	59.8236798453	LearningTask	1	76	
75	-200.0	q	200.0																	0.0	0.0	0.0	0.0	13.0	0.0	52.0	1.0																													q	1.0	0.384693861008	None	0.0	0.5	hexagonyellow.gif	stop																								0.54	0.514034032822	0.0012431144714400001	0.384693861008	1.0	q	393.940726042																																		2015_Jul_02_1405	59.8236798453	LearningTask	1	76	
76	-200.0	q	200.0																	0.0	0.0	0.0	0.0	13.0	1.0	53.0	1.0																													q	1.0	0.33455586433400003	None	0.0	0.5	linewhite.gif	go																								0.73	0.5140528678890001	0.000918865203857	0.33455586433400003	1.0	q	396.94414305699996																																		2015_Jul_02_1405	59.8236798453	LearningTask	1	76	
77	-200.0	q	200.0																	0.0	0.0	0.0	0.0	13.0	2.0	54.0	1.0																													q	1.0	0.317348003387	None	0.0	1.0	crosscyan.gif	stop																								1.0	0.5143709182739999	0.0009109973907470001	0.317348003387	1.0	q	399.94780302																																		2015_Jul_02_1405	59.8236798453	LearningTask	1	76	
78	-200.0	a	-200.0																	0.0	0.0	0.0	0.0	13.0	3.0	55.0	3.0																													a	1.0	0.46766710281400004	None	0.0	1.0	crosscyan.gif	stop																								0.96	0.513474941254	0.000930070877075	0.46766710281400004	1.0	a	402.95107913																																		2015_Jul_02_1405	59.8236798453	LearningTask	1	76	
79	-200.0	a	-200.0																	0.0	0.0	0.0	0.0	14.0	0.0	56.0	3.0																													a	1.0	0.333914995193	None	0.0	2.0	diamondmagenta.gif	stop																								2.14	0.514203071594	0.00134491920471	0.333914995193	1.0	a	405.95425605800006																																		2015_Jul_02_1405	59.8236798453	LearningTask	1	76	
80	-200.0	q	200.0																	0.0	0.0	0.0	0.0	14.0	1.0	57.0	1.0																													q	1.0	0.367337942123	None	0.0	0.5	hexagonyellow.gif	stop																								0.51	0.514433860779	0.000903844833374	0.367337942123	1.0	q	408.957479954																																		2015_Jul_02_1405	59.8236798453	LearningTask	1	76	
81	-200.0	a	-200.0																	0.0	0.0	0.0	0.0	14.0	2.0	58.0	3.0																													a	1.0	0.334036111832	None	0.0	0.5	linewhite.gif	go																								0.26	0.513942956924	0.0009169578552250001	0.334036111832	1.0	a	411.961266041																																		2015_Jul_02_1405	59.8236798453	LearningTask	1	76	
82	200.0	w	200.0																	0.0	0.0	0.0	0.0	14.0	3.0	59.0	0.0																													w	1.0	0.350691080093	None	0.0	0.5	linewhite.gif	go																								0.0	0.514086961746	0.00089693069458	0.350691080093	1.0	w	414.96497297300004																																		2015_Jul_02_1405	59.8236798453	LearningTask	1	76	
83	200.0	s	-200.0																	0.0	0.0	0.0	0.0	15.0	0.0	60.0	2.0																													s	1.0	0.383955001831	None	0.0	2.0	diamondmagenta.gif	stop																								1.8	0.513576030731	0.000998020172119	0.383955001831	1.0	s	417.96835494																																		2015_Jul_02_1405	59.8236798453	LearningTask	1	76	
84	200.0	w	200.0																	0.0	0.0	0.0	0.0	15.0	1.0	61.0	0.0																													w	1.0	0.38456583023100005	None	0.0	1.0	circlegray.gif	go																								1.2	0.513769865036	0.000917911529541	0.38456583023100005	1.0	w	420.971384048																																		2015_Jul_02_1405	59.8236798453	LearningTask	1	76	
85	200.0	s	-200.0																	0.0	0.0	0.0	0.0	15.0	2.0	62.0	2.0																													s	1.0	0.41777300834700004	None	0.0	0.5	linewhite.gif	go																								0.46	0.514215946198	0.000900030136108	0.41777300834700004	1.0	s	423.974560022																																		2015_Jul_02_1405	59.8236798453	LearningTask	1	76	
86	-200.0	a	-200.0																	0.0	0.0	0.0	0.0	15.0	3.0	63.0	3.0																													a	1.0	0.367215871811	None	0.0	0.5	linewhite.gif	go																								0.57	0.514366149902	0.000923156738281	0.367215871811	1.0	a	426.978168011																																		2015_Jul_02_1405	59.8236798453	LearningTask	1	76	
87	-200.0	q	200.0																	0.0	0.0	0.0	0.0	16.0	0.0	64.0	1.0																													q	1.0	0.384294033051	None	0.0	1.0	crosscyan.gif	stop																								1.24	0.514302015305	0.0008909702301030001	0.384294033051	1.0	q	429.98124694800003																																		2015_Jul_02_1405	59.8236798453	LearningTask	1	76	
88	-200.0	q	200.0																	0.0	0.0	0.0	0.0	16.0	1.0	65.0	1.0																													q	1.0	0.284231901169	None	0.0	0.5	linewhite.gif	go																								0.51	0.514117002487	0.0010168552398699998	0.284231901169	1.0	q	432.984860897																																		2015_Jul_02_1405	59.8236798453	LearningTask	1	76	
89	-200.0	q	200.0																	0.0	0.0	0.0	0.0	16.0	2.0	66.0	1.0																													q	1.0	0.31735801696800003	None	0.0	0.5	hexagonyellow.gif	stop																								0.69	0.5140309333799999	0.000951051712036	0.31735801696800003	1.0	q	435.98806810400004																																		2015_Jul_02_1405	59.8236798453	LearningTask	1	76	
90	-200.0	q	200.0																	0.0	0.0	0.0	0.0	16.0	3.0	67.0	1.0																													q	1.0	0.350914001465	None	0.0	2.0	triangleblue.gif	go																								0.0	0.514544010162	0.0008997917175289999	0.350914001465	1.0	q	438.991396904																																		2015_Jul_02_1405	59.8236798453	LearningTask	1	76	
91	200.0	s	-200.0																	0.0	0.0	0.0	0.0	17.0	0.0	68.0	2.0																													s	1.0	0.36759305000299997	None	0.0	0.5	linewhite.gif	go																								0.68	0.514055967331	0.00103092193604	0.36759305000299997	1.0	s	441.995127916																																		2015_Jul_02_1405	59.8236798453	LearningTask	1	76	
92	-200.0	a	-200.0																	0.0	0.0	0.0	0.0	17.0	1.0	69.0	3.0																													a	1.0	0.38390588760399996	None	0.0	1.0	circlegray.gif	go																								0.76	0.514209032059	0.0008978843688960001	0.38390588760399996	1.0	a	444.99815797800005																																		2015_Jul_02_1405	59.8236798453	LearningTask	1	76	
93	-200.0	q	200.0																	0.0	0.0	0.0	0.0	17.0	2.0	70.0	1.0																													q	1.0	0.367391109467	None	0.0	2.0	triangleblue.gif	go																								2.19	0.51441192627	0.0008909702301030001	0.367391109467	1.0	q	448.001574993																																		2015_Jul_02_1405	59.8236798453	LearningTask	1	76	
94	-200.0	a	-200.0																	0.0	0.0	0.0	0.0	17.0	3.0	71.0	3.0																													a	1.0	0.334103107452	None	0.0	0.5	hexagonyellow.gif	stop																								0.59	0.514127969742	0.00092887878418	0.334103107452	1.0	a	451.00506496400004																																		2015_Jul_02_1405	59.8236798453	LearningTask	1	76	
95	-200.0	q	200.0																	0.0	0.0	0.0	0.0	18.0	0.0	72.0	1.0																													q	1.0	0.46764087677	None	0.0	2.0	triangleblue.gif	go																								1.96	0.514095067978	0.0008909702301030001	0.46764087677	1.0	q	454.00830698																																		2015_Jul_02_1405	59.8236798453	LearningTask	1	76	
96	200.0	w	200.0																	0.0	0.0	0.0	0.0	18.0	1.0	73.0	0.0																													w	1.0	0.334082126617	None	0.0	4.0	invertedtrianglegreen.gif	stop																								3.8	0.51433300972	0.0009160041809079999	0.334082126617	1.0	w	457.011966944																																		2015_Jul_02_1405	59.8236798453	LearningTask	1	76	
97	-200.0	q	200.0																	0.0	0.0	0.0	0.0	18.0	2.0	74.0	1.0																													q	1.0	0.434652090073	None	0.0	1.0	circlegray.gif	go																								0.85	0.514055013657	0.000907182693481	0.434652090073	1.0	q	460.015160084																																		2015_Jul_02_1405	59.8236798453	LearningTask	1	76	
98	200.0	s	-200.0																	0.0	0.0	0.0	0.0	18.0	3.0	75.0	2.0																													s	1.0	0.38451099395800004	None	0.0	1.0	crosscyan.gif	stop																								0.0	0.514359951019	0.00096607208252	0.38451099395800004	1.0	s	463.018525124																																		2015_Jul_02_1405	59.8236798453	LearningTask	1	76	
99	-200.0	a	-200.0																	0.0	0.0	0.0	0.0	19.0	0.0	76.0	3.0																													a	1.0	0.36737084388700003	None	0.0	2.0	triangleblue.gif	go																								2.03	0.514433860779	0.0009019374847410001	0.36737084388700003	1.0	a	466.021907091																																		2015_Jul_02_1405	59.8236798453	LearningTask	1	76	
100	200.0	s	-200.0																	0.0	0.0	0.0	0.0	19.0	1.0	77.0	2.0																													s	1.0	0.401128053665	None	0.0	0.5	linewhite.gif	go																								0.37	0.514221906662	0.00089693069458	0.401128053665	1.0	s	469.02522492400004																																		2015_Jul_02_1405	59.8236798453	LearningTask	1	76	
101	200.0	w	200.0																	0.0	0.0	0.0	0.0	19.0	2.0	78.0	0.0																													w	1.0	0.367493867874	None	0.0	4.0	invertedtrianglegreen.gif	stop																								4.17	0.514328956604	0.00095009803772	0.367493867874	1.0	w	472.02871298800005																																		2015_Jul_02_1405	59.8236798453	LearningTask	1	76	
102	200.0	s	-200.0																	0.0	0.0	0.0	0.0	19.0	3.0	79.0	2.0																													s	1.0	0.384665966034	None	0.0	4.0	invertedtrianglegreen.gif	stop																								4.22	0.514032125473	0.000961065292358	0.384665966034	1.0	s	475.03198909800005																																		2015_Jul_02_1405	59.8236798453	LearningTask	1	76	
103	200.0	w	200.0																	0.0	0.0	0.0	0.0	20.0	0.0	80.0	0.0																													w	1.0	0.417562961578	None	0.0	4.0	invertedtrianglegreen.gif	stop																								4.2	0.514376878738	0.000923871994019	0.417562961578	1.0	w	478.035723925																																		2015_Jul_02_1405	59.8236798453	LearningTask	1	76	
104	-200.0	q	200.0																	0.0	0.0	0.0	0.0	20.0	1.0	81.0	1.0																													q	1.0	0.417117118835	None	0.0	0.5	hexagonyellow.gif	stop																								0.0	0.514065980911	0.0009760856628420001	0.417117118835	1.0	q	481.03874898																																		2015_Jul_02_1405	59.8236798453	LearningTask	1	76	
105	-200.0	q	200.0																	0.0	0.0	0.0	0.0	20.0	2.0	82.0	1.0																													q	1.0	0.41782307624799997	None	0.0	1.0	crosscyan.gif	stop																								0.96	0.514022827148	0.000917911529541	0.41782307624799997	1.0	q	484.04212904																																		2015_Jul_02_1405	59.8236798453	LearningTask	1	76	
106	200.0	s	-200.0																	0.0	0.0	0.0	0.0	20.0	3.0	83.0	2.0																													s	1.0	0.417649030685	None	0.0	2.0	triangleblue.gif	go																								2.08	0.514362096786	0.000900983810425	0.417649030685	1.0	s	487.04538393																																		2015_Jul_02_1405	59.8236798453	LearningTask	1	76	
107	200.0	w	200.0																	0.0	0.0	0.0	0.0	21.0	0.0	84.0	0.0																													w	1.0	0.334593057632	None	0.0	0.5	hexagonyellow.gif	stop																								0.5	0.514118909836	0.0009307861328119999	0.334593057632	1.0	w	490.048906088																																		2015_Jul_02_1405	59.8236798453	LearningTask	1	76	
108	-200.0	q	200.0																	0.0	0.0	0.0	0.0	21.0	1.0	85.0	1.0																													q	1.0	0.417366981506	None	0.0	4.0	invertedtrianglegreen.gif	stop																								3.77	0.514419078827	0.0008981227874760001	0.417366981506	1.0	q	493.052163124																																		2015_Jul_02_1405	59.8236798453	LearningTask	1	76	
109	200.0	w	200.0																	0.0	0.0	0.0	0.0	21.0	2.0	86.0	0.0																													w	1.0	0.36757016181900004	None	0.0	2.0	triangleblue.gif	go																								2.15	0.514575958252	0.000900983810425	0.36757016181900004	1.0	w	496.05613899199994																																		2015_Jul_02_1405	59.8236798453	LearningTask	1	76	
110	200.0	w	200.0																	0.0	0.0	0.0	0.0	21.0	3.0	87.0	0.0																													w	1.0	0.30140209198	None	0.0	4.0	invertedtrianglegreen.gif	stop																								3.93	0.513450860977	0.000942945480347	0.30140209198	1.0	w	499.059256077																																		2015_Jul_02_1405	59.8236798453	LearningTask	1	76	
111	-200.0	a	-200.0																	0.0	0.0	0.0	0.0	22.0	0.0	88.0	3.0																													a	1.0	0.417742013931	None	0.0	1.0	crosscyan.gif	stop																								0.82	0.514001846313	0.000898838043213	0.417742013931	1.0	a	502.06249404																																		2015_Jul_02_1405	59.8236798453	LearningTask	1	76	
112	200.0	w	200.0																	0.0	0.0	0.0	0.0	22.0	1.0	89.0	0.0																													w	1.0	0.317437887192	None	0.0	1.0	circlegray.gif	go																								0.0	0.514132976532	0.0009119510650630002	0.317437887192	1.0	w	505.06615090400004																																		2015_Jul_02_1405	59.8236798453	LearningTask	1	76	
113	200.0	s	-200.0																	0.0	0.0	0.0	0.0	22.0	2.0	90.0	2.0																													s	1.0	0.384314060211	None	0.0	0.5	linewhite.gif	go																								0.45	0.513844966888	0.0008950233459470001	0.384314060211	1.0	s	508.06920790699996																																		2015_Jul_02_1405	59.8236798453	LearningTask	1	76	
114	200.0	w	200.0																	0.0	0.0	0.0	0.0	22.0	3.0	91.0	0.0																													w	1.0	0.367384195328	None	0.0	1.0	crosscyan.gif	stop																								0.0	0.5143609046940001	0.0009350776672360002	0.367384195328	1.0	w	511.07252001800003																																		2015_Jul_02_1405	59.8236798453	LearningTask	1	76	
115	-200.0	a	-200.0																	0.0	0.0	0.0	0.0	23.0	0.0	92.0	3.0																													a	1.0	0.401480913162	None	0.0	2.0	diamondmagenta.gif	stop																								1.91	0.514390945435	0.000946044921875	0.401480913162	1.0	a	514.0764160159999																																		2015_Jul_02_1405	59.8236798453	LearningTask	1	76	
116	-200.0	q	200.0																	0.0	0.0	0.0	0.0	23.0	1.0	93.0	1.0																													q	1.0	0.400465011597	None	0.0	1.0	crosscyan.gif	stop																								0.92	0.5141258239750001	0.0008978843688960001	0.400465011597	1.0	q	517.0793750290001																																		2015_Jul_02_1405	59.8236798453	LearningTask	1	76	
117	-200.0	a	-200.0																	0.0	0.0	0.0	0.0	23.0	2.0	94.0	3.0																													a	1.0	0.367472887039	None	0.0	2.0	triangleblue.gif	go																								1.87	0.514332056046	0.00105905532837	0.367472887039	1.0	a	520.082999945																																		2015_Jul_02_1405	59.8236798453	LearningTask	1	76	
118	200.0	w	200.0																	0.0	0.0	0.0	0.0	23.0	3.0	95.0	0.0																													w	1.0	0.36746311187700004	None	0.0	4.0	squareorange.gif	go																								3.81	0.513736963272	0.0009360313415529999	0.36746311187700004	1.0	w	523.086077929																																		2015_Jul_02_1405	59.8236798453	LearningTask	1	76	
119	200.0	s	-200.0																	0.0	0.0	0.0	0.0	24.0	0.0	96.0	2.0																													s	1.0	0.551472187042	None	0.0	2.0	diamondmagenta.gif	stop																								1.85	0.514342069626	0.000896215438843	0.551472187042	1.0	s	526.089394093																																		2015_Jul_02_1405	59.8236798453	LearningTask	1	76	
120	-200.0	a	-200.0																	0.0	0.0	0.0	0.0	24.0	1.0	97.0	3.0																													a	1.0	0.617505073547	None	0.0	1.0	circlegray.gif	go																								0.96	0.514029026031	0.0009520053863530001	0.617505073547	1.0	a	529.0927660469999																																		2015_Jul_02_1405	59.8236798453	LearningTask	1	76	
121	200.0	s	-200.0																	0.0	0.0	0.0	0.0	24.0	2.0	98.0	2.0																													s	1.0	0.334713935852	None	0.0	2.0	diamondmagenta.gif	stop																								2.16	0.514021158218	0.0008971691131589999	0.334713935852	1.0	s	532.0961000919999																																		2015_Jul_02_1405	59.8236798453	LearningTask	1	76	
122	200.0	w	200.0																	0.0	0.0	0.0	0.0	24.0	3.0	99.0	0.0																													w	1.0	0.584456205368	None	0.0	2.0	diamondmagenta.gif	stop																								2.24	0.514518976212	0.0008940696716310001	0.584456205368	1.0	w	535.0995349880001																																		2015_Jul_02_1405	59.8236798453	LearningTask	1	76	
123																				0.0	0.0	0.0	0.0																																																																														9.0	5.29498386383																									2015_Jul_02_1405	59.8236798453	LearningTask	1	76	
124	200.0	w	200.0																	1.0	0.0	1.0	0.0	0.0	0.0	0.0	0.0																													w	1.0	0.38414287567100003	None	0.0	0.5	linewhite.gif	go																								0.6	0.5097260475159999	0.0009799003601070001	0.38414287567100003	1.0	w	543.84346509																																		2015_Jul_02_1405	59.8236798453	LearningTask	1	76	
125	200.0	w	200.0																	1.0	0.0	1.0	0.0	0.0	1.0	1.0	0.0																													w	1.0	0.333945989609	None	0.0	1.0	crosscyan.gif	stop																								0.0	0.51368689537	0.00089693069458	0.333945989609	1.0	w	546.846326113																																		2015_Jul_02_1405	59.8236798453	LearningTask	1	76	
126	200.0	s	-200.0																	1.0	0.0	1.0	0.0	0.0	2.0	2.0	2.0																													s	1.0	0.367414951324	None	0.0	4.0	invertedtrianglegreen.gif	stop																								0.0	0.513813018799	0.0009589195251460001	0.367414951324	1.0	s	549.849462032																																		2015_Jul_02_1405	59.8236798453	LearningTask	1	76	
127	200.0	w	200.0																	1.0	0.0	1.0	0.0	0.0	3.0	3.0	0.0																													w	1.0	0.367681026459	None	0.0	1.0	circlegray.gif	go																								1.1	0.51437497139	0.000900030136108	0.367681026459	1.0	w	552.852689981																																		2015_Jul_02_1405	59.8236798453	LearningTask	1	76	
128	200.0	w	200.0																	1.0	0.0	1.0	0.0	1.0	0.0	4.0	0.0																													w	1.0	0.334435939789	None	0.0	0.5	linewhite.gif	go																								0.47	0.514271974564	0.0008978843688960001	0.334435939789	1.0	w	555.856914997																																		2015_Jul_02_1405	59.8236798453	LearningTask	1	76	
129	-200.0	a	-200.0																	1.0	0.0	1.0	0.0	1.0	1.0	5.0	3.0																													a	1.0	0.367269039154	None	0.0	1.0	crosscyan.gif	stop																								0.94	0.513889074326	0.000900030136108	0.367269039154	1.0	a	558.859683037																																		2015_Jul_02_1405	59.8236798453	LearningTask	1	76	
130	-200.0	q	200.0																	1.0	0.0	1.0	0.0	1.0	2.0	6.0	1.0																													q	1.0	0.334331035614	None	0.0	0.5	hexagonyellow.gif	stop																								0.26	0.5142600536349999	0.000969886779785	0.334331035614	1.0	q	561.862972021																																		2015_Jul_02_1405	59.8236798453	LearningTask	1	76	
131	-200.0	a	-200.0																	1.0	0.0	1.0	0.0	1.0	3.0	7.0	3.0																													a	1.0	0.38397789001500005	None	0.0	0.5	hexagonyellow.gif	stop																								0.41	0.514542818069	0.000894784927368	0.38397789001500005	1.0	a	564.866404057																																		2015_Jul_02_1405	59.8236798453	LearningTask	1	76	
132	-200.0	a	-200.0																	1.0	0.0	1.0	0.0	2.0	0.0	8.0	3.0																													a	1.0	0.33413887023899996	None	0.0	1.0	circlegray.gif	go																								0.0	0.514366865158	0.000904083251953	0.33413887023899996	1.0	a	567.86963892																																		2015_Jul_02_1405	59.8236798453	LearningTask	1	76	
133	-200.0	q	200.0																	1.0	0.0	1.0	0.0	2.0	1.0	9.0	1.0																													q	1.0	0.31794595718400004	None	0.0	2.0	diamondmagenta.gif	stop																								0.0	0.514127969742	0.00108909606934	0.31794595718400004	1.0	q	570.8733339309999																																		2015_Jul_02_1405	59.8236798453	LearningTask	1	76	
134	-200.0	a	-200.0																	1.0	0.0	1.0	0.0	2.0	2.0	10.0	3.0																													a	1.0	0.367939949036	None	0.0	0.5	hexagonyellow.gif	stop																								0.6	0.514169931412	0.00102090835571	0.367939949036	1.0	a	573.876441002																																		2015_Jul_02_1405	59.8236798453	LearningTask	1	76	
135	200.0	s	-200.0																	1.0	0.0	1.0	0.0	2.0	3.0	11.0	2.0																													s	1.0	0.367286920547	None	0.0	1.0	crosscyan.gif	stop																								0.86	0.514517068863	0.000900983810425	0.367286920547	1.0	s	576.879852057																																		2015_Jul_02_1405	59.8236798453	LearningTask	1	76	
136	200.0	w	200.0																	1.0	0.0	1.0	0.0	3.0	0.0	12.0	0.0																													w	1.0	0.351027011871	None	0.0	1.0	crosscyan.gif	stop																								0.85	0.514350891113	0.000940799713135	0.351027011871	1.0	w	579.883141994																																		2015_Jul_02_1405	59.8236798453	LearningTask	1	76	
137	200.0	s	-200.0																	1.0	0.0	1.0	0.0	3.0	1.0	13.0	2.0																													s	1.0	0.367471218109	None	0.0	1.0	circlegray.gif	go																								0.0	0.514472007751	0.0008981227874760001	0.367471218109	1.0	s	582.886811018																																		2015_Jul_02_1405	59.8236798453	LearningTask	1	76	
138	-200.0	q	200.0																	1.0	0.0	1.0	0.0	3.0	2.0	14.0	1.0																													q	1.0	0.368115186691	None	0.0	4.0	squareorange.gif	go																								4.0	0.514046907425	0.0008840560913089999	0.368115186691	1.0	q	585.890360117																																		2015_Jul_02_1405	59.8236798453	LearningTask	1	76	
139	-200.0	a	-200.0																	1.0	0.0	1.0	0.0	3.0	3.0	15.0	3.0																													a	1.0	0.384224891663	None	0.0	2.0	triangleblue.gif	go																								2.02	0.5140759944919999	0.0009031295776369999	0.384224891663	1.0	a	588.89339304																																		2015_Jul_02_1405	59.8236798453	LearningTask	1	76	
140	-200.0	a	-200.0																	1.0	0.0	1.0	0.0	4.0	0.0	16.0	3.0																													a	1.0	0.35084605217	None	0.0	2.0	diamondmagenta.gif	stop																								1.94	0.514122009277	0.0009019374847410001	0.35084605217	1.0	a	591.896934032																																		2015_Jul_02_1405	59.8236798453	LearningTask	1	76	
141	-200.0	q	200.0																	1.0	0.0	1.0	0.0	4.0	1.0	17.0	1.0																													q	1.0	0.40079998969999997	None	0.0	1.0	circlegray.gif	go																								1.22	0.514158964157	0.0008950233459470001	0.40079998969999997	1.0	q	594.900886059																																		2015_Jul_02_1405	59.8236798453	LearningTask	1	76	
142	200.0	w	200.0																	1.0	0.0	1.0	0.0	4.0	2.0	18.0	0.0																													w	1.0	0.46783781051600004	None	0.0	1.0	circlegray.gif	go																								1.25	0.513492822647	0.0009148120880130001	0.46783781051600004	1.0	w	597.9037489890001																																		2015_Jul_02_1405	59.8236798453	LearningTask	1	76	
143	200.0	s	-200.0																	1.0	0.0	1.0	0.0	4.0	3.0	19.0	2.0																													s	1.0	0.5009729862210001	None	0.0	1.0	crosscyan.gif	stop																								0.0	0.514126062393	0.00096607208252	0.5009729862210001	1.0	s	600.9071979519999																																		2015_Jul_02_1405	59.8236798453	LearningTask	1	76	
144	-200.0	q	200.0																	1.0	0.0	1.0	0.0	5.0	0.0	20.0	1.0																													q	1.0	0.700875997543	None	0.0	2.0	diamondmagenta.gif	stop																								0.0	0.5142521858219999	0.0008761882781980001	0.700875997543	1.0	q	603.9105811119999																																		2015_Jul_02_1405	59.8236798453	LearningTask	1	76	
145	200.0	w	200.0																	1.0	0.0	1.0	0.0	5.0	1.0	21.0	0.0																													w	1.0	0.450678110123	None	0.0	1.0	circlegray.gif	go																								1.1	0.5142378807069999	0.000880002975464	0.450678110123	1.0	w	606.913713932																																		2015_Jul_02_1405	59.8236798453	LearningTask	1	76	
146	-200.0	a	-200.0																	1.0	0.0	1.0	0.0	5.0	2.0	22.0	3.0																													a	1.0	0.40067505836499995	None	0.0	1.0	crosscyan.gif	stop																								1.18	0.514137983322	0.0010039806366	0.40067505836499995	1.0	a	609.916912079																																		2015_Jul_02_1405	59.8236798453	LearningTask	1	76	
147	200.0	w	200.0																	1.0	0.0	1.0	0.0	5.0	3.0	23.0	0.0																													w	1.0	0.367639064789	None	0.0	2.0	triangleblue.gif	go																								1.89	0.51443696022	0.000882863998413	0.367639064789	1.0	w	612.920783043																																		2015_Jul_02_1405	59.8236798453	LearningTask	1	76	
148	-200.0	a	-200.0																	1.0	0.0	1.0	0.0	6.0	0.0	24.0	3.0																													a	1.0	0.40087699890100004	None	0.0	4.0	invertedtrianglegreen.gif	stop																								4.14	0.5137360095979999	0.0011260509491	0.40087699890100004	1.0	a	615.923797131																																		2015_Jul_02_1405	59.8236798453	LearningTask	1	76	
149	-200.0	q	200.0																	1.0	0.0	1.0	0.0	6.0	1.0	25.0	1.0																													q	1.0	0.450878858566	None	0.0	1.0	circlegray.gif	go																								0.0	0.514413833618	0.00107192993164	0.450878858566	1.0	q	618.9271719459999																																		2015_Jul_02_1405	59.8236798453	LearningTask	1	76	
150	200.0	s	-200.0																	1.0	0.0	1.0	0.0	6.0	2.0	26.0	2.0																													s	1.0	0.40084910392800005	None	0.0	2.0	triangleblue.gif	go																								1.78	0.514195919037	0.00087308883667	0.40084910392800005	1.0	s	621.930426121																																		2015_Jul_02_1405	59.8236798453	LearningTask	1	76	
151	-200.0	a	-200.0																	1.0	0.0	1.0	0.0	6.0	3.0	27.0	3.0																													a	1.0	0.350598096848	None	0.0	1.0	circlegray.gif	go																								1.19	0.514492034912	0.00094199180603	0.350598096848	1.0	a	624.933945894																																		2015_Jul_02_1405	59.8236798453	LearningTask	1	76	
152	200.0	w	200.0																	1.0	0.0	1.0	0.0	7.0	0.0	28.0	0.0																													w	1.0	0.384359121323	None	0.0	0.5	hexagonyellow.gif	stop																								0.38	0.513818025589	0.000923156738281	0.384359121323	1.0	w	627.937267065																																		2015_Jul_02_1405	59.8236798453	LearningTask	1	76	
153	-200.0	q	200.0																	1.0	0.0	1.0	0.0	7.0	1.0	29.0	1.0																													q	1.0	0.41790914535499996	None	0.0	2.0	triangleblue.gif	go																								1.76	0.51393699646	0.0009160041809079999	0.41790914535499996	1.0	q	630.940721035																																		2015_Jul_02_1405	59.8236798453	LearningTask	1	76	
154	-200.0	q	200.0																	1.0	0.0	1.0	0.0	7.0	2.0	30.0	1.0																													q	1.0	0.367291212082	None	0.0	0.5	linewhite.gif	go																								0.37	0.514367818832	0.0008759498596189999	0.367291212082	1.0	q	633.944312096																																		2015_Jul_02_1405	59.8236798453	LearningTask	1	76	
155	200.0	w	200.0																	1.0	0.0	1.0	0.0	7.0	3.0	31.0	0.0																													w	1.0	0.334455013275	None	0.0	4.0	invertedtrianglegreen.gif	stop																								4.25	0.513488054276	0.0009150505065920001	0.334455013275	1.0	w	636.947561026																																		2015_Jul_02_1405	59.8236798453	LearningTask	1	76	
156	-200.0	q	200.0																	1.0	0.0	1.0	0.0	8.0	0.0	32.0	1.0																													q	1.0	0.384011030197	None	0.0	0.5	hexagonyellow.gif	stop																								0.63	0.514209032059	0.000877141952515	0.384011030197	1.0	q	639.95065999																																		2015_Jul_02_1405	59.8236798453	LearningTask	1	76	
157	-200.0	q	200.0																	1.0	0.0	1.0	0.0	8.0	1.0	33.0	1.0																													q	1.0	0.36746311187700004	None	0.0	1.0	crosscyan.gif	stop																								0.89	0.514436006546	0.00088095664978	0.36746311187700004	1.0	q	642.954947948																																		2015_Jul_02_1405	59.8236798453	LearningTask	1	76	
158	-200.0	a	-200.0																	1.0	0.0	1.0	0.0	8.0	2.0	34.0	3.0																													a	1.0	0.434142112732	None	0.0	2.0	diamondmagenta.gif	stop																								0.0	0.51353597641	0.000890016555786	0.434142112732	1.0	a	645.957935095																																		2015_Jul_02_1405	59.8236798453	LearningTask	1	76	
159	-200.0	a	-200.0																	1.0	0.0	1.0	0.0	8.0	3.0	35.0	3.0																													a	1.0	0.334265947342	None	0.0	4.0	squareorange.gif	go																								0.0	0.513777971268	0.00106692314148	0.334265947342	1.0	a	648.961023092																																		2015_Jul_02_1405	59.8236798453	LearningTask	1	76	
160	-200.0	q	200.0																	1.0	0.0	1.0	0.0	9.0	0.0	36.0	1.0																													q	1.0	0.41800498962399996	None	0.0	4.0	squareorange.gif	go																								4.03	0.514274835587	0.000880002975464	0.41800498962399996	1.0	q	651.965282917																																		2015_Jul_02_1405	59.8236798453	LearningTask	1	76	
161	-200.0	a	-200.0																	1.0	0.0	1.0	0.0	9.0	1.0	37.0	3.0																													a	1.0	0.400698900223	None	0.0	1.0	circlegray.gif	go																								1.1	0.5134601593020001	0.00088095664978	0.400698900223	1.0	a	654.967525959																																		2015_Jul_02_1405	59.8236798453	LearningTask	1	76	
162	200.0	s	-200.0																	1.0	0.0	1.0	0.0	9.0	2.0	38.0	2.0																													s	1.0	0.601561069489	None	0.0	1.0	crosscyan.gif	stop																								0.78	0.51429104805	0.00105118751526	0.601561069489	1.0	s	657.971524																																		2015_Jul_02_1405	59.8236798453	LearningTask	1	76	
163	-200.0	a	-200.0																	1.0	0.0	1.0	0.0	9.0	3.0	39.0	3.0																													a	1.0	0.40088105201700003	None	0.0	4.0	squareorange.gif	go																								4.09	0.514110088348	0.000866174697876	0.40088105201700003	1.0	a	660.974457979																																		2015_Jul_02_1405	59.8236798453	LearningTask	1	76	
164	200.0	s	-200.0																	1.0	0.0	1.0	0.0	10.0	0.0	40.0	2.0																													s	1.0	0.384124994278	None	0.0	0.5	hexagonyellow.gif	stop																								0.39	0.514455080032	0.0008840560913089999	0.384124994278	1.0	s	663.977608919																																		2015_Jul_02_1405	59.8236798453	LearningTask	1	76	
165	200.0	w	200.0																	1.0	0.0	1.0	0.0	10.0	1.0	41.0	0.0																													w	1.0	0.367906093597	None	0.0	2.0	triangleblue.gif	go																								1.88	0.514142990112	0.000946044921875	0.367906093597	1.0	w	666.981199026																																		2015_Jul_02_1405	59.8236798453	LearningTask	1	76	
166	-200.0	q	200.0																	1.0	0.0	1.0	0.0	10.0	2.0	42.0	1.0																													q	1.0	0.300839185715	None	0.0	4.0	invertedtrianglegreen.gif	stop																								4.13	0.514364957809	0.0008959770202639998	0.300839185715	1.0	q	669.984621048																																		2015_Jul_02_1405	59.8236798453	LearningTask	1	76	
167	200.0	w	200.0																	1.0	0.0	1.0	0.0	10.0	3.0	43.0	0.0																													w	1.0	0.367536783218	None	0.0	4.0	squareorange.gif	go																								3.98	0.514267921448	0.0008718967437739999	0.367536783218	1.0	w	672.988047123																																		2015_Jul_02_1405	59.8236798453	LearningTask	1	76	
168	200.0	s	-200.0																	1.0	0.0	1.0	0.0	11.0	0.0	44.0	2.0																													s	1.0	0.383710861206	None	0.0	1.0	circlegray.gif	go																								0.9	0.51417517662	0.0008981227874760001	0.383710861206	1.0	s	675.991387129																																		2015_Jul_02_1405	59.8236798453	LearningTask	1	76	
169	200.0	s	-200.0																	1.0	0.0	1.0	0.0	11.0	1.0	45.0	2.0																													s	1.0	0.40086197853100003	None	0.0	0.5	linewhite.gif	go																								0.73	0.514292001724	0.000877857208252	0.40086197853100003	1.0	s	678.99465394																																		2015_Jul_02_1405	59.8236798453	LearningTask	1	76	
170	-200.0	a	-200.0																	1.0	0.0	1.0	0.0	11.0	2.0	46.0	3.0																													a	1.0	0.367606878281	None	0.0	4.0	squareorange.gif	go																								3.78	0.514315128326	0.0008702278137210001	0.367606878281	1.0	a	681.998456001																																		2015_Jul_02_1405	59.8236798453	LearningTask	1	76	
171	-200.0	q	200.0																	1.0	0.0	1.0	0.0	11.0	3.0	47.0	1.0																													q	1.0	0.334553956985	None	0.0	4.0	squareorange.gif	go																								4.23	0.5135500431059999	0.000918865203857	0.334553956985	1.0	q	685.00159502																																		2015_Jul_02_1405	59.8236798453	LearningTask	1	76	
172	-200.0	q	200.0																	1.0	0.0	1.0	0.0	12.0	0.0	48.0	1.0																													q	1.0	0.26734495163000005	None	0.0	2.0	diamondmagenta.gif	stop																								1.97	0.514240980148	0.000923871994019	0.26734495163000005	1.0	q	688.0052220819999																																		2015_Jul_02_1405	59.8236798453	LearningTask	1	76	
173	200.0	s	-200.0																	1.0	0.0	1.0	0.0	12.0	1.0	49.0	2.0																													s	1.0	0.317600011826	None	0.0	1.0	crosscyan.gif	stop																								1.01	0.5140080451969999	0.000880002975464	0.317600011826	1.0	s	691.0086219310001																																		2015_Jul_02_1405	59.8236798453	LearningTask	1	76	
174	-200.0	a	-200.0																	1.0	0.0	1.0	0.0	12.0	2.0	50.0	3.0																													a	1.0	0.334181070328	None	0.0	2.0	triangleblue.gif	go																								0.0	0.513938903809	0.0008978843688960001	0.334181070328	1.0	a	694.011563063																																		2015_Jul_02_1405	59.8236798453	LearningTask	1	76	
175	-200.0	q	200.0																	1.0	0.0	1.0	0.0	12.0	3.0	51.0	1.0																													q	1.0	0.41742491722099995	None	0.0	4.0	invertedtrianglegreen.gif	stop																								4.11	0.51417183876	0.0010049343109099999	0.41742491722099995	1.0	q	697.0150511260001																																		2015_Jul_02_1405	59.8236798453	LearningTask	1	76	
176	-200.0	a	-200.0																	1.0	0.0	1.0	0.0	13.0	0.0	52.0	3.0																													a	1.0	0.384811878204	None	0.0	1.0	crosscyan.gif	stop																								1.2	0.5140318870539999	0.0009298324584960001	0.384811878204	1.0	a	700.018281937																																		2015_Jul_02_1405	59.8236798453	LearningTask	1	76	
177	200.0	w	200.0																	1.0	0.0	1.0	0.0	13.0	1.0	53.0	0.0																													w	1.0	0.467743873596	None	0.0	4.0	invertedtrianglegreen.gif	stop																								3.95	0.514360189438	0.000892162322998	0.467743873596	1.0	w	703.02155304																																		2015_Jul_02_1405	59.8236798453	LearningTask	1	76	
178	200.0	s	-200.0																	1.0	0.0	1.0	0.0	13.0	2.0	54.0	2.0																													s	1.0	0.35113787651100004	None	0.0	4.0	invertedtrianglegreen.gif	stop																								4.12	0.5142509937290001	0.0010938644409200001	0.35113787651100004	1.0	s	706.024910927																																		2015_Jul_02_1405	59.8236798453	LearningTask	1	76	
179	200.0	s	-200.0																	1.0	0.0	1.0	0.0	13.0	3.0	55.0	2.0																													s	1.0	0.36767005920400003	None	0.0	1.0	circlegray.gif	go																								0.0	0.5144071578980001	0.000885009765625	0.36767005920400003	1.0	s	709.0285151																																		2015_Jul_02_1405	59.8236798453	LearningTask	1	76	
180	200.0	s	-200.0																	1.0	0.0	1.0	0.0	14.0	0.0	56.0	2.0																													s	1.0	0.351479053497	None	0.0	1.0	circlegray.gif	go																								1.03	0.514357089996	0.000880002975464	0.351479053497	1.0	s	712.031821966																																		2015_Jul_02_1405	59.8236798453	LearningTask	1	76	
181	200.0	w	200.0																	1.0	0.0	1.0	0.0	14.0	1.0	57.0	0.0																													w	1.0	0.400712013245	None	0.0	1.0	crosscyan.gif	stop																								0.75	0.513876914978	0.0009198188781739999	0.400712013245	1.0	w	715.035280943																																		2015_Jul_02_1405	59.8236798453	LearningTask	1	76	
182	200.0	s	-200.0																	1.0	0.0	1.0	0.0	14.0	2.0	58.0	2.0																													s	1.0	0.36749792099	None	0.0	2.0	diamondmagenta.gif	stop																								1.88	0.513959169388	0.00093412399292	0.36749792099	1.0	s	718.038558006																																		2015_Jul_02_1405	59.8236798453	LearningTask	1	76	
183	-200.0	a	-200.0																	1.0	0.0	1.0	0.0	14.0	3.0	59.0	3.0																													a	1.0	0.400995969772	None	0.0	0.5	linewhite.gif	go																								0.48	0.514355182648	0.0008859634399410001	0.400995969772	1.0	a	721.0423419480001																																		2015_Jul_02_1405	59.8236798453	LearningTask	1	76	
184	-200.0	a	-200.0																	1.0	0.0	1.0	0.0	15.0	0.0	60.0	3.0																													a	1.0	0.568163156509	None	0.0	2.0	triangleblue.gif	go																								0.0	0.513746976852	0.0008950233459470001	0.568163156509	1.0	a	724.045222998																																		2015_Jul_02_1405	59.8236798453	LearningTask	1	76	
185	200.0	s	-200.0																	1.0	0.0	1.0	0.0	15.0	1.0	61.0	2.0																													s	1.0	0.367386817932	None	0.0	0.5	linewhite.gif	go																								0.5	0.514627933502	0.0008749961853029999	0.367386817932	1.0	s	727.048902035																																		2015_Jul_02_1405	59.8236798453	LearningTask	1	76	
186	200.0	s	-200.0																	1.0	0.0	1.0	0.0	15.0	2.0	62.0	2.0																													s	1.0	0.36793708801299996	None	0.0	2.0	triangleblue.gif	go																								2.03	0.513967990875	0.0012218952179	0.36793708801299996	1.0	s	730.0528299810001																																		2015_Jul_02_1405	59.8236798453	LearningTask	1	76	
187	200.0	s	-200.0																	1.0	0.0	1.0	0.0	15.0	3.0	63.0	2.0																													s	1.0	0.334223985672	None	0.0	4.0	squareorange.gif	go																								3.93	0.513659954071	0.000881910324097	0.334223985672	1.0	s	733.0554580689999																																		2015_Jul_02_1405	59.8236798453	LearningTask	1	76	
188	200.0	s	-200.0																	1.0	0.0	1.0	0.0	16.0	0.0	64.0	2.0																													s	1.0	0.300426006317	None	0.0	1.0	circlegray.gif	go																								1.11	0.514630794525	0.0009279251098630001	0.300426006317	1.0	s	736.058907032																																		2015_Jul_02_1405	59.8236798453	LearningTask	1	76	
189	-200.0	q	200.0																	1.0	0.0	1.0	0.0	16.0	1.0	65.0	1.0																													q	1.0	0.46755290031400004	None	0.0	4.0	squareorange.gif	go																								3.75	0.514336109161	0.000869989395142	0.46755290031400004	1.0	q	739.062381029																																		2015_Jul_02_1405	59.8236798453	LearningTask	1	76	
190	200.0	w	200.0																	1.0	0.0	1.0	0.0	16.0	2.0	66.0	0.0																													w	1.0	0.5512261390690001	None	0.0	4.0	squareorange.gif	go																								0.0	0.514253854752	0.0008668899536130001	0.5512261390690001	1.0	w	742.065596104																																		2015_Jul_02_1405	59.8236798453	LearningTask	1	76	
191	-200.0	a	-200.0																	1.0	0.0	1.0	0.0	16.0	3.0	67.0	3.0																													a	1.0	0.350937843323	None	0.0	4.0	squareorange.gif	go																								4.06	0.514115095139	0.0009860992431639998	0.350937843323	1.0	a	745.069391966																																		2015_Jul_02_1405	59.8236798453	LearningTask	1	76	
192	200.0	s	-200.0																	1.0	0.0	1.0	0.0	17.0	0.0	68.0	2.0																													s	1.0	0.517588853836	None	0.0	4.0	invertedtrianglegreen.gif	stop																								3.94	0.513867139816	0.0008931159973139998	0.517588853836	1.0	s	748.07249403																																		2015_Jul_02_1405	59.8236798453	LearningTask	1	76	
193	-200.0	a	-200.0																	1.0	0.0	1.0	0.0	17.0	1.0	69.0	3.0																													a	1.0	0.367541074753	None	0.0	4.0	squareorange.gif	go																								4.25	0.5137639045719999	0.00103998184204	0.367541074753	1.0	a	751.0758180619999																																		2015_Jul_02_1405	59.8236798453	LearningTask	1	76	
194	-200.0	a	-200.0																	1.0	0.0	1.0	0.0	17.0	2.0	70.0	3.0																													a	1.0	0.384007930756	None	0.0	1.0	crosscyan.gif	stop																								0.94	0.513840913773	0.000931024551392	0.384007930756	1.0	a	754.07913208																																		2015_Jul_02_1405	59.8236798453	LearningTask	1	76	
195	-200.0	a	-200.0																	1.0	0.0	1.0	0.0	17.0	3.0	71.0	3.0																													a	1.0	0.40060997009300003	None	0.0	1.0	crosscyan.gif	stop																								0.0	0.51452589035	0.000881910324097	0.40060997009300003	1.0	a	757.0824759010001																																		2015_Jul_02_1405	59.8236798453	LearningTask	1	76	
196	-200.0	q	200.0																	1.0	0.0	1.0	0.0	18.0	0.0	72.0	1.0																													q	1.0	0.384553909302	None	0.0	2.0	triangleblue.gif	go																								2.25	0.514236927032	0.0009379386901860002	0.384553909302	1.0	q	760.086261988																																		2015_Jul_02_1405	59.8236798453	LearningTask	1	76	
197	-200.0	q	200.0																	1.0	0.0	1.0	0.0	18.0	1.0	73.0	1.0																													q	1.0	0.434397220612	None	0.0	2.0	diamondmagenta.gif	stop																								0.0	0.513798952103	0.0008950233459470001	0.434397220612	1.0	q	763.089360952																																		2015_Jul_02_1405	59.8236798453	LearningTask	1	76	
198	200.0	w	200.0																	1.0	0.0	1.0	0.0	18.0	2.0	74.0	0.0																													w	1.0	0.317002058029	None	0.0	1.0	crosscyan.gif	stop																								0.75	0.514461994171	0.0008761882781980001	0.317002058029	1.0	w	766.09279108																																		2015_Jul_02_1405	59.8236798453	LearningTask	1	76	
199	-200.0	a	-200.0																	1.0	0.0	1.0	0.0	18.0	3.0	75.0	3.0																													a	1.0	0.400981903076	None	0.0	0.5	hexagonyellow.gif	stop																								0.0	0.514194965363	0.0008790493011469999	0.400981903076	1.0	a	769.0965890880001																																		2015_Jul_02_1405	59.8236798453	LearningTask	1	76	
200	-200.0	q	200.0																	1.0	0.0	1.0	0.0	19.0	0.0	76.0	1.0																													q	1.0	0.38430094718900004	None	0.0	0.5	hexagonyellow.gif	stop																								0.0	0.513648033142	0.0008959770202639998	0.38430094718900004	1.0	q	772.099437952																																		2015_Jul_02_1405	59.8236798453	LearningTask	1	76	
201	200.0	s	-200.0																	1.0	0.0	1.0	0.0	19.0	1.0	77.0	2.0																													s	1.0	0.35106992721600006	None	0.0	2.0	triangleblue.gif	go																								1.89	0.514263868332	0.0008840560913089999	0.35106992721600006	1.0	s	775.1026360989999																																		2015_Jul_02_1405	59.8236798453	LearningTask	1	76	
202	200.0	w	200.0																	1.0	0.0	1.0	0.0	19.0	2.0	78.0	0.0																													w	1.0	0.467470169067	None	0.0	2.0	triangleblue.gif	go																								2.05	0.514714002609	0.0008790493011469999	0.467470169067	1.0	w	778.106405973																																		2015_Jul_02_1405	59.8236798453	LearningTask	1	76	
203	200.0	s	-200.0																	1.0	0.0	1.0	0.0	19.0	3.0	79.0	2.0																													s	1.0	0.43440508842500003	None	0.0	1.0	circlegray.gif	go																								1.13	0.514075040817	0.00088095664978	0.43440508842500003	1.0	s	781.109277964																																		2015_Jul_02_1405	59.8236798453	LearningTask	1	76	
204	200.0	w	200.0																	1.0	0.0	1.0	0.0	20.0	0.0	80.0	0.0																													w	1.0	0.351026058197	None	0.0	1.0	circlegray.gif	go																								0.83	0.514387130737	0.000923156738281	0.351026058197	1.0	w	784.11285305																																		2015_Jul_02_1405	59.8236798453	LearningTask	1	76	
205	200.0	s	-200.0																	1.0	0.0	1.0	0.0	20.0	1.0	81.0	2.0																													s	1.0	0.41753482818599996	None	0.0	0.5	linewhite.gif	go																								0.74	0.514496803284	0.0008728504180910001	0.41753482818599996	1.0	s	787.116494894																																		2015_Jul_02_1405	59.8236798453	LearningTask	1	76	
206	-200.0	q	200.0																	1.0	0.0	1.0	0.0	20.0	2.0	82.0	1.0																													q	1.0	0.53440117836	None	0.0	0.5	hexagonyellow.gif	stop																								0.32	0.514050006866	0.0008790493011469999	0.53440117836	1.0	q	790.1199400419999																																		2015_Jul_02_1405	59.8236798453	LearningTask	1	76	
207	200.0	w	200.0																	1.0	0.0	1.0	0.0	20.0	3.0	83.0	0.0																													w	1.0	0.501578092575	None	0.0	2.0	diamondmagenta.gif	stop																								0.0	0.513586044312	0.0009181499481200001	0.501578092575	1.0	w	793.12319994																																		2015_Jul_02_1405	59.8236798453	LearningTask	1	76	
208	200.0	w	200.0																	1.0	0.0	1.0	0.0	21.0	0.0	84.0	0.0																													w	1.0	0.434720039368	None	0.0	4.0	invertedtrianglegreen.gif	stop																								0.0	0.514303922653	0.00140404701233	0.650949001312	0.0	s	796.1264569760001	4.17	0.515281915665	0.000949859619141	0.434720039368	1.0	w	799.1301829810001																											2015_Jul_02_1405	59.8236798453	LearningTask	1	76	
209	200.0	s	-200.0																	1.0	0.0	1.0	0.0	21.0	1.0	85.0	2.0																													s	1.0	0.600931882858	None	0.0	4.0	squareorange.gif	go																								3.99	0.513667821884	0.00088095664978	0.600931882858	1.0	s	802.1331689360001																																		2015_Jul_02_1405	59.8236798453	LearningTask	1	76	
210	200.0	w	200.0																	1.0	0.0	1.0	0.0	21.0	2.0	86.0	0.0																													w	1.0	0.367341995239	None	0.0	0.5	hexagonyellow.gif	stop																								0.0	0.514331102371	0.0008971691131589999	0.367341995239	1.0	w	805.136554956																																		2015_Jul_02_1405	59.8236798453	LearningTask	1	76	
211	-200.0	q	200.0																	1.0	0.0	1.0	0.0	21.0	3.0	87.0	1.0																													q	1.0	0.434147119522	None	0.0	0.5	linewhite.gif	go																								0.67	0.5143198966979999	0.000877857208252	0.434147119522	1.0	q	808.140358925																																		2015_Jul_02_1405	59.8236798453	LearningTask	1	76	
212	-200.0	q	200.0																	1.0	0.0	1.0	0.0	22.0	0.0	88.0	1.0																													q	1.0	0.35032701492299995	None	0.0	2.0	triangleblue.gif	go																								2.05	0.5138151645660001	0.0008909702301030001	0.35032701492299995	1.0	q	811.14338398																																		2015_Jul_02_1405	59.8236798453	LearningTask	1	76	
213	200.0	s	-200.0																	1.0	0.0	1.0	0.0	22.0	1.0	89.0	2.0																													s	1.0	0.484314918518	None	0.0	4.0	invertedtrianglegreen.gif	stop																								4.07	0.514501810074	0.0008909702301030001	0.484314918518	1.0	s	814.146729946																																		2015_Jul_02_1405	59.8236798453	LearningTask	1	76	
214	-200.0	a	-200.0																	1.0	0.0	1.0	0.0	22.0	2.0	90.0	3.0																													a	1.0	0.41770505905199995	None	0.0	2.0	diamondmagenta.gif	stop																								0.0	0.514311075211	0.000909090042114	0.41770505905199995	1.0	a	817.150748968																																		2015_Jul_02_1405	59.8236798453	LearningTask	1	76	
215	200.0	w	200.0																	1.0	0.0	1.0	0.0	22.0	3.0	91.0	0.0																													w	1.0	0.41765999793999997	None	0.0	2.0	diamondmagenta.gif	stop																								1.78	0.5135719776150001	0.00088095664978	0.41765999793999997	1.0	w	820.153611898																																		2015_Jul_02_1405	59.8236798453	LearningTask	1	76	
216	-200.0	q	200.0																	1.0	0.0	1.0	0.0	23.0	0.0	92.0	1.0																													q	1.0	0.451421022415	None	0.0	2.0	triangleblue.gif	go																								1.96	0.514098882675	0.0009350776672360002	0.451421022415	1.0	q	823.1570880410001																																		2015_Jul_02_1405	59.8236798453	LearningTask	1	76	
217	-200.0	a	-200.0																	1.0	0.0	1.0	0.0	23.0	1.0	93.0	3.0																													a	1.0	0.5677561759950001	None	0.0	4.0	invertedtrianglegreen.gif	stop																								3.87	0.5139338970180001	0.00100803375244	0.5677561759950001	1.0	a	826.160589933																																		2015_Jul_02_1405	59.8236798453	LearningTask	1	76	
218	200.0	w	200.0																	1.0	0.0	1.0	0.0	23.0	2.0	94.0	0.0																													w	1.0	0.400758981705	None	0.0	1.0	circlegray.gif	go																								0.79	0.513929843903	0.0008840560913089999	0.400758981705	1.0	w	829.163597107																																		2015_Jul_02_1405	59.8236798453	LearningTask	1	76	
219	-200.0	q	200.0																	1.0	0.0	1.0	0.0	23.0	3.0	95.0	1.0																													q	1.0	0.417905807495	None	0.0	1.0	circlegray.gif	go																								0.86	0.5142588615420001	0.00111198425293	0.417905807495	1.0	q	832.1667609210001																																		2015_Jul_02_1405	59.8236798453	LearningTask	1	76	
220	200.0	s	-200.0																	1.0	0.0	1.0	0.0	24.0	0.0	96.0	2.0																													s	1.0	0.450956106186	None	0.0	4.0	squareorange.gif	go																								3.75	0.5147838592530001	0.000880002975464	0.450956106186	1.0	s	835.170507908																																		2015_Jul_02_1405	59.8236798453	LearningTask	1	76	
221	200.0	w	200.0																	1.0	0.0	1.0	0.0	24.0	1.0	97.0	0.0																													w	1.0	0.401179075241	None	0.0	4.0	invertedtrianglegreen.gif	stop																								4.13	0.513981103897	0.0008821487426760002	0.401179075241	1.0	w	838.1738219260001																																		2015_Jul_02_1405	59.8236798453	LearningTask	1	76	
222	200.0	w	200.0																	1.0	0.0	1.0	0.0	24.0	2.0	98.0	0.0																													w	1.0	0.333945035934	None	0.0	0.5	hexagonyellow.gif	stop																								0.0	0.514189958572	0.00094199180603	0.333945035934	1.0	w	841.177165985																																		2015_Jul_02_1405	59.8236798453	LearningTask	1	76	
223	-200.0	q	200.0																	1.0	0.0	1.0	0.0	24.0	3.0	99.0	1.0																													q	1.0	0.43406486511200004	None	0.0	0.5	hexagonyellow.gif	stop																								0.7	0.514183998108	0.0008909702301030001	0.43406486511200004	1.0	q	844.18048811																																		2015_Jul_02_1405	59.8236798453	LearningTask	1	76	
224																				1.0	0.0	1.0	0.0																																																																														9.0	54.669016122799995																									2015_Jul_02_1405	59.8236798453	LearningTask	1	76	
225	200.0	s	-200.0																	2.0	0.0	2.0	0.0	0.0	0.0	0.0	2.0																													s	1.0	0.417703151703	None	0.0	2.0	diamondmagenta.gif	stop																								2.0	0.509994983673	0.0008959770202639998	0.417703151703	1.0	s	902.596586943																																		2015_Jul_02_1405	59.8236798453	LearningTask	1	76	
226	200.0	w	200.0																	2.0	0.0	2.0	0.0	0.0	1.0	1.0	0.0																													w	1.0	0.433897018433	None	0.0	1.0	circlegray.gif	go																								0.78	0.513917922974	0.0009570121765139998	0.433897018433	1.0	w	905.5994689460001																																		2015_Jul_02_1405	59.8236798453	LearningTask	1	76	
227	200.0	s	-200.0																	2.0	0.0	2.0	0.0	0.0	2.0	2.0	2.0																													s	1.0	0.434600830078	None	0.0	4.0	squareorange.gif	go																								4.13	0.51448392868	0.0011420249939000002	0.434600830078	1.0	s	908.6028521060001																																		2015_Jul_02_1405	59.8236798453	LearningTask	1	76	
228	-200.0	q	200.0																	2.0	0.0	2.0	0.0	0.0	3.0	3.0	1.0																													q	1.0	0.35063099861100006	None	0.0	2.0	diamondmagenta.gif	stop																								0.0	0.5146381855009999	0.00112700462341	0.35063099861100006	1.0	q	911.606348991																																		2015_Jul_02_1405	59.8236798453	LearningTask	1	76	
229	-200.0	a	-200.0																	2.0	0.0	2.0	0.0	1.0	0.0	4.0	3.0																													a	1.0	0.284554004669	None	0.0	1.0	circlegray.gif	go																								0.86	0.514033794403	0.000898838043213	0.284554004669	1.0	a	914.609682083																																		2015_Jul_02_1405	59.8236798453	LearningTask	1	76	
230	200.0	s	-200.0																	2.0	0.0	2.0	0.0	1.0	1.0	5.0	2.0																													s	1.0	0.434587955475	None	0.0	0.5	linewhite.gif	go																								0.55	0.514364004135	0.000880002975464	0.434587955475	1.0	s	917.613070965																																		2015_Jul_02_1405	59.8236798453	LearningTask	1	76	
231	200.0	w	200.0																	2.0	0.0	2.0	0.0	1.0	2.0	6.0	0.0																													w	1.0	0.36771392822300003	None	0.0	2.0	triangleblue.gif	go																								1.85	0.513990163803	0.000931024551392	0.36771392822300003	1.0	w	920.6165800089999																																		2015_Jul_02_1405	59.8236798453	LearningTask	1	76	
232	200.0	w	200.0																	2.0	0.0	2.0	0.0	1.0	3.0	7.0	0.0																													w	1.0	0.5511248111720001	None	0.0	2.0	diamondmagenta.gif	stop																								1.88	0.513933181763	0.0008840560913089999	0.5511248111720001	1.0	w	923.619905949																																		2015_Jul_02_1405	59.8236798453	LearningTask	1	76	
233	-200.0	q	200.0																	2.0	0.0	2.0	0.0	2.0	0.0	8.0	1.0																													q	1.0	0.35084891319300004	None	0.0	4.0	invertedtrianglegreen.gif	stop																								4.22	0.5143940448759999	0.0008761882781980001	0.35084891319300004	1.0	q	926.623198986																																		2015_Jul_02_1405	59.8236798453	LearningTask	1	76	
234	-200.0	q	200.0																	2.0	0.0	2.0	0.0	2.0	1.0	9.0	1.0																													q	1.0	0.284090995789	None	0.0	2.0	diamondmagenta.gif	stop																								2.23	0.513966083527	0.000963926315308	0.284090995789	1.0	q	929.626543045																																		2015_Jul_02_1405	59.8236798453	LearningTask	1	76	
235	200.0	s	-200.0																	2.0	0.0	2.0	0.0	2.0	2.0	10.0	2.0																													s	1.0	0.36722397804300005	None	0.0	2.0	triangleblue.gif	go																								2.17	0.514555931091	0.000890016555786	0.36722397804300005	1.0	s	932.6299591060001																																		2015_Jul_02_1405	59.8236798453	LearningTask	1	76	
236	200.0	w	200.0																	2.0	0.0	2.0	0.0	2.0	3.0	11.0	0.0																													w	1.0	0.333995103836	None	0.0	0.5	hexagonyellow.gif	stop																								0.29	0.51430606842	0.0008831024169919999	0.333995103836	1.0	w	935.6339731219999																																		2015_Jul_02_1405	59.8236798453	LearningTask	1	76	
237	-200.0	q	200.0																	2.0	0.0	2.0	0.0	3.0	0.0	12.0	1.0																													q	1.0	0.31776714325	None	0.0	1.0	circlegray.gif	go																								0.93	0.513123989105	0.0008978843688960001	0.31776714325	1.0	q	938.6368839739999																																		2015_Jul_02_1405	59.8236798453	LearningTask	1	76	
238	-200.0	q	200.0																	2.0	0.0	2.0	0.0	3.0	1.0	13.0	1.0																													q	1.0	0.33417916297899997	None	0.0	4.0	squareorange.gif	go																								3.83	0.5143048763279999	0.000869989395142	0.33417916297899997	1.0	q	941.640161991																																		2015_Jul_02_1405	59.8236798453	LearningTask	1	76	
239	-200.0	a	-200.0																	2.0	0.0	2.0	0.0	3.0	2.0	14.0	3.0																													a	1.0	0.38394403457599996	None	0.0	4.0	invertedtrianglegreen.gif	stop																								0.0	0.514221906662	0.000968933105469	0.38394403457599996	1.0	a	944.643861055																																		2015_Jul_02_1405	59.8236798453	LearningTask	1	76	
240	-200.0	a	-200.0																	2.0	0.0	2.0	0.0	3.0	3.0	15.0	3.0																													a	1.0	0.317574977875	None	0.0	0.5	linewhite.gif	go																								0.63	0.514050960541	0.0008769035339360002	0.317574977875	1.0	a	947.646888018																																		2015_Jul_02_1405	59.8236798453	LearningTask	1	76	
241	200.0	s	-200.0																	2.0	0.0	2.0	0.0	4.0	0.0	16.0	2.0																													s	1.0	0.417402982712	None	0.0	2.0	triangleblue.gif	go																								2.16	0.514352083206	0.00109100341797	0.417402982712	1.0	s	950.650727987																																		2015_Jul_02_1405	59.8236798453	LearningTask	1	76	
242	200.0	s	-200.0																	2.0	0.0	2.0	0.0	4.0	1.0	17.0	2.0																													s	1.0	0.351251125336	None	0.0	0.5	linewhite.gif	go																								0.73	0.5135939121249999	0.0009140968322749999	0.351251125336	1.0	s	953.653666019																																		2015_Jul_02_1405	59.8236798453	LearningTask	1	76	
243	200.0	w	200.0																	2.0	0.0	2.0	0.0	4.0	2.0	18.0	0.0																													w	1.0	0.350689172745	None	0.0	1.0	crosscyan.gif	stop																								0.0	0.5144519805910001	0.0008759498596189999	0.350689172745	1.0	w	956.656961918																																		2015_Jul_02_1405	59.8236798453	LearningTask	1	76	
244	-200.0	q	200.0																	2.0	0.0	2.0	0.0	4.0	3.0	19.0	1.0																													q	1.0	0.36744594574	None	0.0	1.0	circlegray.gif	go																								0.0	0.514240026474	0.0010869503021199997	0.36744594574	1.0	q	959.660495996																																		2015_Jul_02_1405	59.8236798453	LearningTask	1	76	
245	-200.0	a	-200.0																	2.0	0.0	2.0	0.0	5.0	0.0	20.0	3.0																													a	1.0	0.36763215065	None	0.0	4.0	invertedtrianglegreen.gif	stop																								4.2	0.514439821243	0.0008769035339360002	0.36763215065	1.0	a	962.6637279989999																																		2015_Jul_02_1405	59.8236798453	LearningTask	1	76	
246	200.0	s	-200.0																	2.0	0.0	2.0	0.0	5.0	1.0	21.0	2.0																													s	1.0	0.350986003876	None	0.0	0.5	hexagonyellow.gif	stop																								0.41	0.5143928527830001	0.0008759498596189999	0.350986003876	1.0	s	965.667011976																																		2015_Jul_02_1405	59.8236798453	LearningTask	1	76	
247	200.0	w	200.0																	2.0	0.0	2.0	0.0	5.0	2.0	22.0	0.0																													w	1.0	0.500829935074	None	0.0	2.0	diamondmagenta.gif	stop																								0.0	0.51404094696	0.0009109973907470001	0.500829935074	1.0	w	968.670531988																																		2015_Jul_02_1405	59.8236798453	LearningTask	1	76	
248	-200.0	q	200.0																	2.0	0.0	2.0	0.0	5.0	3.0	23.0	1.0																													q	1.0	0.38429212570200005	None	0.0	0.5	hexagonyellow.gif	stop																								0.52	0.514123916626	0.00088095664978	0.38429212570200005	1.0	q	971.673877001																																		2015_Jul_02_1405	59.8236798453	LearningTask	1	76	
249	-200.0	a	-200.0																	2.0	0.0	2.0	0.0	6.0	0.0	24.0	3.0																													a	1.0	0.367630958557	None	0.0	4.0	squareorange.gif	go																								3.9	0.514189958572	0.00087308883667	0.367630958557	1.0	a	974.677450895																																		2015_Jul_02_1405	59.8236798453	LearningTask	1	76	
250	-200.0	a	-200.0																	2.0	0.0	2.0	0.0	6.0	1.0	25.0	3.0																													a	1.0	0.334393978119	None	0.0	0.5	hexagonyellow.gif	stop																								0.25	0.514219999313	0.0008780956268310002	0.334393978119	1.0	a	977.680752993																																		2015_Jul_02_1405	59.8236798453	LearningTask	1	76	
251	-200.0	a	-200.0																	2.0	0.0	2.0	0.0	6.0	2.0	26.0	3.0																													a	1.0	0.46735978126500005	None	0.0	2.0	triangleblue.gif	go																								0.0	0.514245986938	0.000871181488037	0.46735978126500005	1.0	a	980.684149981																																		2015_Jul_02_1405	59.8236798453	LearningTask	1	76	
252	-200.0	q	200.0																	2.0	0.0	2.0	0.0	6.0	3.0	27.0	1.0																													q	1.0	0.350697040558	None	0.0	0.5	linewhite.gif	go																								0.58	0.5146741867069999	0.00087308883667	0.350697040558	1.0	q	983.6878149510001																																		2015_Jul_02_1405	59.8236798453	LearningTask	1	76	
253	-200.0	a	-200.0																	2.0	0.0	2.0	0.0	7.0	0.0	28.0	3.0																													a	1.0	0.367280006409	None	0.0	4.0	invertedtrianglegreen.gif	stop																								4.01	0.513792991638	0.0008840560913089999	0.367280006409	1.0	a	986.6907689569999																																		2015_Jul_02_1405	59.8236798453	LearningTask	1	76	
254	200.0	s	-200.0																	2.0	0.0	2.0	0.0	7.0	1.0	29.0	2.0																													s	1.0	0.43411898613000005	None	0.0	1.0	crosscyan.gif	stop																								1.17	0.514549970627	0.000877141952515	0.43411898613000005	1.0	s	989.694077015																																		2015_Jul_02_1405	59.8236798453	LearningTask	1	76	
255	-200.0	a	-200.0																	2.0	0.0	2.0	0.0	7.0	2.0	30.0	3.0																													a	1.0	0.334238052368	None	0.0	2.0	diamondmagenta.gif	stop																								2.07	0.514313936234	0.0009801387786869998	0.334238052368	1.0	a	992.6977849010001																																		2015_Jul_02_1405	59.8236798453	LearningTask	1	76	
256	200.0	s	-200.0																	2.0	0.0	2.0	0.0	7.0	3.0	31.0	2.0																													s	1.0	0.36795210838299997	None	0.0	4.0	squareorange.gif	go																								4.02	0.51393699646	0.0008640289306639999	0.36795210838299997	1.0	s	995.70103693																																		2015_Jul_02_1405	59.8236798453	LearningTask	1	76	
257	-200.0	a	-200.0																	2.0	0.0	2.0	0.0	8.0	0.0	32.0	3.0																													a	1.0	0.40057301521300004	None	0.0	0.5	linewhite.gif	go																								0.51	0.514557123184	0.00126504898071	0.40057301521300004	1.0	a	998.704262018																																		2015_Jul_02_1405	59.8236798453	LearningTask	1	76	
258	200.0	s	-200.0																	2.0	0.0	2.0	0.0	8.0	1.0	33.0	2.0																													s	1.0	0.334345817566	None	0.0	1.0	circlegray.gif	go																								0.97	0.514198064804	0.0009100437164310001	0.334345817566	1.0	s	1001.7076868999999																																		2015_Jul_02_1405	59.8236798453	LearningTask	1	76	
259	-200.0	a	-200.0																	2.0	0.0	2.0	0.0	8.0	2.0	34.0	3.0																													a	1.0	0.384454965591	None	0.0	2.0	triangleblue.gif	go																								2.07	0.514327049255	0.0008859634399410001	0.384454965591	1.0	a	1004.71121812																																		2015_Jul_02_1405	59.8236798453	LearningTask	1	76	
260	200.0	w	200.0																	2.0	0.0	2.0	0.0	8.0	3.0	35.0	0.0																													w	1.0	0.41747593879699996	None	0.0	4.0	invertedtrianglegreen.gif	stop																								3.9	0.513945102692	0.0009169578552250001	0.41747593879699996	1.0	w	1007.71441293																																		2015_Jul_02_1405	59.8236798453	LearningTask	1	76	
261	200.0	s	-200.0																	2.0	0.0	2.0	0.0	9.0	0.0	36.0	2.0																													s	1.0	0.5341529846190001	None	0.0	0.5	linewhite.gif	go																								0.27	0.514322042465	0.0008749961853029999	0.5341529846190001	1.0	s	1010.71782494																																		2015_Jul_02_1405	59.8236798453	LearningTask	1	76	
262	-200.0	q	200.0																	2.0	0.0	2.0	0.0	9.0	1.0	37.0	1.0																													q	1.0	0.500992059708	None	0.0	0.5	linewhite.gif	go																								0.54	0.51426410675	0.0008780956268310002	0.500992059708	1.0	q	1013.72132206																																		2015_Jul_02_1405	59.8236798453	LearningTask	1	76	
263	200.0	w	200.0																	2.0	0.0	2.0	0.0	9.0	2.0	38.0	0.0																													w	1.0	0.5173959732060001	None	0.0	0.5	hexagonyellow.gif	stop																								0.0	0.5139620304110001	0.0009059906005860001	0.5173959732060001	1.0	w	1016.72470307																																		2015_Jul_02_1405	59.8236798453	LearningTask	1	76	
264	-200.0	a	-200.0																	2.0	0.0	2.0	0.0	9.0	3.0	39.0	3.0																													a	1.0	0.43434309959399997	None	0.0	0.5	linewhite.gif	go																								0.29	0.514210939407	0.000869989395142	0.43434309959399997	1.0	a	1019.72789407																																		2015_Jul_02_1405	59.8236798453	LearningTask	1	76	
265	-200.0	a	-200.0																	2.0	0.0	2.0	0.0	10.0	0.0	40.0	3.0																													a	1.0	0.351340055466	None	0.0	4.0	squareorange.gif	go																								4.0	0.51433300972	0.00086784362793	0.351340055466	1.0	a	1022.73201299																																		2015_Jul_02_1405	59.8236798453	LearningTask	1	76	
266	-200.0	a	-200.0																	2.0	0.0	2.0	0.0	10.0	1.0	41.0	3.0																													a	1.0	0.400768041611	None	0.0	0.5	hexagonyellow.gif	stop																								0.43	0.513542175293	0.0008959770202639998	0.400768041611	1.0	a	1025.73486996																																		2015_Jul_02_1405	59.8236798453	LearningTask	1	76	
267	-200.0	q	200.0																	2.0	0.0	2.0	0.0	10.0	2.0	42.0	1.0																													q	1.0	0.283946037292	None	0.0	0.5	hexagonyellow.gif	stop																								0.67	0.514196157455	0.0008780956268310002	0.283946037292	1.0	q	1028.73820305																																		2015_Jul_02_1405	59.8236798453	LearningTask	1	76	
268	200.0	w	200.0																	2.0	0.0	2.0	0.0	10.0	3.0	43.0	0.0																													w	1.0	0.384250879288	None	0.0	1.0	circlegray.gif	go																								1.16	0.514596939087	0.0009279251098630001	0.384250879288	1.0	w	1031.74156904																																		2015_Jul_02_1405	59.8236798453	LearningTask	1	76	
269	-200.0	a	-200.0																	2.0	0.0	2.0	0.0	11.0	0.0	44.0	3.0																													a	1.0	0.35109710693400004	None	0.0	4.0	invertedtrianglegreen.gif	stop																								3.94	0.514245986938	0.0009191036224369998	0.35109710693400004	1.0	a	1034.74483204																																		2015_Jul_02_1405	59.8236798453	LearningTask	1	76	
270	200.0	w	200.0																	2.0	0.0	2.0	0.0	11.0	1.0	45.0	0.0																													w	1.0	0.284220933914	None	0.0	0.5	hexagonyellow.gif	stop																								0.0	0.514132976532	0.0009160041809079999	0.284220933914	1.0	w	1037.74804401																																		2015_Jul_02_1405	59.8236798453	LearningTask	1	76	
271	-200.0	q	200.0																	2.0	0.0	2.0	0.0	11.0	2.0	46.0	1.0																													q	1.0	0.334639072418	None	0.0	1.0	crosscyan.gif	stop																								0.87	0.514487028122	0.0009200572967529999	0.334639072418	1.0	q	1040.75170207																																		2015_Jul_02_1405	59.8236798453	LearningTask	1	76	
272	200.0	w	200.0																	2.0	0.0	2.0	0.0	11.0	3.0	47.0	0.0																													w	1.0	0.38400888443000003	None	0.0	1.0	crosscyan.gif	stop																								1.11	0.5142009258269999	0.000881910324097	0.38400888443000003	1.0	w	1043.75498796																																		2015_Jul_02_1405	59.8236798453	LearningTask	1	76	
273	200.0	s	-200.0																	2.0	0.0	2.0	0.0	12.0	0.0	48.0	2.0																													s	1.0	0.367451906204	None	0.0	1.0	circlegray.gif	go																								0.0	0.514382123947	0.00116109848022	0.367451906204	1.0	s	1046.75846291																																		2015_Jul_02_1405	59.8236798453	LearningTask	1	76	
274	200.0	w	200.0																	2.0	0.0	2.0	0.0	12.0	1.0	49.0	0.0																													w	1.0	0.501266956329	None	0.0	0.5	hexagonyellow.gif	stop																								0.61	0.513804912567	0.0008769035339360002	0.501266956329	1.0	w	1049.76183891																																		2015_Jul_02_1405	59.8236798453	LearningTask	1	76	
275	-200.0	a	-200.0																	2.0	0.0	2.0	0.0	12.0	2.0	50.0	3.0																													a	1.0	0.367961168289	None	0.0	4.0	invertedtrianglegreen.gif	stop																								0.0	0.5140810012820001	0.0008840560913089999	0.367961168289	1.0	a	1052.76606393																																		2015_Jul_02_1405	59.8236798453	LearningTask	1	76	
276	200.0	w	200.0																	2.0	0.0	2.0	0.0	12.0	3.0	51.0	0.0																													w	1.0	0.368026971817	None	0.0	2.0	triangleblue.gif	go																								1.91	0.512911081314	0.0008831024169919999	0.368026971817	1.0	w	1055.76852608																																		2015_Jul_02_1405	59.8236798453	LearningTask	1	76	
277	200.0	s	-200.0																	2.0	0.0	2.0	0.0	13.0	0.0	52.0	2.0																													s	1.0	0.36704516410800003	None	0.0	4.0	squareorange.gif	go																								4.19	0.5145308971410001	0.000869989395142	0.36704516410800003	1.0	s	1058.77190113																																		2015_Jul_02_1405	59.8236798453	LearningTask	1	76	
278	200.0	w	200.0																	2.0	0.0	2.0	0.0	13.0	1.0	53.0	0.0																													w	1.0	0.3844871521	None	0.0	2.0	triangleblue.gif	go																								0.0	0.514348983765	0.0008790493011469999	0.3844871521	1.0	w	1061.7760179																																		2015_Jul_02_1405	59.8236798453	LearningTask	1	76	
279	200.0	s	-200.0																	2.0	0.0	2.0	0.0	13.0	2.0	54.0	2.0																													s	1.0	0.333836078644	None	0.0	4.0	squareorange.gif	go																								3.77	0.513643980026	0.000888109207153	0.333836078644	1.0	s	1064.77893901																																		2015_Jul_02_1405	59.8236798453	LearningTask	1	76	
280	-200.0	q	200.0																	2.0	0.0	2.0	0.0	13.0	3.0	55.0	1.0																													q	1.0	0.367604017258	q	1.0	1.0	circlegray.gif	go																								1.05	0.514022111893	0.0008780956268310002	0.367604017258	1.0	q	1067.78212595										0.8082709312440001																								2015_Jul_02_1405	59.8236798453	LearningTask	1	76	
281	-200.0	a	-200.0																	2.0	0.0	2.0	0.0	14.0	0.0	56.0	3.0																													a	1.0	0.5347449779510001	None	0.0	0.5	linewhite.gif	go																								0.39	0.51390504837	0.00089693069458	0.5347449779510001	1.0	a	1070.78572702																																		2015_Jul_02_1405	59.8236798453	LearningTask	1	76	
282	-200.0	a	-200.0																	2.0	0.0	2.0	0.0	14.0	1.0	57.0	3.0																													a	1.0	0.401335954666	None	0.0	4.0	squareorange.gif	go																								4.05	0.5139338970180001	0.00086784362793	0.401335954666	1.0	a	1073.7886529000002																																		2015_Jul_02_1405	59.8236798453	LearningTask	1	76	
283	200.0	w	200.0																	2.0	0.0	2.0	0.0	14.0	2.0	58.0	0.0																													w	1.0	0.35080099105800006	None	0.0	0.5	hexagonyellow.gif	stop																								0.38	0.514309167862	0.0008780956268310002	0.35080099105800006	1.0	w	1076.79201412																																		2015_Jul_02_1405	59.8236798453	LearningTask	1	76	
284	-200.0	q	200.0																	2.0	0.0	2.0	0.0	14.0	3.0	59.0	1.0																													q	1.0	0.317367076874	None	0.0	1.0	crosscyan.gif	stop																								0.94	0.514420986176	0.000978946685791	0.317367076874	1.0	q	1079.79562593																																		2015_Jul_02_1405	59.8236798453	LearningTask	1	76	
285	-200.0	q	200.0																	2.0	0.0	2.0	0.0	15.0	0.0	60.0	1.0																													q	1.0	0.284483194351	None	0.0	4.0	invertedtrianglegreen.gif	stop																								4.09	0.514183044434	0.000882863998413	0.284483194351	1.0	q	1082.79863501																																		2015_Jul_02_1405	59.8236798453	LearningTask	1	76	
286	-200.0	a	-200.0																	2.0	0.0	2.0	0.0	15.0	1.0	61.0	3.0																													a	1.0	0.35092782974200004	None	0.0	4.0	squareorange.gif	go																								3.82	0.514548063278	0.000968933105469	0.35092782974200004	1.0	a	1085.80243397																																		2015_Jul_02_1405	59.8236798453	LearningTask	1	76	
287	-200.0	q	200.0																	2.0	0.0	2.0	0.0	15.0	2.0	62.0	1.0																													q	1.0	0.40091681480400004	None	0.0	1.0	circlegray.gif	go																								1.16	0.5138900279999999	0.0008981227874760001	0.40091681480400004	1.0	q	1088.80563998																																		2015_Jul_02_1405	59.8236798453	LearningTask	1	76	
288	200.0	s	-200.0																	2.0	0.0	2.0	0.0	15.0	3.0	63.0	2.0																													s	1.0	0.350826978683	None	0.0	4.0	invertedtrianglegreen.gif	stop																								0.0	0.514277935028	0.0009100437164310001	0.350826978683	1.0	s	1091.80888009																																		2015_Jul_02_1405	59.8236798453	LearningTask	1	76	
289	-200.0	a	-200.0																	2.0	0.0	2.0	0.0	16.0	0.0	64.0	3.0																													a	1.0	0.384745121002	None	0.0	2.0	triangleblue.gif	go																								0.0	0.5141639709470001	0.000942945480347	0.384745121002	1.0	a	1094.8123939000002																																		2015_Jul_02_1405	59.8236798453	LearningTask	1	76	
290	-200.0	q	200.0																	2.0	0.0	2.0	0.0	16.0	1.0	65.0	1.0																													q	1.0	0.317213058472	None	0.0	4.0	squareorange.gif	go																								3.97	0.5145490169529999	0.00087308883667	0.317213058472	1.0	q	1097.81578112																																		2015_Jul_02_1405	59.8236798453	LearningTask	1	76	
291	200.0	w	200.0																	2.0	0.0	2.0	0.0	16.0	2.0	66.0	0.0																													w	1.0	0.317337989807	None	0.0	2.0	triangleblue.gif	go																								0.0	0.514679908752	0.000880002975464	0.317337989807	1.0	w	1100.81931806																																		2015_Jul_02_1405	59.8236798453	LearningTask	1	76	
