	xPos	corrAns	yPos	corrGoResp	yPosGoStim	xPosGoStim	pracTrials.thisRepN	pracTrials.thisTrialN	pracTrials.thisN	pracTrials.thisIndex	ReDoLoopPrac.thisRepN	ReDoLoopPrac.thisTrialN	ReDoLoopPrac.thisN	ReDoLoopPrac.thisIndex	ReDoLoopPrac.thisTrial	pracStopTrials.thisRepN	pracStopTrials.thisTrialN	pracStopTrials.thisN	pracStopTrials.thisIndex	Blocks.thisRepN	Blocks.thisTrialN	Blocks.thisN	Blocks.thisIndex	trials.thisRepN	trials.thisTrialN	trials.thisN	trials.thisIndex	ReDoLoopMain.thisRepN	ReDoLoopMain.thisTrialN	ReDoLoopMain.thisN	ReDoLoopMain.thisIndex	ReDoLoopMain.thisTrial	StopBlocks.thisRepN	StopBlocks.thisTrialN	StopBlocks.thisN	StopBlocks.thisIndex	StopTrials.thisRepN	StopTrials.thisTrialN	StopTrials.thisN	StopTrials.thisIndex	auctionBlocks.thisRepN	auctionBlocks.thisTrialN	auctionBlocks.thisN	auctionBlocks.thisIndex	auctionTrials.thisRepN	auctionTrials.thisTrialN	auctionTrials.thisN	auctionTrials.thisIndex	learningTrialList	learningPracTrialList	stopTrialList	stopPracTrialList	auctionTrialList	ok1.keys	ok1.rt	resp.keys	resp.corr	feedbackResp.keys	feedbackResp.corr	feedbackResp.rt	currentReward	currentStimulus	currentStimType	firstPracComputedRewardOutput	firstPracLearningStimOnset	firstPracLearningFixOnset	firstPracPresentationRT	firstPracPresentationAcc	firstPracPresentationResp	firstPracEndTrialTimeStamp	resp.rt	secondPracComputedRewardOutput	secondPracLearningStimOnset	secondPracLearningFixOnset	secondPracPresentationRT	secondPracPresentationAcc	secondPracPresentationResp	secondPracEndTrialTimeStamp	StartTrialTimeStamp	trialType	goStim	stimType	stopStimValue	goResp.keys	goResp.corr	goResp.rt	key_resp_9.keys	key_resp_9.corr	fixStopOnset	goStimOnset	stopSignalOnset	EndTrialTimeStamp	key_resp_3.keys	key_resp_3.rt	firstComputedRewardOutput	firstLearningStimOnset	firstLearningFixOnset	firstPresentationRT	firstPresentationAcc	firstPresentationResp	firstEndTrialTimeStamp	secondComputedRewardOutput	secondLearningStimOnset	secondLearningFixOnset	secondPresentationRT	secondPresentationAcc	secondPresentationResp	secondEndTrialTimeStamp	key_resp_7.keys	key_resp_7.rt	beginningSSD	EndingSSD	key_resp_9.rt	key_resp_4.keys	key_resp_4.rt	auctionResponse.keys	auctionResponse.rt	auctionStimDuration	auctionStim	auctionAmounts	auctionStimValue	auctionCondition	chosenAuctionAmount	key_resp_5.keys	key_resp_5.rt	shuffledRewardList	chosenReward1	chosenReward2	chosenReward3	chosenReward4	chosenReward5	key_resp_6.keys	key_resp_6.rt	date	frameRate	expName	session	participant	Unnamed: 138
0																																																	[]	[]	[]	[]	[]	9.0	79.2187049389																																																																															2015_Jun_23_1302	59.985812681599995	LearningTask	1	61	
1	-200.0	q	200.0				0.0	0.0	0.0	5.0																																														q	1.0	None	0.0	0.0252101421356	0.5	squarewhite.gif	stop	0.0	0.506590843201	0.00285005569458	[]	0.0	None	131.777296066	0.401422023773	0.48	0.515590906143	0.0011579990387	0.401422023773	1.0	q	134.780874968																																																								2015_Jun_23_1302	59.985812681599995	LearningTask	1	61	
2	-200.0	q	200.0				0.0	1.0	1.0	1.0																																														q	1.0	None	0.0		1.0	lineorange.gif	stop	0.95	0.514575004578	0.0013170242309600002	0.484215021133	1.0	q	137.783565044	0.484215021133																																																															2015_Jun_23_1302	59.985812681599995	LearningTask	1	61	
3	200.0	w	200.0				0.0	2.0	2.0	4.0																																														w	1.0	None	0.0		4.0	hexagoncyan.gif	stop	3.96	0.515237808228	0.0013408660888699997	0.417564868927	1.0	w	140.786947012	0.417564868927																																																															2015_Jun_23_1302	59.985812681599995	LearningTask	1	61	
4	200.0	w	200.0				0.0	3.0	3.0	0.0																																														w	1.0	None	0.0		0.5	squarewhite.gif	stop	0.57	0.515331983566	0.000877857208252	0.384552955627	1.0	w	143.791486025	0.38455295562700004																																																															2015_Jun_23_1302	59.985812681599995	LearningTask	1	61	
5	-200.0	q	200.0				0.0	4.0	4.0	9.0																																														q	1.0	None	0.0		1.0	triangleblue.gif	go	0.8	0.513736963272	0.0013241767883299998	0.351035833359	1.0	q	146.793852091	0.351035833359																																																															2015_Jun_23_1302	59.985812681599995	LearningTask	1	61	
6	200.0	w	200.0				0.0	5.0	5.0	8.0																																														w	1.0	None	0.0		4.0	hexagoncyan.gif	stop	4.25	0.515111923218	0.0009279251098630001	0.367652893066	1.0	w	149.797234058	0.36765289306599996																																																															2015_Jun_23_1302	59.985812681599995	LearningTask	1	61	
7	200.0	s	-200.0				0.0	6.0	6.0	2.0																																														s	1.0	None	0.0		2.0	crossgreen.gif	stop	2.07	0.515227794647	0.00128388404846	0.417928934097	1.0	s	152.800863981	0.417928934097																																																															2015_Jun_23_1302	59.985812681599995	LearningTask	1	61	
8	200.0	s	-200.0				0.0	7.0	7.0	6.0																																														s	1.0	None	0.0		2.0	invertedtriangleyellow.gif	go	2.05	0.514376163483	0.00133419036865	0.367724895477	1.0	s	155.803975105	0.36772489547700005																																																															2015_Jun_23_1302	59.985812681599995	LearningTask	1	61	
9	-200.0	a	-200.0				0.0	8.0	8.0	3.0																																														a	1.0	None	0.0		0.5	circlemagenta.gif	go	0.26	0.5150740146639999	0.0013170242309600002	0.450844049454	1.0	a	158.807346106	0.450844049454																																																															2015_Jun_23_1302	59.985812681599995	LearningTask	1	61	
10	-200.0	a	-200.0				0.0	9.0	9.0	7.0																																														a	1.0	None	0.0		0.5	circlemagenta.gif	go	0.55	0.515165090561	0.0008959770202639998	0.43408203125	1.0	a	161.811182022	0.43408203125																																																															2015_Jun_23_1302	59.985812681599995	LearningTask	1	61	
11				m	0.0	200.0										0.0	0.0	0.0	1.0																																																												244.44239306400002	stop	hexagoncyan.gif	stop	4.0	m	1.0	0.517524957657	None	0.0	0.00134587287903	0.510270833969	0.7604508399959999	247.44052600900002																																										2015_Jun_23_1302	59.985812681599995	LearningTask	1	61	
12				z	0.0	-200.0										0.0	1.0	1.0	0.0																																																												247.44097995799999	stop	crossgreen.gif	stop	2.0	z	1.0	0.30066704750100004	None	0.0	0.00096607208252	0.515232086182	0.7655100822450001	250.44350791																																										2015_Jun_23_1302	59.985812681599995	LearningTask	1	61	
13				z	0.0	-200.0										1.0	0.0	2.0	0.0																																																												250.443871975	go	circlemagenta.gif	go	0.5	z	1.0	0.36737203598000007	None	0.0	0.0010712146759	0.5159242153170001		253.447046041																																										2015_Jun_23_1302	59.985812681599995	LearningTask	1	61	
14				m	0.0	200.0										1.0	1.0	3.0	1.0																																																												253.44746089	stop	squarewhite.gif	stop	0.5	m	1.0	0.384267091751	None	0.0	0.0009520053863530001	0.5153110027310001	0.76553606987	256.45012688599996																																										2015_Jun_23_1302	59.985812681599995	LearningTask	1	61	
15				m	0.0	200.0										2.0	0.0	4.0	1.0																																																												256.450531006	go	triangleblue.gif	go	1.0	m	1.0	0.450916051865	None	0.0	0.000941038131714	0.515870094299		259.453634024																																										2015_Jun_23_1302	59.985812681599995	LearningTask	1	61	
16				m	0.0	200.0										2.0	1.0	5.0	1.0																																																												259.45400905599996	go	triangleblue.gif	go	1.0	m	1.0	0.484216213226	None	0.0	0.0010049343109099999	0.515772819519		262.457082033																																										2015_Jun_23_1302	59.985812681599995	LearningTask	1	61	
17				z	0.0	-200.0										3.0	0.0	6.0	0.0																																																												262.457508087	go	circlemagenta.gif	go	0.5	z	1.0	0.333950042725	None	0.0	0.000965118408203	0.515619039536		265.46026206																																										2015_Jun_23_1302	59.985812681599995	LearningTask	1	61	
18				z	0.0	-200.0										3.0	1.0	7.0	0.0																																																												265.460633993	go	invertedtriangleyellow.gif	go	2.0	z	1.0	0.334179878235	None	0.0	0.0009469985961910001	0.515815019608		268.46363306																																										2015_Jun_23_1302	59.985812681599995	LearningTask	1	61	
19				z	0.0	-200.0										4.0	0.0	8.0	0.0																																																												268.46400594700003	go	triangleblue.gif	go	1.0	z	1.0	0.350381135941	None	0.0	0.000953197479248	0.516135215759		271.467118025																																										2015_Jun_23_1302	59.985812681599995	LearningTask	1	61	
20				m	0.0	200.0										4.0	1.0	9.0	1.0																																																												271.467487097	go	circlemagenta.gif	go	0.5	m	1.0	0.317224979401	None	0.0	0.0009479522705080001	0.5161478519439999		274.470423937																																										2015_Jun_23_1302	59.985812681599995	LearningTask	1	61	
21																																																																																													9.0	87.00924992559999																																								2015_Jun_23_1302	59.985812681599995	LearningTask	1	61	
22																																																						9.0	4.68831682205																																																																															2015_Jun_23_1302	59.985812681599995	LearningTask	1	61	
23	200.0	w	200.0																	0.0	0.0	0.0	0.0	0.0	0.0	0.0	0.0																													w	1.0	None	0.0		2.0	invertedtriangleyellow.gif	go								0.534368038177																								1.91	0.50871515274	0.0009570121765139998	0.534368038177	1.0	w	369.311902046																																	2015_Jun_23_1302	59.985812681599995	LearningTask	1	61	
24	200.0	s	-200.0																	0.0	0.0	0.0	0.0	0.0	1.0	1.0	2.0																													s	1.0	None	0.0		4.0	diamondgray.gif	go								0.41776895523100005																								3.86	0.513485193253	0.0434181690216	0.41776895523100005	1.0	s	372.314544916																																	2015_Jun_23_1302	59.985812681599995	LearningTask	1	61	
25	-200.0	a	-200.0																	0.0	0.0	0.0	0.0	0.0	2.0	2.0	3.0																													a	1.0	None	0.0		2.0	crossgreen.gif	stop								0.433856010437																								0.0	0.514686822891	0.000888824462891	0.417348146439	0.0	q	375.31826996800004	1.8	0.515177965164	0.00101089477539	0.433856010437	1.0	a	378.32167792300004																										2015_Jun_23_1302	59.985812681599995	LearningTask	1	61	
26	200.0	s	-200.0																	0.0	0.0	0.0	0.0	0.0	3.0	3.0	2.0																													s	1.0	None	0.0		4.0	hexagoncyan.gif	stop								0.40062999725299997																								4.15	0.514017820358	0.00104284286499	0.40062999725299997	1.0	s	381.324517965																																	2015_Jun_23_1302	59.985812681599995	LearningTask	1	61	
27	-200.0	a	-200.0																	0.0	0.0	0.0	0.0	1.0	0.0	4.0	3.0																													a	1.0	None	0.0		1.0	lineorange.gif	stop								0.401206016541																								1.23	0.514565944672	0.0008938312530519999	0.401206016541	1.0	a	384.32802701																																	2015_Jun_23_1302	59.985812681599995	LearningTask	1	61	
28	200.0	s	-200.0																	0.0	0.0	0.0	0.0	1.0	1.0	5.0	2.0																													s	1.0	None	0.0		2.0	crossgreen.gif	stop								0.333878040314																								2.09	0.5144388675689999	0.0008978843688960001	0.333878040314	1.0	s	387.331327915																																	2015_Jun_23_1302	59.985812681599995	LearningTask	1	61	
29	-200.0	q	200.0																	0.0	0.0	0.0	0.0	1.0	2.0	6.0	1.0																													q	1.0	None	0.0		2.0	crossgreen.gif	stop								0.40064406395																								1.84	0.514621019363	0.00100111961365	0.40064406395	1.0	q	390.334866047																																	2015_Jun_23_1302	59.985812681599995	LearningTask	1	61	
30	200.0	s	-200.0																	0.0	0.0	0.0	0.0	1.0	3.0	7.0	2.0																													s	1.0	None	0.0		4.0	diamondgray.gif	go								0.38446378707900003																								0.0	0.5142300128939999	0.0009331703186039999	0.38446378707900003	1.0	s	393.338181973																																	2015_Jun_23_1302	59.985812681599995	LearningTask	1	61	
31	-200.0	q	200.0																	0.0	0.0	0.0	0.0	2.0	0.0	8.0	1.0																													q	1.0	None	0.0		0.5	circlemagenta.gif	go								0.384083032608																								0.56	0.514342069626	0.000890016555786	0.384083032608	1.0	q	396.341651917																																	2015_Jun_23_1302	59.985812681599995	LearningTask	1	61	
32	200.0	s	-200.0																	0.0	0.0	0.0	0.0	2.0	1.0	9.0	2.0																													s	1.0	None	0.0		2.0	crossgreen.gif	stop								0.334272861481																								2.21	0.513992071152	0.0009629726409910001	0.334272861481	1.0	s	399.345160961																																	2015_Jun_23_1302	59.985812681599995	LearningTask	1	61	
33	200.0	w	200.0																	0.0	0.0	0.0	0.0	2.0	2.0	10.0	0.0																													w	1.0	None	0.0		0.5	squarewhite.gif	stop								0.36766409874																								0.35	0.513725996017	0.0008919239044189998	0.36766409874	1.0	w	402.348282099																																	2015_Jun_23_1302	59.985812681599995	LearningTask	1	61	
34	200.0	w	200.0																	0.0	0.0	0.0	0.0	2.0	3.0	11.0	0.0																													w	1.0	None	0.0		2.0	invertedtriangleyellow.gif	go								0.401327848434																								2.01	0.514375925064	0.00088906288147	0.401327848434	1.0	w	405.352217913																																	2015_Jun_23_1302	59.985812681599995	LearningTask	1	61	
35	-200.0	q	200.0																	0.0	0.0	0.0	0.0	3.0	0.0	12.0	1.0																													q	1.0	None	0.0		0.5	circlemagenta.gif	go								0.317450046539																								0.65	0.513695001602	0.0009191036224369998	0.317450046539	1.0	q	408.355092049																																	2015_Jun_23_1302	59.985812681599995	LearningTask	1	61	
36	-200.0	q	200.0																	0.0	0.0	0.0	0.0	3.0	1.0	13.0	1.0																													q	1.0	None	0.0		4.0	hexagoncyan.gif	stop								0.418041944504																								3.94	0.514270067215	0.0009369850158689999	0.418041944504	1.0	q	411.358433008																																	2015_Jun_23_1302	59.985812681599995	LearningTask	1	61	
37	200.0	w	200.0																	0.0	0.0	0.0	0.0	3.0	2.0	14.0	0.0																													w	1.0	None	0.0		1.0	triangleblue.gif	go								0.35113906860399996																								0.0	0.514362096786	0.000892162322998	0.35113906860399996	1.0	w	414.362292051																																	2015_Jun_23_1302	59.985812681599995	LearningTask	1	61	
38	-200.0	q	200.0																	0.0	0.0	0.0	0.0	3.0	3.0	15.0	1.0																													q	1.0	None	0.0		1.0	lineorange.gif	stop								0.350942134857																								0.86	0.51390004158	0.000997066497803	0.350942134857	1.0	q	417.36558294300005																																	2015_Jun_23_1302	59.985812681599995	LearningTask	1	61	
39	-200.0	a	-200.0																	0.0	0.0	0.0	0.0	4.0	0.0	16.0	3.0																													a	1.0	None	0.0		1.0	lineorange.gif	stop								0.41765999793999997																								0.91	0.513787984848	0.0012350082397500001	0.41765999793999997	1.0	a	420.36870908699996																																	2015_Jun_23_1302	59.985812681599995	LearningTask	1	61	
40	-200.0	a	-200.0																	0.0	0.0	0.0	0.0	4.0	1.0	17.0	3.0																													a	1.0	None	0.0		1.0	lineorange.gif	stop								0.40125489234899997																								0.96	0.514228820801	0.00090503692627	0.40125489234899997	1.0	a	423.37212204900004																																	2015_Jun_23_1302	59.985812681599995	LearningTask	1	61	
41	-200.0	q	200.0																	0.0	0.0	0.0	0.0	4.0	2.0	18.0	1.0																													q	1.0	None	0.0		2.0	invertedtriangleyellow.gif	go								0.384691953659																								2.2	0.514167785645	0.000898838043213	0.384691953659	1.0	q	426.37529897699994																																	2015_Jun_23_1302	59.985812681599995	LearningTask	1	61	
42	-200.0	a	-200.0																	0.0	0.0	0.0	0.0	4.0	3.0	19.0	3.0																													a	1.0	None	0.0		4.0	hexagoncyan.gif	stop								0.38427281379699996																								4.06	0.514419794083	0.000921964645386	0.38427281379699996	1.0	a	429.37847209																																	2015_Jun_23_1302	59.985812681599995	LearningTask	1	61	
43	-200.0	q	200.0																	0.0	0.0	0.0	0.0	5.0	0.0	20.0	1.0																													q	1.0	None	0.0		1.0	triangleblue.gif	go								0.367838144302																								1.04	0.514717102051	0.000962018966675	0.367838144302	1.0	q	432.38221406900004																																	2015_Jun_23_1302	59.985812681599995	LearningTask	1	61	
44	-200.0	a	-200.0																	0.0	0.0	0.0	0.0	5.0	1.0	21.0	3.0																													a	1.0	None	0.0		4.0	diamondgray.gif	go								0.36732196807899997																								0.0	0.514267921448	0.000907897949219	0.36732196807899997	1.0	a	435.385421991																																	2015_Jun_23_1302	59.985812681599995	LearningTask	1	61	
45	200.0	s	-200.0																	0.0	0.0	0.0	0.0	5.0	2.0	22.0	2.0																													s	1.0	None	0.0		2.0	crossgreen.gif	stop								0.417493104935																								1.93	0.514081954956	0.000983953475952	0.417493104935	1.0	s	438.38886594800005																																	2015_Jun_23_1302	59.985812681599995	LearningTask	1	61	
46	-200.0	a	-200.0																	0.0	0.0	0.0	0.0	5.0	3.0	23.0	3.0																													a	1.0	None	0.0		4.0	hexagoncyan.gif	stop								0.40118598938																								3.91	0.514041900635	0.000970840454102	0.40118598938	1.0	a	441.392141104																																	2015_Jun_23_1302	59.985812681599995	LearningTask	1	61	
47	200.0	s	-200.0																	0.0	0.0	0.0	0.0	6.0	0.0	24.0	2.0																													s	1.0	None	0.0		4.0	hexagoncyan.gif	stop								0.401610136032																								4.04	0.51430106163	0.0008912086486819999	0.401610136032	1.0	s	444.395864964																																	2015_Jun_23_1302	59.985812681599995	LearningTask	1	61	
48	-200.0	q	200.0																	0.0	0.0	0.0	0.0	6.0	1.0	25.0	1.0																													q	1.0	None	0.0		4.0	diamondgray.gif	go								0.384500980377																								4.17	0.513596057892	0.00095009803772	0.384500980377	1.0	q	447.399004936																																	2015_Jun_23_1302	59.985812681599995	LearningTask	1	61	
49	-200.0	a	-200.0																	0.0	0.0	0.0	0.0	6.0	2.0	26.0	3.0																													a	1.0	None	0.0		4.0	hexagoncyan.gif	stop								0.367496967316																								3.86	0.5142188072199999	0.0008959770202639998	0.367496967316	1.0	a	450.402335882																																	2015_Jun_23_1302	59.985812681599995	LearningTask	1	61	
50	200.0	w	200.0																	0.0	0.0	0.0	0.0	6.0	3.0	27.0	0.0																													w	1.0	None	0.0		1.0	lineorange.gif	stop								0.350793123245																								1.15	0.5143568515779999	0.0008959770202639998	0.350793123245	1.0	w	453.40597105																																	2015_Jun_23_1302	59.985812681599995	LearningTask	1	61	
51	200.0	s	-200.0																	0.0	0.0	0.0	0.0	7.0	0.0	28.0	2.0																													s	1.0	None	0.0		4.0	hexagoncyan.gif	stop								0.36789393424999994																								4.1	0.513735055923	0.0008990764617919999	0.36789393424999994	1.0	s	456.409277916																																	2015_Jun_23_1302	59.985812681599995	LearningTask	1	61	
52	-200.0	q	200.0																	0.0	0.0	0.0	0.0	7.0	1.0	29.0	1.0																													q	1.0	None	0.0		1.0	triangleblue.gif	go								0.300669908524																								0.88	0.514271020889	0.0008981227874760001	0.300669908524	1.0	q	459.412544966																																	2015_Jun_23_1302	59.985812681599995	LearningTask	1	61	
53	200.0	w	200.0																	0.0	0.0	0.0	0.0	7.0	2.0	30.0	0.0																													w	1.0	None	0.0		4.0	diamondgray.gif	go								0.401247024536																								0.0	0.514065027237	0.0011990070342999999	0.401247024536	1.0	w	462.416327953																																	2015_Jun_23_1302	59.985812681599995	LearningTask	1	61	
54	-200.0	q	200.0																	0.0	0.0	0.0	0.0	7.0	3.0	31.0	1.0																													q	1.0	None	0.0		4.0	diamondgray.gif	go								0.367732048035																								0.0	0.513850927353	0.0008990764617919999	0.367732048035	1.0	q	465.419564009																																	2015_Jun_23_1302	59.985812681599995	LearningTask	1	61	
55	200.0	s	-200.0																	0.0	0.0	0.0	0.0	8.0	0.0	32.0	2.0																													s	1.0	None	0.0		4.0	hexagoncyan.gif	stop								0.434615850449																								0.0	0.5140450000760001	0.0009129047393799999	0.434615850449	1.0	s	468.42257905																																	2015_Jun_23_1302	59.985812681599995	LearningTask	1	61	
56	-200.0	q	200.0																	0.0	0.0	0.0	0.0	8.0	1.0	33.0	1.0																													q	1.0	None	0.0		2.0	invertedtriangleyellow.gif	go								0.368188142776																								1.89	0.514287948608	0.0009119510650630002	0.368188142776	1.0	q	471.42599988																																	2015_Jun_23_1302	59.985812681599995	LearningTask	1	61	
57	200.0	s	-200.0																	0.0	0.0	0.0	0.0	8.0	2.0	34.0	2.0																													s	1.0	None	0.0		2.0	crossgreen.gif	stop								0.38422203064000005																								2.2	0.514480829239	0.0009047985076900001	0.38422203064000005	1.0	s	474.42942690800004																																	2015_Jun_23_1302	59.985812681599995	LearningTask	1	61	
58	-200.0	a	-200.0																	0.0	0.0	0.0	0.0	8.0	3.0	35.0	3.0																													a	1.0	None	0.0		0.5	circlemagenta.gif	go								0.417488098145																								0.46	0.514436006546	0.00104999542236	0.417488098145	1.0	a	477.432954073																																	2015_Jun_23_1302	59.985812681599995	LearningTask	1	61	
59	-200.0	q	200.0																	0.0	0.0	0.0	0.0	9.0	0.0	36.0	1.0																													q	1.0	None	0.0		0.5	circlemagenta.gif	go								0.35121011733999996																								0.58	0.514188051224	0.000926971435547	0.35121011733999996	1.0	q	480.436115026																																	2015_Jun_23_1302	59.985812681599995	LearningTask	1	61	
60	-200.0	q	200.0																	0.0	0.0	0.0	0.0	9.0	1.0	37.0	1.0																													q	1.0	None	0.0		0.5	squarewhite.gif	stop								0.384421825409																								0.71	0.5142610073089999	0.000892877578735	0.384421825409	1.0	q	483.43948102																																	2015_Jun_23_1302	59.985812681599995	LearningTask	1	61	
61	200.0	w	200.0																	0.0	0.0	0.0	0.0	9.0	2.0	38.0	0.0																													w	1.0	None	0.0		2.0	invertedtriangleyellow.gif	go								0.317857980728																								2.13	0.513962984085	0.00107288360596	0.317857980728	1.0	w	486.443094969																																	2015_Jun_23_1302	59.985812681599995	LearningTask	1	61	
62	200.0	w	200.0																	0.0	0.0	0.0	0.0	9.0	3.0	39.0	0.0																													w	1.0	None	0.0		0.5	circlemagenta.gif	go								0.35131001472499995																								0.3	0.513835906982	0.000904083251953	0.35131001472499995	1.0	w	489.44629693																																	2015_Jun_23_1302	59.985812681599995	LearningTask	1	61	
63	200.0	w	200.0																	0.0	0.0	0.0	0.0	10.0	0.0	40.0	0.0																													w	1.0	None	0.0		0.5	circlemagenta.gif	go								0.350884914398																								0.61	0.5144450664519999	0.0008981227874760001	0.350884914398	1.0	w	492.449719906																																	2015_Jun_23_1302	59.985812681599995	LearningTask	1	61	
64	200.0	s	-200.0																	0.0	0.0	0.0	0.0	10.0	1.0	41.0	2.0																													s	1.0	None	0.0		0.5	squarewhite.gif	stop								0.41747379303000004																								0.47	0.514070034027	0.0009119510650630002	0.41747379303000004	1.0	s	495.453382015																																	2015_Jun_23_1302	59.985812681599995	LearningTask	1	61	
65	-200.0	q	200.0																	0.0	0.0	0.0	0.0	10.0	2.0	42.0	1.0																													q	1.0	None	0.0		4.0	hexagoncyan.gif	stop								0.317662000656																								0.0	0.51397395134	0.0008978843688960001	0.317662000656	1.0	q	498.456363916																																	2015_Jun_23_1302	59.985812681599995	LearningTask	1	61	
66	200.0	s	-200.0																	0.0	0.0	0.0	0.0	10.0	3.0	43.0	2.0																													s	1.0	None	0.0		4.0	diamondgray.gif	go								0.400594949722																								4.02	0.514439105988	0.0008931159973139998	0.400594949722	1.0	s	501.460186005																																	2015_Jun_23_1302	59.985812681599995	LearningTask	1	61	
67	-200.0	a	-200.0																	0.0	0.0	0.0	0.0	11.0	0.0	44.0	3.0																													a	1.0	None	0.0		0.5	squarewhite.gif	stop								0.450778007507																								0.27	0.513509988785	0.00089693069458	0.450778007507	1.0	a	504.46333003																																	2015_Jun_23_1302	59.985812681599995	LearningTask	1	61	
68	-200.0	a	-200.0																	0.0	0.0	0.0	0.0	11.0	1.0	45.0	3.0																													a	1.0	None	0.0		0.5	circlemagenta.gif	go								0.417266845703																								0.0	0.514436006546	0.0009119510650630002	0.417266845703	1.0	a	507.46653795199995																																	2015_Jun_23_1302	59.985812681599995	LearningTask	1	61	
69	200.0	w	200.0																	0.0	0.0	0.0	0.0	11.0	2.0	46.0	0.0																													w	1.0	None	0.0		4.0	hexagoncyan.gif	stop								0.30076789855999997																								4.07	0.514405012131	0.0009019374847410001	0.30076789855999997	1.0	w	510.470220089																																	2015_Jun_23_1302	59.985812681599995	LearningTask	1	61	
70	-200.0	q	200.0																	0.0	0.0	0.0	0.0	11.0	3.0	47.0	1.0																													q	1.0	None	0.0		4.0	diamondgray.gif	go								0.33408594131499997																								3.93	0.514019966125	0.0008878707885739998	0.33408594131499997	1.0	q	513.473423958																																	2015_Jun_23_1302	59.985812681599995	LearningTask	1	61	
71	200.0	s	-200.0																	0.0	0.0	0.0	0.0	12.0	0.0	48.0	2.0																													s	1.0	None	0.0		0.5	circlemagenta.gif	go								0.384095191956																								0.61	0.51441192627	0.0010249614715599998	0.384095191956	1.0	s	516.476910114																																	2015_Jun_23_1302	59.985812681599995	LearningTask	1	61	
72	200.0	w	200.0																	0.0	0.0	0.0	0.0	12.0	1.0	49.0	0.0																													w	1.0	None	0.0		0.5	circlemagenta.gif	go								0.350681781769																								0.0	0.514199018478	0.0009801387786869998	0.350681781769	1.0	w	519.480531931																																	2015_Jun_23_1302	59.985812681599995	LearningTask	1	61	
73	-200.0	q	200.0																	0.0	0.0	0.0	0.0	12.0	2.0	50.0	1.0																													q	1.0	None	0.0		1.0	triangleblue.gif	go								0.401036024094																								0.0	0.513601064682	0.0008869171142580001	0.401036024094	1.0	q	522.483525991																																	2015_Jun_23_1302	59.985812681599995	LearningTask	1	61	
74	200.0	s	-200.0																	0.0	0.0	0.0	0.0	12.0	3.0	51.0	2.0																													s	1.0	None	0.0		1.0	lineorange.gif	stop								0.40137720108																								0.0	0.513695955276	0.0009629726409910001	0.40137720108	1.0	s	525.486799002																																	2015_Jun_23_1302	59.985812681599995	LearningTask	1	61	
75	200.0	w	200.0																	0.0	0.0	0.0	0.0	13.0	0.0	52.0	0.0																													w	1.0	None	0.0		1.0	lineorange.gif	stop								0.35062479972800004																								0.0	0.514344930649	0.000949859619141	0.35062479972800004	1.0	w	528.490242004																																	2015_Jun_23_1302	59.985812681599995	LearningTask	1	61	
76	-200.0	q	200.0																	0.0	0.0	0.0	0.0	13.0	1.0	53.0	1.0																													q	1.0	None	0.0		4.0	diamondgray.gif	go								0.333941221237																								4.16	0.514636039734	0.0008940696716310001	0.333941221237	1.0	q	531.49358201																																	2015_Jun_23_1302	59.985812681599995	LearningTask	1	61	
77	-200.0	a	-200.0																	0.0	0.0	0.0	0.0	13.0	2.0	54.0	3.0																													a	1.0	None	0.0		4.0	hexagoncyan.gif	stop								0.417233943939																								3.93	0.5145218372339999	0.00092887878418	0.417233943939	1.0	a	534.49693799																																	2015_Jun_23_1302	59.985812681599995	LearningTask	1	61	
78	-200.0	a	-200.0																	0.0	0.0	0.0	0.0	13.0	3.0	55.0	3.0																													a	1.0	None	0.0		2.0	crossgreen.gif	stop								0.40051507949799997																								2.03	0.514461040497	0.0009369850158689999	0.40051507949799997	1.0	a	537.5001881119999																																	2015_Jun_23_1302	59.985812681599995	LearningTask	1	61	
79	200.0	s	-200.0																	0.0	0.0	0.0	0.0	14.0	0.0	56.0	2.0																													s	1.0	None	0.0		0.5	squarewhite.gif	stop								0.417587041855																								0.72	0.514471054077	0.000908851623535	0.417587041855	1.0	s	540.503799915																																	2015_Jun_23_1302	59.985812681599995	LearningTask	1	61	
80	200.0	w	200.0																	0.0	0.0	0.0	0.0	14.0	1.0	57.0	0.0																													w	1.0	None	0.0		4.0	hexagoncyan.gif	stop								0.350591182709																								3.99	0.513869047165	0.000931024551392	0.350591182709	1.0	w	543.507111073																																	2015_Jun_23_1302	59.985812681599995	LearningTask	1	61	
81	200.0	s	-200.0																	0.0	0.0	0.0	0.0	14.0	2.0	58.0	2.0																													s	1.0	None	0.0		1.0	lineorange.gif	stop								0.384254932404																								0.96	0.514337062836	0.00088906288147	0.384254932404	1.0	s	546.510514021																																	2015_Jun_23_1302	59.985812681599995	LearningTask	1	61	
82	-200.0	a	-200.0																	0.0	0.0	0.0	0.0	14.0	3.0	59.0	3.0																													a	1.0	None	0.0		2.0	invertedtriangleyellow.gif	go								0.334139823914																								0.0	0.514248132706	0.0009069442749019998	0.334139823914	1.0	a	549.514214993																																	2015_Jun_23_1302	59.985812681599995	LearningTask	1	61	
83	200.0	s	-200.0																	0.0	0.0	0.0	0.0	15.0	0.0	60.0	2.0																													s	1.0	None	0.0		1.0	lineorange.gif	stop								0.417386054993																								0.8	0.514042854309	0.0008909702301030001	0.417386054993	1.0	s	552.517402887																																	2015_Jun_23_1302	59.985812681599995	LearningTask	1	61	
84	-200.0	a	-200.0																	0.0	0.0	0.0	0.0	15.0	1.0	61.0	3.0																													a	1.0	None	0.0		2.0	crossgreen.gif	stop								0.450884103775																								2.2	0.514231920242	0.000900030136108	0.450884103775	1.0	a	555.5205030440001																																	2015_Jun_23_1302	59.985812681599995	LearningTask	1	61	
85	-200.0	a	-200.0																	0.0	0.0	0.0	0.0	15.0	2.0	62.0	3.0																													a	1.0	None	0.0		0.5	circlemagenta.gif	go								0.38416695594800004																								0.46	0.514414072037	0.0009019374847410001	0.38416695594800004	1.0	a	558.523869038																																	2015_Jun_23_1302	59.985812681599995	LearningTask	1	61	
86	200.0	w	200.0																	0.0	0.0	0.0	0.0	15.0	3.0	63.0	0.0																													w	1.0	None	0.0		2.0	invertedtriangleyellow.gif	go								0.48418807983400003																								1.82	0.514583826065	0.000881910324097	0.48418807983400003	1.0	w	561.527425051																																	2015_Jun_23_1302	59.985812681599995	LearningTask	1	61	
87	-200.0	a	-200.0																	0.0	0.0	0.0	0.0	16.0	0.0	64.0	3.0																													a	1.0	None	0.0		1.0	lineorange.gif	stop								0.384070158005																								0.0	0.514410972595	0.000963926315308	0.384070158005	1.0	a	564.53095603																																	2015_Jun_23_1302	59.985812681599995	LearningTask	1	61	
88	200.0	w	200.0																	0.0	0.0	0.0	0.0	16.0	1.0	65.0	0.0																													w	1.0	None	0.0		2.0	invertedtriangleyellow.gif	go								0.434312105179																								2.06	0.514108896255	0.00092601776123	0.434312105179	1.0	w	567.534159899																																	2015_Jun_23_1302	59.985812681599995	LearningTask	1	61	
89	-200.0	a	-200.0																	0.0	0.0	0.0	0.0	16.0	2.0	66.0	3.0																													a	1.0	None	0.0		4.0	hexagoncyan.gif	stop								0.36747598648100005																								3.92	0.514410018921	0.0008940696716310001	0.36747598648100005	1.0	a	570.5374190809999																																	2015_Jun_23_1302	59.985812681599995	LearningTask	1	61	
90	-200.0	a	-200.0																	0.0	0.0	0.0	0.0	16.0	3.0	67.0	3.0																													a	1.0	None	0.0		4.0	hexagoncyan.gif	stop								0.36739897728																								4.25	0.514137029648	0.00103402137756	0.36739897728	1.0	a	573.540729046																																	2015_Jun_23_1302	59.985812681599995	LearningTask	1	61	
91	200.0	w	200.0																	0.0	0.0	0.0	0.0	17.0	0.0	68.0	0.0																													w	1.0	None	0.0		0.5	squarewhite.gif	stop								0.45133614540100003																								0.38	0.5142738819120001	0.00119781494141	0.45133614540100003	1.0	w	576.544157982																																	2015_Jun_23_1302	59.985812681599995	LearningTask	1	61	
92	-200.0	q	200.0																	0.0	0.0	0.0	0.0	17.0	1.0	69.0	1.0																													q	1.0	None	0.0		2.0	invertedtriangleyellow.gif	go								0.384172201157																								1.76	0.5145118236540001	0.000885009765625	0.384172201157	1.0	q	579.547738075																																	2015_Jun_23_1302	59.985812681599995	LearningTask	1	61	
93	200.0	s	-200.0																	0.0	0.0	0.0	0.0	17.0	2.0	70.0	2.0																													s	1.0	None	0.0		2.0	crossgreen.gif	stop								0.400635957718																								2.16	0.514089107513	0.00093412399292	0.400635957718	1.0	s	582.5509829519999																																	2015_Jun_23_1302	59.985812681599995	LearningTask	1	61	
94	200.0	s	-200.0																	0.0	0.0	0.0	0.0	17.0	3.0	71.0	2.0																													s	1.0	None	0.0		0.5	circlemagenta.gif	go								0.40091705322300003																								0.43	0.51429605484	0.0008869171142580001	0.40091705322300003	1.0	s	585.554339886																																	2015_Jun_23_1302	59.985812681599995	LearningTask	1	61	
95	200.0	w	200.0																	0.0	0.0	0.0	0.0	18.0	0.0	72.0	0.0																													w	1.0	None	0.0		1.0	triangleblue.gif	go								0.334226131439																								0.92	0.5143699646000001	0.0009858608245850002	0.334226131439	1.0	w	588.557826996																																	2015_Jun_23_1302	59.985812681599995	LearningTask	1	61	
96	200.0	s	-200.0																	0.0	0.0	0.0	0.0	18.0	1.0	73.0	2.0																													s	1.0	None	0.0		0.5	circlemagenta.gif	go								0.401165962219																								0.0	0.513757944107	0.0009160041809079999	0.401165962219	1.0	s	591.561371088																																	2015_Jun_23_1302	59.985812681599995	LearningTask	1	61	
97	-200.0	a	-200.0																	0.0	0.0	0.0	0.0	18.0	2.0	74.0	3.0																													a	1.0	None	0.0		2.0	invertedtriangleyellow.gif	go								0.367884874344																								0.0	0.51414513588	0.000888109207153	0.367884874344	1.0	a	594.564483881																																	2015_Jun_23_1302	59.985812681599995	LearningTask	1	61	
98	-200.0	q	200.0																	0.0	0.0	0.0	0.0	18.0	3.0	75.0	1.0																													q	1.0	None	0.0		2.0	invertedtriangleyellow.gif	go								0.40074706077600003																								1.85	0.514523029327	0.0008990764617919999	0.40074706077600003	1.0	q	597.568084955																																	2015_Jun_23_1302	59.985812681599995	LearningTask	1	61	
99	-200.0	q	200.0																	0.0	0.0	0.0	0.0	19.0	0.0	76.0	1.0																													q	1.0	None	0.0		1.0	triangleblue.gif	go								0.417856931686																								0.86	0.514039039612	0.000938892364502	0.417856931686	1.0	q	600.571326971																																	2015_Jun_23_1302	59.985812681599995	LearningTask	1	61	
100	-200.0	q	200.0																	0.0	0.0	0.0	0.0	19.0	1.0	77.0	1.0																													q	1.0	None	0.0		1.0	lineorange.gif	stop								0.36748003959700004																								0.9	0.514290094376	0.0008981227874760001	0.36748003959700004	1.0	q	603.574476004																																	2015_Jun_23_1302	59.985812681599995	LearningTask	1	61	
101	200.0	w	200.0																	0.0	0.0	0.0	0.0	19.0	2.0	78.0	0.0																													w	1.0	None	0.0		1.0	lineorange.gif	stop								0.384490966797																								0.86	0.514385938644	0.000938892364502	0.384490966797	1.0	w	606.578416109																																	2015_Jun_23_1302	59.985812681599995	LearningTask	1	61	
102	-200.0	a	-200.0																	0.0	0.0	0.0	0.0	19.0	3.0	79.0	3.0																													a	1.0	None	0.0		1.0	lineorange.gif	stop								0.418034076691																								0.88	0.513967037201	0.0008990764617919999	0.418034076691	1.0	a	609.581433058																																	2015_Jun_23_1302	59.985812681599995	LearningTask	1	61	
103	-200.0	a	-200.0																	0.0	0.0	0.0	0.0	20.0	0.0	80.0	3.0																													a	1.0	None	0.0		4.0	hexagoncyan.gif	stop								0.35079002380400004																								3.79	0.514157056808	0.0009591579437260001	0.35079002380400004	1.0	a	612.584783077																																	2015_Jun_23_1302	59.985812681599995	LearningTask	1	61	
104	-200.0	q	200.0																	0.0	0.0	0.0	0.0	20.0	1.0	81.0	1.0																													q	1.0	None	0.0		0.5	squarewhite.gif	stop								0.351111888885																								0.32	0.514317035675	0.0009379386901860002	0.351111888885	1.0	q	615.588046074																																	2015_Jun_23_1302	59.985812681599995	LearningTask	1	61	
105	-200.0	q	200.0																	0.0	0.0	0.0	0.0	20.0	2.0	82.0	1.0																													q	1.0	None	0.0		1.0	triangleblue.gif	go								0.384299039841																								1.05	0.514441013336	0.0008931159973139998	0.384299039841	1.0	q	618.591342926																																	2015_Jun_23_1302	59.985812681599995	LearningTask	1	61	
106	200.0	w	200.0																	0.0	0.0	0.0	0.0	20.0	3.0	83.0	0.0																													w	1.0	None	0.0		1.0	lineorange.gif	stop								0.33462285995499996																								1.05	0.5141270160679999	0.000946044921875	0.33462285995499996	1.0	w	621.594851971																																	2015_Jun_23_1302	59.985812681599995	LearningTask	1	61	
107	-200.0	a	-200.0																	0.0	0.0	0.0	0.0	21.0	0.0	84.0	3.0																													a	1.0	None	0.0		1.0	triangleblue.gif	go								0.350519180298																								1.1	0.51472401619	0.0008981227874760001	0.350519180298	1.0	a	624.59819293																																	2015_Jun_23_1302	59.985812681599995	LearningTask	1	61	
108	200.0	w	200.0																	0.0	0.0	0.0	0.0	21.0	1.0	85.0	0.0																													w	1.0	None	0.0		1.0	lineorange.gif	stop								0.35151982307400004																								1.03	0.514417886734	0.00089693069458	0.35151982307400004	1.0	w	627.601630926																																	2015_Jun_23_1302	59.985812681599995	LearningTask	1	61	
109	200.0	s	-200.0																	0.0	0.0	0.0	0.0	21.0	2.0	86.0	2.0																													s	1.0	None	0.0		4.0	diamondgray.gif	go								0.43401718139600004																								0.0	0.5139858722689999	0.0009298324584960001	0.41737818718	0.0	a	630.605058908	4.09	0.515603065491	0.00100612640381	0.43401718139600004	1.0	s	633.6086049080001																										2015_Jun_23_1302	59.985812681599995	LearningTask	1	61	
110	200.0	w	200.0																	0.0	0.0	0.0	0.0	21.0	3.0	87.0	0.0																													w	1.0	None	0.0		1.0	triangleblue.gif	go								0.36746191978500004																								0.77	0.51404094696	0.000900983810425	0.36746191978500004	1.0	w	636.61205411																																	2015_Jun_23_1302	59.985812681599995	LearningTask	1	61	
111	200.0	w	200.0																	0.0	0.0	0.0	0.0	22.0	0.0	88.0	0.0																													w	1.0	None	0.0		1.0	triangleblue.gif	go								0.400703907013																								1.07	0.514049053192	0.00090503692627	0.400703907013	1.0	w	639.615451097																																	2015_Jun_23_1302	59.985812681599995	LearningTask	1	61	
112	200.0	s	-200.0																	0.0	0.0	0.0	0.0	22.0	1.0	89.0	2.0																													s	1.0	None	0.0		1.0	lineorange.gif	stop								0.401086091995																								0.0	0.51388001442	0.0009059906005860001	0.401086091995	1.0	s	642.618480921																																	2015_Jun_23_1302	59.985812681599995	LearningTask	1	61	
113	200.0	w	200.0																	0.0	0.0	0.0	0.0	22.0	2.0	90.0	0.0																													w	1.0	None	0.0		4.0	hexagoncyan.gif	stop								0.383830070496																								3.82	0.514646053314	0.0009181499481200001	0.383830070496	1.0	w	645.62193799																																	2015_Jun_23_1302	59.985812681599995	LearningTask	1	61	
114	-200.0	q	200.0																	0.0	0.0	0.0	0.0	22.0	3.0	91.0	1.0																													q	1.0	None	0.0		1.0	lineorange.gif	stop								0.35079193115199997																								1.16	0.514331102371	0.0009291172027589999	0.35079193115199997	1.0	q	648.6253819469999																																	2015_Jun_23_1302	59.985812681599995	LearningTask	1	61	
115	200.0	w	200.0																	0.0	0.0	0.0	0.0	23.0	0.0	92.0	0.0																													w	1.0	None	0.0		4.0	hexagoncyan.gif	stop								0.333863973618																								4.25	0.514558076859	0.0009820461273189998	0.333863973618	1.0	w	651.629053116																																	2015_Jun_23_1302	59.985812681599995	LearningTask	1	61	
116	-200.0	a	-200.0																	0.0	0.0	0.0	0.0	23.0	1.0	93.0	3.0																													a	1.0	None	0.0		1.0	lineorange.gif	stop								0.400866985321																								0.95	0.5137920379640001	0.0009520053863530001	0.400866985321	1.0	a	654.63209796																																	2015_Jun_23_1302	59.985812681599995	LearningTask	1	61	
117	200.0	s	-200.0																	0.0	0.0	0.0	0.0	23.0	2.0	94.0	2.0																													s	1.0	None	0.0		1.0	triangleblue.gif	go								0.368026018143																								1.04	0.513982057571	0.000900983810425	0.368026018143	1.0	s	657.635442972																																	2015_Jun_23_1302	59.985812681599995	LearningTask	1	61	
118	200.0	s	-200.0																	0.0	0.0	0.0	0.0	23.0	3.0	95.0	2.0																													s	1.0	None	0.0		1.0	lineorange.gif	stop								0.417840003967																								1.14	0.514086961746	0.00106978416443	0.417840003967	1.0	s	660.6387689109999																																	2015_Jun_23_1302	59.985812681599995	LearningTask	1	61	
119	200.0	w	200.0																	0.0	0.0	0.0	0.0	24.0	0.0	96.0	0.0																													w	1.0	None	0.0		2.0	crossgreen.gif	stop								0.384599924088																								1.84	0.514111042023	0.00093412399292	0.384599924088	1.0	w	663.642365932																																	2015_Jun_23_1302	59.985812681599995	LearningTask	1	61	
120	200.0	s	-200.0																	0.0	0.0	0.0	0.0	24.0	1.0	97.0	2.0																													s	1.0	None	0.0		4.0	hexagoncyan.gif	stop								0.367558002472																								4.19	0.514086008072	0.000900983810425	0.367558002472	1.0	s	666.645612955																																	2015_Jun_23_1302	59.985812681599995	LearningTask	1	61	
121	-200.0	a	-200.0																	0.0	0.0	0.0	0.0	24.0	2.0	98.0	3.0																													a	1.0	None	0.0		0.5	squarewhite.gif	stop								0.367545127869																								0.0	0.514283895493	0.000909090042114	0.367545127869	1.0	a	669.648881912																																	2015_Jun_23_1302	59.985812681599995	LearningTask	1	61	
122	-200.0	q	200.0																	0.0	0.0	0.0	0.0	24.0	3.0	99.0	1.0																													q	1.0	None	0.0		4.0	diamondgray.gif	go								0.400811195374																								4.2	0.514460086823	0.0008950233459470001	0.400811195374	1.0	q	672.6522629259999																																	2015_Jun_23_1302	59.985812681599995	LearningTask	1	61	
123																				0.0	0.0	0.0	0.0																																																																																						9.0	13.9618899822																								2015_Jun_23_1302	59.985812681599995	LearningTask	1	61	
124	-200.0	a	-200.0																	1.0	0.0	1.0	0.0	0.0	0.0	0.0	3.0																													a	1.0	None	0.0		2.0	crossgreen.gif	stop								0.8686408996580001																								0.0	0.509381055832	0.00089693069458	0.8686408996580001	1.0	a	690.0555229189999																																	2015_Jun_23_1302	59.985812681599995	LearningTask	1	61	
125	200.0	s	-200.0																	1.0	0.0	1.0	0.0	0.0	1.0	1.0	2.0																													s	1.0	None	0.0		0.5	circlemagenta.gif	go								0.401206016541																								0.0	0.514075040817	0.000938892364502	0.401206016541	1.0	s	693.0588181019999																																	2015_Jun_23_1302	59.985812681599995	LearningTask	1	61	
126	-200.0	q	200.0																	1.0	0.0	1.0	0.0	0.0	2.0	2.0	1.0																													q	1.0	None	0.0		4.0	diamondgray.gif	go								0.351161956787																								4.25	0.514091968536	0.0009200572967529999	0.351161956787	1.0	q	696.061932087																																	2015_Jun_23_1302	59.985812681599995	LearningTask	1	61	
127	200.0	s	-200.0																	1.0	0.0	1.0	0.0	0.0	3.0	3.0	2.0																													s	1.0	None	0.0		0.5	squarewhite.gif	stop								0.40036702156099996																								0.0	0.514102935791	0.0009398460388180001	0.40036702156099996	1.0	s	699.065344095																																	2015_Jun_23_1302	59.985812681599995	LearningTask	1	61	
128	200.0	w	200.0																	1.0	0.0	1.0	0.0	1.0	0.0	4.0	0.0																													w	1.0	None	0.0		0.5	circlemagenta.gif	go								0.383801937103																								0.67	0.514630794525	0.000900983810425	0.383801937103	1.0	w	702.0690209869999																																	2015_Jun_23_1302	59.985812681599995	LearningTask	1	61	
129	-200.0	a	-200.0																	1.0	0.0	1.0	0.0	1.0	1.0	5.0	3.0																													a	1.0	None	0.0		2.0	crossgreen.gif	stop								0.434192895889																								0.0	0.514013051987	0.000890016555786	0.367110013962	0.0	q	705.072359085	1.9	0.515097856522	0.00100302696228	0.434192895889	1.0	a	708.07584691																										2015_Jun_23_1302	59.985812681599995	LearningTask	1	61	
130	-200.0	q	200.0																	1.0	0.0	1.0	0.0	1.0	2.0	6.0	1.0																													q	1.0	None	0.0		0.5	squarewhite.gif	stop								0.434615850449																								0.6	0.513773918152	0.0008919239044189998	0.434615850449	1.0	q	711.078910112																																	2015_Jun_23_1302	59.985812681599995	LearningTask	1	61	
131	200.0	s	-200.0																	1.0	0.0	1.0	0.0	1.0	3.0	7.0	2.0																													s	1.0	None	0.0		4.0	diamondgray.gif	go								0.434555053711																								3.95	0.514213085175	0.0008940696716310001	0.434555053711	1.0	s	714.082281113																																	2015_Jun_23_1302	59.985812681599995	LearningTask	1	61	
132	-200.0	a	-200.0																	1.0	0.0	1.0	0.0	2.0	0.0	8.0	3.0																													a	1.0	None	0.0		0.5	circlemagenta.gif	go								0.384293079376																								0.65	0.514209032059	0.0008990764617919999	0.384293079376	1.0	a	717.085791111																																	2015_Jun_23_1302	59.985812681599995	LearningTask	1	61	
133	200.0	s	-200.0																	1.0	0.0	1.0	0.0	2.0	1.0	9.0	2.0																													s	1.0	None	0.0		0.5	squarewhite.gif	stop								0.45092701911899996																								0.44	0.514466047287	0.00102305412292	0.45092701911899996	1.0	s	720.08931303																																	2015_Jun_23_1302	59.985812681599995	LearningTask	1	61	
134	-200.0	q	200.0																	1.0	0.0	1.0	0.0	2.0	2.0	10.0	1.0																													q	1.0	None	0.0		0.5	squarewhite.gif	stop								0.350778102875																								0.0	0.514017105103	0.00088095664978	0.350778102875	1.0	q	723.09235096																																	2015_Jun_23_1302	59.985812681599995	LearningTask	1	61	
135	-200.0	q	200.0																	1.0	0.0	1.0	0.0	2.0	3.0	11.0	1.0																													q	1.0	None	0.0		2.0	crossgreen.gif	stop								0.434381008148																								1.98	0.514565944672	0.00105214118958	0.434381008148	1.0	q	726.095683098																																	2015_Jun_23_1302	59.985812681599995	LearningTask	1	61	
136	200.0	s	-200.0																	1.0	0.0	1.0	0.0	3.0	0.0	12.0	2.0																													s	1.0	None	0.0		2.0	crossgreen.gif	stop								0.41726112365699997																								0.0	0.5142009258269999	0.00094199180603	0.41726112365699997	1.0	s	729.0990900989999																																	2015_Jun_23_1302	59.985812681599995	LearningTask	1	61	
137	200.0	w	200.0																	1.0	0.0	1.0	0.0	3.0	1.0	13.0	0.0																													w	1.0	None	0.0		2.0	invertedtriangleyellow.gif	go								0.417196989059																								1.91	0.514451026917	0.0008919239044189998	0.417196989059	1.0	w	732.102560997																																	2015_Jun_23_1302	59.985812681599995	LearningTask	1	61	
138	200.0	w	200.0																	1.0	0.0	1.0	0.0	3.0	2.0	14.0	0.0																													w	1.0	None	0.0		2.0	invertedtriangleyellow.gif	go								0.41718196868900004																								2.06	0.5145540237430001	0.00089693069458	0.41718196868900004	1.0	w	735.1057460310001																																	2015_Jun_23_1302	59.985812681599995	LearningTask	1	61	
139	200.0	s	-200.0																	1.0	0.0	1.0	0.0	3.0	3.0	15.0	2.0																													s	1.0	None	0.0		2.0	crossgreen.gif	stop								0.417271137238																								2.11	0.514532089233	0.00094199180603	0.417271137238	1.0	s	738.109170914																																	2015_Jun_23_1302	59.985812681599995	LearningTask	1	61	
140	-200.0	a	-200.0																	1.0	0.0	1.0	0.0	4.0	0.0	16.0	3.0																													a	1.0	None	0.0		1.0	lineorange.gif	stop								0.417762994766																								1.16	0.514277935028	0.0009298324584960001	0.417762994766	1.0	a	741.112881899																																	2015_Jun_23_1302	59.985812681599995	LearningTask	1	61	
141	-200.0	a	-200.0																	1.0	0.0	1.0	0.0	4.0	1.0	17.0	3.0																													a	1.0	None	0.0		1.0	lineorange.gif	stop								0.417682886124																								0.0	0.51406621933	0.0008740425109860002	0.417682886124	1.0	a	744.11616993																																	2015_Jun_23_1302	59.985812681599995	LearningTask	1	61	
142	-200.0	a	-200.0																	1.0	0.0	1.0	0.0	4.0	2.0	18.0	3.0																													a	1.0	None	0.0		0.5	circlemagenta.gif	go								0.351166009903																								0.0	0.514137029648	0.000877141952515	0.351166009903	1.0	a	747.1194770339999																																	2015_Jun_23_1302	59.985812681599995	LearningTask	1	61	
143	-200.0	q	200.0																	1.0	0.0	1.0	0.0	4.0	3.0	19.0	1.0																													q	1.0	None	0.0		2.0	invertedtriangleyellow.gif	go								0.367135047913																								1.97	0.5144381523129999	0.0008990764617919999	0.367135047913	1.0	q	750.1228110789999																																	2015_Jun_23_1302	59.985812681599995	LearningTask	1	61	
144	-200.0	q	200.0																	1.0	0.0	1.0	0.0	5.0	0.0	20.0	1.0																													q	1.0	None	0.0		0.5	circlemagenta.gif	go								0.38403105735799997																								0.63	0.51438498497	0.000881910324097	0.38403105735799997	1.0	q	753.126401901																																	2015_Jun_23_1302	59.985812681599995	LearningTask	1	61	
145	200.0	w	200.0																	1.0	0.0	1.0	0.0	5.0	1.0	21.0	0.0																													w	1.0	None	0.0		2.0	invertedtriangleyellow.gif	go								0.38415384292599997																								1.76	0.514147996902	0.0008862018585209999	0.38415384292599997	1.0	w	756.1293730739999																																	2015_Jun_23_1302	59.985812681599995	LearningTask	1	61	
146	-200.0	q	200.0																	1.0	0.0	1.0	0.0	5.0	2.0	22.0	1.0																													q	1.0	None	0.0		4.0	diamondgray.gif	go								0.384223937988																								4.08	0.5144288539890001	0.0009369850158689999	0.384223937988	1.0	q	759.132781982																																	2015_Jun_23_1302	59.985812681599995	LearningTask	1	61	
147	-200.0	a	-200.0																	1.0	0.0	1.0	0.0	5.0	3.0	23.0	3.0																													a	1.0	None	0.0		2.0	crossgreen.gif	stop								0.434004068375																								1.89	0.514547109604	0.0008780956268310002	0.434004068375	1.0	a	762.1364979739999																																	2015_Jun_23_1302	59.985812681599995	LearningTask	1	61	
148	-200.0	q	200.0																	1.0	0.0	1.0	0.0	6.0	0.0	24.0	1.0																													q	1.0	None	0.0		1.0	triangleblue.gif	go								0.351292133331																								0.78	0.514180898666	0.0008840560913089999	0.351292133331	1.0	q	765.139590025																																	2015_Jun_23_1302	59.985812681599995	LearningTask	1	61	
149	-200.0	a	-200.0																	1.0	0.0	1.0	0.0	6.0	1.0	25.0	3.0																													a	1.0	None	0.0		2.0	crossgreen.gif	stop								0.400826931																								2.24	0.514561891556	0.00103092193604	0.400826931	1.0	a	768.142936945																																	2015_Jun_23_1302	59.985812681599995	LearningTask	1	61	
150	-200.0	a	-200.0																	1.0	0.0	1.0	0.0	6.0	2.0	26.0	3.0																													a	1.0	None	0.0		2.0	crossgreen.gif	stop								0.36724281310999995																								2.07	0.5145478248600001	0.000888824462891	0.36724281310999995	1.0	a	771.146517992																																	2015_Jun_23_1302	59.985812681599995	LearningTask	1	61	
151	200.0	w	200.0																	1.0	0.0	1.0	0.0	6.0	3.0	27.0	0.0																													w	1.0	None	0.0		1.0	lineorange.gif	stop								0.434467077255																								0.0	0.514189004898	0.000887155532837	0.434467077255	1.0	w	774.1497159																																	2015_Jun_23_1302	59.985812681599995	LearningTask	1	61	
152	200.0	s	-200.0																	1.0	0.0	1.0	0.0	7.0	0.0	28.0	2.0																													s	1.0	None	0.0		2.0	invertedtriangleyellow.gif	go								0.434974193573																								2.24	0.514096975327	0.000923156738281	0.434974193573	1.0	s	777.1530539989999																																	2015_Jun_23_1302	59.985812681599995	LearningTask	1	61	
153	-200.0	a	-200.0																	1.0	0.0	1.0	0.0	7.0	1.0	29.0	3.0																													a	1.0	None	0.0		4.0	diamondgray.gif	go								0.484292030334																								0.0	0.514316082001	0.0009100437164310001	0.484292030334	1.0	a	780.1569149489999																																	2015_Jun_23_1302	59.985812681599995	LearningTask	1	61	
154	-200.0	q	200.0																	1.0	0.0	1.0	0.0	7.0	2.0	30.0	1.0																													q	1.0	None	0.0		0.5	squarewhite.gif	stop								0.450886011124																								0.71	0.51388001442	0.0009448528289790001	0.450886011124	1.0	q	783.1598920819999																																	2015_Jun_23_1302	59.985812681599995	LearningTask	1	61	
155	200.0	s	-200.0																	1.0	0.0	1.0	0.0	7.0	3.0	31.0	2.0																													s	1.0	None	0.0		1.0	triangleblue.gif	go								0.43408393859899996																								0.86	0.513818979263	0.0009169578552250001	0.43408393859899996	1.0	s	786.163239002																																	2015_Jun_23_1302	59.985812681599995	LearningTask	1	61	
156	-200.0	a	-200.0																	1.0	0.0	1.0	0.0	8.0	0.0	32.0	3.0																													a	1.0	None	0.0		1.0	lineorange.gif	stop								0.417734146118																								1.24	0.514442920685	0.001060962677	0.417734146118	1.0	a	789.166755915																																	2015_Jun_23_1302	59.985812681599995	LearningTask	1	61	
157	-200.0	q	200.0																	1.0	0.0	1.0	0.0	8.0	1.0	33.0	1.0																													q	1.0	None	0.0		2.0	invertedtriangleyellow.gif	go								0.36741685867299995																								1.91	0.5143561363220001	0.000885009765625	0.36741685867299995	1.0	q	792.1701200010001																																	2015_Jun_23_1302	59.985812681599995	LearningTask	1	61	
158	-200.0	q	200.0																	1.0	0.0	1.0	0.0	8.0	2.0	34.0	1.0																													q	1.0	None	0.0		2.0	invertedtriangleyellow.gif	go								0.35006213188199997																								1.98	0.514355897903	0.000877857208252	0.35006213188199997	1.0	q	795.1733229160001																																	2015_Jun_23_1302	59.985812681599995	LearningTask	1	61	
159	200.0	w	200.0																	1.0	0.0	1.0	0.0	8.0	3.0	35.0	0.0																													w	1.0	None	0.0		4.0	diamondgray.gif	go								0.45116186142																								4.13	0.513917922974	0.00120210647583	0.45116186142	1.0	w	798.1768989560001																																	2015_Jun_23_1302	59.985812681599995	LearningTask	1	61	
160	-200.0	q	200.0																	1.0	0.0	1.0	0.0	9.0	0.0	36.0	1.0																													q	1.0	None	0.0		0.5	squarewhite.gif	stop								0.350709915161																								0.4	0.51424908638	0.0012769699096700001	0.350709915161	1.0	q	801.180397987																																	2015_Jun_23_1302	59.985812681599995	LearningTask	1	61	
161	-200.0	a	-200.0																	1.0	0.0	1.0	0.0	9.0	1.0	37.0	3.0																													a	1.0	None	0.0		4.0	diamondgray.gif	go								0.38433313369800004																								4.23	0.514437913895	0.000900983810425	0.38433313369800004	1.0	a	804.1836550239999																																	2015_Jun_23_1302	59.985812681599995	LearningTask	1	61	
162	200.0	s	-200.0																	1.0	0.0	1.0	0.0	9.0	2.0	38.0	2.0																													s	1.0	None	0.0		4.0	hexagoncyan.gif	stop								0.400846004486																								3.99	0.514140844345	0.00132083892822	0.400846004486	1.0	s	807.1871659760001																																	2015_Jun_23_1302	59.985812681599995	LearningTask	1	61	
163	200.0	w	200.0																	1.0	0.0	1.0	0.0	9.0	3.0	39.0	0.0																													w	1.0	None	0.0		4.0	hexagoncyan.gif	stop								0.35108089446999996																								3.87	0.5142061710360001	0.000881195068359	0.35108089446999996	1.0	w	810.190324068																																	2015_Jun_23_1302	59.985812681599995	LearningTask	1	61	
164	200.0	s	-200.0																	1.0	0.0	1.0	0.0	10.0	0.0	40.0	2.0																													s	1.0	None	0.0		0.5	squarewhite.gif	stop								0.417579174042																								0.67	0.514353990555	0.0008640289306639999	0.417579174042	1.0	s	813.193660021																																	2015_Jun_23_1302	59.985812681599995	LearningTask	1	61	
165	-200.0	q	200.0																	1.0	0.0	1.0	0.0	10.0	1.0	41.0	1.0																													q	1.0	None	0.0		2.0	invertedtriangleyellow.gif	go								0.36742687225299997																								1.79	0.514154195786	0.00094199180603	0.36742687225299997	1.0	q	816.196927071																																	2015_Jun_23_1302	59.985812681599995	LearningTask	1	61	
166	-200.0	q	200.0																	1.0	0.0	1.0	0.0	10.0	2.0	42.0	1.0																													q	1.0	None	0.0		2.0	invertedtriangleyellow.gif	go								0.350864887238																								2.14	0.514386892319	0.0008769035339360002	0.350864887238	1.0	q	819.200421095																																	2015_Jun_23_1302	59.985812681599995	LearningTask	1	61	
167	-200.0	q	200.0																	1.0	0.0	1.0	0.0	10.0	3.0	43.0	1.0																													q	1.0	None	0.0		0.5	squarewhite.gif	stop								0.35086011886600005																								0.48	0.5141651630399999	0.000908136367798	0.35086011886600005	1.0	q	822.203969955																																	2015_Jun_23_1302	59.985812681599995	LearningTask	1	61	
168	200.0	w	200.0																	1.0	0.0	1.0	0.0	11.0	0.0	44.0	0.0																													w	1.0	None	0.0		0.5	circlemagenta.gif	go								0.40092301368699995																								0.64	0.514299869537	0.0013070106506300001	0.40092301368699995	1.0	w	825.207143068																																	2015_Jun_23_1302	59.985812681599995	LearningTask	1	61	
169	-200.0	q	200.0																	1.0	0.0	1.0	0.0	11.0	1.0	45.0	1.0																													q	1.0	None	0.0		4.0	hexagoncyan.gif	stop								0.334233045578																								3.98	0.514476060867	0.000880002975464	0.334233045578	1.0	q	828.210479975																																	2015_Jun_23_1302	59.985812681599995	LearningTask	1	61	
170	-200.0	a	-200.0																	1.0	0.0	1.0	0.0	11.0	2.0	46.0	3.0																													a	1.0	None	0.0		0.5	circlemagenta.gif	go								0.434239864349																								0.37	0.514405012131	0.000877857208252	0.434239864349	1.0	a	831.2141900060001																																	2015_Jun_23_1302	59.985812681599995	LearningTask	1	61	
171	200.0	s	-200.0																	1.0	0.0	1.0	0.0	11.0	3.0	47.0	2.0																													s	1.0	None	0.0		4.0	hexagoncyan.gif	stop								0.468014001846																								3.83	0.513997077942	0.0008790493011469999	0.468014001846	1.0	s	834.2173030380001																																	2015_Jun_23_1302	59.985812681599995	LearningTask	1	61	
172	200.0	w	200.0																	1.0	0.0	1.0	0.0	12.0	0.0	48.0	0.0																													w	1.0	None	0.0		0.5	squarewhite.gif	stop								0.41723895072899997																								0.46	0.514553785324	0.00086784362793	0.41723895072899997	1.0	w	837.220772982																																	2015_Jun_23_1302	59.985812681599995	LearningTask	1	61	
173	-200.0	q	200.0																	1.0	0.0	1.0	0.0	12.0	1.0	49.0	1.0																													q	1.0	None	0.0		0.5	circlemagenta.gif	go								0.334381818771																								0.69	0.514065980911	0.000877141952515	0.334381818771	1.0	q	840.2246179580001																																	2015_Jun_23_1302	59.985812681599995	LearningTask	1	61	
174	200.0	w	200.0																	1.0	0.0	1.0	0.0	12.0	2.0	50.0	0.0																													w	1.0	None	0.0		1.0	triangleblue.gif	go								0.36768007278399994																								0.93	0.513559818268	0.00126600265503	0.36768007278399994	1.0	w	843.227498055																																	2015_Jun_23_1302	59.985812681599995	LearningTask	1	61	
175	200.0	s	-200.0																	1.0	0.0	1.0	0.0	12.0	3.0	51.0	2.0																													s	1.0	None	0.0		1.0	triangleblue.gif	go								0.400739908218																								0.91	0.514493942261	0.0008718967437739999	0.400739908218	1.0	s	846.2307839389999																																	2015_Jun_23_1302	59.985812681599995	LearningTask	1	61	
176	-200.0	a	-200.0																	1.0	0.0	1.0	0.0	13.0	0.0	52.0	3.0																													a	1.0	None	0.0		2.0	invertedtriangleyellow.gif	go								0.450892925262																								0.0	0.514355182648	0.000869035720825	0.450892925262	1.0	a	849.234361887																																	2015_Jun_23_1302	59.985812681599995	LearningTask	1	61	
177	-200.0	q	200.0																	1.0	0.0	1.0	0.0	13.0	1.0	53.0	1.0																													q	1.0	None	0.0		0.5	circlemagenta.gif	go								0.36791801452600004																								0.25	0.514195919037	0.000879764556885	0.36791801452600004	1.0	q	852.237739086																																	2015_Jun_23_1302	59.985812681599995	LearningTask	1	61	
178	-200.0	a	-200.0																	1.0	0.0	1.0	0.0	13.0	2.0	54.0	3.0																													a	1.0	None	0.0		2.0	invertedtriangleyellow.gif	go								0.38417506218																								0.0	0.5141780376430001	0.000928163528442	0.38417506218	1.0	a	855.2410380839999																																	2015_Jun_23_1302	59.985812681599995	LearningTask	1	61	
179	-200.0	q	200.0																	1.0	0.0	1.0	0.0	13.0	3.0	55.0	1.0																													q	1.0	None	0.0		4.0	hexagoncyan.gif	stop								0.35054802894599996																								0.0	0.5143711566929999	0.0008790493011469999	0.35054802894599996	1.0	q	858.2443029880001																																	2015_Jun_23_1302	59.985812681599995	LearningTask	1	61	
180	200.0	w	200.0																	1.0	0.0	1.0	0.0	14.0	0.0	56.0	0.0																													w	1.0	None	0.0		1.0	triangleblue.gif	go								0.384348154068																								0.89	0.51429605484	0.0009400844573969999	0.384348154068	1.0	w	861.24762702																																	2015_Jun_23_1302	59.985812681599995	LearningTask	1	61	
181	-200.0	a	-200.0																	1.0	0.0	1.0	0.0	14.0	1.0	57.0	3.0																													a	1.0	None	0.0		4.0	diamondgray.gif	go								0.451260089874																								3.78	0.514183998108	0.00092601776123	0.451260089874	1.0	a	864.251082897																																	2015_Jun_23_1302	59.985812681599995	LearningTask	1	61	
182	200.0	w	200.0																	1.0	0.0	1.0	0.0	14.0	2.0	58.0	0.0																													w	1.0	None	0.0		0.5	squarewhite.gif	stop								0.36735200882																								0.39	0.514445781708	0.0009069442749019998	0.36735200882	1.0	w	867.2545189860001																																	2015_Jun_23_1302	59.985812681599995	LearningTask	1	61	
183	200.0	w	200.0																	1.0	0.0	1.0	0.0	14.0	3.0	59.0	0.0																													w	1.0	None	0.0		2.0	crossgreen.gif	stop								0.48430109023999995																								1.94	0.514534950256	0.0012688636779800001	0.48430109023999995	1.0	w	870.257884026																																	2015_Jun_23_1302	59.985812681599995	LearningTask	1	61	
184	200.0	s	-200.0																	1.0	0.0	1.0	0.0	15.0	0.0	60.0	2.0																													s	1.0	None	0.0		2.0	crossgreen.gif	stop								0.417275905609																								1.86	0.514321088791	0.0009250640869139999	0.417275905609	1.0	s	873.261271954																																	2015_Jun_23_1302	59.985812681599995	LearningTask	1	61	
185	200.0	w	200.0																	1.0	0.0	1.0	0.0	15.0	1.0	61.0	0.0																													w	1.0	None	0.0		4.0	diamondgray.gif	go								0.38436603546099996																								4.08	0.514349937439	0.0008709430694580001	0.38436603546099996	1.0	w	876.264628887																																	2015_Jun_23_1302	59.985812681599995	LearningTask	1	61	
186	200.0	s	-200.0																	1.0	0.0	1.0	0.0	15.0	2.0	62.0	2.0																													s	1.0	None	0.0		2.0	invertedtriangleyellow.gif	go								0.401079177856																								2.02	0.5142750740049999	0.000869989395142	0.401079177856	1.0	s	879.268795967																																	2015_Jun_23_1302	59.985812681599995	LearningTask	1	61	
187	-200.0	a	-200.0																	1.0	0.0	1.0	0.0	15.0	3.0	63.0	3.0																													a	1.0	None	0.0		4.0	hexagoncyan.gif	stop								0.417712926865																								3.79	0.513365983963	0.0008978843688960001	0.417712926865	1.0	a	882.271327019																																	2015_Jun_23_1302	59.985812681599995	LearningTask	1	61	
188	200.0	w	200.0																	1.0	0.0	1.0	0.0	16.0	0.0	64.0	0.0																													w	1.0	None	0.0		0.5	circlemagenta.gif	go								0.35076022148100006																								0.51	0.514477968216	0.000888109207153	0.35076022148100006	1.0	w	885.2747690680001																																	2015_Jun_23_1302	59.985812681599995	LearningTask	1	61	
189	200.0	w	200.0																	1.0	0.0	1.0	0.0	16.0	1.0	65.0	0.0																													w	1.0	None	0.0		2.0	invertedtriangleyellow.gif	go								0.40051794052100004																								0.0	0.514448881149	0.0008749961853029999	0.40051794052100004	1.0	w	888.2786710260001																																	2015_Jun_23_1302	59.985812681599995	LearningTask	1	61	
190	-200.0	a	-200.0																	1.0	0.0	1.0	0.0	16.0	2.0	66.0	3.0																													a	1.0	None	0.0		0.5	circlemagenta.gif	go								0.36729383468599996																								0.0	0.5138080120090001	0.000953912734985	0.36729383468599996	1.0	a	891.281563044																																	2015_Jun_23_1302	59.985812681599995	LearningTask	1	61	
191	200.0	w	200.0																	1.0	0.0	1.0	0.0	16.0	3.0	67.0	0.0																													w	1.0	None	0.0		2.0	crossgreen.gif	stop								0.367685079575																								2.04	0.514171123505	0.0010621547699	0.367685079575	1.0	w	894.285329103																																	2015_Jun_23_1302	59.985812681599995	LearningTask	1	61	
192	200.0	s	-200.0																	1.0	0.0	1.0	0.0	17.0	0.0	68.0	2.0																													s	1.0	None	0.0		2.0	invertedtriangleyellow.gif	go								0.434366941452																								2.09	0.5139110088350001	0.000877857208252	0.434366941452	1.0	s	897.288383007																																	2015_Jun_23_1302	59.985812681599995	LearningTask	1	61	
193	200.0	s	-200.0																	1.0	0.0	1.0	0.0	17.0	1.0	69.0	2.0																													s	1.0	None	0.0		2.0	invertedtriangleyellow.gif	go								0.41749382019000003																								0.0	0.514246940613	0.000880002975464	0.41749382019000003	1.0	s	900.291836977																																	2015_Jun_23_1302	59.985812681599995	LearningTask	1	61	
194	200.0	s	-200.0																	1.0	0.0	1.0	0.0	17.0	2.0	70.0	2.0																													s	1.0	None	0.0		2.0	crossgreen.gif	stop								0.40121412277199997																								2.18	0.513790130615	0.0009469985961910001	0.40121412277199997	1.0	s	903.2950239180001																																	2015_Jun_23_1302	59.985812681599995	LearningTask	1	61	
195	200.0	s	-200.0																	1.0	0.0	1.0	0.0	17.0	3.0	71.0	2.0																													s	1.0	None	0.0		0.5	squarewhite.gif	stop								0.434144973755																								0.49	0.514716148376	0.0008640289306639999	0.434144973755	1.0	s	906.298450947																																	2015_Jun_23_1302	59.985812681599995	LearningTask	1	61	
196	200.0	w	200.0																	1.0	0.0	1.0	0.0	18.0	0.0	72.0	0.0																													w	1.0	None	0.0		0.5	squarewhite.gif	stop								0.434610128403																								0.0	0.514196872711	0.0008749961853029999	0.434610128403	1.0	w	909.30212307																																	2015_Jun_23_1302	59.985812681599995	LearningTask	1	61	
197	-200.0	a	-200.0																	1.0	0.0	1.0	0.0	18.0	1.0	73.0	3.0																													a	1.0	None	0.0		2.0	invertedtriangleyellow.gif	go								0.417147874832																								1.93	0.514098882675	0.000892877578735	0.417147874832	1.0	a	912.305114985																																	2015_Jun_23_1302	59.985812681599995	LearningTask	1	61	
198	200.0	w	200.0																	1.0	0.0	1.0	0.0	18.0	2.0	74.0	0.0																													w	1.0	None	0.0		1.0	lineorange.gif	stop								0.367891788483																								1.08	0.514405012131	0.0012431144714400001	0.367891788483	1.0	w	915.308897972																																	2015_Jun_23_1302	59.985812681599995	LearningTask	1	61	
199	200.0	s	-200.0																	1.0	0.0	1.0	0.0	18.0	3.0	75.0	2.0																													s	1.0	None	0.0		0.5	circlemagenta.gif	go								0.383618116379																								0.0	0.51397395134	0.0008749961853029999	0.383618116379	1.0	s	918.311990023																																	2015_Jun_23_1302	59.985812681599995	LearningTask	1	61	
200	-200.0	a	-200.0																	1.0	0.0	1.0	0.0	19.0	0.0	76.0	3.0																													a	1.0	None	0.0		4.0	diamondgray.gif	go								0.417371034622																								4.01	0.514034032822	0.0009031295776369999	0.417371034622	1.0	a	921.3153491019999																																	2015_Jun_23_1302	59.985812681599995	LearningTask	1	61	
201	-200.0	a	-200.0																	1.0	0.0	1.0	0.0	19.0	1.0	77.0	3.0																													a	1.0	None	0.0		0.5	squarewhite.gif	stop								0.417952060699																								0.3	0.5142590999600001	0.0008740425109860002	0.417952060699	1.0	a	924.3188860419999																																	2015_Jun_23_1302	59.985812681599995	LearningTask	1	61	
202	200.0	s	-200.0																	1.0	0.0	1.0	0.0	19.0	2.0	78.0	2.0																													s	1.0	None	0.0		4.0	diamondgray.gif	go								0.467633962631																								3.75	0.514381885529	0.0008759498596189999	0.467633962631	1.0	s	927.322312117																																	2015_Jun_23_1302	59.985812681599995	LearningTask	1	61	
203	-200.0	q	200.0																	1.0	0.0	1.0	0.0	19.0	3.0	79.0	1.0																													q	1.0	None	0.0		4.0	hexagoncyan.gif	stop								0.46748590469400003																								0.0	0.5140810012820001	0.00088095664978	0.46748590469400003	1.0	q	930.325835943																																	2015_Jun_23_1302	59.985812681599995	LearningTask	1	61	
204	200.0	s	-200.0																	1.0	0.0	1.0	0.0	20.0	0.0	80.0	2.0																													s	1.0	None	0.0		4.0	hexagoncyan.gif	stop								0.43433094024700003																								3.88	0.5137050151820001	0.00106692314148	0.43433094024700003	1.0	s	933.3288519380001																																	2015_Jun_23_1302	59.985812681599995	LearningTask	1	61	
205	-200.0	a	-200.0																	1.0	0.0	1.0	0.0	20.0	1.0	81.0	3.0																													a	1.0	None	0.0		0.5	circlemagenta.gif	go								0.451131105423																								0.66	0.5143208503719999	0.0008897781372069999	0.451131105423	1.0	a	936.331990004																																	2015_Jun_23_1302	59.985812681599995	LearningTask	1	61	
206	200.0	w	200.0																	1.0	0.0	1.0	0.0	20.0	2.0	82.0	0.0																													w	1.0	None	0.0		1.0	lineorange.gif	stop								0.35102581977799996																								0.0	0.514423847198	0.0008859634399410001	0.35102581977799996	1.0	w	939.335647106																																	2015_Jun_23_1302	59.985812681599995	LearningTask	1	61	
207	-200.0	a	-200.0																	1.0	0.0	1.0	0.0	20.0	3.0	83.0	3.0																													a	1.0	None	0.0		1.0	lineorange.gif	stop								0.350476026535																								0.75	0.514605998993	0.000938892364502	0.350476026535	1.0	a	942.339040995																																	2015_Jun_23_1302	59.985812681599995	LearningTask	1	61	
208	200.0	s	-200.0																	1.0	0.0	1.0	0.0	21.0	0.0	84.0	2.0																													s	1.0	None	0.0		4.0	diamondgray.gif	go								0.45135307312																								4.05	0.514256000519	0.0008740425109860002	0.45135307312	1.0	s	945.342257023																																	2015_Jun_23_1302	59.985812681599995	LearningTask	1	61	
209	-200.0	q	200.0																	1.0	0.0	1.0	0.0	21.0	1.0	85.0	1.0																													q	1.0	None	0.0		1.0	triangleblue.gif	go								0.400958061218																								0.79	0.514414787292	0.0008718967437739999	0.400958061218	1.0	q	948.3456220630001																																	2015_Jun_23_1302	59.985812681599995	LearningTask	1	61	
210	-200.0	a	-200.0																	1.0	0.0	1.0	0.0	21.0	2.0	86.0	3.0																													a	1.0	None	0.0		1.0	triangleblue.gif	go								0.38465595245399997																								1.02	0.514126062393	0.0009181499481200001	0.38465595245399997	1.0	a	951.349129915																																	2015_Jun_23_1302	59.985812681599995	LearningTask	1	61	
211	200.0	w	200.0																	1.0	0.0	1.0	0.0	21.0	3.0	87.0	0.0																													w	1.0	None	0.0		4.0	hexagoncyan.gif	stop								0.35084700584399997																								3.86	0.514173984528	0.0008740425109860002	0.35084700584399997	1.0	w	954.352498055																																	2015_Jun_23_1302	59.985812681599995	LearningTask	1	61	
212	200.0	w	200.0																	1.0	0.0	1.0	0.0	22.0	0.0	88.0	0.0																													w	1.0	None	0.0		0.5	squarewhite.gif	stop								0.367378950119																								0.49	0.514548063278	0.0008640289306639999	0.367378950119	1.0	w	957.356060028																																	2015_Jun_23_1302	59.985812681599995	LearningTask	1	61	
213	200.0	s	-200.0																	1.0	0.0	1.0	0.0	22.0	1.0	89.0	2.0																													s	1.0	None	0.0		2.0	invertedtriangleyellow.gif	go								0.400665998459																								0.0	0.514032125473	0.00092601776123	0.400665998459	1.0	s	960.359204054																																	2015_Jun_23_1302	59.985812681599995	LearningTask	1	61	
214	-200.0	q	200.0																	1.0	0.0	1.0	0.0	22.0	2.0	90.0	1.0																													q	1.0	None	0.0		1.0	triangleblue.gif	go								0.434065818787																								1.25	0.5144300460819999	0.000869989395142	0.434065818787	1.0	q	963.362632036																																	2015_Jun_23_1302	59.985812681599995	LearningTask	1	61	
215	200.0	w	200.0																	1.0	0.0	1.0	0.0	22.0	3.0	91.0	0.0																													w	1.0	None	0.0		2.0	crossgreen.gif	stop								0.36783504486100005																								1.91	0.514282941818	0.0008940696716310001	0.36783504486100005	1.0	w	966.3663890360001																																	2015_Jun_23_1302	59.985812681599995	LearningTask	1	61	
216	-200.0	a	-200.0																	1.0	0.0	1.0	0.0	23.0	0.0	92.0	3.0																													a	1.0	None	0.0		2.0	crossgreen.gif	stop								0.417423009872																								2.24	0.513951063156	0.000888109207153	0.417423009872	1.0	a	969.36938405																																	2015_Jun_23_1302	59.985812681599995	LearningTask	1	61	
217	200.0	s	-200.0																	1.0	0.0	1.0	0.0	23.0	1.0	93.0	2.0																													s	1.0	None	0.0		4.0	diamondgray.gif	go								0.417667865753																								3.94	0.514377117157	0.000880002975464	0.417667865753	1.0	s	972.3727810380001																																	2015_Jun_23_1302	59.985812681599995	LearningTask	1	61	
218	200.0	w	200.0																	1.0	0.0	1.0	0.0	23.0	2.0	94.0	0.0																													w	1.0	None	0.0		4.0	hexagoncyan.gif	stop								0.350832939148																								4.19	0.5143561363220001	0.00088095664978	0.350832939148	1.0	w	975.376260042																																	2015_Jun_23_1302	59.985812681599995	LearningTask	1	61	
219	200.0	s	-200.0																	1.0	0.0	1.0	0.0	23.0	3.0	95.0	2.0																													s	1.0	None	0.0		1.0	triangleblue.gif	go								0.384176015854																								0.87	0.514256000519	0.0008759498596189999	0.384176015854	1.0	s	978.3793509010001																																	2015_Jun_23_1302	59.985812681599995	LearningTask	1	61	
220	-200.0	q	200.0																	1.0	0.0	1.0	0.0	24.0	0.0	96.0	1.0																													q	1.0	None	0.0		4.0	hexagoncyan.gif	stop								0.43408799171400003																								4.0	0.5145988464360001	0.000949859619141	0.43408799171400003	1.0	q	981.382699013																																	2015_Jun_23_1302	59.985812681599995	LearningTask	1	61	
221	-200.0	q	200.0																	1.0	0.0	1.0	0.0	24.0	1.0	97.0	1.0																													q	1.0	None	0.0		4.0	diamondgray.gif	go								0.38352608680699996																								0.0	0.515125989914	0.0009069442749019998	0.38352608680699996	1.0	q	984.38647294																																	2015_Jun_23_1302	59.985812681599995	LearningTask	1	61	
222	200.0	w	200.0																	1.0	0.0	1.0	0.0	24.0	2.0	98.0	0.0																													w	1.0	None	0.0		0.5	circlemagenta.gif	go								0.350417137146																								0.0	0.514349937439	0.00089693069458	0.350417137146	1.0	w	987.389720917																																	2015_Jun_23_1302	59.985812681599995	LearningTask	1	61	
223	-200.0	q	200.0																	1.0	0.0	1.0	0.0	24.0	3.0	99.0	1.0																													q	1.0	None	0.0		2.0	crossgreen.gif	stop								0.368094921112																								2.0	0.5142121315	0.0010070800781199999	0.368094921112	1.0	q	990.392934084																																	2015_Jun_23_1302	59.985812681599995	LearningTask	1	61	
224																				1.0	0.0	1.0	0.0																																																																																						9.0	11.7414460182																								2015_Jun_23_1302	59.985812681599995	LearningTask	1	61	
225	200.0	s	-200.0																	2.0	0.0	2.0	0.0	0.0	0.0	0.0	2.0																													s	1.0	None	0.0		0.5	squarewhite.gif	stop								0.551321983337																								0.0	0.507626056671	0.000977039337158	0.551321983337	1.0	s	1005.82792902																																	2015_Jun_23_1302	59.985812681599995	LearningTask	1	61	
226	-200.0	a	-200.0																	2.0	0.0	2.0	0.0	0.0	1.0	1.0	3.0																													a	1.0	None	0.0		1.0	triangleblue.gif	go								0.41735792159999996																								0.0	0.5135090351100001	0.0009129047393799999	0.41735792159999996	1.0	a	1008.83065796																																	2015_Jun_23_1302	59.985812681599995	LearningTask	1	61	
227	200.0	s	-200.0																	2.0	0.0	2.0	0.0	0.0	2.0	2.0	2.0																													s	1.0	None	0.0		1.0	lineorange.gif	stop								0.450858831406																								0.0	0.514217853546	0.0008728504180910001	0.450858831406	1.0	s	1011.83393502																																	2015_Jun_23_1302	59.985812681599995	LearningTask	1	61	
228	200.0	w	200.0																	2.0	0.0	2.0	0.0	0.0	3.0	3.0	0.0																													w	1.0	None	0.0		4.0	hexagoncyan.gif	stop								0.36741709709200004																								3.89	0.514158010483	0.00120401382446	0.36741709709200004	1.0	w	1014.83733106																																	2015_Jun_23_1302	59.985812681599995	LearningTask	1	61	
229	-200.0	q	200.0																	2.0	0.0	2.0	0.0	1.0	0.0	4.0	1.0																													q	1.0	None	0.0		0.5	squarewhite.gif	stop								0.33426809310899996																								0.46	0.513804912567	0.000903844833374	0.33426809310899996	1.0	q	1017.84051704																																	2015_Jun_23_1302	59.985812681599995	LearningTask	1	61	
230	200.0	s	-200.0																	2.0	0.0	2.0	0.0	1.0	1.0	5.0	2.0																													s	1.0	None	0.0		1.0	lineorange.gif	stop								0.401193857193																								0.94	0.5144538879389999	0.0008668899536130001	0.401193857193	1.0	s	1020.84390092																																	2015_Jun_23_1302	59.985812681599995	LearningTask	1	61	
231	200.0	s	-200.0																	2.0	0.0	2.0	0.0	1.0	2.0	6.0	2.0																													s	1.0	None	0.0		1.0	lineorange.gif	stop								0.400654792786																								1.07	0.514582872391	0.000882863998413	0.400654792786	1.0	s	1023.84745002																																	2015_Jun_23_1302	59.985812681599995	LearningTask	1	61	
232	200.0	w	200.0																	2.0	0.0	2.0	0.0	1.0	3.0	7.0	0.0																													w	1.0	None	0.0		4.0	diamondgray.gif	go								0.417557001114																								4.13	0.513844966888	0.0009119510650630002	0.417557001114	1.0	w	1026.85069489																																	2015_Jun_23_1302	59.985812681599995	LearningTask	1	61	
233	200.0	s	-200.0																	2.0	0.0	2.0	0.0	2.0	0.0	8.0	2.0																													s	1.0	None	0.0		4.0	hexagoncyan.gif	stop								0.400952100754																								4.15	0.514432907104	0.000892877578735	0.400952100754	1.0	s	1029.85395408																																	2015_Jun_23_1302	59.985812681599995	LearningTask	1	61	
234	-200.0	q	200.0																	2.0	0.0	2.0	0.0	2.0	1.0	9.0	1.0																													q	1.0	None	0.0		0.5	squarewhite.gif	stop								0.31755900383																								0.29	0.514434099197	0.00086498260498	0.31755900383	1.0	q	1032.858042																																	2015_Jun_23_1302	59.985812681599995	LearningTask	1	61	
235	-200.0	a	-200.0																	2.0	0.0	2.0	0.0	2.0	2.0	10.0	3.0																													a	1.0	None	0.0		0.5	circlemagenta.gif	go								0.333924055099																								0.67	0.513852119446	0.0008740425109860002	0.333924055099	1.0	a	1035.86055589																																	2015_Jun_23_1302	59.985812681599995	LearningTask	1	61	
236	-200.0	a	-200.0																	2.0	0.0	2.0	0.0	2.0	3.0	11.0	3.0																													a	1.0	None	0.0		2.0	invertedtriangleyellow.gif	go								0.401046037674																								0.0	0.514402151108	0.0008981227874760001	0.401046037674	1.0	a	1038.86430907																																	2015_Jun_23_1302	59.985812681599995	LearningTask	1	61	
237	200.0	s	-200.0																	2.0	0.0	2.0	0.0	3.0	0.0	12.0	2.0																													s	1.0	None	0.0		4.0	hexagoncyan.gif	stop								0.40067291259800003																								0.0	0.514313936234	0.0008740425109860002	0.40067291259800003	1.0	s	1041.86783504																																	2015_Jun_23_1302	59.985812681599995	LearningTask	1	61	
238	-200.0	q	200.0																	2.0	0.0	2.0	0.0	3.0	1.0	13.0	1.0																													q	1.0	None	0.0		0.5	squarewhite.gif	stop								0.351186037064																								0.71	0.5135278701780001	0.00113296508789	0.351186037064	1.0	q	1044.87091899																																	2015_Jun_23_1302	59.985812681599995	LearningTask	1	61	
239	200.0	w	200.0																	2.0	0.0	2.0	0.0	3.0	2.0	14.0	0.0																													w	1.0	None	0.0		2.0	invertedtriangleyellow.gif	go								0.334125995636																								2.16	0.51426410675	0.0010001659393300002	0.334125995636	1.0	w	1047.87486601																																	2015_Jun_23_1302	59.985812681599995	LearningTask	1	61	
240	200.0	s	-200.0																	2.0	0.0	2.0	0.0	3.0	3.0	15.0	2.0																													s	1.0	None	0.0		2.0	crossgreen.gif	stop								0.41753101348899996																								0.0	0.513637065887	0.000890016555786	0.41753101348899996	1.0	s	1050.87779999																																	2015_Jun_23_1302	59.985812681599995	LearningTask	1	61	
241	-200.0	q	200.0																	2.0	0.0	2.0	0.0	4.0	0.0	16.0	1.0																													q	1.0	None	0.0		2.0	invertedtriangleyellow.gif	go								0.35095500946																								0.0	0.5143899917600001	0.0008721351623539999	0.35095500946	1.0	q	1053.88117409																																	2015_Jun_23_1302	59.985812681599995	LearningTask	1	61	
242	200.0	s	-200.0																	2.0	0.0	2.0	0.0	4.0	1.0	17.0	2.0																													s	1.0	None	0.0		2.0	invertedtriangleyellow.gif	go								0.400759935379																								1.79	0.513981103897	0.000997066497803	0.400759935379	1.0	s	1056.88440609																																	2015_Jun_23_1302	59.985812681599995	LearningTask	1	61	
243	200.0	s	-200.0																	2.0	0.0	2.0	0.0	4.0	2.0	18.0	2.0																													s	1.0	None	0.0		0.5	circlemagenta.gif	go								0.40066409111																								0.38	0.514695167542	0.00087308883667	0.40066409111	1.0	s	1059.88780403																																	2015_Jun_23_1302	59.985812681599995	LearningTask	1	61	
244	-200.0	a	-200.0																	2.0	0.0	2.0	0.0	4.0	3.0	19.0	3.0																													a	1.0	None	0.0		1.0	triangleblue.gif	go								0.468164920807																								0.85	0.5143251419070001	0.000871181488037	0.468164920807	1.0	a	1062.8913281																																	2015_Jun_23_1302	59.985812681599995	LearningTask	1	61	
245	200.0	s	-200.0																	2.0	0.0	2.0	0.0	5.0	0.0	20.0	2.0																													s	1.0	None	0.0		4.0	hexagoncyan.gif	stop								0.40137696266199996																								4.24	0.5135569572450001	0.00092601776123	0.40137696266199996	1.0	s	1065.89460206																																	2015_Jun_23_1302	59.985812681599995	LearningTask	1	61	
246	200.0	w	200.0																	2.0	0.0	2.0	0.0	5.0	1.0	21.0	0.0																													w	1.0	None	0.0		4.0	hexagoncyan.gif	stop								0.384819030762																								4.23	0.514137029648	0.0008759498596189999	0.384819030762	1.0	w	1068.89803505																																	2015_Jun_23_1302	59.985812681599995	LearningTask	1	61	
247	-200.0	q	200.0																	2.0	0.0	2.0	0.0	5.0	2.0	22.0	1.0																													q	1.0	None	0.0		4.0	diamondgray.gif	go								0.401057958603																								3.87	0.514290809631	0.000869989395142	0.401057958603	1.0	q	1071.90243912																																	2015_Jun_23_1302	59.985812681599995	LearningTask	1	61	
248	-200.0	q	200.0																	2.0	0.0	2.0	0.0	5.0	3.0	23.0	1.0																													q	1.0	None	0.0		0.5	circlemagenta.gif	go								0.41811990737899996																								0.66	0.513000011444	0.0008909702301030001	0.41811990737899996	1.0	q	1074.90471292																																	2015_Jun_23_1302	59.985812681599995	LearningTask	1	61	
249	-200.0	a	-200.0																	2.0	0.0	2.0	0.0	6.0	0.0	24.0	3.0																													a	1.0	None	0.0		0.5	squarewhite.gif	stop								0.46742391586300003																								0.3	0.514311790466	0.00103497505188	0.46742391586300003	1.0	a	1077.90867805																																	2015_Jun_23_1302	59.985812681599995	LearningTask	1	61	
250	-200.0	q	200.0																	2.0	0.0	2.0	0.0	6.0	1.0	25.0	1.0																													q	1.0	None	0.0		4.0	diamondgray.gif	go								0.450646162033																								4.02	0.514174938202	0.0008728504180910001	0.450646162033	1.0	q	1080.91215801																																	2015_Jun_23_1302	59.985812681599995	LearningTask	1	61	
251	200.0	w	200.0																	2.0	0.0	2.0	0.0	6.0	2.0	26.0	0.0																													w	1.0	None	0.0		2.0	crossgreen.gif	stop								0.400981903076																								1.77	0.513286828995	0.000890016555786	0.400981903076	1.0	w	1083.91527891																																	2015_Jun_23_1302	59.985812681599995	LearningTask	1	61	
252	-200.0	a	-200.0																	2.0	0.0	2.0	0.0	6.0	3.0	27.0	3.0																													a	1.0	None	0.0		2.0	crossgreen.gif	stop								0.634462118149																								0.0	0.51395201683	0.00103616714478	0.634462118149	1.0	a	1086.91823006																																	2015_Jun_23_1302	59.985812681599995	LearningTask	1	61	
253	-200.0	a	-200.0																	2.0	0.0	2.0	0.0	7.0	0.0	28.0	3.0																													a	1.0	None	0.0		2.0	invertedtriangleyellow.gif	go								0.40132904052699997																								1.77	0.514330148697	0.000877141952515	0.40132904052699997	1.0	a	1089.92182112																																	2015_Jun_23_1302	59.985812681599995	LearningTask	1	61	
254	-200.0	q	200.0																	2.0	0.0	2.0	0.0	7.0	1.0	29.0	1.0																													q	1.0	None	0.0		1.0	triangleblue.gif	go								0.367474079132																								0.92	0.514231920242	0.000873804092407	0.367474079132	1.0	q	1092.92536592																																	2015_Jun_23_1302	59.985812681599995	LearningTask	1	61	
255	-200.0	a	-200.0																	2.0	0.0	2.0	0.0	7.0	2.0	30.0	3.0																													a	1.0	None	0.0		2.0	invertedtriangleyellow.gif	go								0.3678150177																								1.81	0.513552904129	0.000941038131714	0.3678150177	1.0	a	1095.92853904																																	2015_Jun_23_1302	59.985812681599995	LearningTask	1	61	
256	200.0	s	-200.0																	2.0	0.0	2.0	0.0	7.0	3.0	31.0	2.0																													s	1.0	None	0.0		0.5	squarewhite.gif	stop								0.417532920837																								0.63	0.514018058777	0.0008709430694580001	0.417532920837	1.0	s	1098.93177509																																	2015_Jun_23_1302	59.985812681599995	LearningTask	1	61	
257	200.0	s	-200.0																	2.0	0.0	2.0	0.0	8.0	0.0	32.0	2.0																													s	1.0	None	0.0		4.0	hexagoncyan.gif	stop								0.400943994522																								4.15	0.5142588615420001	0.000903844833374	0.400943994522	1.0	s	1101.93519807																																	2015_Jun_23_1302	59.985812681599995	LearningTask	1	61	
258	200.0	w	200.0																	2.0	0.0	2.0	0.0	8.0	1.0	33.0	0.0																													w	1.0	None	0.0		1.0	triangleblue.gif	go								0.38473582267800005																								1.19	0.51394701004	0.00119280815125	0.38473582267800005	1.0	w	1104.93853402																																	2015_Jun_23_1302	59.985812681599995	LearningTask	1	61	
259	-200.0	q	200.0																	2.0	0.0	2.0	0.0	8.0	2.0	34.0	1.0																													q	1.0	None	0.0		0.5	squarewhite.gif	stop								0.351569890976																								0.0	0.5140450000760001	0.0009679794311519998	0.351569890976	1.0	q	1107.94211602																																	2015_Jun_23_1302	59.985812681599995	LearningTask	1	61	
260	-200.0	a	-200.0																	2.0	0.0	2.0	0.0	8.0	3.0	35.0	3.0																													a	1.0	None	0.0		1.0	triangleblue.gif	go								0.383841991425																								1.08	0.51397395134	0.0008919239044189998	0.383841991425	1.0	a	1110.94552207																																	2015_Jun_23_1302	59.985812681599995	LearningTask	1	61	
261	200.0	w	200.0																	2.0	0.0	2.0	0.0	9.0	0.0	36.0	0.0																													w	1.0	None	0.0		4.0	hexagoncyan.gif	stop								0.383612155914																								3.77	0.51405787468	0.0008990764617919999	0.383612155914	1.0	w	1113.94865894																																	2015_Jun_23_1302	59.985812681599995	LearningTask	1	61	
262	-200.0	a	-200.0																	2.0	0.0	2.0	0.0	9.0	1.0	37.0	3.0																													a	1.0	None	0.0		0.5	circlemagenta.gif	go								0.38432097435																								0.67	0.5142741203310001	0.000869989395142	0.38432097435	1.0	a	1116.95192695																																	2015_Jun_23_1302	59.985812681599995	LearningTask	1	61	
263	-200.0	q	200.0																	2.0	0.0	2.0	0.0	9.0	2.0	38.0	1.0																													q	1.0	None	0.0		2.0	crossgreen.gif	stop								0.417675971985																								1.76	0.514297962189	0.0008749961853029999	0.417675971985	1.0	q	1119.95591998																																	2015_Jun_23_1302	59.985812681599995	LearningTask	1	61	
264	-200.0	q	200.0																	2.0	0.0	2.0	0.0	9.0	3.0	39.0	1.0																													q	1.0	None	0.0		0.5	circlemagenta.gif	go								0.400803089142																								0.0	0.513653039932	0.00088095664978	0.400803089142	1.0	q	1122.95884895																																	2015_Jun_23_1302	59.985812681599995	LearningTask	1	61	
265	-200.0	q	200.0																	2.0	0.0	2.0	0.0	10.0	0.0	40.0	1.0																													q	1.0	None	0.0		1.0	lineorange.gif	stop								0.400548934937																								0.0	0.514515161514	0.000993013381958	0.400548934937	1.0	q	1125.96241903																																	2015_Jun_23_1302	59.985812681599995	LearningTask	1	61	
266	-200.0	a	-200.0																	2.0	0.0	2.0	0.0	10.0	1.0	41.0	3.0																													a	1.0	None	0.0		0.5	squarewhite.gif	stop								0.38441705703699997																								0.54	0.514028072357	0.000880002975464	0.38441705703699997	1.0	a	1128.9659070999999																																	2015_Jun_23_1302	59.985812681599995	LearningTask	1	61	
267	-200.0	q	200.0																	2.0	0.0	2.0	0.0	10.0	2.0	42.0	1.0																													q	1.0	None	0.0		1.0	lineorange.gif	stop								0.35090994834899997																								1.1	0.513952970505	0.0008869171142580001	0.35090994834899997	1.0	q	1131.96888089																																	2015_Jun_23_1302	59.985812681599995	LearningTask	1	61	
268	-200.0	q	200.0																	2.0	0.0	2.0	0.0	10.0	3.0	43.0	1.0																													q	1.0	None	0.0		1.0	triangleblue.gif	go								0.40122294426																								1.21	0.51420712471	0.00124502182007	0.40122294426	1.0	q	1134.97227311																																	2015_Jun_23_1302	59.985812681599995	LearningTask	1	61	
269	200.0	w	200.0																	2.0	0.0	2.0	0.0	11.0	0.0	44.0	0.0																													w	1.0	None	0.0		2.0	crossgreen.gif	stop								0.384004831314																								2.23	0.5145039558410001	0.000867128372192	0.384004831314	1.0	w	1137.97580004																																	2015_Jun_23_1302	59.985812681599995	LearningTask	1	61	
270	200.0	s	-200.0																	2.0	0.0	2.0	0.0	11.0	1.0	45.0	2.0																													s	1.0	None	0.0		0.5	squarewhite.gif	stop								0.400816917419																								0.25	0.514420986176	0.00086784362793	0.400816917419	1.0	s	1140.97912502																																	2015_Jun_23_1302	59.985812681599995	LearningTask	1	61	
271	-200.0	a	-200.0																	2.0	0.0	2.0	0.0	11.0	2.0	46.0	3.0																													a	1.0	None	0.0		0.5	circlemagenta.gif	go								0.43399810791																								0.41	0.514003992081	0.0010199546814	0.43399810791	1.0	a	1143.98271108																																	2015_Jun_23_1302	59.985812681599995	LearningTask	1	61	
272	-200.0	a	-200.0																	2.0	0.0	2.0	0.0	11.0	3.0	47.0	3.0																													a	1.0	None	0.0		1.0	triangleblue.gif	go								0.418145895004																								1.17	0.513805866241	0.00095796585083	0.418145895004	1.0	a	1146.98609805																																	2015_Jun_23_1302	59.985812681599995	LearningTask	1	61	
273	200.0	w	200.0																	2.0	0.0	2.0	0.0	12.0	0.0	48.0	0.0																													w	1.0	None	0.0		0.5	circlemagenta.gif	go								0.400949954987																								0.0	0.513857126236	0.000881195068359	0.400949954987	1.0	w	1149.98909807																																	2015_Jun_23_1302	59.985812681599995	LearningTask	1	61	
274	200.0	w	200.0																	2.0	0.0	2.0	0.0	12.0	1.0	49.0	0.0																													w	1.0	None	0.0		1.0	lineorange.gif	stop								0.434841156006																								0.9	0.5138609409329999	0.0009059906005860001	0.434841156006	1.0	w	1152.99259806																																	2015_Jun_23_1302	59.985812681599995	LearningTask	1	61	
275	200.0	w	200.0																	2.0	0.0	2.0	0.0	12.0	2.0	50.0	0.0																													w	1.0	None	0.0		0.5	circlemagenta.gif	go								0.367603063583																								0.49	0.514299869537	0.000877857208252	0.367603063583	1.0	w	1155.99605298																																	2015_Jun_23_1302	59.985812681599995	LearningTask	1	61	
276	-200.0	q	200.0																	2.0	0.0	2.0	0.0	12.0	3.0	51.0	1.0																													q	1.0	None	0.0		1.0	lineorange.gif	stop								0.417518138885																								0.99	0.514391899109	0.000873804092407	0.417518138885	1.0	q	1158.99982691																																	2015_Jun_23_1302	59.985812681599995	LearningTask	1	61	
277	-200.0	q	200.0																	2.0	0.0	2.0	0.0	13.0	0.0	52.0	1.0																													q	1.0	None	0.0		0.5	circlemagenta.gif	go								0.400718927383																								0.63	0.5135500431059999	0.000902891159058	0.400718927383	1.0	q	1162.00266504																																	2015_Jun_23_1302	59.985812681599995	LearningTask	1	61	
278	200.0	w	200.0																	2.0	0.0	2.0	0.0	13.0	1.0	53.0	0.0																													w	1.0	None	0.0		4.0	diamondgray.gif	go								0.36801099777199997																								0.0	0.5142590999600001	0.00095796585083	0.36801099777199997	1.0	w	1165.00588989																																	2015_Jun_23_1302	59.985812681599995	LearningTask	1	61	
279	-200.0	a	-200.0																	2.0	0.0	2.0	0.0	13.0	2.0	54.0	3.0																													a	1.0	None	0.0		0.5	circlemagenta.gif	go								0.384419202805																								0.4	0.514786958694	0.0008740425109860002	0.384419202805	1.0	a	1168.00991297																																	2015_Jun_23_1302	59.985812681599995	LearningTask	1	61	
280	-200.0	a	-200.0																	2.0	0.0	2.0	0.0	13.0	3.0	55.0	3.0																													a	1.0	None	0.0		4.0	diamondgray.gif	go								0.40086913108800004																								3.96	0.513773918152	0.00087308883667	0.40086913108800004	1.0	a	1171.01281691																																	2015_Jun_23_1302	59.985812681599995	LearningTask	1	61	
