	xPos	corrAns	yPos	corrGoResp	yPosGoStim	xPosGoStim	pracTrials.thisRepN	pracTrials.thisTrialN	pracTrials.thisN	pracTrials.thisIndex	ReDoLoopPrac.thisRepN	ReDoLoopPrac.thisTrialN	ReDoLoopPrac.thisN	ReDoLoopPrac.thisIndex	ReDoLoopPrac.thisTrial	pracStopTrials.thisRepN	pracStopTrials.thisTrialN	pracStopTrials.thisN	pracStopTrials.thisIndex	Blocks.thisRepN	Blocks.thisTrialN	Blocks.thisN	Blocks.thisIndex	trials.thisRepN	trials.thisTrialN	trials.thisN	trials.thisIndex	ReDoLoopMain.thisRepN	ReDoLoopMain.thisTrialN	ReDoLoopMain.thisN	ReDoLoopMain.thisIndex	ReDoLoopMain.thisTrial	StopBlocks.thisRepN	StopBlocks.thisTrialN	StopBlocks.thisN	StopBlocks.thisIndex	StopTrials.thisRepN	StopTrials.thisTrialN	StopTrials.thisN	StopTrials.thisIndex	auctionBlocks.thisRepN	auctionBlocks.thisTrialN	auctionBlocks.thisN	auctionBlocks.thisIndex	auctionTrials.thisRepN	auctionTrials.thisTrialN	auctionTrials.thisN	auctionTrials.thisIndex	learningTrialList	learningPracTrialList	stopTrialList	stopPracTrialList	auctionTrialList	ok1.keys	ok1.rt	resp.keys	resp.corr	resp.rt	feedbackResp.keys	feedbackResp.corr	currentReward	currentStimulus	currentStimType	firstPracComputedRewardOutput	firstPracLearningStimOnset	firstPracLearningFixOnset	firstPracPresentationRT	firstPracPresentationAcc	firstPracPresentationResp	firstPracEndTrialTimeStamp	feedbackResp.rt	secondPracComputedRewardOutput	secondPracLearningStimOnset	secondPracLearningFixOnset	secondPracPresentationRT	secondPracPresentationAcc	secondPracPresentationResp	secondPracEndTrialTimeStamp	StartTrialTimeStamp	trialType	goStim	stimType	stopStimValue	goResp.keys	goResp.corr	goResp.rt	key_resp_9.keys	key_resp_9.corr	fixStopOnset	goStimOnset	stopSignalOnset	EndTrialTimeStamp	key_resp_3.keys	key_resp_3.rt	firstComputedRewardOutput	firstLearningStimOnset	firstLearningFixOnset	firstPresentationRT	firstPresentationAcc	firstPresentationResp	firstEndTrialTimeStamp	key_resp_7.keys	key_resp_7.rt	secondComputedRewardOutput	secondLearningStimOnset	secondLearningFixOnset	secondPresentationRT	secondPresentationAcc	secondPresentationResp	secondEndTrialTimeStamp	beginningSSD	EndingSSD	key_resp_9.rt	key_resp_4.keys	key_resp_4.rt	auctionResponse.keys	auctionStimDuration	auctionStim	auctionAmounts	auctionStimValue	auctionCondition	chosenAuctionAmount	auctionResponse.rt	key_resp_5.keys	key_resp_5.rt	shuffledRewardList	chosenReward1	chosenReward2	chosenReward3	chosenReward4	chosenReward5	key_resp_6.keys	key_resp_6.rt	date	frameRate	expName	session	participant	Unnamed: 138
0																																																	[]	[]	[]	[]	[]	9.0	44.419989109																																																																															2015_Jul_02_1229	59.97895025850001	LearningTask	1	74	
1	-200.0	a	-200.0				0.0	0.0	0.0	7.0																																														a	1.0	0.9352531433110001	None	0.0	0.5	squaregray.gif	go	0.4	0.512989997864	0.015881061554	0.935253143311	1.0	a	103.58287501299999																																																																2015_Jul_02_1229	59.97895025850001	LearningTask	1	74	
2	200.0	s	-200.0				0.0	1.0	1.0	2.0																																														s	1.0	0.7673661708830001	None	0.0	0.5	hexagonblue.gif	stop	0.0	0.514596939087	0.00170803070068	0.767366170883	1.0	s	106.58546114																																																																2015_Jul_02_1229	59.97895025850001	LearningTask	1	74	
3	-200.0	q	200.0				0.0	2.0	2.0	9.0																																														q	1.0	0.467647075653	None	0.0	1.0	diamondgreen.gif	go	0.0	0.514998912811	0.0161828994751	[]	0.0	None	109.58900809299999	0.8772149086	0.0	0.51607298851	0.000961065292358	0.467647075653	1.0	q	112.592567921																																																								2015_Jul_02_1229	59.97895025850001	LearningTask	1	74	
4	-200.0	q	200.0				0.0	3.0	3.0	1.0																																														q	1.0	0.45117402076700003	None	0.0	4.0	crosswhite.gif	stop	4.06	0.514792203903	0.04283618927	0.451174020767	1.0	q	115.59548592600001																																																																2015_Jul_02_1229	59.97895025850001	LearningTask	1	74	
5	200.0	w	200.0				0.0	4.0	4.0	0.0																																														w	1.0	0.518136024475	None	0.0	0.5	squaregray.gif	go	0.38	0.514992952347	0.0009360313415529999	0.518136024475	1.0	w	118.598935127																																																																2015_Jul_02_1229	59.97895025850001	LearningTask	1	74	
6	200.0	w	200.0				0.0	5.0	5.0	4.0																																														w	1.0	0.484194993973	None	0.0	0.5	squaregray.gif	go	0.48	0.5154068470000001	0.0009160041809079999	0.484194993973	1.0	w	121.602245092																																																																2015_Jul_02_1229	59.97895025850001	LearningTask	1	74	
7	-200.0	a	-200.0				0.0	6.0	6.0	3.0																																														a	1.0	0.701154947281	None	0.0	4.0	crosswhite.gif	stop	3.81	0.51525592804	0.000945806503296	0.701154947281	1.0	a	124.60570812200001																																																																2015_Jul_02_1229	59.97895025850001	LearningTask	1	74	
8	200.0	s	-200.0				0.0	7.0	7.0	6.0																																														s	1.0	0.8846931457520001	None	0.0	4.0	crosswhite.gif	stop	3.96	0.515113830566	0.0009357929229739999	0.884693145752	1.0	s	127.60906910899999																																																																2015_Jul_02_1229	59.97895025850001	LearningTask	1	74	
9	200.0	w	200.0				0.0	8.0	8.0	8.0																																														w	1.0	0.384720802307	None	0.0	2.0	trianglemagenta.gif	go	0.0	0.514853954315	0.0284531116486	[]	0.0	None	130.61236405399998	0.393671035767	2.05	0.515980958939	0.000977039337158	0.384720802307	1.0	w	133.615828037																																																								2015_Jul_02_1229	59.97895025850001	LearningTask	1	74	
10	-200.0	q	200.0				0.0	9.0	9.0	5.0																																														q	1.0	0.351222038269	None	0.0	1.0	invertedtriangleorange.gif	stop	1.18	0.5151021480560001	0.043848991393999996	0.351222038269	1.0	q	136.619020939																																																																2015_Jul_02_1229	59.97895025850001	LearningTask	1	74	
11				m	0.0	200.0										0.0	0.0	0.0	1.0																																																												194.306455135	stop	invertedtriangleorange.gif	stop	1.0	m	1.0	0.484786987305	None	0.0	0.00141596794128	0.509099960327	0.759494066238	197.303501129																																										2015_Jul_02_1229	59.97895025850001	LearningTask	1	74	
12				z	0.0	-200.0										0.0	1.0	1.0	0.0																																																												197.30389094400002	stop	circlecyan.gif	stop	2.0	None	0.0		None	0.0	0.013070106506299998	0.5155990123749999	0.766169071198	200.306779146																																										2015_Jul_02_1229	59.97895025850001	LearningTask	1	74	
13				m	0.0	200.0										1.0	0.0	2.0	1.0																																																												200.307140112	go	squaregray.gif	go	0.5	m	1.0	0.78427696228	None	0.0	0.000981092453003	0.515867948532		203.31022906299998																																										2015_Jul_02_1229	59.97895025850001	LearningTask	1	74	
14				z	0.0	-200.0										1.0	1.0	3.0	0.0																																																												203.310639143	stop	hexagonblue.gif	stop	0.5	None	0.0		None	0.0	0.00104188919067	0.515486001968	0.7657628059389999	206.313339949																																										2015_Jul_02_1229	59.97895025850001	LearningTask	1	74	
15				z	0.0	-200.0										2.0	0.0	4.0	0.0																																																												206.31370401400002	stop	crosswhite.gif	stop	4.0	None	0.0		None	0.0	0.0009489059448239998	0.515828847885	0.766214847565	209.31668400799998																																										2015_Jul_02_1229	59.97895025850001	LearningTask	1	74	
16				z	0.0	-200.0										2.0	1.0	5.0	0.0																																																												209.31715107	stop	invertedtriangleorange.gif	stop	1.0	None	0.0		None	0.0	0.00104093551636	0.515687942505	0.765951871872	212.320101023																																										2015_Jul_02_1229	59.97895025850001	LearningTask	1	74	
17				m	0.0	200.0										3.0	0.0	6.0	1.0																																																												212.320469141	go	lineyellow.gif	go	4.0	m	1.0	0.634696006775	None	0.0	0.0451149940491	0.515582084656		215.323352098																																										2015_Jul_02_1229	59.97895025850001	LearningTask	1	74	
18				z	0.0	-200.0										3.0	1.0	7.0	0.0																																																												215.323714972	go	lineyellow.gif	go	4.0	z	1.0	0.717996835709	None	0.0	0.000998973846436	0.515952110291		218.326828003																																										2015_Jul_02_1229	59.97895025850001	LearningTask	1	74	
19				m	0.0	200.0										4.0	0.0	8.0	1.0																																																												218.327206135	stop	crosswhite.gif	stop	4.0	None	0.0		None	0.0	0.0009739398956299999	0.515893936157	0.7656939029690001	221.330223083																																										2015_Jul_02_1229	59.97895025850001	LearningTask	1	74	
20				m	0.0	200.0										4.0	1.0	9.0	1.0																																																												221.330615044	go	trianglemagenta.gif	go	2.0	m	1.0	0.8012959957119999	None	0.0	0.0009529590606689998	0.515582799911		224.333413124																																										2015_Jul_02_1229	59.97895025850001	LearningTask	1	74	
21																																																																																													9.0	60.192905187600005																																								2015_Jul_02_1229	59.97895025850001	LearningTask	1	74	
22																																																						9.0	10.3782010078																																																																															2015_Jul_02_1229	59.97895025850001	LearningTask	1	74	
23	200.0	w	200.0																	0.0	0.0	0.0	0.0	0.0	0.0	0.0	0.0																													w	1.0	0.48465681076000006	None	0.0	2.0	circlecyan.gif	stop																																2.05	0.511831998825	0.0009210109710689999	0.48465681076	1.0	w	298.117288113																																	2015_Jul_02_1229	59.97895025850001	LearningTask	1	74	
24	-200.0	q	200.0																	0.0	0.0	0.0	0.0	0.0	1.0	1.0	1.0																													q	1.0	0.41748499870300004	None	0.0	4.0	crosswhite.gif	stop																																3.76	0.5134019851680001	0.0009047985076900001	0.417484998703	1.0	q	301.11993503599996																																	2015_Jul_02_1229	59.97895025850001	LearningTask	1	74	
25	200.0	w	200.0																	0.0	0.0	0.0	0.0	0.0	2.0	2.0	0.0																													w	1.0	0.484427928925	None	0.0	4.0	lineyellow.gif	go																																3.85	0.514382839203	0.0008997917175289999	0.484427928925	1.0	w	304.123213053																																	2015_Jul_02_1229	59.97895025850001	LearningTask	1	74	
26	200.0	s	-200.0																	0.0	0.0	0.0	0.0	0.0	3.0	3.0	2.0																													s	1.0	0.48414397239699997	None	0.0	2.0	trianglemagenta.gif	go																																1.78	0.51466012001	0.00100517272949	0.484143972397	1.0	s	307.12716198																																	2015_Jul_02_1229	59.97895025850001	LearningTask	1	74	
27	-200.0	a	-200.0																	0.0	0.0	0.0	0.0	1.0	0.0	4.0	3.0																													a	1.0	0.38418006897	None	0.0	1.0	diamondgreen.gif	go																																0.99	0.513772964478	0.0009069442749019998	0.38418006897	1.0	a	310.129835129																																	2015_Jul_02_1229	59.97895025850001	LearningTask	1	74	
28	200.0	w	200.0																	0.0	0.0	0.0	0.0	1.0	1.0	5.0	0.0																													w	1.0	0.36767101287799997	None	0.0	4.0	lineyellow.gif	go																																3.77	0.5145409107209999	0.0008950233459470001	0.367671012878	1.0	w	313.133219957																																	2015_Jul_02_1229	59.97895025850001	LearningTask	1	74	
29	200.0	s	-200.0																	0.0	0.0	0.0	0.0	1.0	2.0	6.0	2.0																													s	1.0	0.317481040955	None	0.0	2.0	circlecyan.gif	stop																																1.89	0.514409065247	0.00096607208252	0.317481040955	1.0	s	316.136878014																																	2015_Jul_02_1229	59.97895025850001	LearningTask	1	74	
30	200.0	s	-200.0																	0.0	0.0	0.0	0.0	1.0	3.0	7.0	2.0																													s	1.0	0.367738008499	None	0.0	2.0	trianglemagenta.gif	go																																2.17	0.514097929001	0.000926971435547	0.367738008499	1.0	s	319.140228987																																	2015_Jul_02_1229	59.97895025850001	LearningTask	1	74	
31	-200.0	a	-200.0																	0.0	0.0	0.0	0.0	2.0	0.0	8.0	3.0																													a	1.0	0.450567960739	None	0.0	0.5	hexagonblue.gif	stop																																0.39	0.514415979385	0.0012378692627000002	0.450567960739	1.0	a	322.143216133																																	2015_Jul_02_1229	59.97895025850001	LearningTask	1	74	
32	200.0	s	-200.0																	0.0	0.0	0.0	0.0	2.0	1.0	9.0	2.0																													s	1.0	0.40044498443599996	None	0.0	0.5	squaregray.gif	go																																0.65	0.514561891556	0.0008938312530519999	0.400444984436	1.0	s	325.146733999																																	2015_Jul_02_1229	59.97895025850001	LearningTask	1	74	
33	200.0	w	200.0																	0.0	0.0	0.0	0.0	2.0	2.0	10.0	0.0																													w	1.0	0.368147850037	None	0.0	1.0	diamondgreen.gif	go																																0.0	0.514276981354	0.0009257793426510001	0.368147850037	1.0	w	328.15009594																																	2015_Jul_02_1229	59.97895025850001	LearningTask	1	74	
34	200.0	s	-200.0																	0.0	0.0	0.0	0.0	2.0	3.0	11.0	2.0																													s	1.0	0.384490966797	None	0.0	1.0	diamondgreen.gif	go																																1.01	0.51430106163	0.00116419792175	0.384490966797	1.0	s	331.153660059																																	2015_Jul_02_1229	59.97895025850001	LearningTask	1	74	
35	200.0	s	-200.0																	0.0	0.0	0.0	0.0	3.0	0.0	12.0	2.0																													s	1.0	0.367513179779	None	0.0	4.0	crosswhite.gif	stop																																4.02	0.514243841171	0.00089693069458	0.367513179779	1.0	s	334.156713963																																	2015_Jul_02_1229	59.97895025850001	LearningTask	1	74	
36	-200.0	q	200.0																	0.0	0.0	0.0	0.0	3.0	1.0	13.0	1.0																													q	1.0	0.468127012253	None	0.0	4.0	lineyellow.gif	go																																3.97	0.514355182648	0.0009210109710689999	0.468127012253	1.0	q	337.160462141																																	2015_Jul_02_1229	59.97895025850001	LearningTask	1	74	
37	-200.0	a	-200.0																	0.0	0.0	0.0	0.0	3.0	2.0	14.0	3.0																													a	1.0	0.43487405776999993	None	0.0	2.0	trianglemagenta.gif	go																																1.84	0.513578891754	0.000923871994019	0.43487405777	1.0	a	340.163576126																																	2015_Jul_02_1229	59.97895025850001	LearningTask	1	74	
38	-200.0	q	200.0																	0.0	0.0	0.0	0.0	3.0	3.0	15.0	1.0																													q	1.0	0.4175760746	None	0.0	4.0	crosswhite.gif	stop																																4.18	0.514270067215	0.0008990764617919999	0.4175760746	1.0	q	343.166804075																																	2015_Jul_02_1229	59.97895025850001	LearningTask	1	74	
39	-200.0	q	200.0																	0.0	0.0	0.0	0.0	4.0	0.0	16.0	1.0																													q	1.0	0.400892972946	None	0.0	4.0	lineyellow.gif	go																																0.0	0.5144450664519999	0.0009019374847410001	0.400892972946	1.0	q	346.17018795																																	2015_Jul_02_1229	59.97895025850001	LearningTask	1	74	
40	200.0	w	200.0																	0.0	0.0	0.0	0.0	4.0	1.0	17.0	0.0																													w	1.0	0.384371042252	None	0.0	0.5	squaregray.gif	go																																0.62	0.514271974564	0.000941038131714	0.384371042252	1.0	w	349.173664093																																	2015_Jul_02_1229	59.97895025850001	LearningTask	1	74	
41	-200.0	a	-200.0																	0.0	0.0	0.0	0.0	4.0	2.0	18.0	3.0																													a	1.0	0.483726024628	None	0.0	0.5	squaregray.gif	go																																0.38	0.514512062073	0.0011291503906199999	0.483726024628	1.0	a	352.17673206300003																																	2015_Jul_02_1229	59.97895025850001	LearningTask	1	74	
42	-200.0	q	200.0																	0.0	0.0	0.0	0.0	4.0	3.0	19.0	1.0																													q	1.0	0.36800718307499997	None	0.0	0.5	squaregray.gif	go																																0.45	0.5145030021670001	0.0009391307830810002	0.368007183075	1.0	q	355.18095207199997																																	2015_Jul_02_1229	59.97895025850001	LearningTask	1	74	
43	200.0	s	-200.0																	0.0	0.0	0.0	0.0	5.0	0.0	20.0	2.0																													s	1.0	0.38468289375299997	None	0.0	4.0	crosswhite.gif	stop																																4.01	0.513417005539	0.000913858413696	0.384682893753	1.0	s	358.18357801400003																																	2015_Jul_02_1229	59.97895025850001	LearningTask	1	74	
44	-200.0	a	-200.0																	0.0	0.0	0.0	0.0	5.0	1.0	21.0	3.0																													a	1.0	0.434094905853	None	0.0	0.5	hexagonblue.gif	stop																																0.46	0.5144309997559999	0.00108194351196	0.434094905853	1.0	a	361.186906099																																	2015_Jul_02_1229	59.97895025850001	LearningTask	1	74	
45	200.0	w	200.0																	0.0	0.0	0.0	0.0	5.0	2.0	22.0	0.0																													w	1.0	0.40091681480400004	None	0.0	0.5	hexagonblue.gif	stop																																0.0	0.514331102371	0.0009589195251460001	0.400916814804	1.0	w	364.190546036																																	2015_Jul_02_1229	59.97895025850001	LearningTask	1	74	
46	200.0	s	-200.0																	0.0	0.0	0.0	0.0	5.0	3.0	23.0	2.0																													s	1.0	0.418122053146	None	0.0	2.0	trianglemagenta.gif	go																																1.96	0.514011144638	0.0008909702301030001	0.418122053146	1.0	s	367.193871975																																	2015_Jul_02_1229	59.97895025850001	LearningTask	1	74	
47	-200.0	q	200.0																	0.0	0.0	0.0	0.0	6.0	0.0	24.0	1.0																													q	1.0	0.384083986282	None	0.0	1.0	diamondgreen.gif	go																																0.0	0.514143943787	0.0009200572967529999	0.384083986282	1.0	q	370.19690394400004																																	2015_Jul_02_1229	59.97895025850001	LearningTask	1	74	
48	200.0	s	-200.0																	0.0	0.0	0.0	0.0	6.0	1.0	25.0	2.0																													s	1.0	0.550596952438	None	0.0	0.5	squaregray.gif	go																																0.57	0.514717102051	0.0008950233459470001	0.550596952438	1.0	s	373.200377941																																	2015_Jul_02_1229	59.97895025850001	LearningTask	1	74	
49	-200.0	q	200.0																	0.0	0.0	0.0	0.0	6.0	2.0	26.0	1.0																													q	1.0	0.45137190818800005	None	0.0	0.5	hexagonblue.gif	stop																																0.62	0.514315128326	0.0008981227874760001	0.451371908188	1.0	q	376.203825951																																	2015_Jul_02_1229	59.97895025850001	LearningTask	1	74	
50	200.0	w	200.0																	0.0	0.0	0.0	0.0	6.0	3.0	27.0	0.0																													w	1.0	0.417814016342	None	0.0	1.0	diamondgreen.gif	go																																0.82	0.514112949371	0.00118803977966	0.417814016342	1.0	w	379.207304955																																	2015_Jul_02_1229	59.97895025850001	LearningTask	1	74	
51	-200.0	a	-200.0																	0.0	0.0	0.0	0.0	7.0	0.0	28.0	3.0																													a	1.0	0.601186990738	None	0.0	4.0	lineyellow.gif	go																																4.21	0.513747930527	0.00103497505188	0.601186990738	1.0	a	382.21039009099997																																	2015_Jul_02_1229	59.97895025850001	LearningTask	1	74	
52	-200.0	a	-200.0																	0.0	0.0	0.0	0.0	7.0	1.0	29.0	3.0																													a	1.0	0.601711034775	None	0.0	2.0	circlecyan.gif	stop																																2.06	0.514314174652	0.0009210109710689999	0.601711034775	1.0	a	385.21371007																																	2015_Jul_02_1229	59.97895025850001	LearningTask	1	74	
53	-200.0	a	-200.0																	0.0	0.0	0.0	0.0	7.0	2.0	30.0	3.0																													a	1.0	0.534624099731	None	0.0	0.5	squaregray.gif	go																																0.56	0.5140910148619999	0.00120401382446	0.534624099731	1.0	a	388.217176914																																	2015_Jul_02_1229	59.97895025850001	LearningTask	1	74	
54	-200.0	q	200.0																	0.0	0.0	0.0	0.0	7.0	3.0	31.0	1.0																													q	1.0	0.367390155792	None	0.0	0.5	squaregray.gif	go																																0.71	0.514337778091	0.0008878707885739998	0.367390155792	1.0	q	391.22035908699996																																	2015_Jul_02_1229	59.97895025850001	LearningTask	1	74	
55	-200.0	a	-200.0																	0.0	0.0	0.0	0.0	8.0	0.0	32.0	3.0																													a	1.0	0.43425393104599996	None	0.0	0.5	hexagonblue.gif	stop																																0.43	0.514527082443	0.0009760856628420001	0.434253931046	1.0	a	394.223799944																																	2015_Jul_02_1229	59.97895025850001	LearningTask	1	74	
56	-200.0	q	200.0																	0.0	0.0	0.0	0.0	8.0	1.0	33.0	1.0																													q	1.0	0.45046710968000003	None	0.0	0.5	hexagonblue.gif	stop																																0.72	0.514420032501	0.0009450912475589999	0.45046710968	1.0	q	397.227180958																																	2015_Jul_02_1229	59.97895025850001	LearningTask	1	74	
57	-200.0	a	-200.0																	0.0	0.0	0.0	0.0	8.0	2.0	34.0	3.0																													a	1.0	0.451152801514	None	0.0	1.0	invertedtriangleorange.gif	stop																																0.99	0.5143709182739999	0.0008931159973139998	0.451152801514	1.0	a	400.230484962																																	2015_Jul_02_1229	59.97895025850001	LearningTask	1	74	
58	-200.0	q	200.0																	0.0	0.0	0.0	0.0	8.0	3.0	35.0	1.0																													q	1.0	0.5343840122219999	None	0.0	2.0	trianglemagenta.gif	go																																2.18	0.51429104805	0.000930070877075	0.534384012222	1.0	q	403.23507404300005																																	2015_Jul_02_1229	59.97895025850001	LearningTask	1	74	
59	200.0	w	200.0																	0.0	0.0	0.0	0.0	9.0	0.0	36.0	0.0																													w	1.0	0.5347471237179999	None	0.0	2.0	trianglemagenta.gif	go																																2.08	0.512670993805	0.000902891159058	0.534747123718	1.0	w	406.23746109																																	2015_Jul_02_1229	59.97895025850001	LearningTask	1	74	
60	200.0	w	200.0																	0.0	0.0	0.0	0.0	9.0	1.0	37.0	0.0																													w	1.0	0.5172560214999999	None	0.0	1.0	invertedtriangleorange.gif	stop																																1.06	0.5141038894650001	0.0008938312530519999	0.5172560215	1.0	w	409.24061799																																	2015_Jul_02_1229	59.97895025850001	LearningTask	1	74	
61	200.0	w	200.0																	0.0	0.0	0.0	0.0	9.0	2.0	38.0	0.0																													w	1.0	0.400784015656	None	0.0	2.0	trianglemagenta.gif	go																																2.08	0.514271020889	0.0009450912475589999	0.400784015656	1.0	w	412.244096041																																	2015_Jul_02_1229	59.97895025850001	LearningTask	1	74	
62	-200.0	a	-200.0																	0.0	0.0	0.0	0.0	9.0	3.0	39.0	3.0																													a	1.0	0.550981044769	None	0.0	1.0	diamondgreen.gif	go																																0.95	0.514271020889	0.000918865203857	0.550981044769	1.0	a	415.24724102																																	2015_Jul_02_1229	59.97895025850001	LearningTask	1	74	
63	200.0	s	-200.0																	0.0	0.0	0.0	0.0	10.0	0.0	40.0	2.0																													s	1.0	0.417518854141	None	0.0	1.0	diamondgreen.gif	go																																0.0	0.514366149902	0.000888109207153	0.417518854141	1.0	s	418.25059914599996																																	2015_Jul_02_1229	59.97895025850001	LearningTask	1	74	
64	-200.0	a	-200.0																	0.0	0.0	0.0	0.0	10.0	1.0	41.0	3.0																													a	1.0	0.43370795249899996	None	0.0	2.0	circlecyan.gif	stop																																1.85	0.514717102051	0.0008950233459470001	0.433707952499	1.0	a	421.254081011																																	2015_Jul_02_1229	59.97895025850001	LearningTask	1	74	
65	200.0	w	200.0																	0.0	0.0	0.0	0.0	10.0	2.0	42.0	0.0																													w	1.0	0.41778492927599997	None	0.0	2.0	trianglemagenta.gif	go																																0.0	0.514027118683	0.000900030136108	0.417784929276	1.0	w	424.25733208699995																																	2015_Jul_02_1229	59.97895025850001	LearningTask	1	74	
66	200.0	w	200.0																	0.0	0.0	0.0	0.0	10.0	3.0	43.0	0.0																													w	1.0	0.434259176254	None	0.0	2.0	circlecyan.gif	stop																																2.08	0.514317035675	0.00109314918518	0.434259176254	1.0	w	427.261078119																																	2015_Jul_02_1229	59.97895025850001	LearningTask	1	74	
67	-200.0	a	-200.0																	0.0	0.0	0.0	0.0	11.0	0.0	44.0	3.0																													a	1.0	0.45081877708400003	None	0.0	1.0	invertedtriangleorange.gif	stop																																1.06	0.513972997665	0.000921964645386	0.450818777084	1.0	a	430.26436305																																	2015_Jul_02_1229	59.97895025850001	LearningTask	1	74	
68	-200.0	a	-200.0																	0.0	0.0	0.0	0.0	11.0	1.0	45.0	3.0																													a	1.0	0.5010709762569999	None	0.0	1.0	invertedtriangleorange.gif	stop																																0.98	0.5139570236209999	0.0009279251098630001	0.501070976257	1.0	a	433.26759100000004																																	2015_Jul_02_1229	59.97895025850001	LearningTask	1	74	
69	-200.0	q	200.0																	0.0	0.0	0.0	0.0	11.0	2.0	46.0	1.0																													q	1.0	0.45150113105800005	None	0.0	0.5	hexagonblue.gif	stop																																0.3	0.5139338970180001	0.000977039337158	0.451501131058	1.0	q	436.270998001																																	2015_Jul_02_1229	59.97895025850001	LearningTask	1	74	
70	200.0	s	-200.0																	0.0	0.0	0.0	0.0	11.0	3.0	47.0	2.0																													s	1.0	0.518121004105	None	0.0	0.5	hexagonblue.gif	stop																																0.4	0.514133930206	0.0009031295776369999	0.518121004105	1.0	s	439.274058104																																	2015_Jul_02_1229	59.97895025850001	LearningTask	1	74	
71	-200.0	a	-200.0																	0.0	0.0	0.0	0.0	12.0	0.0	48.0	3.0																													a	1.0	0.501332998276	None	0.0	4.0	crosswhite.gif	stop																																0.0	0.514410972595	0.0008788108825680001	0.501332998276	1.0	a	442.27762913699996																																	2015_Jul_02_1229	59.97895025850001	LearningTask	1	74	
72	200.0	s	-200.0																	0.0	0.0	0.0	0.0	12.0	1.0	49.0	2.0																													s	1.0	0.383994102478	None	0.0	0.5	squaregray.gif	go																																0.53	0.513874053955	0.000926971435547	0.383994102478	1.0	s	445.280868053																																	2015_Jul_02_1229	59.97895025850001	LearningTask	1	74	
73	200.0	s	-200.0																	0.0	0.0	0.0	0.0	12.0	2.0	50.0	2.0																													s	1.0	0.40049099922200004	None	0.0	1.0	invertedtriangleorange.gif	stop																																0.95	0.5142390728	0.0009360313415529999	0.400490999222	1.0	s	448.28433704400004																																	2015_Jul_02_1229	59.97895025850001	LearningTask	1	74	
74	200.0	w	200.0																	0.0	0.0	0.0	0.0	12.0	3.0	51.0	0.0																													w	1.0	0.467528104782	None	0.0	1.0	invertedtriangleorange.gif	stop																																0.99	0.51345205307	0.000970125198364	0.467528104782	1.0	w	451.288439035																																	2015_Jul_02_1229	59.97895025850001	LearningTask	1	74	
75	200.0	s	-200.0																	0.0	0.0	0.0	0.0	13.0	0.0	52.0	2.0																													s	1.0	0.46777510643	None	0.0	0.5	squaregray.gif	go																																0.39	0.513286113739	0.0013070106506300001	0.46777510643	1.0	s	454.291052103																																	2015_Jul_02_1229	59.97895025850001	LearningTask	1	74	
76	200.0	s	-200.0																	0.0	0.0	0.0	0.0	13.0	1.0	53.0	2.0																													s	1.0	0.40114808082599995	None	0.0	4.0	lineyellow.gif	go																																3.96	0.513659000397	0.0013370513916	0.401148080826	1.0	s	457.294186115																																	2015_Jul_02_1229	59.97895025850001	LearningTask	1	74	
77	-200.0	q	200.0																	0.0	0.0	0.0	0.0	13.0	2.0	54.0	1.0																													q	1.0	0.46807289123499995	None	0.0	4.0	lineyellow.gif	go																																4.13	0.514310836792	0.000943899154663	0.468072891235	1.0	q	460.29826808																																	2015_Jul_02_1229	59.97895025850001	LearningTask	1	74	
78	200.0	w	200.0																	0.0	0.0	0.0	0.0	13.0	3.0	55.0	0.0																													w	1.0	0.7181470394130001	None	0.0	1.0	invertedtriangleorange.gif	stop																																1.09	0.513340950012	0.0009100437164310001	0.718147039413	1.0	w	463.301361084																																	2015_Jul_02_1229	59.97895025850001	LearningTask	1	74	
79	200.0	w	200.0																	0.0	0.0	0.0	0.0	14.0	0.0	56.0	0.0																													w	1.0	0.551002025604	None	0.0	4.0	crosswhite.gif	stop																																3.83	0.5138981342319999	0.0013840198516800002	0.551002025604	1.0	w	466.304310083																																	2015_Jul_02_1229	59.97895025850001	LearningTask	1	74	
80	-200.0	a	-200.0																	0.0	0.0	0.0	0.0	14.0	1.0	57.0	3.0																													a	1.0	0.484237909317	None	0.0	0.5	squaregray.gif	go																																0.0	0.514253139496	0.0008912086486819999	0.484237909317	1.0	a	469.307714939																																	2015_Jul_02_1229	59.97895025850001	LearningTask	1	74	
81	200.0	w	200.0																	0.0	0.0	0.0	0.0	14.0	2.0	58.0	0.0																													w	1.0	0.484612941742	None	0.0	4.0	lineyellow.gif	go																																3.95	0.514282226562	0.0009250640869139999	0.484612941742	1.0	w	472.31100392300004																																	2015_Jul_02_1229	59.97895025850001	LearningTask	1	74	
82	-200.0	a	-200.0																	0.0	0.0	0.0	0.0	14.0	3.0	59.0	3.0																													a	1.0	0.48414802551299996	None	0.0	2.0	circlecyan.gif	stop																																2.13	0.514422893524	0.0014619827270499998	0.484148025513	1.0	a	475.31450295400003																																	2015_Jul_02_1229	59.97895025850001	LearningTask	1	74	
83	200.0	s	-200.0																	0.0	0.0	0.0	0.0	15.0	0.0	60.0	2.0																													s	1.0	0.584386825562	None	0.0	4.0	crosswhite.gif	stop																																0.0	0.5141651630399999	0.00102210044861	0.584386825562	1.0	s	478.31759405099996																																	2015_Jul_02_1229	59.97895025850001	LearningTask	1	74	
84	-200.0	q	200.0																	0.0	0.0	0.0	0.0	15.0	1.0	61.0	1.0																													q	1.0	0.58460521698	None	0.0	0.5	squaregray.gif	go																																0.72	0.5143709182739999	0.000917911529541	0.58460521698	1.0	q	481.32074093800003																																	2015_Jul_02_1229	59.97895025850001	LearningTask	1	74	
85	-200.0	q	200.0																	0.0	0.0	0.0	0.0	15.0	2.0	62.0	1.0																													q	1.0	0.38450908660899996	None	0.0	1.0	invertedtriangleorange.gif	stop																																0.85	0.514256954193	0.0012149810791	0.384509086609	1.0	q	484.324579954																																	2015_Jul_02_1229	59.97895025850001	LearningTask	1	74	
86	200.0	s	-200.0																	0.0	0.0	0.0	0.0	15.0	3.0	63.0	2.0																													s	1.0	0.551239013672	None	0.0	1.0	diamondgreen.gif	go																																0.97	0.514113903046	0.00129580497742	0.551239013672	1.0	s	487.32801604300005																																	2015_Jul_02_1229	59.97895025850001	LearningTask	1	74	
87	200.0	s	-200.0																	0.0	0.0	0.0	0.0	16.0	0.0	64.0	2.0																													s	1.0	0.418089151382	None	0.0	4.0	lineyellow.gif	go																																3.82	0.51401591301	0.0009570121765139998	0.418089151382	1.0	s	490.331112146																																	2015_Jul_02_1229	59.97895025850001	LearningTask	1	74	
88	200.0	w	200.0																	0.0	0.0	0.0	0.0	16.0	1.0	65.0	0.0																													w	1.0	0.45090389251699997	None	0.0	2.0	trianglemagenta.gif	go																																1.86	0.5141551494600001	0.0013380050659200001	0.450903892517	1.0	w	493.334800005																																	2015_Jul_02_1229	59.97895025850001	LearningTask	1	74	
89	-200.0	q	200.0																	0.0	0.0	0.0	0.0	16.0	2.0	66.0	1.0																													q	1.0	0.43390989303599997	None	0.0	4.0	lineyellow.gif	go																																4.0	0.514353990555	0.0008978843688960001	0.433909893036	1.0	q	496.338009119																																	2015_Jul_02_1229	59.97895025850001	LearningTask	1	74	
90	200.0	w	200.0																	0.0	0.0	0.0	0.0	16.0	3.0	67.0	0.0																													w	1.0	0.48403096198999995	None	0.0	4.0	crosswhite.gif	stop																																3.83	0.514224052429	0.000969886779785	0.48403096199	1.0	w	499.341895103																																	2015_Jul_02_1229	59.97895025850001	LearningTask	1	74	
91	-200.0	q	200.0																	0.0	0.0	0.0	0.0	17.0	0.0	68.0	1.0																													q	1.0	0.501348018646	None	0.0	1.0	invertedtriangleorange.gif	stop																																0.0	0.513549804688	0.0009160041809079999	0.501348018646	1.0	q	502.344598055																																	2015_Jul_02_1229	59.97895025850001	LearningTask	1	74	
92	-200.0	a	-200.0																	0.0	0.0	0.0	0.0	17.0	1.0	69.0	3.0																													a	1.0	0.484390974045	None	0.0	2.0	trianglemagenta.gif	go																																2.04	0.51420378685	0.0008938312530519999	0.484390974045	1.0	a	505.347885132																																	2015_Jul_02_1229	59.97895025850001	LearningTask	1	74	
93	200.0	s	-200.0																	0.0	0.0	0.0	0.0	17.0	2.0	70.0	2.0																													s	1.0	0.43460679054300005	None	0.0	0.5	hexagonblue.gif	stop																																0.52	0.514321804047	0.00135087966919	0.434606790543	1.0	s	508.351692915																																	2015_Jul_02_1229	59.97895025850001	LearningTask	1	74	
94	-200.0	a	-200.0																	0.0	0.0	0.0	0.0	17.0	3.0	71.0	3.0																													a	1.0	0.501209020615	None	0.0	1.0	invertedtriangleorange.gif	stop																																1.0	0.513547182083	0.0009200572967529999	0.501209020615	1.0	a	511.354609013																																	2015_Jul_02_1229	59.97895025850001	LearningTask	1	74	
95	-200.0	q	200.0																	0.0	0.0	0.0	0.0	18.0	0.0	72.0	1.0																													q	1.0	0.400653123856	None	0.0	2.0	circlecyan.gif	stop																																2.1	0.514704942703	0.0008978843688960001	0.400653123856	1.0	q	514.35772109																																	2015_Jul_02_1229	59.97895025850001	LearningTask	1	74	
96	-200.0	a	-200.0																	0.0	0.0	0.0	0.0	18.0	1.0	73.0	3.0																													a	1.0	0.618188142776	None	0.0	1.0	diamondgreen.gif	go																																1.07	0.514113903046	0.000943899154663	0.618188142776	1.0	a	517.3612940309999																																	2015_Jul_02_1229	59.97895025850001	LearningTask	1	74	
97	200.0	s	-200.0																	0.0	0.0	0.0	0.0	18.0	2.0	74.0	2.0																													s	1.0	0.418449878693	None	0.0	2.0	circlecyan.gif	stop																																1.84	0.514127969742	0.0008950233459470001	0.418449878693	1.0	s	520.364659071																																	2015_Jul_02_1229	59.97895025850001	LearningTask	1	74	
98	-200.0	q	200.0																	0.0	0.0	0.0	0.0	18.0	3.0	75.0	1.0																													q	1.0	0.400597810745	None	0.0	2.0	circlecyan.gif	stop																																2.05	0.514625072479	0.00111603736877	0.400597810745	1.0	q	523.368345976																																	2015_Jul_02_1229	59.97895025850001	LearningTask	1	74	
99	200.0	w	200.0																	0.0	0.0	0.0	0.0	19.0	0.0	76.0	0.0																													w	1.0	0.35091495513899995	None	0.0	2.0	circlecyan.gif	stop																																2.02	0.5139780044560001	0.000900030136108	0.350914955139	1.0	w	526.371396065																																	2015_Jul_02_1229	59.97895025850001	LearningTask	1	74	
100	-200.0	a	-200.0																	0.0	0.0	0.0	0.0	19.0	1.0	77.0	3.0																													a	1.0	0.434382915497	None	0.0	1.0	invertedtriangleorange.gif	stop																																0.9	0.514351844788	0.0009250640869139999	0.434382915497	1.0	a	529.374562025																																	2015_Jul_02_1229	59.97895025850001	LearningTask	1	74	
101	-200.0	q	200.0																	0.0	0.0	0.0	0.0	19.0	2.0	78.0	1.0																													q	1.0	0.518531084061	None	0.0	2.0	trianglemagenta.gif	go																																0.0	0.514266967773	0.0010249614715599998	0.518531084061	1.0	q	532.378051996																																	2015_Jul_02_1229	59.97895025850001	LearningTask	1	74	
102	-200.0	a	-200.0																	0.0	0.0	0.0	0.0	19.0	3.0	79.0	3.0																													a	1.0	0.467455148697	None	0.0	0.5	squaregray.gif	go																																0.48	0.514347076416	0.0009191036224369998	0.467455148697	1.0	a	535.381452084																																	2015_Jul_02_1229	59.97895025850001	LearningTask	1	74	
103	-200.0	q	200.0																	0.0	0.0	0.0	0.0	20.0	0.0	80.0	1.0																													q	1.0	0.600844144821	None	0.0	2.0	circlecyan.gif	stop																																1.87	0.514391899109	0.000907897949219	0.600844144821	1.0	q	538.384776115																																	2015_Jul_02_1229	59.97895025850001	LearningTask	1	74	
104	-200.0	q	200.0																	0.0	0.0	0.0	0.0	20.0	1.0	81.0	1.0																													q	1.0	0.48426699638400006	None	0.0	4.0	crosswhite.gif	stop																																0.0	0.514262914658	0.0009181499481200001	0.484266996384	1.0	q	541.388194084																																	2015_Jul_02_1229	59.97895025850001	LearningTask	1	74	
105	-200.0	q	200.0																	0.0	0.0	0.0	0.0	20.0	2.0	82.0	1.0																													q	1.0	0.367571115494	None	0.0	4.0	lineyellow.gif	go																																4.12	0.5142018795009999	0.000913858413696	0.367571115494	1.0	q	544.391535997																																	2015_Jul_02_1229	59.97895025850001	LearningTask	1	74	
106	200.0	w	200.0																	0.0	0.0	0.0	0.0	20.0	3.0	83.0	0.0																													w	1.0	0.41754484176600004	None	0.0	2.0	circlecyan.gif	stop																																2.21	0.514355897903	0.0012679100036600002	0.417544841766	1.0	w	547.395899057																																	2015_Jul_02_1229	59.97895025850001	LearningTask	1	74	
107	200.0	w	200.0																	0.0	0.0	0.0	0.0	21.0	0.0	84.0	0.0																													w	1.0	0.48446488380400005	None	0.0	1.0	invertedtriangleorange.gif	stop																																0.84	0.513185977936	0.0009019374847410001	0.484464883804	1.0	w	550.398461103																																	2015_Jul_02_1229	59.97895025850001	LearningTask	1	74	
108	-200.0	q	200.0																	0.0	0.0	0.0	0.0	21.0	1.0	85.0	1.0																													q	1.0	0.500731945038	None	0.0	1.0	diamondgreen.gif	go																																0.0	0.5141971111300001	0.000923156738281	0.500731945038	1.0	q	553.401552916																																	2015_Jul_02_1229	59.97895025850001	LearningTask	1	74	
109	200.0	w	200.0																	0.0	0.0	0.0	0.0	21.0	2.0	86.0	0.0																													w	1.0	0.784684896469	None	0.0	0.5	squaregray.gif	go																																0.51	0.514369010925	0.000923156738281	0.784684896469	1.0	w	556.405336142																																	2015_Jul_02_1229	59.97895025850001	LearningTask	1	74	
110	-200.0	a	-200.0																	0.0	0.0	0.0	0.0	21.0	3.0	87.0	3.0																													a	1.0	0.868260860443	None	0.0	1.0	invertedtriangleorange.gif	stop																																0.86	0.513847112656	0.00090503692627	0.868260860443	1.0	a	559.408291101																																	2015_Jul_02_1229	59.97895025850001	LearningTask	1	74	
111	200.0	w	200.0																	0.0	0.0	0.0	0.0	22.0	0.0	88.0	0.0																													w	1.0	0.6676251888279999	None	0.0	4.0	lineyellow.gif	go																																3.89	0.514498949051	0.0009019374847410001	0.667625188828	1.0	w	562.4114930630001																																	2015_Jul_02_1229	59.97895025850001	LearningTask	1	74	
112	200.0	w	200.0																	0.0	0.0	0.0	0.0	22.0	1.0	89.0	0.0																													w	1.0	0.400736093521	None	0.0	4.0	lineyellow.gif	go																																3.78	0.514327049255	0.000913143157959	0.400736093521	1.0	w	565.415022135																																	2015_Jul_02_1229	59.97895025850001	LearningTask	1	74	
113	-200.0	q	200.0																	0.0	0.0	0.0	0.0	22.0	2.0	90.0	1.0																													q	1.0	0.433645009995	None	0.0	0.5	hexagonblue.gif	stop																																0.4	0.514556884766	0.0009129047393799999	0.433645009995	1.0	q	568.4183440209999																																	2015_Jul_02_1229	59.97895025850001	LearningTask	1	74	
114	200.0	s	-200.0																	0.0	0.0	0.0	0.0	22.0	3.0	91.0	2.0																													s	1.0	0.51759314537	None	0.0	4.0	lineyellow.gif	go																																3.94	0.5144450664519999	0.0011210441589400001	0.51759314537	1.0	s	571.42207098																																	2015_Jul_02_1229	59.97895025850001	LearningTask	1	74	
115	-200.0	a	-200.0																	0.0	0.0	0.0	0.0	23.0	0.0	92.0	3.0																													a	1.0	0.400763988495	None	0.0	1.0	invertedtriangleorange.gif	stop																																1.03	0.5139570236209999	0.0009241104125980002	0.400763988495	1.0	a	574.4249939919999																																	2015_Jul_02_1229	59.97895025850001	LearningTask	1	74	
116	200.0	w	200.0																	0.0	0.0	0.0	0.0	23.0	1.0	93.0	0.0																													w	1.0	0.43428111076399994	None	0.0	1.0	invertedtriangleorange.gif	stop																																1.11	0.514379024506	0.0008950233459470001	0.434281110764	1.0	w	577.428389072																																	2015_Jul_02_1229	59.97895025850001	LearningTask	1	74	
117	-200.0	q	200.0																	0.0	0.0	0.0	0.0	23.0	2.0	94.0	1.0																													q	1.0	0.417834043503	None	0.0	2.0	trianglemagenta.gif	go																																2.05	0.514002084732	0.0009720325469970001	0.417834043503	1.0	q	580.4318621159999																																	2015_Jul_02_1229	59.97895025850001	LearningTask	1	74	
118	200.0	s	-200.0																	0.0	0.0	0.0	0.0	23.0	3.0	95.0	2.0																													s	1.0	0.45086598396300004	None	0.0	4.0	crosswhite.gif	stop																																3.99	0.514143943787	0.0009059906005860001	0.450865983963	1.0	s	583.43534708																																	2015_Jul_02_1229	59.97895025850001	LearningTask	1	74	
119	-200.0	a	-200.0																	0.0	0.0	0.0	0.0	24.0	0.0	96.0	3.0																													a	1.0	0.41782498359700004	None	0.0	2.0	trianglemagenta.gif	go																																1.96	0.514070034027	0.00089693069458	0.417824983597	1.0	a	586.438503027																																	2015_Jul_02_1229	59.97895025850001	LearningTask	1	74	
120	200.0	s	-200.0																	0.0	0.0	0.0	0.0	24.0	1.0	97.0	2.0																													s	1.0	0.433822154999	None	0.0	1.0	invertedtriangleorange.gif	stop																																0.0	0.514508008957	0.000922918319702	0.433822154999	1.0	s	589.441833019																																	2015_Jul_02_1229	59.97895025850001	LearningTask	1	74	
121	200.0	s	-200.0																	0.0	0.0	0.0	0.0	24.0	2.0	98.0	2.0																													s	1.0	0.434319019318	None	0.0	2.0	trianglemagenta.gif	go																																2.1	0.514311075211	0.000900983810425	0.434319019318	1.0	s	592.4454040530001																																	2015_Jul_02_1229	59.97895025850001	LearningTask	1	74	
122	200.0	s	-200.0																	0.0	0.0	0.0	0.0	24.0	3.0	99.0	2.0																													s	1.0	0.451057910919	None	0.0	4.0	crosswhite.gif	stop																																3.91	0.514023065567	0.000977039337158	0.451057910919	1.0	s	595.4483881																																	2015_Jul_02_1229	59.97895025850001	LearningTask	1	74	
123																				0.0	0.0	0.0	0.0																																																																															9.0	7.08068394661																															2015_Jul_02_1229	59.97895025850001	LearningTask	1	74	
124	200.0	w	200.0																	1.0	0.0	1.0	0.0	0.0	0.0	0.0	0.0																													w	1.0	0.484696149826	None	0.0	4.0	lineyellow.gif	go								0.127018928528																								0.0	0.50865316391	0.00094199180603	[]	0.0	None	605.877658129			4.0	0.514853954315	0.000988960266113	0.484696149826	1.0	w	608.880463123																								2015_Jul_02_1229	59.97895025850001	LearningTask	1	74	
125	200.0	s	-200.0																	1.0	0.0	1.0	0.0	0.0	1.0	1.0	2.0																													s	1.0	0.450567007065	None	0.0	0.5	hexagonblue.gif	stop																																0.27	0.514215946198	0.000903844833374	0.450567007065	1.0	s	611.883786917																																	2015_Jul_02_1229	59.97895025850001	LearningTask	1	74	
126	-200.0	q	200.0																	1.0	0.0	1.0	0.0	0.0	2.0	2.0	1.0																													q	1.0	0.383937120438	None	0.0	1.0	diamondgreen.gif	go																																1.13	0.514011144638	0.0008990764617919999	0.383937120438	1.0	q	614.887295961																																	2015_Jul_02_1229	59.97895025850001	LearningTask	1	74	
127	200.0	w	200.0																	1.0	0.0	1.0	0.0	0.0	3.0	3.0	0.0																													w	1.0	0.384117126465	None	0.0	2.0	trianglemagenta.gif	go																																2.08	0.51379108429	0.0009441375732419999	0.384117126465	1.0	w	617.890258074																																	2015_Jul_02_1229	59.97895025850001	LearningTask	1	74	
128	-200.0	a	-200.0																	1.0	0.0	1.0	0.0	1.0	0.0	4.0	3.0																													a	1.0	0.36837601661700003	None	0.0	4.0	lineyellow.gif	go																																3.76	0.514053106308	0.000900030136108	0.368376016617	1.0	a	620.89367795																																	2015_Jul_02_1229	59.97895025850001	LearningTask	1	74	
129	200.0	s	-200.0																	1.0	0.0	1.0	0.0	1.0	1.0	5.0	2.0																													s	1.0	0.31763792038000005	None	0.0	1.0	invertedtriangleorange.gif	stop																																1.19	0.514081954956	0.0008938312530519999	0.31763792038	1.0	s	623.897083044																																	2015_Jul_02_1229	59.97895025850001	LearningTask	1	74	
130	200.0	w	200.0																	1.0	0.0	1.0	0.0	1.0	2.0	6.0	0.0																													w	1.0	0.36799788475	None	0.0	2.0	circlecyan.gif	stop																																1.89	0.514085054398	0.0009319782257080001	0.36799788475	1.0	w	626.900645018																																	2015_Jul_02_1229	59.97895025850001	LearningTask	1	74	
131	200.0	s	-200.0																	1.0	0.0	1.0	0.0	1.0	3.0	7.0	2.0																													s	1.0	0.417398929596	None	0.0	4.0	crosswhite.gif	stop																																4.0	0.5139210224149999	0.0011141300201400002	0.417398929596	1.0	s	629.903669119																																	2015_Jul_02_1229	59.97895025850001	LearningTask	1	74	
132	-200.0	a	-200.0																	1.0	0.0	1.0	0.0	2.0	0.0	8.0	3.0																													a	1.0	0.384359836578	None	0.0	4.0	crosswhite.gif	stop																																4.03	0.514464139938	0.0008959770202639998	0.384359836578	1.0	a	632.9070479869999																																	2015_Jul_02_1229	59.97895025850001	LearningTask	1	74	
133	-200.0	q	200.0																	1.0	0.0	1.0	0.0	2.0	1.0	9.0	1.0																													q	1.0	0.301116943359	None	0.0	2.0	trianglemagenta.gif	go																																2.07	0.51393198967	0.000969886779785	0.301116943359	1.0	q	635.910251141																																	2015_Jul_02_1229	59.97895025850001	LearningTask	1	74	
134	200.0	s	-200.0																	1.0	0.0	1.0	0.0	2.0	2.0	10.0	2.0																													s	1.0	0.40089607238799996	None	0.0	2.0	circlecyan.gif	stop																																1.77	0.514288902283	0.0010249614715599998	0.400896072388	1.0	s	638.913869143																																	2015_Jul_02_1229	59.97895025850001	LearningTask	1	74	
135	-200.0	q	200.0																	1.0	0.0	1.0	0.0	2.0	3.0	11.0	1.0																													q	1.0	0.500834941864	None	0.0	4.0	lineyellow.gif	go																																4.06	0.514240026474	0.0008909702301030001	0.500834941864	1.0	q	641.917057991																																	2015_Jul_02_1229	59.97895025850001	LearningTask	1	74	
136	-200.0	q	200.0																	1.0	0.0	1.0	0.0	3.0	0.0	12.0	1.0																													q	1.0	0.534873008728	None	0.0	1.0	invertedtriangleorange.gif	stop																																1.2	0.51452088356	0.000898838043213	0.534873008728	1.0	q	644.920437098																																	2015_Jul_02_1229	59.97895025850001	LearningTask	1	74	
137	-200.0	a	-200.0																	1.0	0.0	1.0	0.0	3.0	1.0	13.0	3.0																													a	1.0	0.384626150131	None	0.0	0.5	hexagonblue.gif	stop																																0.42	0.5139698982240001	0.000981092453003	0.384626150131	1.0	a	647.92373991																																	2015_Jul_02_1229	59.97895025850001	LearningTask	1	74	
138	200.0	s	-200.0																	1.0	0.0	1.0	0.0	3.0	2.0	14.0	2.0																													s	1.0	0.434669017792	None	0.0	4.0	lineyellow.gif	go																																3.97	0.514364957809	0.0009059906005860001	0.434669017792	1.0	s	650.927333117																																	2015_Jul_02_1229	59.97895025850001	LearningTask	1	74	
139	-200.0	a	-200.0																	1.0	0.0	1.0	0.0	3.0	3.0	15.0	3.0																													a	1.0	0.43401002883900003	None	0.0	0.5	hexagonblue.gif	stop																																0.66	0.514345884323	0.0008959770202639998	0.434010028839	1.0	a	653.93055892																																	2015_Jul_02_1229	59.97895025850001	LearningTask	1	74	
140	-200.0	a	-200.0																	1.0	0.0	1.0	0.0	4.0	0.0	16.0	3.0																													a	1.0	0.450634002686	None	0.0	1.0	diamondgreen.gif	go																																0.76	0.514199018478	0.000969886779785	0.450634002686	1.0	a	656.9339129919999																																	2015_Jul_02_1229	59.97895025850001	LearningTask	1	74	
141	200.0	s	-200.0																	1.0	0.0	1.0	0.0	4.0	1.0	17.0	2.0																													s	1.0	0.484225034714	None	0.0	0.5	squaregray.gif	go																																0.68	0.5143561363220001	0.0008740425109860002	0.484225034714	1.0	s	659.9372880459999																																	2015_Jul_02_1229	59.97895025850001	LearningTask	1	74	
142	-200.0	q	200.0																	1.0	0.0	1.0	0.0	4.0	2.0	18.0	1.0																													q	1.0	0.45092010498	None	0.0	0.5	squaregray.gif	go																																0.47	0.514297962189	0.0011179447174100002	0.45092010498	1.0	q	662.941133976																																	2015_Jul_02_1229	59.97895025850001	LearningTask	1	74	
143	-200.0	a	-200.0																	1.0	0.0	1.0	0.0	4.0	3.0	19.0	3.0																													a	1.0	0.450773954391	None	0.0	0.5	squaregray.gif	go																																0.7	0.513743877411	0.000938892364502	0.450773954391	1.0	a	665.943871021																																	2015_Jul_02_1229	59.97895025850001	LearningTask	1	74	
144	-200.0	q	200.0																	1.0	0.0	1.0	0.0	5.0	0.0	20.0	1.0																													q	1.0	0.501067876816	None	0.0	1.0	diamondgreen.gif	go																																0.84	0.514191865921	0.0008788108825680001	0.501067876816	1.0	q	668.947365046																																	2015_Jul_02_1229	59.97895025850001	LearningTask	1	74	
145	200.0	w	200.0																	1.0	0.0	1.0	0.0	5.0	1.0	21.0	0.0																													w	1.0	0.7181711196899999	None	0.0	0.5	hexagonblue.gif	stop																																0.32	0.514466047287	0.0008840560913089999	0.71817111969	1.0	w	671.951282024																																	2015_Jul_02_1229	59.97895025850001	LearningTask	1	74	
146	200.0	s	-200.0																	1.0	0.0	1.0	0.0	5.0	2.0	22.0	2.0																													s	1.0	0.384128093719	None	0.0	2.0	trianglemagenta.gif	go																																1.98	0.513605117798	0.000928163528442	0.384128093719	1.0	s	674.954076052																																	2015_Jul_02_1229	59.97895025850001	LearningTask	1	74	
147	200.0	w	200.0																	1.0	0.0	1.0	0.0	5.0	3.0	23.0	0.0																													w	1.0	0.6511769294740001	None	0.0	1.0	diamondgreen.gif	go																																0.84	0.514245033264	0.0009150505065920001	0.651176929474	1.0	w	677.957257986																																	2015_Jul_02_1229	59.97895025850001	LearningTask	1	74	
148	-200.0	q	200.0																	1.0	0.0	1.0	0.0	6.0	0.0	24.0	1.0																													q	1.0	0.583924055099	None	0.0	2.0	circlecyan.gif	stop																																1.75	0.514768123627	0.0008780956268310002	0.583924055099	1.0	q	680.9606440069999																																	2015_Jul_02_1229	59.97895025850001	LearningTask	1	74	
149	-200.0	a	-200.0																	1.0	0.0	1.0	0.0	6.0	1.0	25.0	3.0																													a	1.0	0.734797954559	None	0.0	4.0	lineyellow.gif	go																																3.79	0.5142121315	0.000927209854126	0.734797954559	1.0	a	683.964134932																																	2015_Jul_02_1229	59.97895025850001	LearningTask	1	74	
150	200.0	w	200.0																	1.0	0.0	1.0	0.0	6.0	2.0	26.0	0.0																													w	1.0	0.651386976242	None	0.0	4.0	lineyellow.gif	go																																3.97	0.514055013657	0.00118398666382	0.651386976242	1.0	w	686.967536926																																	2015_Jul_02_1229	59.97895025850001	LearningTask	1	74	
151	200.0	s	-200.0																	1.0	0.0	1.0	0.0	6.0	3.0	27.0	2.0																													s	1.0	0.41743206977799996	None	0.0	2.0	trianglemagenta.gif	go																																1.81	0.514299154282	0.000881195068359	0.417432069778	1.0	s	689.970817089																																	2015_Jul_02_1229	59.97895025850001	LearningTask	1	74	
152	-200.0	a	-200.0																	1.0	0.0	1.0	0.0	7.0	0.0	28.0	3.0																													a	1.0	0.466995000839	None	0.0	4.0	crosswhite.gif	stop																																4.03	0.51405787468	0.0008709430694580001	0.466995000839	1.0	a	692.974005938																																	2015_Jul_02_1229	59.97895025850001	LearningTask	1	74	
153	200.0	s	-200.0																	1.0	0.0	1.0	0.0	7.0	1.0	29.0	2.0																													s	1.0	0.400907039642	None	0.0	1.0	invertedtriangleorange.gif	stop																																0.76	0.514219999313	0.000949859619141	0.400907039642	1.0	s	695.97735405																																	2015_Jul_02_1229	59.97895025850001	LearningTask	1	74	
154	200.0	w	200.0																	1.0	0.0	1.0	0.0	7.0	2.0	30.0	0.0																													w	1.0	0.551223993301	None	0.0	1.0	diamondgreen.gif	go																																1.12	0.514381885529	0.000913858413696	0.551223993301	1.0	w	698.9807879919999																																	2015_Jul_02_1229	59.97895025850001	LearningTask	1	74	
155	-200.0	a	-200.0																	1.0	0.0	1.0	0.0	7.0	3.0	31.0	3.0																													a	1.0	0.6675660610199999	None	0.0	2.0	circlecyan.gif	stop																																1.94	0.514509916306	0.0008749961853029999	0.66756606102	1.0	a	701.9839959139999																																	2015_Jul_02_1229	59.97895025850001	LearningTask	1	74	
156	200.0	w	200.0																	1.0	0.0	1.0	0.0	8.0	0.0	32.0	0.0																													w	1.0	0.36799287795999996	None	0.0	4.0	lineyellow.gif	go																																0.0	0.5141119956970001	0.000909805297852	[]	0.0	None	704.987474918			4.1	0.515315055847	0.00094199180603	0.36799287795999996	1.0	w	707.9911129469999																								2015_Jul_02_1229	59.97895025850001	LearningTask	1	74	
157	-200.0	a	-200.0																	1.0	0.0	1.0	0.0	8.0	1.0	33.0	3.0																													a	1.0	0.551167011261	None	0.0	2.0	trianglemagenta.gif	go																																2.08	0.513784170151	0.0009291172027589999	0.551167011261	1.0	a	710.994579077																																	2015_Jul_02_1229	59.97895025850001	LearningTask	1	74	
158	200.0	w	200.0																	1.0	0.0	1.0	0.0	8.0	2.0	34.0	0.0																													w	1.0	0.45090293884300003	None	0.0	2.0	circlecyan.gif	stop																																2.24	0.513652086258	0.0009541511535639998	0.450902938843	1.0	w	713.997596025																																	2015_Jul_02_1229	59.97895025850001	LearningTask	1	74	
159	200.0	w	200.0																	1.0	0.0	1.0	0.0	8.0	3.0	35.0	0.0																													w	1.0	0.451180934906	None	0.0	0.5	hexagonblue.gif	stop																																0.0	0.514240980148	0.000881910324097	0.451180934906	1.0	w	717.0011000630001																																	2015_Jul_02_1229	59.97895025850001	LearningTask	1	74	
160	-200.0	q	200.0																	1.0	0.0	1.0	0.0	9.0	0.0	36.0	1.0																													q	1.0	0.417873859406	None	0.0	2.0	circlecyan.gif	stop																																2.08	0.514065027237	0.000888109207153	0.417873859406	1.0	q	720.004611015																																	2015_Jul_02_1229	59.97895025850001	LearningTask	1	74	
161	200.0	s	-200.0																	1.0	0.0	1.0	0.0	9.0	1.0	37.0	2.0																													s	1.0	0.384891033173	None	0.0	1.0	diamondgreen.gif	go																																1.17	0.513746976852	0.0009391307830810002	0.384891033173	1.0	s	723.007846117																																	2015_Jul_02_1229	59.97895025850001	LearningTask	1	74	
162	-200.0	a	-200.0																	1.0	0.0	1.0	0.0	9.0	2.0	38.0	3.0																													a	1.0	0.434153795242	None	0.0	1.0	diamondgreen.gif	go																																0.0	0.514327049255	0.00095796585083	0.351202011108	0.0	q	726.0111160280001			0.89	0.515358924866	0.000943899154663	0.434153795242	1.0	a	729.014378071																								2015_Jul_02_1229	59.97895025850001	LearningTask	1	74	
163	-200.0	a	-200.0																	1.0	0.0	1.0	0.0	9.0	3.0	39.0	3.0																													a	1.0	0.601264953613	None	0.0	4.0	crosswhite.gif	stop																																4.18	0.514323949814	0.0009160041809079999	0.601264953613	1.0	a	732.017702103																																	2015_Jul_02_1229	59.97895025850001	LearningTask	1	74	
164	200.0	w	200.0																	1.0	0.0	1.0	0.0	10.0	0.0	40.0	0.0																													w	1.0	0.484600067139	None	0.0	1.0	invertedtriangleorange.gif	stop																																0.0	0.5141499042509999	0.00127601623535	0.484600067139	1.0	w	735.02137804																																	2015_Jul_02_1229	59.97895025850001	LearningTask	1	74	
165	-200.0	a	-200.0																	1.0	0.0	1.0	0.0	10.0	1.0	41.0	3.0																													a	1.0	0.434376001358	None	0.0	4.0	crosswhite.gif	stop																																0.0	0.5138750076290001	0.0008759498596189999	0.434376001358	1.0	a	738.024573088																																	2015_Jul_02_1229	59.97895025850001	LearningTask	1	74	
166	200.0	w	200.0																	1.0	0.0	1.0	0.0	10.0	2.0	42.0	0.0																													w	1.0	0.41744399070699995	None	0.0	1.0	diamondgreen.gif	go																																0.0	0.514132976532	0.0008728504180910001	0.417443990707	1.0	w	741.0277280810001																																	2015_Jul_02_1229	59.97895025850001	LearningTask	1	74	
167	-200.0	q	200.0																	1.0	0.0	1.0	0.0	10.0	3.0	43.0	1.0																													q	1.0	0.601161003113	None	0.0	1.0	invertedtriangleorange.gif	stop																																0.81	0.51388502121	0.0009529590606689998	0.601161003113	1.0	q	744.031141043																																	2015_Jul_02_1229	59.97895025850001	LearningTask	1	74	
168	200.0	w	200.0																	1.0	0.0	1.0	0.0	11.0	0.0	44.0	0.0																													w	1.0	0.450835943222	None	0.0	2.0	trianglemagenta.gif	go																																0.0	0.51434803009	0.0008769035339360002	0.450835943222	1.0	w	747.03463912																																	2015_Jul_02_1229	59.97895025850001	LearningTask	1	74	
169	-200.0	a	-200.0																	1.0	0.0	1.0	0.0	11.0	1.0	45.0	3.0																													a	1.0	0.43411111831699994	None	0.0	1.0	diamondgreen.gif	go																																0.0	0.513671875	0.0010139942169199998	0.434111118317	1.0	a	750.038559914																																	2015_Jul_02_1229	59.97895025850001	LearningTask	1	74	
170	200.0	w	200.0																	1.0	0.0	1.0	0.0	11.0	2.0	46.0	0.0																													w	1.0	0.617298841476	None	0.0	2.0	trianglemagenta.gif	go																																1.98	0.51372385025	0.0009799003601070001	0.617298841476	1.0	w	753.041168928																																	2015_Jul_02_1229	59.97895025850001	LearningTask	1	74	
171	200.0	w	200.0																	1.0	0.0	1.0	0.0	11.0	3.0	47.0	0.0																													w	1.0	0.567914009094	None	0.0	2.0	trianglemagenta.gif	go																																2.25	0.5143492221829999	0.0008680820465089999	0.567914009094	1.0	w	756.0447280410001																																	2015_Jul_02_1229	59.97895025850001	LearningTask	1	74	
172	-200.0	q	200.0																	1.0	0.0	1.0	0.0	12.0	0.0	48.0	1.0																													q	1.0	0.367300033569	None	0.0	1.0	diamondgreen.gif	go																																1.18	0.514453172684	0.0008749961853029999	0.367300033569	1.0	q	759.048067093																																	2015_Jul_02_1229	59.97895025850001	LearningTask	1	74	
173	200.0	s	-200.0																	1.0	0.0	1.0	0.0	12.0	1.0	49.0	2.0																													s	1.0	0.500864982605	None	0.0	2.0	trianglemagenta.gif	go																																1.83	0.51397395134	0.0009129047393799999	0.500864982605	1.0	s	762.051131964																																	2015_Jul_02_1229	59.97895025850001	LearningTask	1	74	
174	-200.0	q	200.0																	1.0	0.0	1.0	0.0	12.0	2.0	50.0	1.0																													q	1.0	0.584644079208	None	0.0	1.0	diamondgreen.gif	go																																0.0	0.514509916306	0.0009570121765139998	0.584644079208	1.0	q	765.054705143																																	2015_Jul_02_1229	59.97895025850001	LearningTask	1	74	
175	-200.0	a	-200.0																	1.0	0.0	1.0	0.0	12.0	3.0	51.0	3.0																													a	1.0	0.501087188721	None	0.0	0.5	squaregray.gif	go																																0.56	0.514065027237	0.00140285491943	0.501087188721	1.0	a	768.058532953																																	2015_Jul_02_1229	59.97895025850001	LearningTask	1	74	
176	200.0	w	200.0																	1.0	0.0	1.0	0.0	13.0	0.0	52.0	0.0																													w	1.0	0.683969020844	None	0.0	0.5	squaregray.gif	go																																0.29	0.513767957687	0.000934839248657	0.683969020844	1.0	w	771.061562061																																	2015_Jul_02_1229	59.97895025850001	LearningTask	1	74	
177	-200.0	a	-200.0																	1.0	0.0	1.0	0.0	13.0	1.0	53.0	3.0																													a	1.0	0.484093904495	None	0.0	4.0	lineyellow.gif	go																																3.96	0.514070987701	0.0009601116180419999	0.484093904495	1.0	a	774.064723015																																	2015_Jul_02_1229	59.97895025850001	LearningTask	1	74	
178	-200.0	q	200.0																	1.0	0.0	1.0	0.0	13.0	2.0	54.0	1.0																													q	1.0	0.534512042999	None	0.0	0.5	squaregray.gif	go																																0.0	0.514202833176	0.0008769035339360002	0.534512042999	1.0	q	777.067995071																																	2015_Jul_02_1229	59.97895025850001	LearningTask	1	74	
179	200.0	s	-200.0																	1.0	0.0	1.0	0.0	13.0	3.0	55.0	2.0																													s	1.0	0.5172190666200001	None	0.0	4.0	lineyellow.gif	go																																4.23	0.514415979385	0.0009360313415529999	0.51721906662	1.0	s	780.071263075																																	2015_Jul_02_1229	59.97895025850001	LearningTask	1	74	
180	-200.0	q	200.0																	1.0	0.0	1.0	0.0	14.0	0.0	56.0	1.0																													q	1.0	0.550728082657	None	0.0	1.0	invertedtriangleorange.gif	stop																																0.84	0.514771938324	0.00107097625732	0.550728082657	1.0	q	783.074717999																																	2015_Jul_02_1229	59.97895025850001	LearningTask	1	74	
181	-200.0	q	200.0																	1.0	0.0	1.0	0.0	14.0	1.0	57.0	1.0																													q	1.0	0.43427205085799997	None	0.0	0.5	hexagonblue.gif	stop																																0.0	0.514292955399	0.0008959770202639998	0.434272050858	1.0	q	786.078485966																																	2015_Jul_02_1229	59.97895025850001	LearningTask	1	74	
182	-200.0	q	200.0																	1.0	0.0	1.0	0.0	14.0	2.0	58.0	1.0																													q	1.0	0.733943939209	None	0.0	4.0	lineyellow.gif	go																																3.76	0.514343976974	0.0008759498596189999	0.733943939209	1.0	q	789.081314087																																	2015_Jul_02_1229	59.97895025850001	LearningTask	1	74	
183	200.0	w	200.0																	1.0	0.0	1.0	0.0	14.0	3.0	59.0	0.0																													w	1.0	0.734740018845	None	0.0	2.0	circlecyan.gif	stop																																2.02	0.5142161846159999	0.00110912322998	0.734740018845	1.0	w	792.084728003																																	2015_Jul_02_1229	59.97895025850001	LearningTask	1	74	
184	-200.0	q	200.0																	1.0	0.0	1.0	0.0	15.0	0.0	60.0	1.0																													q	1.0	0.334247112274	None	0.0	2.0	circlecyan.gif	stop								0.0768849849701																								0.0	0.514413118362	0.0008780956268310002	[]	0.0	None	795.088148117			2.01	0.515342950821	0.0009710788726810001	0.334247112274	1.0	q	798.091462135																								2015_Jul_02_1229	59.97895025850001	LearningTask	1	74	
185	200.0	s	-200.0																	1.0	0.0	1.0	0.0	15.0	1.0	61.0	2.0																													s	1.0	0.483970880508	None	0.0	1.0	diamondgreen.gif	go																																0.95	0.5144591331480001	0.00098705291748	0.483970880508	1.0	s	801.09486413																																	2015_Jul_02_1229	59.97895025850001	LearningTask	1	74	
186	-200.0	q	200.0																	1.0	0.0	1.0	0.0	15.0	2.0	62.0	1.0																													q	1.0	0.40082192420999996	None	0.0	2.0	trianglemagenta.gif	go																																1.87	0.514232158661	0.000900030136108	0.40082192421	1.0	q	804.0984089369999																																	2015_Jul_02_1229	59.97895025850001	LearningTask	1	74	
187	-200.0	q	200.0																	1.0	0.0	1.0	0.0	15.0	3.0	63.0	1.0																													q	1.0	0.451236009598	None	0.0	0.5	hexagonblue.gif	stop																																0.37	0.513963937759	0.000880002975464	0.451236009598	1.0	q	807.101848125																																	2015_Jul_02_1229	59.97895025850001	LearningTask	1	74	
188	200.0	s	-200.0																	1.0	0.0	1.0	0.0	16.0	0.0	64.0	2.0																													s	1.0	0.500810861588	None	0.0	1.0	invertedtriangleorange.gif	stop																																1.2	0.513879060745	0.0009100437164310001	0.500810861588	1.0	s	810.104851961																																	2015_Jul_02_1229	59.97895025850001	LearningTask	1	74	
189	200.0	w	200.0																	1.0	0.0	1.0	0.0	16.0	1.0	65.0	0.0																													w	1.0	0.584405899048	None	0.0	1.0	diamondgreen.gif	go																																0.0	0.514190912247	0.0009520053863530001	0.584405899048	1.0	w	813.108564138																																	2015_Jul_02_1229	59.97895025850001	LearningTask	1	74	
190	200.0	s	-200.0																	1.0	0.0	1.0	0.0	16.0	2.0	66.0	2.0																													s	1.0	0.500264883041	None	0.0	0.5	squaregray.gif	go																																0.54	0.5142760276789999	0.0008759498596189999	0.500264883041	1.0	s	816.1121549610001																																	2015_Jul_02_1229	59.97895025850001	LearningTask	1	74	
191	-200.0	q	200.0																	1.0	0.0	1.0	0.0	16.0	3.0	67.0	1.0																													q	1.0	0.518290042877	None	0.0	2.0	circlecyan.gif	stop																																2.24	0.513575077057	0.0009591579437260001	0.518290042877	1.0	q	819.1151599880001																																	2015_Jul_02_1229	59.97895025850001	LearningTask	1	74	
192	200.0	s	-200.0																	1.0	0.0	1.0	0.0	17.0	0.0	68.0	2.0																													s	1.0	0.4343791008	None	0.0	2.0	trianglemagenta.gif	go								0.159894227982																								0.0	0.514210939407	0.000881910324097	[]	0.0	None	822.1182610989999			2.14	0.5155839920040001	0.00095009803772	0.4343791008	1.0	s	825.1217210289999																								2015_Jul_02_1229	59.97895025850001	LearningTask	1	74	
193	-200.0	a	-200.0																	1.0	0.0	1.0	0.0	17.0	1.0	69.0	3.0																													a	1.0	0.400784015656	None	0.0	2.0	circlecyan.gif	stop																																0.0	0.514127969742	0.0009329319000239999	0.400784015656	1.0	a	828.124972105																																	2015_Jul_02_1229	59.97895025850001	LearningTask	1	74	
194	200.0	s	-200.0																	1.0	0.0	1.0	0.0	17.0	2.0	70.0	2.0																													s	1.0	0.584444999695	None	0.0	2.0	trianglemagenta.gif	go																																1.82	0.514409065247	0.0011990070342999999	0.584444999695	1.0	s	831.128859043																																	2015_Jul_02_1229	59.97895025850001	LearningTask	1	74	
195	200.0	s	-200.0																	1.0	0.0	1.0	0.0	17.0	3.0	71.0	2.0																													s	1.0	0.367528915405	None	0.0	1.0	diamondgreen.gif	go																																1.13	0.514032125473	0.0008740425109860002	0.367528915405	1.0	s	834.131801128																																	2015_Jul_02_1229	59.97895025850001	LearningTask	1	74	
196	200.0	w	200.0																	1.0	0.0	1.0	0.0	18.0	0.0	72.0	0.0																													w	1.0	0.43412899971	None	0.0	2.0	circlecyan.gif	stop																																2.19	0.5145180225370001	0.00088095664978	0.43412899971	1.0	w	837.1350779530001																																	2015_Jul_02_1229	59.97895025850001	LearningTask	1	74	
197	-200.0	a	-200.0																	1.0	0.0	1.0	0.0	18.0	1.0	73.0	3.0																													a	1.0	0.651823997498	None	0.0	2.0	trianglemagenta.gif	go																																1.78	0.5141041278840001	0.0009679794311519998	0.651823997498	1.0	a	840.138366938																																	2015_Jul_02_1229	59.97895025850001	LearningTask	1	74	
198	-200.0	a	-200.0																	1.0	0.0	1.0	0.0	18.0	2.0	74.0	3.0																													a	1.0	0.467964887619	None	0.0	1.0	invertedtriangleorange.gif	stop																																0.83	0.514389038086	0.0008769035339360002	0.467964887619	1.0	a	843.1418809889999																																	2015_Jul_02_1229	59.97895025850001	LearningTask	1	74	
199	-200.0	q	200.0																	1.0	0.0	1.0	0.0	18.0	3.0	75.0	1.0																													q	1.0	0.534293174744	None	0.0	4.0	crosswhite.gif	stop																																4.2	0.514211893082	0.00088906288147	0.534293174744	1.0	q	846.145396948																																	2015_Jul_02_1229	59.97895025850001	LearningTask	1	74	
200	-200.0	a	-200.0																	1.0	0.0	1.0	0.0	19.0	0.0	76.0	3.0																													a	1.0	0.45067119598399996	None	0.0	0.5	hexagonblue.gif	stop																																0.5	0.513994932175	0.0009319782257080001	0.450671195984	1.0	a	849.148544073																																	2015_Jul_02_1229	59.97895025850001	LearningTask	1	74	
201	200.0	w	200.0																	1.0	0.0	1.0	0.0	19.0	1.0	77.0	0.0																													w	1.0	0.45084786415100003	None	0.0	2.0	trianglemagenta.gif	go																																0.0	0.514238834381	0.0011448860168499998	0.450847864151	1.0	w	852.151958942																																	2015_Jul_02_1229	59.97895025850001	LearningTask	1	74	
202	-200.0	q	200.0																	1.0	0.0	1.0	0.0	19.0	2.0	78.0	1.0																													q	1.0	0.517652988434	None	0.0	0.5	squaregray.gif	go																																0.26	0.514317035675	0.000869035720825	0.517652988434	1.0	q	855.1553051469999																																	2015_Jul_02_1229	59.97895025850001	LearningTask	1	74	
203	-200.0	a	-200.0																	1.0	0.0	1.0	0.0	19.0	3.0	79.0	3.0																													a	1.0	0.451096057892	None	0.0	1.0	diamondgreen.gif	go																																1.2	0.5138700008389999	0.00098991394043	0.451096057892	1.0	a	858.158507109																																	2015_Jul_02_1229	59.97895025850001	LearningTask	1	74	
204	-200.0	q	200.0																	1.0	0.0	1.0	0.0	20.0	0.0	80.0	1.0																													q	1.0	0.384636878967	None	0.0	0.5	hexagonblue.gif	stop																																0.74	0.514352083206	0.0009469985961910001	0.384636878967	1.0	q	861.1620149610001																																	2015_Jul_02_1229	59.97895025850001	LearningTask	1	74	
205	-200.0	a	-200.0																	1.0	0.0	1.0	0.0	20.0	1.0	81.0	3.0																													a	1.0	0.417625188828	None	0.0	4.0	crosswhite.gif	stop																																0.0	0.514330148697	0.000880002975464	0.417625188828	1.0	a	864.16607213																																	2015_Jul_02_1229	59.97895025850001	LearningTask	1	74	
206	200.0	s	-200.0																	1.0	0.0	1.0	0.0	20.0	2.0	82.0	2.0																													s	1.0	0.5181570053100001	None	0.0	1.0	diamondgreen.gif	go																																1.23	0.513359069824	0.0009369850158689999	0.51815700531	1.0	s	867.168921947																																	2015_Jul_02_1229	59.97895025850001	LearningTask	1	74	
207	200.0	w	200.0																	1.0	0.0	1.0	0.0	20.0	3.0	83.0	0.0																													w	1.0	0.60072684288	None	0.0	0.5	hexagonblue.gif	stop																																0.52	0.514182090759	0.00088095664978	0.60072684288	1.0	w	870.171931028																																	2015_Jul_02_1229	59.97895025850001	LearningTask	1	74	
208	-200.0	a	-200.0																	1.0	0.0	1.0	0.0	21.0	0.0	84.0	3.0																													a	1.0	0.5176551342010001	None	0.0	0.5	hexagonblue.gif	stop																																0.0	0.5146160125729999	0.00115203857422	0.517655134201	1.0	a	873.175380945																																	2015_Jul_02_1229	59.97895025850001	LearningTask	1	74	
209	-200.0	q	200.0																	1.0	0.0	1.0	0.0	21.0	1.0	85.0	1.0																													q	1.0	0.617792844772	None	0.0	0.5	squaregray.gif	go																																0.59	0.514118909836	0.000931024551392	0.617792844772	1.0	q	876.1787540910001																																	2015_Jul_02_1229	59.97895025850001	LearningTask	1	74	
210	-200.0	q	200.0																	1.0	0.0	1.0	0.0	21.0	2.0	86.0	1.0																													q	1.0	0.40089392662	None	0.0	0.5	squaregray.gif	go																																0.67	0.514204978943	0.000997066497803	0.40089392662	1.0	q	879.182152987																																	2015_Jul_02_1229	59.97895025850001	LearningTask	1	74	
211	200.0	s	-200.0																	1.0	0.0	1.0	0.0	21.0	3.0	87.0	2.0																													s	1.0	0.484497070312	None	0.0	0.5	hexagonblue.gif	stop																																0.0	0.514286994934	0.0009059906005860001	0.484497070312	1.0	s	882.1858689789999																																	2015_Jul_02_1229	59.97895025850001	LearningTask	1	74	
212	200.0	w	200.0																	1.0	0.0	1.0	0.0	22.0	0.0	88.0	0.0																													w	1.0	0.384496927261	None	0.0	2.0	circlecyan.gif	stop																																0.0	0.51353597641	0.000882863998413	0.384496927261	1.0	w	885.188750029																																	2015_Jul_02_1229	59.97895025850001	LearningTask	1	74	
213	200.0	s	-200.0																	1.0	0.0	1.0	0.0	22.0	1.0	89.0	2.0																													s	1.0	0.467731952667	None	0.0	1.0	invertedtriangleorange.gif	stop																																0.8	0.514117956161	0.00106310844421	0.467731952667	1.0	s	888.19205308																																	2015_Jul_02_1229	59.97895025850001	LearningTask	1	74	
214	200.0	s	-200.0																	1.0	0.0	1.0	0.0	22.0	2.0	90.0	2.0																													s	1.0	0.417541027069	None	0.0	4.0	lineyellow.gif	go																																0.0	0.514476060867	0.00141787528992	0.417541027069	1.0	s	891.1956679819999																																	2015_Jul_02_1229	59.97895025850001	LearningTask	1	74	
215	200.0	s	-200.0																	1.0	0.0	1.0	0.0	22.0	3.0	91.0	2.0																													s	1.0	0.38424205780000004	None	0.0	4.0	crosswhite.gif	stop																																4.12	0.514168977737	0.000882863998413	0.3842420578	1.0	s	894.198990107																																	2015_Jul_02_1229	59.97895025850001	LearningTask	1	74	
216	-200.0	q	200.0																	1.0	0.0	1.0	0.0	23.0	0.0	92.0	1.0																													q	1.0	0.6842250823970001	None	0.0	4.0	lineyellow.gif	go																																3.92	0.51446890831	0.0009119510650630002	0.684225082397	1.0	q	897.2023830410001																																	2015_Jul_02_1229	59.97895025850001	LearningTask	1	74	
217	200.0	w	200.0																	1.0	0.0	1.0	0.0	23.0	1.0	93.0	0.0																													w	1.0	0.567806005478	None	0.0	2.0	circlecyan.gif	stop																																2.1	0.514292001724	0.0008749961853029999	0.567806005478	1.0	w	900.205482006																																	2015_Jul_02_1229	59.97895025850001	LearningTask	1	74	
218	200.0	s	-200.0																	1.0	0.0	1.0	0.0	23.0	2.0	94.0	2.0																													s	1.0	0.467936992645	None	0.0	4.0	lineyellow.gif	go																																0.0	0.51424908638	0.000993967056274	0.467936992645	1.0	s	903.209155083																																	2015_Jul_02_1229	59.97895025850001	LearningTask	1	74	
219	200.0	s	-200.0																	1.0	0.0	1.0	0.0	23.0	3.0	95.0	2.0																													s	1.0	0.434062957764	None	0.0	0.5	hexagonblue.gif	stop																																0.38	0.513982057571	0.0009560585021970001	0.434062957764	1.0	s	906.212201118																																	2015_Jul_02_1229	59.97895025850001	LearningTask	1	74	
220	-200.0	a	-200.0																	1.0	0.0	1.0	0.0	24.0	0.0	96.0	3.0																													a	1.0	0.5343098640439999	None	0.0	2.0	trianglemagenta.gif	go																																2.23	0.514630079269	0.0008749961853029999	0.534309864044	1.0	a	909.215815067																																	2015_Jul_02_1229	59.97895025850001	LearningTask	1	74	
221	-200.0	a	-200.0																	1.0	0.0	1.0	0.0	24.0	1.0	97.0	3.0																													a	1.0	0.484041213989	None	0.0	0.5	squaregray.gif	go																																0.62	0.514341831207	0.0008718967437739999	0.484041213989	1.0	a	912.21934104																																	2015_Jul_02_1229	59.97895025850001	LearningTask	1	74	
222	200.0	w	200.0																	1.0	0.0	1.0	0.0	24.0	2.0	98.0	0.0																													w	1.0	0.651376962662	None	0.0	2.0	circlecyan.gif	stop																																0.0	0.514270067215	0.000930070877075	0.383396863937	0.0	s	915.2225201130001			0.0	0.515267848969	0.0009489059448239998	0.651376962662	1.0	w	918.225631952																								2015_Jul_02_1229	59.97895025850001	LearningTask	1	74	
223	200.0	w	200.0																	1.0	0.0	1.0	0.0	24.0	3.0	99.0	0.0																													w	1.0	0.517763853073	None	0.0	4.0	lineyellow.gif	go																																4.24	0.514366865158	0.0008740425109860002	0.517763853073	1.0	w	921.228972912																																	2015_Jul_02_1229	59.97895025850001	LearningTask	1	74	
224																				1.0	0.0	1.0	0.0																																																																															9.0	81.4750919342																															2015_Jul_02_1229	59.97895025850001	LearningTask	1	74	
225	-200.0	q	200.0																	2.0	0.0	2.0	0.0	0.0	0.0	0.0	1.0																													q	1.0	0.400764942169	None	0.0	4.0	crosswhite.gif	stop																																4.19	0.509938001633	0.00086784362793	0.400764942169	1.0	q	1006.34116411																																	2015_Jul_02_1229	59.97895025850001	LearningTask	1	74	
226	-200.0	a	-200.0																	2.0	0.0	2.0	0.0	0.0	1.0	1.0	3.0																													a	1.0	0.451199054718	None	0.0	4.0	lineyellow.gif	go																																4.12	0.51393699646	0.00096607208252	0.451199054718	1.0	a	1009.34396195																																	2015_Jul_02_1229	59.97895025850001	LearningTask	1	74	
227	-200.0	a	-200.0																	2.0	0.0	2.0	0.0	0.0	2.0	2.0	3.0																													a	1.0	0.401181936264	None	0.0	2.0	trianglemagenta.gif	go																																1.85	0.514573097229	0.0008840560913089999	0.401181936264	1.0	a	1012.34730697																																	2015_Jul_02_1229	59.97895025850001	LearningTask	1	74	
228	200.0	s	-200.0																	2.0	0.0	2.0	0.0	0.0	3.0	3.0	2.0																													s	1.0	0.534307003021	None	0.0	0.5	hexagonblue.gif	stop																																0.64	0.5143430233	0.0009181499481200001	0.534307003021	1.0	s	1015.35090303																																	2015_Jul_02_1229	59.97895025850001	LearningTask	1	74	
229	200.0	w	200.0																	2.0	0.0	2.0	0.0	1.0	0.0	4.0	0.0																													w	1.0	0.383940935135	None	0.0	1.0	diamondgreen.gif	go																																0.99	0.5144460201259999	0.00104093551636	0.383940935135	1.0	w	1018.35429001																																	2015_Jul_02_1229	59.97895025850001	LearningTask	1	74	
230	-200.0	a	-200.0																	2.0	0.0	2.0	0.0	1.0	1.0	5.0	3.0																													a	1.0	0.384635210037	None	0.0	0.5	hexagonblue.gif	stop																																0.27	0.5141258239750001	0.0008938312530519999	0.384635210037	1.0	a	1021.35751414																																	2015_Jul_02_1229	59.97895025850001	LearningTask	1	74	
231	-200.0	a	-200.0																	2.0	0.0	2.0	0.0	1.0	2.0	6.0	3.0																													a	1.0	0.517664909363	None	0.0	1.0	diamondgreen.gif	go																																0.0	0.514361858368	0.000890016555786	0.517664909363	1.0	a	1024.36072111																																	2015_Jul_02_1229	59.97895025850001	LearningTask	1	74	
232	-200.0	q	200.0																	2.0	0.0	2.0	0.0	1.0	3.0	7.0	1.0																													q	1.0	0.384756088257	None	0.0	1.0	diamondgreen.gif	go																																0.0	0.514248132706	0.0009329319000239999	0.384756088257	1.0	q	1027.36410499																																	2015_Jul_02_1229	59.97895025850001	LearningTask	1	74	
233	-200.0	q	200.0																	2.0	0.0	2.0	0.0	2.0	0.0	8.0	1.0																													q	1.0	0.36795783042900004	None	0.0	4.0	crosswhite.gif	stop																																4.08	0.514070034027	0.0009059906005860001	0.367957830429	1.0	q	1030.36752105																																	2015_Jul_02_1229	59.97895025850001	LearningTask	1	74	
234	200.0	s	-200.0																	2.0	0.0	2.0	0.0	2.0	1.0	9.0	2.0																													s	1.0	0.41765308380099997	None	0.0	0.5	hexagonblue.gif	stop																																0.43	0.514667034149	0.0008780956268310002	0.417653083801	1.0	s	1033.37107897																																	2015_Jul_02_1229	59.97895025850001	LearningTask	1	74	
235	-200.0	q	200.0																	2.0	0.0	2.0	0.0	2.0	2.0	10.0	1.0																													q	1.0	0.35059189796400003	None	0.0	2.0	trianglemagenta.gif	go																																1.85	0.514391183853	0.0008862018585209999	0.350591897964	1.0	q	1036.3743031																																	2015_Jul_02_1229	59.97895025850001	LearningTask	1	74	
236	200.0	s	-200.0																	2.0	0.0	2.0	0.0	2.0	3.0	11.0	2.0																													s	1.0	0.40097594261200004	None	0.0	0.5	hexagonblue.gif	stop																																0.0	0.514235973358	0.0008728504180910001	0.400975942612	1.0	s	1039.37766314																																	2015_Jul_02_1229	59.97895025850001	LearningTask	1	74	
237	-200.0	a	-200.0																	2.0	0.0	2.0	0.0	3.0	0.0	12.0	3.0																													a	1.0	0.40109086036700003	None	0.0	0.5	squaregray.gif	go																																0.4	0.5142381191250001	0.000931024551392	0.401090860367	1.0	a	1042.38114309																																	2015_Jul_02_1229	59.97895025850001	LearningTask	1	74	
238	-200.0	a	-200.0																	2.0	0.0	2.0	0.0	3.0	1.0	13.0	3.0																													a	1.0	0.467370986938	None	0.0	2.0	trianglemagenta.gif	go																																0.0	0.5139260292050001	0.0008981227874760001	0.467370986938	1.0	a	1045.38439298																																	2015_Jul_02_1229	59.97895025850001	LearningTask	1	74	
239	-200.0	q	200.0																	2.0	0.0	2.0	0.0	3.0	2.0	14.0	1.0																													q	1.0	0.501086950302	None	0.0	2.0	trianglemagenta.gif	go																																1.91	0.514591217041	0.0008740425109860002	0.501086950302	1.0	q	1048.38780403																																	2015_Jul_02_1229	59.97895025850001	LearningTask	1	74	
240	200.0	w	200.0																	2.0	0.0	2.0	0.0	3.0	3.0	15.0	0.0																													w	1.0	0.801393985748	None	0.0	0.5	hexagonblue.gif	stop																																0.25	0.514255046844	0.00087308883667	0.801393985748	1.0	w	1051.39142203																																	2015_Jul_02_1229	59.97895025850001	LearningTask	1	74	
241	-200.0	a	-200.0																	2.0	0.0	2.0	0.0	4.0	0.0	16.0	3.0																													a	1.0	0.41724681854199996	None	0.0	4.0	lineyellow.gif	go																																0.0	0.514048814774	0.0008838176727290001	0.417246818542	1.0	a	1054.39438796																																	2015_Jul_02_1229	59.97895025850001	LearningTask	1	74	
242	200.0	s	-200.0																	2.0	0.0	2.0	0.0	4.0	1.0	17.0	2.0																													s	1.0	0.434089899063	None	0.0	4.0	lineyellow.gif	go																																4.06	0.514419078827	0.0011959075927700001	0.434089899063	1.0	s	1057.39776611																																	2015_Jul_02_1229	59.97895025850001	LearningTask	1	74	
243	-200.0	a	-200.0																	2.0	0.0	2.0	0.0	4.0	2.0	18.0	3.0																													a	1.0	0.41749501228299996	None	0.0	0.5	squaregray.gif	go																																0.51	0.514308929443	0.000873804092407	0.417495012283	1.0	a	1060.40109301																																	2015_Jul_02_1229	59.97895025850001	LearningTask	1	74	
244	-200.0	a	-200.0																	2.0	0.0	2.0	0.0	4.0	3.0	19.0	3.0																													a	1.0	0.434395074844	None	0.0	4.0	lineyellow.gif	go																																3.76	0.514558076859	0.000866174697876	0.434395074844	1.0	a	1063.40452504																																	2015_Jul_02_1229	59.97895025850001	LearningTask	1	74	
245	-200.0	a	-200.0																	2.0	0.0	2.0	0.0	5.0	0.0	20.0	3.0																													a	1.0	0.417313814163	None	0.0	1.0	diamondgreen.gif	go																																0.95	0.514097929001	0.0009560585021970001	0.417313814163	1.0	a	1066.40816212																																	2015_Jul_02_1229	59.97895025850001	LearningTask	1	74	
246	200.0	s	-200.0																	2.0	0.0	2.0	0.0	5.0	1.0	21.0	2.0																													s	1.0	0.40107011795	None	0.0	4.0	crosswhite.gif	stop																																3.77	0.513879060745	0.0008940696716310001	0.40107011795	1.0	s	1069.41119003																																	2015_Jul_02_1229	59.97895025850001	LearningTask	1	74	
247	200.0	w	200.0																	2.0	0.0	2.0	0.0	5.0	2.0	22.0	0.0																													w	1.0	0.48441910743699995	None	0.0	2.0	circlecyan.gif	stop																																1.87	0.5142819881440001	0.0008728504180910001	0.484419107437	1.0	w	1072.4145081																																	2015_Jul_02_1229	59.97895025850001	LearningTask	1	74	
248	200.0	s	-200.0																	2.0	0.0	2.0	0.0	5.0	3.0	23.0	2.0																													s	1.0	0.484616041183	None	0.0	1.0	invertedtriangleorange.gif	stop																																0.92	0.514138936996	0.0009760856628420001	0.484616041183	1.0	s	1075.41778612																																	2015_Jul_02_1229	59.97895025850001	LearningTask	1	74	
249	200.0	w	200.0																	2.0	0.0	2.0	0.0	6.0	0.0	24.0	0.0																													w	1.0	0.534338951111	None	0.0	0.5	hexagonblue.gif	stop																																0.0	0.5144450664519999	0.00088095664978	0.534338951111	1.0	w	1078.42129993																																	2015_Jul_02_1229	59.97895025850001	LearningTask	1	74	
250	200.0	w	200.0																	2.0	0.0	2.0	0.0	6.0	1.0	25.0	0.0																													w	1.0	0.584070920944	None	0.0	1.0	invertedtriangleorange.gif	stop																																1.03	0.5145008564	0.0009109973907470001	0.584070920944	1.0	w	1081.42468905																																	2015_Jul_02_1229	59.97895025850001	LearningTask	1	74	
251	200.0	w	200.0																	2.0	0.0	2.0	0.0	6.0	2.0	26.0	0.0																													w	1.0	0.534557104111	None	0.0	4.0	crosswhite.gif	stop																																4.14	0.5138010978700001	0.000913143157959	0.534557104111	1.0	w	1084.42799997																																	2015_Jul_02_1229	59.97895025850001	LearningTask	1	74	
252	-200.0	q	200.0																	2.0	0.0	2.0	0.0	6.0	3.0	27.0	1.0																													q	1.0	0.45173907280000003	None	0.0	4.0	crosswhite.gif	stop																																0.0	0.5140960216520001	0.0008749961853029999	0.4517390728	1.0	q	1087.431247																																	2015_Jul_02_1229	59.97895025850001	LearningTask	1	74	
253	-200.0	q	200.0																	2.0	0.0	2.0	0.0	7.0	0.0	28.0	1.0																													q	1.0	0.56783914566	None	0.0	2.0	trianglemagenta.gif	go																																1.99	0.514362096786	0.000880002975464	0.56783914566	1.0	q	1090.43487191																																	2015_Jul_02_1229	59.97895025850001	LearningTask	1	74	
254	200.0	w	200.0																	2.0	0.0	2.0	0.0	7.0	1.0	29.0	0.0																													w	1.0	0.333977937698	None	0.0	2.0	trianglemagenta.gif	go																																1.95	0.514149188995	0.0009031295776369999	0.333977937698	1.0	w	1093.43800092																																	2015_Jul_02_1229	59.97895025850001	LearningTask	1	74	
255	200.0	s	-200.0																	2.0	0.0	2.0	0.0	7.0	2.0	30.0	2.0																													s	1.0	0.433621883392	None	0.0	1.0	invertedtriangleorange.gif	stop																																0.84	0.514649152756	0.00088095664978	0.433621883392	1.0	s	1096.44162798																																	2015_Jul_02_1229	59.97895025850001	LearningTask	1	74	
256	200.0	s	-200.0																	2.0	0.0	2.0	0.0	7.0	3.0	31.0	2.0																													s	1.0	0.434083223343	None	0.0	4.0	crosswhite.gif	stop																																4.13	0.514338970184	0.0008790493011469999	0.434083223343	1.0	s	1099.44506311																																	2015_Jul_02_1229	59.97895025850001	LearningTask	1	74	
257	-200.0	q	200.0																	2.0	0.0	2.0	0.0	8.0	0.0	32.0	1.0																													q	1.0	0.450819969177	None	0.0	2.0	circlecyan.gif	stop																																2.23	0.5140080451969999	0.0008821487426760002	0.450819969177	1.0	q	1102.44791198																																	2015_Jul_02_1229	59.97895025850001	LearningTask	1	74	
258	200.0	s	-200.0																	2.0	0.0	2.0	0.0	8.0	1.0	33.0	2.0																													s	1.0	0.40096783638000005	None	0.0	1.0	diamondgreen.gif	go																																1.05	0.514582872391	0.0008749961853029999	0.40096783638	1.0	s	1105.45133114																																	2015_Jul_02_1229	59.97895025850001	LearningTask	1	74	
259	200.0	s	-200.0																	2.0	0.0	2.0	0.0	8.0	2.0	34.0	2.0																													s	1.0	0.501327037811	None	0.0	2.0	circlecyan.gif	stop																																1.89	0.514404058456	0.0009059906005860001	0.501327037811	1.0	s	1108.45482612																																	2015_Jul_02_1229	59.97895025850001	LearningTask	1	74	
260	-200.0	a	-200.0																	2.0	0.0	2.0	0.0	8.0	3.0	35.0	3.0																													a	1.0	0.567450761795	None	0.0	1.0	diamondgreen.gif	go																																0.83	0.514649152756	0.000900030136108	0.567450761795	1.0	a	1111.45803809																																	2015_Jul_02_1229	59.97895025850001	LearningTask	1	74	
261	200.0	w	200.0																	2.0	0.0	2.0	0.0	9.0	0.0	36.0	0.0																													w	1.0	0.48405408859300003	None	0.0	4.0	crosswhite.gif	stop																																3.98	0.5147850513459999	0.00110602378845	0.484054088593	1.0	w	1114.46171403																																	2015_Jul_02_1229	59.97895025850001	LearningTask	1	74	
262	200.0	w	200.0																	2.0	0.0	2.0	0.0	9.0	1.0	37.0	0.0																													w	1.0	0.500921010971	None	0.0	4.0	lineyellow.gif	go																																0.0	0.514110088348	0.0008821487426760002	0.500921010971	1.0	w	1117.46500707																																	2015_Jul_02_1229	59.97895025850001	LearningTask	1	74	
263	200.0	s	-200.0																	2.0	0.0	2.0	0.0	9.0	2.0	38.0	2.0																													s	1.0	0.434946060181	None	0.0	0.5	hexagonblue.gif	stop																																0.41	0.5142381191250001	0.0009210109710689999	0.434946060181	1.0	s	1120.46826506																																	2015_Jul_02_1229	59.97895025850001	LearningTask	1	74	
264	200.0	w	200.0																	2.0	0.0	2.0	0.0	9.0	3.0	39.0	0.0																													w	1.0	0.53432393074	None	0.0	0.5	hexagonblue.gif	stop																																0.52	0.514203071594	0.00101613998413	0.53432393074	1.0	w	1123.47139812																																	2015_Jul_02_1229	59.97895025850001	LearningTask	1	74	
265	-200.0	q	200.0																	2.0	0.0	2.0	0.0	10.0	0.0	40.0	1.0																													q	1.0	0.784565210342	None	0.0	0.5	squaregray.gif	go																																0.0	0.514649868011	0.000977039337158	0.784565210342	1.0	q	1126.47517705																																	2015_Jul_02_1229	59.97895025850001	LearningTask	1	74	
266	-200.0	a	-200.0																	2.0	0.0	2.0	0.0	10.0	1.0	41.0	3.0																													a	1.0	0.417419195175	None	0.0	2.0	trianglemagenta.gif	go																																0.0	0.514101028442	0.000887155532837	0.417419195175	1.0	a	1129.4786191																																	2015_Jul_02_1229	59.97895025850001	LearningTask	1	74	
267	-200.0	a	-200.0																	2.0	0.0	2.0	0.0	10.0	2.0	42.0	3.0																													a	1.0	0.451002836227	None	0.0	4.0	crosswhite.gif	stop																																4.18	0.513579130173	0.000968933105469	0.451002836227	1.0	a	1132.48169303																																	2015_Jul_02_1229	59.97895025850001	LearningTask	1	74	
268	-200.0	q	200.0																	2.0	0.0	2.0	0.0	10.0	3.0	43.0	1.0																													q	1.0	0.38462686538699997	None	0.0	2.0	circlecyan.gif	stop																																1.89	0.514094114304	0.0008831024169919999	0.384626865387	1.0	q	1135.48488712																																	2015_Jul_02_1229	59.97895025850001	LearningTask	1	74	
269	-200.0	a	-200.0																	2.0	0.0	2.0	0.0	11.0	0.0	44.0	3.0																													a	1.0	0.451261997223	None	0.0	0.5	squaregray.gif	go																																0.29	0.514307022095	0.00087308883667	0.451261997223	1.0	a	1138.48899007																																	2015_Jul_02_1229	59.97895025850001	LearningTask	1	74	
270	-200.0	q	200.0																	2.0	0.0	2.0	0.0	11.0	1.0	45.0	1.0																													q	1.0	0.400797128677	None	0.0	1.0	invertedtriangleorange.gif	stop																																0.78	0.513618946075	0.000880002975464	0.400797128677	1.0	q	1141.49177194																																	2015_Jul_02_1229	59.97895025850001	LearningTask	1	74	
271	200.0	w	200.0																	2.0	0.0	2.0	0.0	11.0	2.0	46.0	0.0																													w	1.0	0.4847810268399999	None	0.0	2.0	trianglemagenta.gif	go																																0.0	0.5143709182739999	0.0009250640869139999	0.48478102684	1.0	w	1144.49494195																																	2015_Jul_02_1229	59.97895025850001	LearningTask	1	74	
272	-200.0	q	200.0																	2.0	0.0	2.0	0.0	11.0	3.0	47.0	1.0																													q	1.0	0.451195955276	None	0.0	0.5	hexagonblue.gif	stop																																0.0	0.5143430233	0.0009582042694089999	0.451195955276	1.0	q	1147.49877																																	2015_Jul_02_1229	59.97895025850001	LearningTask	1	74	
273	200.0	w	200.0																	2.0	0.0	2.0	0.0	12.0	0.0	48.0	0.0																													w	1.0	0.46743798255900004	None	0.0	4.0	lineyellow.gif	go																																3.97	0.5139420032500001	0.0008940696716310001	0.467437982559	1.0	w	1150.50179601																																	2015_Jul_02_1229	59.97895025850001	LearningTask	1	74	
274	200.0	s	-200.0																	2.0	0.0	2.0	0.0	12.0	1.0	49.0	2.0																													s	1.0	0.434433221817	None	0.0	1.0	invertedtriangleorange.gif	stop																																0.8	0.514147996902	0.0009210109710689999	0.434433221817	1.0	s	1153.50496793																																	2015_Jul_02_1229	59.97895025850001	LearningTask	1	74	
275	200.0	w	200.0																	2.0	0.0	2.0	0.0	12.0	2.0	50.0	0.0																													w	1.0	0.73469209671	None	0.0	2.0	circlecyan.gif	stop																																1.89	0.514740943909	0.0008859634399410001	0.73469209671	1.0	w	1156.50866413																																	2015_Jul_02_1229	59.97895025850001	LearningTask	1	74	
276	200.0	w	200.0																	2.0	0.0	2.0	0.0	12.0	3.0	51.0	0.0																													w	1.0	0.851625919342	None	0.0	4.0	crosswhite.gif	stop																																0.0	0.5141468048100001	0.000881910324097	0.851625919342	1.0	w	1159.51200414																																	2015_Jul_02_1229	59.97895025850001	LearningTask	1	74	
277	200.0	s	-200.0																	2.0	0.0	2.0	0.0	13.0	0.0	52.0	2.0																													s	1.0	0.467490911484	None	0.0	1.0	invertedtriangleorange.gif	stop																																0.78	0.514399051666	0.000963926315308	0.467490911484	1.0	s	1162.51543093																																	2015_Jul_02_1229	59.97895025850001	LearningTask	1	74	
278	-200.0	a	-200.0																	2.0	0.0	2.0	0.0	13.0	1.0	53.0	3.0																													a	1.0	0.434279918671	None	0.0	0.5	squaregray.gif	go																																0.46	0.51414513588	0.000869989395142	0.434279918671	1.0	a	1165.51855302																																	2015_Jul_02_1229	59.97895025850001	LearningTask	1	74	
279	-200.0	q	200.0																	2.0	0.0	2.0	0.0	13.0	2.0	54.0	1.0																													q	1.0	0.40099310874899996	None	0.0	0.5	squaregray.gif	go																																0.31	0.514211177826	0.00109815597534	0.400993108749	1.0	q	1168.52179694																																	2015_Jul_02_1229	59.97895025850001	LearningTask	1	74	
280	200.0	w	200.0																	2.0	0.0	2.0	0.0	13.0	3.0	55.0	0.0																													w	1.0	0.60115814209	None	0.0	0.5	squaregray.gif	go																																0.71	0.5140888690950001	0.0009210109710689999	0.60115814209	1.0	w	1171.52519107																																	2015_Jul_02_1229	59.97895025850001	LearningTask	1	74	
281	200.0	s	-200.0																	2.0	0.0	2.0	0.0	14.0	0.0	56.0	2.0																													s	1.0	0.36742591857900003	None	0.0	4.0	crosswhite.gif	stop																																3.9	0.514399051666	0.0008840560913089999	0.367425918579	1.0	s	1174.52849507																																	2015_Jul_02_1229	59.97895025850001	LearningTask	1	74	
282	-200.0	a	-200.0																	2.0	0.0	2.0	0.0	14.0	1.0	57.0	3.0																													a	1.0	0.38476109504699996	None	0.0	1.0	diamondgreen.gif	go																																0.0	0.514267921448	0.000881910324097	0.384761095047	1.0	a	1177.53213406																																	2015_Jul_02_1229	59.97895025850001	LearningTask	1	74	
