	xPos	corrAns	yPos	corrGoResp	yPosGoStim	xPosGoStim	pracTrials.thisRepN	pracTrials.thisTrialN	pracTrials.thisN	pracTrials.thisIndex	ReDoLoopPrac.thisRepN	ReDoLoopPrac.thisTrialN	ReDoLoopPrac.thisN	ReDoLoopPrac.thisIndex	ReDoLoopPrac.thisTrial	pracStopTrials.thisRepN	pracStopTrials.thisTrialN	pracStopTrials.thisN	pracStopTrials.thisIndex	Blocks.thisRepN	Blocks.thisTrialN	Blocks.thisN	Blocks.thisIndex	trials.thisRepN	trials.thisTrialN	trials.thisN	trials.thisIndex	ReDoLoopMain.thisRepN	ReDoLoopMain.thisTrialN	ReDoLoopMain.thisN	ReDoLoopMain.thisIndex	ReDoLoopMain.thisTrial	StopBlocks.thisRepN	StopBlocks.thisTrialN	StopBlocks.thisN	StopBlocks.thisIndex	StopTrials.thisRepN	StopTrials.thisTrialN	StopTrials.thisN	StopTrials.thisIndex	auctionBlocks.thisRepN	auctionBlocks.thisTrialN	auctionBlocks.thisN	auctionBlocks.thisIndex	auctionTrials.thisRepN	auctionTrials.thisTrialN	auctionTrials.thisN	auctionTrials.thisIndex	learningTrialList	learningPracTrialList	stopTrialList	stopPracTrialList	auctionTrialList	ok1.keys	ok1.rt	resp.keys	resp.corr	feedbackResp.keys	feedbackResp.corr	feedbackResp.rt	currentReward	currentStimulus	currentStimType	firstPracComputedRewardOutput	firstPracLearningStimOnset	firstPracLearningFixOnset	firstPracPresentationRT	firstPracPresentationAcc	firstPracPresentationResp	firstPracEndTrialTimeStamp	secondPracComputedRewardOutput	secondPracLearningStimOnset	secondPracLearningFixOnset	secondPracPresentationRT	secondPracPresentationAcc	secondPracPresentationResp	secondPracEndTrialTimeStamp	resp.rt	thirdPracComputedRewardOutput	thirdPracLearningStimOnset	thirdPracLearningFixOnset	thirdPracPresentationRT	thirdPracPresentationAcc	thirdPracPresentationResp	thirdPracEndTrialTimeStamp	StartTrialTimeStamp	trialType	goStim	stimType	stopStimValue	goResp.keys	goResp.corr	goResp.rt	key_resp_9.keys	key_resp_9.corr	fixStopOnset	goStimOnset	EndTrialTimeStamp	stopSignalOnset	key_resp_3.keys	key_resp_3.rt	firstComputedRewardOutput	firstLearningStimOnset	firstLearningFixOnset	firstPresentationRT	firstPresentationAcc	firstPresentationResp	firstEndTrialTimeStamp	secondComputedRewardOutput	secondLearningStimOnset	secondLearningFixOnset	secondPresentationRT	secondPresentationAcc	secondPresentationResp	secondEndTrialTimeStamp	key_resp_7.keys	key_resp_7.rt	beginningSSD	EndingSSD	key_resp_9.rt	key_resp_4.keys	key_resp_4.rt	auctionResponse.keys	auctionResponse.rt	auctionStimDuration	auctionStim	auctionAmounts	auctionStimValue	auctionCondition	chosenAuctionAmount	key_resp_5.keys	key_resp_5.rt	shuffledRewardList	chosenReward1	chosenReward2	chosenReward3	chosenReward4	chosenReward5	key_resp_6.keys	key_resp_6.rt	date	frameRate	expName	session	participant	Unnamed: 145
0																																																	[]	[]	[]	[]	[]	9.0	46.548544883699996																																																																																						2015_Jun_24_1444	59.9035671031	LearningTask	1	39	
1	200.0	s	-200.0				0.0	0.0	0.0	2.0																																														s	1.0	None	0.0	0.327845096588	2.0	squareblue.gif	go	0.0	0.507636070251	0.037976980209400005	[]	0.0	None	66.1947731972	0.0	0.5155830383300001	0.0011758804321300002	[]	0.0	None	69.1979060173	0.451472043991	1.88	0.515788078308	0.0009720325469970001	0.451472043991	1.0	s	72.2013070583																																																								2015_Jun_24_1444	59.9035671031	LearningTask	1	39	
2	200.0	s	-200.0				0.0	1.0	1.0	6.0																																														s	1.0	None	0.0		4.0	diamondwhite.gif	stop	4.09	0.514952898026	0.010947942733799999	0.618135929108	1.0	s	75.2044110298								0.618135929108																																																															2015_Jun_24_1444	59.9035671031	LearningTask	1	39	
3	-200.0	q	200.0				0.0	2.0	2.0	9.0																																														q	1.0	None	0.0		4.0	diamondwhite.gif	stop	3.83	0.5151720047	0.0009031295776369999	0.618235111237	1.0	q	78.20768117899999								0.618235111237																																																															2015_Jun_24_1444	59.9035671031	LearningTask	1	39	
4	-200.0	a	-200.0				0.0	3.0	3.0	7.0																																														a	1.0	a	1.0	0.12290096283	2.0	squareblue.gif	go	2.12	0.51466012001	0.0009350776672360002	0.517799139023	1.0	a	81.2110261917								0.517799139023																																																															2015_Jun_24_1444	59.9035671031	LearningTask	1	39	
5	200.0	w	200.0				0.0	4.0	4.0	8.0																																														w	1.0	None	0.0		4.0	invertedtriangleorange.gif	go	4.0	0.515332937241	0.0131680965424	0.384541988373	1.0	w	84.2145030499								0.384541988373																																																															2015_Jun_24_1444	59.9035671031	LearningTask	1	39	
6	200.0	w	200.0				0.0	5.0	5.0	0.0																																														w	1.0	None	0.0		1.0	trianglegreen.gif	stop	0.84	0.515218019485	0.0018119812011700002	0.534309148788	1.0	w	87.217689991								0.534309148788																																																															2015_Jun_24_1444	59.9035671031	LearningTask	1	39	
7	200.0	w	200.0				0.0	6.0	6.0	4.0																																														w	1.0	None	0.0		1.0	trianglegreen.gif	stop	1.21	0.5151700973510001	0.0009860992431639998	0.33388710022	1.0	w	90.22092103959999								0.33388710022																																																															2015_Jun_24_1444	59.9035671031	LearningTask	1	39	
8	-200.0	q	200.0				0.0	7.0	7.0	1.0																																														q	1.0	None	0.0		1.0	hexagonmagenta.gif	go	1.0	0.515385150909	0.0363450050354	0.417984962463	1.0	q	93.2246291637								0.417984962463																																																															2015_Jun_24_1444	59.9035671031	LearningTask	1	39	
9	-200.0	a	-200.0				0.0	8.0	8.0	3.0																																														a	1.0	None	0.0		2.0	crosscyan.gif	stop	2.02	0.514985084534	0.0017502307891800002	0.534705162048	1.0	a	96.22814106940001								0.534705162048																																																															2015_Jun_24_1444	59.9035671031	LearningTask	1	39	
10	-200.0	q	200.0				0.0	9.0	9.0	5.0																																														q	1.0	None	0.0		2.0	squareblue.gif	go	0.0	0.5146961212160001	0.0008931159973139998	0.467787027359	1.0	q	99.23105311389999								0.467787027359																																																															2015_Jun_24_1444	59.9035671031	LearningTask	1	39	
11				z	0.0	-200.0										0.0	0.0	0.0	0.0																																																																			168.364498138	go	hexagonmagenta.gif	go	1.0	z	1.0	0.568123102188	None	0.0	0.00144791603088	0.509652853012	171.361675978																																											2015_Jun_24_1444	59.9035671031	LearningTask	1	39	
12				m	0.0	200.0										0.0	1.0	1.0	1.0																																																																			171.36206913	go	invertedtriangleorange.gif	go	4.0	m	1.0	0.417536973953	None	0.0	0.0009520053863530001	0.5156710147860001	174.365090132																																											2015_Jun_24_1444	59.9035671031	LearningTask	1	39	
13				z	0.0	-200.0										1.0	0.0	2.0	0.0																																																																			174.36552906	go	invertedtriangleorange.gif	go	4.0	z	1.0	0.385064840317	None	0.0	0.0009679794311519998	0.5153989791870001	177.36829114																																											2015_Jun_24_1444	59.9035671031	LearningTask	1	39	
14				m	0.0	200.0										1.0	1.0	3.0	1.0																																																																			177.368654013	stop	lineyellow.gif	stop	0.5	m	1.0	0.417982816696	None	0.0	0.0400788784027	0.515706062317	180.371848106	0.7659709453579999																																										2015_Jun_24_1444	59.9035671031	LearningTask	1	39	
15				m	0.0	200.0										2.0	0.0	4.0	1.0																																																																			180.37221097900002	stop	lineyellow.gif	stop	0.5	None	0.0		None	0.0	0.00095009803772	0.515834093094	183.375138044	0.7660040855410001																																										2015_Jun_24_1444	59.9035671031	LearningTask	1	39	
16				z	0.0	-200.0										2.0	1.0	5.0	0.0																																																																			183.375504017	stop	crosscyan.gif	stop	2.0	z	1.0	0.550924062729	None	0.0	0.000951051712036	0.515742063522	186.37850499200002	0.7663328647609999																																										2015_Jun_24_1444	59.9035671031	LearningTask	1	39	
17				m	0.0	200.0										3.0	0.0	6.0	1.0																																																																			186.378871202	go	circlegray.gif	go	0.5	m	1.0	0.601702928543	None	0.0	0.038228988647500003	0.515548944473	189.381740093																																											2015_Jun_24_1444	59.9035671031	LearningTask	1	39	
18				z	0.0	-200.0										3.0	1.0	7.0	0.0																																																																			189.382105112	stop	trianglegreen.gif	stop	1.0	None	0.0		None	0.0	0.000951051712036	0.515964984894	192.385219097	0.766206979752																																										2015_Jun_24_1444	59.9035671031	LearningTask	1	39	
19				z	0.0	-200.0										4.0	0.0	8.0	0.0																																																																			192.385580063	stop	trianglegreen.gif	stop	1.0	None	0.0		None	0.0	0.000951051712036	0.515672206879	195.38862800599998	0.765780210495																																										2015_Jun_24_1444	59.9035671031	LearningTask	1	39	
20				m	0.0	200.0										4.0	1.0	9.0	1.0																																																																			195.389032125	stop	diamondwhite.gif	stop	4.0	None	0.0		None	0.0	0.00119304656982	0.515532016754	198.391841173	0.765758991241																																										2015_Jun_24_1444	59.9035671031	LearningTask	1	39	
21																																																																																																				9.0	55.0626192093																																								2015_Jun_24_1444	59.9035671031	LearningTask	1	39	
22																																																						9.0	13.0147988796																																																																																						2015_Jun_24_1444	59.9035671031	LearningTask	1	39	
23	-200.0	q	200.0																	0.0	0.0	0.0	0.0	0.0	0.0	0.0	1.0																													q	1.0	None	0.0		4.0	diamondwhite.gif	stop															0.500607013702																								4.02	0.509160995483	0.0009012222290039999	0.500607013702	1.0	q	269.622859001																																	2015_Jun_24_1444	59.9035671031	LearningTask	1	39	
24	200.0	w	200.0																	0.0	0.0	0.0	0.0	0.0	1.0	1.0	0.0																													w	1.0	None	0.0		0.5	lineyellow.gif	stop															0.467523097992																								0.46	0.5138468742369999	0.0009319782257080001	0.467523097992	1.0	w	272.625723124																																	2015_Jun_24_1444	59.9035671031	LearningTask	1	39	
25	200.0	s	-200.0																	0.0	0.0	0.0	0.0	0.0	2.0	2.0	2.0																													s	1.0	None	0.0		4.0	invertedtriangleorange.gif	go															0.36776685714699997																								3.91	0.514239788055	0.000926971435547	0.36776685714699997	1.0	s	275.628906012																																	2015_Jun_24_1444	59.9035671031	LearningTask	1	39	
26	200.0	s	-200.0																	0.0	0.0	0.0	0.0	0.0	3.0	3.0	2.0																													s	1.0	None	0.0		0.5	lineyellow.gif	stop															0.40069508552599997																								0.71	0.5144591331480001	0.000909090042114	0.40069508552599997	1.0	s	278.632209063																																	2015_Jun_24_1444	59.9035671031	LearningTask	1	39	
27	-200.0	a	-200.0																	0.0	0.0	0.0	0.0	1.0	0.0	4.0	3.0																													a	1.0	None	0.0		2.0	crosscyan.gif	stop															0.36749601364100004																								2.09	0.51433300972	0.0009360313415529999	0.36749601364100004	1.0	a	281.635607004																																	2015_Jun_24_1444	59.9035671031	LearningTask	1	39	
28	200.0	w	200.0																	0.0	0.0	0.0	0.0	1.0	1.0	5.0	0.0																													w	1.0	None	0.0		1.0	hexagonmagenta.gif	go															0.33429980278																								1.07	0.514353990555	0.0009069442749019998	0.33429980278	1.0	w	284.639032125																																	2015_Jun_24_1444	59.9035671031	LearningTask	1	39	
29	200.0	w	200.0																	0.0	0.0	0.0	0.0	1.0	2.0	6.0	0.0																													w	1.0	None	0.0		4.0	invertedtriangleorange.gif	go															0.400882005692																								3.75	0.514403104782	0.0009112358093260001	0.400882005692	1.0	w	287.642511129																																	2015_Jun_24_1444	59.9035671031	LearningTask	1	39	
30	-200.0	a	-200.0																	0.0	0.0	0.0	0.0	1.0	3.0	7.0	3.0																													a	1.0	None	0.0		4.0	invertedtriangleorange.gif	go															0.417443037033																								4.01	0.51401591301	0.0009200572967529999	0.417443037033	1.0	a	290.645673037																																	2015_Jun_24_1444	59.9035671031	LearningTask	1	39	
31	-200.0	a	-200.0																	0.0	0.0	0.0	0.0	2.0	0.0	8.0	3.0																													a	1.0	None	0.0		2.0	crosscyan.gif	stop															0.417532920837																								1.92	0.514511108398	0.000904083251953	0.417532920837	1.0	a	293.649177074																																	2015_Jun_24_1444	59.9035671031	LearningTask	1	39	
32	200.0	w	200.0																	0.0	0.0	0.0	0.0	2.0	1.0	9.0	0.0																													w	1.0	None	0.0		2.0	crosscyan.gif	stop															0.333995103836																								2.13	0.514245986938	0.00090503692627	0.333995103836	1.0	w	296.652793169																																	2015_Jun_24_1444	59.9035671031	LearningTask	1	39	
33	-200.0	q	200.0																	0.0	0.0	0.0	0.0	2.0	2.0	10.0	1.0																													q	1.0	None	0.0		4.0	diamondwhite.gif	stop															0.401009082794																								3.99	0.514242887497	0.0011968612670899999	0.401009082794	1.0	q	299.655805111																																	2015_Jun_24_1444	59.9035671031	LearningTask	1	39	
34	200.0	s	-200.0																	0.0	0.0	0.0	0.0	2.0	3.0	11.0	2.0																													s	1.0	None	0.0		4.0	diamondwhite.gif	stop															0.333792209625																								0.0	0.5146160125729999	0.0009779930114750001	0.333792209625	1.0	s	302.659373999																																	2015_Jun_24_1444	59.9035671031	LearningTask	1	39	
35	200.0	s	-200.0																	0.0	0.0	0.0	0.0	3.0	0.0	12.0	2.0																													s	1.0	None	0.0		0.5	circlegray.gif	go															0.351314783096																								0.45	0.514137983322	0.0009059906005860001	0.351314783096	1.0	s	305.662463188																																	2015_Jun_24_1444	59.9035671031	LearningTask	1	39	
36	200.0	w	200.0																	0.0	0.0	0.0	0.0	3.0	1.0	13.0	0.0																													w	1.0	None	0.0		4.0	invertedtriangleorange.gif	go															0.384201049805																								3.83	0.51448392868	0.0009119510650630002	0.384201049805	1.0	w	308.665874004																																	2015_Jun_24_1444	59.9035671031	LearningTask	1	39	
37	200.0	s	-200.0																	0.0	0.0	0.0	0.0	3.0	2.0	14.0	2.0																													s	1.0	None	0.0		1.0	trianglegreen.gif	stop															0.384078979492																								0.0	0.514290094376	0.00102996826172	0.384078979492	1.0	s	311.669209003																																	2015_Jun_24_1444	59.9035671031	LearningTask	1	39	
38	200.0	w	200.0																	0.0	0.0	0.0	0.0	3.0	3.0	15.0	0.0																													w	1.0	None	0.0		2.0	squareblue.gif	go															0.41750001907300005																								1.9	0.514352083206	0.0008950233459470001	0.41750001907300005	1.0	w	314.67303299900004																																	2015_Jun_24_1444	59.9035671031	LearningTask	1	39	
39	-200.0	q	200.0																	0.0	0.0	0.0	0.0	4.0	0.0	16.0	1.0																													q	1.0	None	0.0		1.0	trianglegreen.gif	stop															0.45102691650399995																								0.82	0.514165878296	0.0009069442749019998	0.45102691650399995	1.0	q	317.676032066																																	2015_Jun_24_1444	59.9035671031	LearningTask	1	39	
40	200.0	w	200.0																	0.0	0.0	0.0	0.0	4.0	1.0	17.0	0.0																													w	1.0	None	0.0		2.0	squareblue.gif	go															0.317770957947																								1.98	0.513690948486	0.0009360313415529999	0.317770957947	1.0	w	320.679480076																																	2015_Jun_24_1444	59.9035671031	LearningTask	1	39	
41	-200.0	q	200.0																	0.0	0.0	0.0	0.0	4.0	2.0	18.0	1.0																													q	1.0	None	0.0		1.0	hexagonmagenta.gif	go															0.43457293510399997																								1.1	0.514171123505	0.000904083251953	0.43457293510399997	1.0	q	323.682357073																																	2015_Jun_24_1444	59.9035671031	LearningTask	1	39	
42	-200.0	a	-200.0																	0.0	0.0	0.0	0.0	4.0	3.0	19.0	3.0																													a	1.0	None	0.0		2.0	crosscyan.gif	stop															0.500532865524																								2.09	0.514652967453	0.000998973846436	0.500532865524	1.0	a	326.686073065																																	2015_Jun_24_1444	59.9035671031	LearningTask	1	39	
43	-200.0	q	200.0																	0.0	0.0	0.0	0.0	5.0	0.0	20.0	1.0																													q	1.0	None	0.0		4.0	invertedtriangleorange.gif	go															0.384350061417																								0.0	0.514159917831	0.0009400844573969999	0.384350061417	1.0	q	329.68939209																																	2015_Jun_24_1444	59.9035671031	LearningTask	1	39	
44	-200.0	a	-200.0																	0.0	0.0	0.0	0.0	5.0	1.0	21.0	3.0																													a	1.0	None	0.0		4.0	invertedtriangleorange.gif	go															0.450675964355																								0.0	0.514600038528	0.0008931159973139998	0.450675964355	1.0	a	332.69281196599997																																	2015_Jun_24_1444	59.9035671031	LearningTask	1	39	
45	-200.0	a	-200.0																	0.0	0.0	0.0	0.0	5.0	2.0	22.0	3.0																													a	1.0	None	0.0		0.5	lineyellow.gif	stop															0.41724896431																								0.32	0.514575004578	0.0008950233459470001	0.41724896431	1.0	a	335.696353197																																	2015_Jun_24_1444	59.9035671031	LearningTask	1	39	
46	200.0	s	-200.0																	0.0	0.0	0.0	0.0	5.0	3.0	23.0	2.0																													s	1.0	None	0.0		0.5	lineyellow.gif	stop															0.417411088943																								0.29	0.513803005219	0.00089693069458	0.417411088943	1.0	s	338.699515104																																	2015_Jun_24_1444	59.9035671031	LearningTask	1	39	
47	-200.0	q	200.0																	0.0	0.0	0.0	0.0	6.0	0.0	24.0	1.0																													q	1.0	None	0.0		0.5	lineyellow.gif	stop															0.501155853271																								0.0	0.5142588615420001	0.000918865203857	0.501155853271	1.0	q	341.702723026																																	2015_Jun_24_1444	59.9035671031	LearningTask	1	39	
48	200.0	w	200.0																	0.0	0.0	0.0	0.0	6.0	1.0	25.0	0.0																													w	1.0	None	0.0		1.0	trianglegreen.gif	stop															0.367809057236																								1.0	0.514519929886	0.000900983810425	0.367809057236	1.0	w	344.706513166																																	2015_Jun_24_1444	59.9035671031	LearningTask	1	39	
49	200.0	s	-200.0																	0.0	0.0	0.0	0.0	6.0	2.0	26.0	2.0																													s	1.0	None	0.0		1.0	trianglegreen.gif	stop															0.417781114578																								0.0	0.51385807991	0.000912189483643	0.417781114578	1.0	s	347.709527016																																	2015_Jun_24_1444	59.9035671031	LearningTask	1	39	
50	200.0	w	200.0																	0.0	0.0	0.0	0.0	6.0	3.0	27.0	0.0																													w	1.0	None	0.0		4.0	diamondwhite.gif	stop															0.40075087547300003																								4.14	0.514704227448	0.00092601776123	0.40075087547300003	1.0	w	350.713142157																																	2015_Jun_24_1444	59.9035671031	LearningTask	1	39	
51	-200.0	q	200.0																	0.0	0.0	0.0	0.0	7.0	0.0	28.0	1.0																													q	1.0	None	0.0		4.0	invertedtriangleorange.gif	go															0.35115909576399995																								4.19	0.514215946198	0.000907897949219	0.35115909576399995	1.0	q	353.716456175																																	2015_Jun_24_1444	59.9035671031	LearningTask	1	39	
52	200.0	w	200.0																	0.0	0.0	0.0	0.0	7.0	1.0	29.0	0.0																													w	1.0	None	0.0		0.5	circlegray.gif	go															0.367832899094																								0.51	0.514157056808	0.0011348724365200001	0.367832899094	1.0	w	356.71957016																																	2015_Jun_24_1444	59.9035671031	LearningTask	1	39	
53	-200.0	a	-200.0																	0.0	0.0	0.0	0.0	7.0	2.0	30.0	3.0																													a	1.0	None	0.0		4.0	diamondwhite.gif	stop															0.518154144287																								4.08	0.51434803009	0.0009629726409910001	0.518154144287	1.0	a	359.722773075																																	2015_Jun_24_1444	59.9035671031	LearningTask	1	39	
54	200.0	s	-200.0																	0.0	0.0	0.0	0.0	7.0	3.0	31.0	2.0																													s	1.0	None	0.0		4.0	invertedtriangleorange.gif	go															0.38415884971600006																								4.09	0.514693975449	0.0008950233459470001	0.38415884971600006	1.0	s	362.726319075																																	2015_Jun_24_1444	59.9035671031	LearningTask	1	39	
55	-200.0	q	200.0																	0.0	0.0	0.0	0.0	8.0	0.0	32.0	1.0																													q	1.0	None	0.0		1.0	trianglegreen.gif	stop															0.367327928543																								1.19	0.514547109604	0.000902891159058	0.367327928543	1.0	q	365.730406046																																	2015_Jun_24_1444	59.9035671031	LearningTask	1	39	
56	-200.0	a	-200.0																	0.0	0.0	0.0	0.0	8.0	1.0	33.0	3.0																													a	1.0	None	0.0		0.5	circlegray.gif	go															0.417709112167																								0.0	0.513431072235	0.0010738372802700001	0.417709112167	1.0	a	368.733170033																																	2015_Jun_24_1444	59.9035671031	LearningTask	1	39	
57	-200.0	a	-200.0																	0.0	0.0	0.0	0.0	8.0	2.0	34.0	3.0																													a	1.0	None	0.0		2.0	squareblue.gif	go															0.38436293602																								2.07	0.514265060425	0.000890016555786	0.38436293602	1.0	a	371.736361027																																	2015_Jun_24_1444	59.9035671031	LearningTask	1	39	
58	200.0	w	200.0																	0.0	0.0	0.0	0.0	8.0	3.0	35.0	0.0																													w	1.0	None	0.0		0.5	circlegray.gif	go															0.43516111373899996																								0.69	0.514093160629	0.00090217590332	0.43516111373899996	1.0	w	374.73976111400003																																	2015_Jun_24_1444	59.9035671031	LearningTask	1	39	
59	-200.0	q	200.0																	0.0	0.0	0.0	0.0	9.0	0.0	36.0	1.0																													q	1.0	None	0.0	0.426753997803	2.0	crosscyan.gif	stop															0.45047211647																								0.0	0.513961076736	0.0009279251098630001	0.468106985092	0.0	a	377.743093014	1.83	0.515878200531	0.0009670257568360001	0.45047211647	1.0	q	380.74674105599996																										2015_Jun_24_1444	59.9035671031	LearningTask	1	39	
60	200.0	s	-200.0																	0.0	0.0	0.0	0.0	9.0	1.0	37.0	2.0																													s	1.0	None	0.0		4.0	invertedtriangleorange.gif	go															0.400593042374																								4.11	0.514232873917	0.0009129047393799999	0.400593042374	1.0	s	383.749987125																																	2015_Jun_24_1444	59.9035671031	LearningTask	1	39	
61	200.0	w	200.0																	0.0	0.0	0.0	0.0	9.0	2.0	38.0	0.0																													w	1.0	None	0.0		2.0	crosscyan.gif	stop															0.334356069565																								2.04	0.5140960216520001	0.000923871994019	0.334356069565	1.0	w	386.75308919																																	2015_Jun_24_1444	59.9035671031	LearningTask	1	39	
62	-200.0	q	200.0																	0.0	0.0	0.0	0.0	9.0	3.0	39.0	1.0																													q	1.0	None	0.0		2.0	squareblue.gif	go															0.384428977966																								1.82	0.514445781708	0.000909805297852	0.384428977966	1.0	q	389.756523132																																	2015_Jun_24_1444	59.9035671031	LearningTask	1	39	
63	200.0	s	-200.0																	0.0	0.0	0.0	0.0	10.0	0.0	40.0	2.0																													s	1.0	None	0.0		2.0	crosscyan.gif	stop															0.434376955032																								1.79	0.514315128326	0.000892162322998	0.434376955032	1.0	s	392.760601044																																	2015_Jun_24_1444	59.9035671031	LearningTask	1	39	
64	-200.0	q	200.0																	0.0	0.0	0.0	0.0	10.0	1.0	41.0	1.0																													q	1.0	None	0.0		2.0	squareblue.gif	go															0.36801695823700004																								1.91	0.5133290290829999	0.00090503692627	0.36801695823700004	1.0	q	395.763242006																																	2015_Jun_24_1444	59.9035671031	LearningTask	1	39	
65	-200.0	a	-200.0																	0.0	0.0	0.0	0.0	10.0	2.0	42.0	3.0																													a	1.0	None	0.0		4.0	invertedtriangleorange.gif	go															0.400936841965																								3.94	0.514203071594	0.0009760856628420001	0.400936841965	1.0	a	398.76683616599996																																	2015_Jun_24_1444	59.9035671031	LearningTask	1	39	
66	200.0	w	200.0																	0.0	0.0	0.0	0.0	10.0	3.0	43.0	0.0																													w	1.0	None	0.0		0.5	lineyellow.gif	stop															0.40080595016500004																								0.34	0.5140259265899999	0.0008959770202639998	0.40080595016500004	1.0	w	401.770524025																																	2015_Jun_24_1444	59.9035671031	LearningTask	1	39	
67	200.0	w	200.0																	0.0	0.0	0.0	0.0	11.0	0.0	44.0	0.0																													w	1.0	None	0.0		4.0	invertedtriangleorange.gif	go															0.33427381515500004																								3.85	0.513559818268	0.000945806503296	0.33427381515500004	1.0	w	404.77325797099996																																	2015_Jun_24_1444	59.9035671031	LearningTask	1	39	
68	-200.0	a	-200.0																	0.0	0.0	0.0	0.0	11.0	1.0	45.0	3.0																													a	1.0	None	0.0		2.0	crosscyan.gif	stop															0.534524202347																								2.23	0.514292001724	0.0010621547699	0.534524202347	1.0	a	407.776508093																																	2015_Jun_24_1444	59.9035671031	LearningTask	1	39	
69	-200.0	a	-200.0																	0.0	0.0	0.0	0.0	11.0	2.0	46.0	3.0																													a	1.0	None	0.0		2.0	squareblue.gif	go															0.500726938248																								2.09	0.514662027359	0.000885009765625	0.500726938248	1.0	a	410.78003907199997																																	2015_Jun_24_1444	59.9035671031	LearningTask	1	39	
70	-200.0	q	200.0																	0.0	0.0	0.0	0.0	11.0	3.0	47.0	1.0																													q	1.0	None	0.0	0.245585918427	4.0	diamondwhite.gif	stop															0.484122991562																								0.0	0.5145418643949999	0.000913858413696	0.384095907211	0.0	a	413.783667088	0.0	0.515404939651	0.000990867614746	0.484122991562	1.0	q	416.786841154																										2015_Jun_24_1444	59.9035671031	LearningTask	1	39	
71	200.0	w	200.0																	0.0	0.0	0.0	0.0	12.0	0.0	48.0	0.0																													w	1.0	None	0.0		1.0	hexagonmagenta.gif	go															0.384449005127																								0.99	0.514317035675	0.0009019374847410001	0.384449005127	1.0	w	419.790122986																																	2015_Jun_24_1444	59.9035671031	LearningTask	1	39	
72	200.0	s	-200.0																	0.0	0.0	0.0	0.0	12.0	1.0	49.0	2.0																													s	1.0	None	0.0		0.5	lineyellow.gif	stop															0.417171001434																								0.63	0.5143098831180001	0.000902891159058	0.417171001434	1.0	s	422.79380703																																	2015_Jun_24_1444	59.9035671031	LearningTask	1	39	
73	200.0	w	200.0																	0.0	0.0	0.0	0.0	12.0	2.0	50.0	0.0																													w	1.0	None	0.0		4.0	diamondwhite.gif	stop															0.401569128036																								4.05	0.51349902153	0.00092601776123	0.401569128036	1.0	w	425.796734095																																	2015_Jun_24_1444	59.9035671031	LearningTask	1	39	
74	200.0	s	-200.0																	0.0	0.0	0.0	0.0	12.0	3.0	51.0	2.0																													s	1.0	None	0.0		1.0	trianglegreen.gif	stop															0.417396783829																								1.19	0.514501810074	0.000908851623535	0.417396783829	1.0	s	428.800008059																																	2015_Jun_24_1444	59.9035671031	LearningTask	1	39	
75	-200.0	q	200.0																	0.0	0.0	0.0	0.0	13.0	0.0	52.0	1.0																													q	1.0	None	0.0		4.0	diamondwhite.gif	stop															0.4175760746																								4.21	0.514826059341	0.0008950233459470001	0.4175760746	1.0	q	431.8038311000001																																	2015_Jun_24_1444	59.9035671031	LearningTask	1	39	
76	-200.0	a	-200.0																	0.0	0.0	0.0	0.0	13.0	1.0	53.0	3.0																													a	1.0	None	0.0		2.0	squareblue.gif	go															0.400863170624																								1.79	0.5133879184719999	0.0009450912475589999	0.400863170624	1.0	a	434.806915045																																	2015_Jun_24_1444	59.9035671031	LearningTask	1	39	
77	-200.0	q	200.0																	0.0	0.0	0.0	0.0	13.0	2.0	54.0	1.0																													q	1.0	None	0.0		1.0	trianglegreen.gif	stop															0.417344093323																								0.87	0.514486074448	0.0009100437164310001	0.417344093323	1.0	q	437.81027913099996																																	2015_Jun_24_1444	59.9035671031	LearningTask	1	39	
78	-200.0	a	-200.0																	0.0	0.0	0.0	0.0	13.0	3.0	55.0	3.0																													a	1.0	None	0.0		1.0	hexagonmagenta.gif	go															0.41771793365500004																								1.23	0.514188051224	0.0009160041809079999	0.41771793365500004	1.0	a	440.813935041																																	2015_Jun_24_1444	59.9035671031	LearningTask	1	39	
79	-200.0	q	200.0																	0.0	0.0	0.0	0.0	14.0	0.0	56.0	1.0																													q	1.0	None	0.0		0.5	lineyellow.gif	stop															0.417726993561																								0.47	0.513803005219	0.000953912734985	0.417726993561	1.0	q	443.81692600300005																																	2015_Jun_24_1444	59.9035671031	LearningTask	1	39	
80	-200.0	q	200.0																	0.0	0.0	0.0	0.0	14.0	1.0	57.0	1.0																													q	1.0	None	0.0		1.0	hexagonmagenta.gif	go															0.417498826981																								0.92	0.514502048492	0.0009369850158689999	0.417498826981	1.0	q	446.820405006																																	2015_Jun_24_1444	59.9035671031	LearningTask	1	39	
81	200.0	s	-200.0																	0.0	0.0	0.0	0.0	14.0	2.0	58.0	2.0																													s	1.0	None	0.0		1.0	hexagonmagenta.gif	go															0.367323875427																								0.97	0.514497995377	0.0008981227874760001	0.367323875427	1.0	s	449.823747158																																	2015_Jun_24_1444	59.9035671031	LearningTask	1	39	
82	200.0	w	200.0																	0.0	0.0	0.0	0.0	14.0	3.0	59.0	0.0																													w	1.0	None	0.0		2.0	squareblue.gif	go															0.40085506439199997																								2.03	0.514220952988	0.00089693069458	0.40085506439199997	1.0	w	452.827018976																																	2015_Jun_24_1444	59.9035671031	LearningTask	1	39	
83	200.0	s	-200.0																	0.0	0.0	0.0	0.0	15.0	0.0	60.0	2.0																													s	1.0	None	0.0		4.0	invertedtriangleorange.gif	go															0.517538070679																								3.85	0.514294862747	0.0010688304901099999	0.517538070679	1.0	s	455.830217123																																	2015_Jun_24_1444	59.9035671031	LearningTask	1	39	
84	200.0	s	-200.0																	0.0	0.0	0.0	0.0	15.0	1.0	61.0	2.0																													s	1.0	None	0.0		2.0	squareblue.gif	go															0.401127099991																								1.85	0.514519929886	0.0008919239044189998	0.401127099991	1.0	s	458.833781004																																	2015_Jun_24_1444	59.9035671031	LearningTask	1	39	
85	200.0	s	-200.0																	0.0	0.0	0.0	0.0	15.0	2.0	62.0	2.0																													s	1.0	None	0.0		0.5	lineyellow.gif	stop															0.400759935379																								0.38	0.5145130157469999	0.000898838043213	0.400759935379	1.0	s	461.83709502199997																																	2015_Jun_24_1444	59.9035671031	LearningTask	1	39	
86	-200.0	q	200.0																	0.0	0.0	0.0	0.0	15.0	3.0	63.0	1.0																													q	1.0	None	0.0		2.0	squareblue.gif	go															0.40074801445																								1.75	0.514043092728	0.000969171524048	0.40074801445	1.0	q	464.840461016																																	2015_Jun_24_1444	59.9035671031	LearningTask	1	39	
87	200.0	w	200.0																	0.0	0.0	0.0	0.0	16.0	0.0	64.0	0.0																													w	1.0	None	0.0		4.0	diamondwhite.gif	stop															0.36729812622100005																								4.19	0.51435303688	0.000904083251953	0.36729812622100005	1.0	w	467.843760014																																	2015_Jun_24_1444	59.9035671031	LearningTask	1	39	
88	200.0	s	-200.0																	0.0	0.0	0.0	0.0	16.0	1.0	65.0	2.0																													s	1.0	None	0.0		0.5	lineyellow.gif	stop															0.417335987091																								0.31	0.51464009285	0.00089693069458	0.417335987091	1.0	s	470.84729099300006																																	2015_Jun_24_1444	59.9035671031	LearningTask	1	39	
89	200.0	w	200.0																	0.0	0.0	0.0	0.0	16.0	2.0	66.0	0.0																													w	1.0	None	0.0		1.0	hexagonmagenta.gif	go															0.401301145554																								1.23	0.513730049133	0.0009350776672360002	0.401301145554	1.0	w	473.850547075																																	2015_Jun_24_1444	59.9035671031	LearningTask	1	39	
90	-200.0	q	200.0																	0.0	0.0	0.0	0.0	16.0	3.0	67.0	1.0																													q	1.0	None	0.0		2.0	crosscyan.gif	stop															0.401304960251																								1.94	0.514235019684	0.000896215438843	0.401304960251	1.0	q	476.854107141																																	2015_Jun_24_1444	59.9035671031	LearningTask	1	39	
91	200.0	w	200.0																	0.0	0.0	0.0	0.0	17.0	0.0	68.0	0.0																													w	1.0	None	0.0		2.0	crosscyan.gif	stop															0.334331035614																								1.77	0.514266014099	0.000900983810425	0.334331035614	1.0	w	479.85753297800005																																	2015_Jun_24_1444	59.9035671031	LearningTask	1	39	
92	-200.0	q	200.0																	0.0	0.0	0.0	0.0	17.0	1.0	69.0	1.0																													q	1.0	None	0.0		1.0	trianglegreen.gif	stop															0.41746807098399996																								1.04	0.513849020004	0.0009150505065920001	0.41746807098399996	1.0	q	482.860751152																																	2015_Jun_24_1444	59.9035671031	LearningTask	1	39	
93	-200.0	a	-200.0																	0.0	0.0	0.0	0.0	17.0	2.0	70.0	3.0																													a	1.0	None	0.0		4.0	invertedtriangleorange.gif	go															0.417488098145																								3.8	0.513932943344	0.000902891159058	0.417488098145	1.0	a	485.86413908																																	2015_Jun_24_1444	59.9035671031	LearningTask	1	39	
94	-200.0	q	200.0																	0.0	0.0	0.0	0.0	17.0	3.0	71.0	1.0																													q	1.0	None	0.0		4.0	invertedtriangleorange.gif	go															0.45092511177100003																								0.0	0.514136075974	0.000917196273804	0.45092511177100003	1.0	q	488.86778307																																	2015_Jun_24_1444	59.9035671031	LearningTask	1	39	
95	-200.0	a	-200.0																	0.0	0.0	0.0	0.0	18.0	0.0	72.0	3.0																													a	1.0	None	0.0		4.0	diamondwhite.gif	stop															0.467403888702																								3.89	0.513900995255	0.000892877578735	0.467403888702	1.0	a	491.870622158																																	2015_Jun_24_1444	59.9035671031	LearningTask	1	39	
96	-200.0	a	-200.0																	0.0	0.0	0.0	0.0	18.0	1.0	73.0	3.0																													a	1.0	None	0.0		4.0	invertedtriangleorange.gif	go															0.417055130005																								4.11	0.514807939529	0.000931024551392	0.417055130005	1.0	a	494.874090195																																	2015_Jun_24_1444	59.9035671031	LearningTask	1	39	
97	200.0	s	-200.0																	0.0	0.0	0.0	0.0	18.0	2.0	74.0	2.0																													s	1.0	None	0.0		0.5	circlegray.gif	go															0.41770195960999995																								0.47	0.514317035675	0.0008981227874760001	0.41770195960999995	1.0	s	497.87779998800005																																	2015_Jun_24_1444	59.9035671031	LearningTask	1	39	
98	200.0	w	200.0																	0.0	0.0	0.0	0.0	18.0	3.0	75.0	0.0																													w	1.0	None	0.0		2.0	squareblue.gif	go															0.384349107742																								0.0	0.513778924942	0.00102591514587	0.384349107742	1.0	w	500.880707026																																	2015_Jun_24_1444	59.9035671031	LearningTask	1	39	
99	-200.0	a	-200.0																	0.0	0.0	0.0	0.0	19.0	0.0	76.0	3.0																													a	1.0	None	0.0		4.0	diamondwhite.gif	stop															0.401016950607																								3.91	0.5142378807069999	0.0010879039764400001	0.401016950607	1.0	a	503.883867979																																	2015_Jun_24_1444	59.9035671031	LearningTask	1	39	
100	-200.0	q	200.0																	0.0	0.0	0.0	0.0	19.0	1.0	77.0	1.0																													q	1.0	None	0.0		4.0	diamondwhite.gif	stop															0.434448003769																								3.95	0.514460086823	0.00090503692627	0.434448003769	1.0	q	506.887449026																																	2015_Jun_24_1444	59.9035671031	LearningTask	1	39	
101	200.0	w	200.0																	0.0	0.0	0.0	0.0	19.0	2.0	78.0	0.0																													w	1.0	None	0.0		0.5	lineyellow.gif	stop															0.36753201484700004																								0.0	0.514453172684	0.00090217590332	0.36753201484700004	1.0	w	509.890719175																																	2015_Jun_24_1444	59.9035671031	LearningTask	1	39	
102	200.0	w	200.0																	0.0	0.0	0.0	0.0	19.0	3.0	79.0	0.0																													w	1.0	None	0.0		0.5	circlegray.gif	go															0.46736407280000003																								0.64	0.514559984207	0.00117993354797	0.46736407280000003	1.0	w	512.894265175																																	2015_Jun_24_1444	59.9035671031	LearningTask	1	39	
103	-200.0	a	-200.0																	0.0	0.0	0.0	0.0	20.0	0.0	80.0	3.0																													a	1.0	None	0.0		1.0	trianglegreen.gif	stop															0.45061612129199996																								0.89	0.5143928527830001	0.0009398460388180001	0.45061612129199996	1.0	a	515.8974480630001																																	2015_Jun_24_1444	59.9035671031	LearningTask	1	39	
104	200.0	s	-200.0																	0.0	0.0	0.0	0.0	20.0	1.0	81.0	2.0																													s	1.0	None	0.0		1.0	trianglegreen.gif	stop															0.35082411766099997																								1.01	0.514467954636	0.00088906288147	0.35082411766099997	1.0	s	518.9012231830001																																	2015_Jun_24_1444	59.9035671031	LearningTask	1	39	
105	-200.0	a	-200.0																	0.0	0.0	0.0	0.0	20.0	2.0	82.0	3.0																													a	1.0	None	0.0		4.0	diamondwhite.gif	stop															0.367617845535																								4.17	0.513493061066	0.000917911529541	0.367617845535	1.0	a	521.9048511980001																																	2015_Jun_24_1444	59.9035671031	LearningTask	1	39	
106	200.0	w	200.0																	0.0	0.0	0.0	0.0	20.0	3.0	83.0	0.0																													w	1.0	None	0.0		0.5	circlegray.gif	go															0.383973121643																								0.62	0.514148950577	0.000907897949219	0.383973121643	1.0	w	524.907711983																																	2015_Jun_24_1444	59.9035671031	LearningTask	1	39	
107	-200.0	a	-200.0																	0.0	0.0	0.0	0.0	21.0	0.0	84.0	3.0																													a	1.0	None	0.0		2.0	squareblue.gif	go															0.467604875565																								1.82	0.514319181442	0.00088906288147	0.467604875565	1.0	a	527.91130805																																	2015_Jun_24_1444	59.9035671031	LearningTask	1	39	
108	200.0	s	-200.0																	0.0	0.0	0.0	0.0	21.0	1.0	85.0	2.0																													s	1.0	None	0.0		1.0	hexagonmagenta.gif	go															0.434251070023																								1.15	0.513495922089	0.0009109973907470001	0.434251070023	1.0	s	530.914304972																																	2015_Jun_24_1444	59.9035671031	LearningTask	1	39	
109	200.0	s	-200.0																	0.0	0.0	0.0	0.0	21.0	2.0	86.0	2.0																													s	1.0	None	0.0		2.0	crosscyan.gif	stop															0.501006126404																								0.0	0.514337062836	0.00090503692627	0.501006126404	1.0	s	533.917668104																																	2015_Jun_24_1444	59.9035671031	LearningTask	1	39	
110	-200.0	a	-200.0																	0.0	0.0	0.0	0.0	21.0	3.0	87.0	3.0																													a	1.0	None	0.0		0.5	lineyellow.gif	stop															0.41764593124399996																								0.61	0.514097929001	0.00089693069458	0.41764593124399996	1.0	a	536.921387196																																	2015_Jun_24_1444	59.9035671031	LearningTask	1	39	
111	-200.0	a	-200.0																	0.0	0.0	0.0	0.0	22.0	0.0	88.0	3.0																													a	1.0	None	0.0		4.0	diamondwhite.gif	stop															0.41767001151999994																								0.0	0.513873100281	0.0009059906005860001	0.41767001151999994	1.0	a	539.924450159																																	2015_Jun_24_1444	59.9035671031	LearningTask	1	39	
112	200.0	s	-200.0																	0.0	0.0	0.0	0.0	22.0	1.0	89.0	2.0																													s	1.0	None	0.0		4.0	invertedtriangleorange.gif	go															0.40052199363700003																								0.0	0.5143048763279999	0.0009448528289790001	0.40052199363700003	1.0	s	542.927980185																																	2015_Jun_24_1444	59.9035671031	LearningTask	1	39	
113	-200.0	a	-200.0																	0.0	0.0	0.0	0.0	22.0	2.0	90.0	3.0																													a	1.0	None	0.0		2.0	crosscyan.gif	stop															0.417304992676																								1.95	0.5140910148619999	0.0008959770202639998	0.417304992676	1.0	a	545.9312560559999																																	2015_Jun_24_1444	59.9035671031	LearningTask	1	39	
114	200.0	s	-200.0																	0.0	0.0	0.0	0.0	22.0	3.0	91.0	2.0																													s	1.0	None	0.0		2.0	crosscyan.gif	stop															0.384443044662																								1.88	0.51424908638	0.000912189483643	0.384443044662	1.0	s	548.934261084																																	2015_Jun_24_1444	59.9035671031	LearningTask	1	39	
115	200.0	s	-200.0																	0.0	0.0	0.0	0.0	23.0	0.0	92.0	2.0																													s	1.0	None	0.0		2.0	squareblue.gif	go															0.351102113724																								1.98	0.514461040497	0.0009369850158689999	0.351102113724	1.0	s	551.937623024																																	2015_Jun_24_1444	59.9035671031	LearningTask	1	39	
116	-200.0	q	200.0																	0.0	0.0	0.0	0.0	23.0	1.0	93.0	1.0																													q	1.0	None	0.0		4.0	invertedtriangleorange.gif	go															0.41760396957400003																								3.88	0.514663934708	0.000907897949219	0.41760396957400003	1.0	q	554.941227198																																	2015_Jun_24_1444	59.9035671031	LearningTask	1	39	
117	-200.0	q	200.0																	0.0	0.0	0.0	0.0	23.0	2.0	94.0	1.0																													q	1.0	None	0.0		0.5	circlegray.gif	go															0.384248018265																								0.0	0.514529943466	0.0008950233459470001	0.384248018265	1.0	q	557.9443421359999																																	2015_Jun_24_1444	59.9035671031	LearningTask	1	39	
118	-200.0	q	200.0																	0.0	0.0	0.0	0.0	23.0	3.0	95.0	1.0																													q	1.0	None	0.0		2.0	squareblue.gif	go															0.434417963028																								1.78	0.5146729946140001	0.0009670257568360001	0.434417963028	1.0	q	560.9483911990001																																	2015_Jun_24_1444	59.9035671031	LearningTask	1	39	
119	-200.0	q	200.0																	0.0	0.0	0.0	0.0	24.0	0.0	96.0	1.0																													q	1.0	None	0.0		4.0	invertedtriangleorange.gif	go															0.41785407066299995																								4.22	0.513833045959	0.000907182693481	0.41785407066299995	1.0	q	563.95124197																																	2015_Jun_24_1444	59.9035671031	LearningTask	1	39	
120	200.0	s	-200.0																	0.0	0.0	0.0	0.0	24.0	1.0	97.0	2.0																													s	1.0	None	0.0		4.0	diamondwhite.gif	stop															0.418184041977																								0.0	0.514379024506	0.0008990764617919999	0.418184041977	1.0	s	566.9545362000001																																	2015_Jun_24_1444	59.9035671031	LearningTask	1	39	
121	-200.0	a	-200.0																	0.0	0.0	0.0	0.0	24.0	2.0	98.0	3.0																													a	1.0	None	0.0		0.5	circlegray.gif	go															0.501017808914																								0.0	0.513996839523	0.000949859619141	0.501017808914	1.0	a	569.9578931330001																																	2015_Jun_24_1444	59.9035671031	LearningTask	1	39	
122	200.0	w	200.0																	0.0	0.0	0.0	0.0	24.0	3.0	99.0	0.0																													w	1.0	None	0.0		0.5	lineyellow.gif	stop															0.41761898994400004																								0.65	0.514619112015	0.000900030136108	0.41761898994400004	1.0	w	572.961287022																																	2015_Jun_24_1444	59.9035671031	LearningTask	1	39	
123																				0.0	0.0	0.0	0.0																																																																																													9.0	2.93806910515																								2015_Jun_24_1444	59.9035671031	LearningTask	1	39	
124	200.0	w	200.0																	1.0	0.0	1.0	0.0	0.0	0.0	0.0	0.0																													w	1.0	None	0.0		0.5	circlegray.gif	go															0.467511892319																								0.34	0.5098450183869999	0.000900983810425	0.467511892319	1.0	w	579.352306128																																	2015_Jun_24_1444	59.9035671031	LearningTask	1	39	
125	-200.0	q	200.0																	1.0	0.0	1.0	0.0	0.0	1.0	1.0	1.0																													q	1.0	None	0.0		2.0	squareblue.gif	go															0.384691953659																								1.87	0.513438940048	0.000976800918579	0.384691953659	1.0	q	582.355563164																																	2015_Jun_24_1444	59.9035671031	LearningTask	1	39	
126	200.0	s	-200.0																	1.0	0.0	1.0	0.0	0.0	2.0	2.0	2.0																													s	1.0	None	0.0		0.5	circlegray.gif	go															0.3674929142																								0.67	0.5138390064239999	0.0009047985076900001	0.3674929142	1.0	s	585.358571053																																	2015_Jun_24_1444	59.9035671031	LearningTask	1	39	
127	-200.0	a	-200.0																	1.0	0.0	1.0	0.0	0.0	3.0	3.0	3.0																													a	1.0	None	0.0		2.0	crosscyan.gif	stop															0.400707960129																								2.25	0.51424908638	0.000900983810425	0.400707960129	1.0	a	588.361796141																																	2015_Jun_24_1444	59.9035671031	LearningTask	1	39	
128	-200.0	a	-200.0																	1.0	0.0	1.0	0.0	1.0	0.0	4.0	3.0																													a	1.0	None	0.0		0.5	circlegray.gif	go															0.36741185188299996																								0.5	0.514154195786	0.0009360313415529999	0.36741185188299996	1.0	a	591.365118027																																	2015_Jun_24_1444	59.9035671031	LearningTask	1	39	
129	200.0	s	-200.0																	1.0	0.0	1.0	0.0	1.0	1.0	5.0	2.0																													s	1.0	None	0.0		2.0	squareblue.gif	go															0.417308092117																								1.89	0.51446390152	0.000890016555786	0.417308092117	1.0	s	594.368946075																																	2015_Jun_24_1444	59.9035671031	LearningTask	1	39	
130	-200.0	q	200.0																	1.0	0.0	1.0	0.0	1.0	2.0	6.0	1.0																													q	1.0	None	0.0		1.0	hexagonmagenta.gif	go															0.334270000458																								0.8	0.513704061508	0.0009820461273189998	0.334270000458	1.0	q	597.3719730380001																																	2015_Jun_24_1444	59.9035671031	LearningTask	1	39	
131	-200.0	q	200.0																	1.0	0.0	1.0	0.0	1.0	3.0	7.0	1.0																													q	1.0	None	0.0		1.0	trianglegreen.gif	stop															0.384124040604																								1.19	0.5141630172730001	0.0009820461273189998	0.384124040604	1.0	q	600.375363111																																	2015_Jun_24_1444	59.9035671031	LearningTask	1	39	
132	-200.0	a	-200.0																	1.0	0.0	1.0	0.0	2.0	0.0	8.0	3.0																													a	1.0	None	0.0		2.0	crosscyan.gif	stop															0.42559409141500004																								2.2	0.513895988464	0.000908136367798	0.42559409141500004	1.0	a	603.378617048																																	2015_Jun_24_1444	59.9035671031	LearningTask	1	39	
133	200.0	s	-200.0																	1.0	0.0	1.0	0.0	2.0	1.0	9.0	2.0																													s	1.0	None	0.0		4.0	invertedtriangleorange.gif	go															0.417474985123																								4.14	0.514245033264	0.0009150505065920001	0.417474985123	1.0	s	606.381978989																																	2015_Jun_24_1444	59.9035671031	LearningTask	1	39	
134	-200.0	a	-200.0																	1.0	0.0	1.0	0.0	2.0	2.0	10.0	3.0																													a	1.0	None	0.0		2.0	crosscyan.gif	stop															0.7180728912350001																								0.0	0.5141568183899999	0.0009109973907470001	0.7180728912350001	1.0	a	609.385310173																																	2015_Jun_24_1444	59.9035671031	LearningTask	1	39	
135	-200.0	q	200.0																	1.0	0.0	1.0	0.0	2.0	3.0	11.0	1.0																													q	1.0	None	0.0		4.0	invertedtriangleorange.gif	go															0.334167003632																								4.2	0.513871908188	0.00121402740479	0.334167003632	1.0	q	612.388913155																																	2015_Jun_24_1444	59.9035671031	LearningTask	1	39	
136	200.0	w	200.0																	1.0	0.0	1.0	0.0	3.0	0.0	12.0	0.0																													w	1.0	None	0.0		4.0	diamondwhite.gif	stop															0.284120082855																								4.09	0.51393699646	0.0013780593872100002	0.284120082855	1.0	w	615.392404079																																	2015_Jun_24_1444	59.9035671031	LearningTask	1	39	
137	200.0	w	200.0																	1.0	0.0	1.0	0.0	3.0	1.0	13.0	0.0																													w	1.0	None	0.0		1.0	hexagonmagenta.gif	go															0.351243019104																								0.0	0.513643980026	0.00130915641785	0.38411402702299996	0.0	s	618.39531517	1.05	0.5156581401820001	0.000969171524048	0.351243019104	1.0	w	621.399027109																										2015_Jun_24_1444	59.9035671031	LearningTask	1	39	
138	-200.0	q	200.0																	1.0	0.0	1.0	0.0	3.0	2.0	14.0	1.0																													q	1.0	None	0.0		0.5	lineyellow.gif	stop															0.317373991013																								0.37	0.513852119446	0.00131916999817	0.317373991013	1.0	q	624.402152061																																	2015_Jun_24_1444	59.9035671031	LearningTask	1	39	
139	200.0	s	-200.0																	1.0	0.0	1.0	0.0	3.0	3.0	15.0	2.0																													s	1.0	None	0.0		4.0	invertedtriangleorange.gif	go															0.417485952377																								4.21	0.514318227768	0.000875234603882	0.417485952377	1.0	s	627.405826092																																	2015_Jun_24_1444	59.9035671031	LearningTask	1	39	
140	200.0	w	200.0																	1.0	0.0	1.0	0.0	4.0	0.0	16.0	0.0																													w	1.0	None	0.0		4.0	invertedtriangleorange.gif	go															0.384373903275																								4.05	0.513869047165	0.00103902816772	0.384373903275	1.0	w	630.408612013																																	2015_Jun_24_1444	59.9035671031	LearningTask	1	39	
141	-200.0	a	-200.0																	1.0	0.0	1.0	0.0	4.0	1.0	17.0	3.0																													a	1.0	None	0.0		4.0	invertedtriangleorange.gif	go															0.36718297004699996																								4.01	0.514739990234	0.000877141952515	0.36718297004699996	1.0	a	633.4121851919999																																	2015_Jun_24_1444	59.9035671031	LearningTask	1	39	
142	200.0	s	-200.0																	1.0	0.0	1.0	0.0	4.0	2.0	18.0	2.0																													s	1.0	None	0.0		0.5	lineyellow.gif	stop															0.417340993881																								0.28	0.514350175858	0.00088095664978	0.417340993881	1.0	s	636.415557146																																	2015_Jun_24_1444	59.9035671031	LearningTask	1	39	
143	-200.0	q	200.0																	1.0	0.0	1.0	0.0	4.0	3.0	19.0	1.0																													q	1.0	None	0.0		1.0	hexagonmagenta.gif	go															0.383773803711																								0.82	0.51461482048	0.000934839248657	0.383773803711	1.0	q	639.418892145																																	2015_Jun_24_1444	59.9035671031	LearningTask	1	39	
144	200.0	w	200.0																	1.0	0.0	1.0	0.0	5.0	0.0	20.0	0.0																													w	1.0	None	0.0		4.0	diamondwhite.gif	stop															0.350718021393																								4.2	0.5144798755650001	0.0008978843688960001	0.350718021393	1.0	w	642.423108101																																	2015_Jun_24_1444	59.9035671031	LearningTask	1	39	
145	-200.0	q	200.0																	1.0	0.0	1.0	0.0	5.0	1.0	21.0	1.0																													q	1.0	None	0.0		0.5	circlegray.gif	go															0.384491920471																								0.0	0.513073921204	0.0013320446014400001	0.384491920471	1.0	q	645.4261980059999																																	2015_Jun_24_1444	59.9035671031	LearningTask	1	39	
146	-200.0	q	200.0																	1.0	0.0	1.0	0.0	5.0	2.0	22.0	1.0																													q	1.0	None	0.0		2.0	crosscyan.gif	stop															0.417150974274																								2.0	0.513698101044	0.0008909702301030001	0.417150974274	1.0	q	648.429013014																																	2015_Jun_24_1444	59.9035671031	LearningTask	1	39	
147	200.0	s	-200.0																	1.0	0.0	1.0	0.0	5.0	3.0	23.0	2.0																													s	1.0	None	0.0		4.0	invertedtriangleorange.gif	go															0.45128607749899996																								4.03	0.514272928238	0.000880002975464	0.45128607749899996	1.0	s	651.4322781559999																																	2015_Jun_24_1444	59.9035671031	LearningTask	1	39	
148	-200.0	q	200.0																	1.0	0.0	1.0	0.0	6.0	0.0	24.0	1.0																													q	1.0	None	0.0		0.5	lineyellow.gif	stop															0.45092988014200003																								0.71	0.514299869537	0.0008759498596189999	0.45092988014200003	1.0	q	654.435964108																																	2015_Jun_24_1444	59.9035671031	LearningTask	1	39	
149	-200.0	a	-200.0																	1.0	0.0	1.0	0.0	6.0	1.0	25.0	3.0																													a	1.0	None	0.0		2.0	crosscyan.gif	stop															0.500895023346																								1.77	0.5138978958129999	0.0009329319000239999	0.500895023346	1.0	a	657.439077139																																	2015_Jun_24_1444	59.9035671031	LearningTask	1	39	
150	-200.0	q	200.0																	1.0	0.0	1.0	0.0	6.0	2.0	26.0	1.0																													q	1.0	None	0.0		0.5	circlegray.gif	go															0.40074300766000004																								0.0	0.5143048763279999	0.000885009765625	0.40074300766000004	1.0	q	660.442546129																																	2015_Jun_24_1444	59.9035671031	LearningTask	1	39	
151	200.0	w	200.0																	1.0	0.0	1.0	0.0	6.0	3.0	27.0	0.0																													w	1.0	None	0.0		4.0	diamondwhite.gif	stop															0.350598812103																								4.19	0.514586925507	0.0008749961853029999	0.350598812103	1.0	w	663.4462749959999																																	2015_Jun_24_1444	59.9035671031	LearningTask	1	39	
152	-200.0	q	200.0																	1.0	0.0	1.0	0.0	7.0	0.0	28.0	1.0																													q	1.0	None	0.0		0.5	circlegray.gif	go															0.40098690986599994																								0.0	0.513652086258	0.00088095664978	0.40098690986599994	1.0	q	666.449249029																																	2015_Jun_24_1444	59.9035671031	LearningTask	1	39	
153	-200.0	a	-200.0																	1.0	0.0	1.0	0.0	7.0	1.0	29.0	3.0																													a	1.0	None	0.0		1.0	trianglegreen.gif	stop															0.45094203948999995																								1.0	0.51446390152	0.00132703781128	0.45094203948999995	1.0	a	669.452536106																																	2015_Jun_24_1444	59.9035671031	LearningTask	1	39	
154	200.0	s	-200.0																	1.0	0.0	1.0	0.0	7.0	2.0	30.0	2.0																													s	1.0	None	0.0		2.0	squareblue.gif	go															0.367759943008																								2.15	0.514466047287	0.0012679100036600002	0.367759943008	1.0	s	672.456115007																																	2015_Jun_24_1444	59.9035671031	LearningTask	1	39	
155	200.0	w	200.0																	1.0	0.0	1.0	0.0	7.0	3.0	31.0	0.0																													w	1.0	None	0.0		4.0	invertedtriangleorange.gif	go															0.48444700241099997																								3.79	0.5141420364379999	0.0008740425109860002	0.48444700241099997	1.0	w	675.459280014																																	2015_Jun_24_1444	59.9035671031	LearningTask	1	39	
156	-200.0	q	200.0																	1.0	0.0	1.0	0.0	8.0	0.0	32.0	1.0																													q	1.0	None	0.0		0.5	lineyellow.gif	stop															0.334118843079																								0.47	0.514643907547	0.000953912734985	0.334118843079	1.0	q	678.462990999																																	2015_Jun_24_1444	59.9035671031	LearningTask	1	39	
157	200.0	s	-200.0																	1.0	0.0	1.0	0.0	8.0	1.0	33.0	2.0																													s	1.0	None	0.0		1.0	trianglegreen.gif	stop															0.400707960129																								0.0	0.5139698982240001	0.0008869171142580001	0.400707960129	1.0	s	681.46639514																																	2015_Jun_24_1444	59.9035671031	LearningTask	1	39	
158	200.0	s	-200.0																	1.0	0.0	1.0	0.0	8.0	2.0	34.0	2.0																													s	1.0	None	0.0		1.0	hexagonmagenta.gif	go															0.41757106781																								0.0	0.513619184494	0.00110006332397	0.41757106781	1.0	s	684.469377041																																	2015_Jun_24_1444	59.9035671031	LearningTask	1	39	
159	200.0	w	200.0																	1.0	0.0	1.0	0.0	8.0	3.0	35.0	0.0																													w	1.0	None	0.0		1.0	hexagonmagenta.gif	go															0.384161949158																								0.0	0.5139210224149999	0.0009891986846919999	0.384161949158	1.0	w	687.472661018																																	2015_Jun_24_1444	59.9035671031	LearningTask	1	39	
160	-200.0	q	200.0																	1.0	0.0	1.0	0.0	9.0	0.0	36.0	1.0																													q	1.0	None	0.0		4.0	invertedtriangleorange.gif	go															0.40092396736100006																								3.95	0.5144309997559999	0.0008950233459470001	0.40092396736100006	1.0	q	690.475983143																																	2015_Jun_24_1444	59.9035671031	LearningTask	1	39	
161	200.0	s	-200.0																	1.0	0.0	1.0	0.0	9.0	1.0	37.0	2.0																													s	1.0	None	0.0		2.0	squareblue.gif	go															0.384139060974																								2.11	0.514637947083	0.000869989395142	0.384139060974	1.0	s	693.479575157																																	2015_Jun_24_1444	59.9035671031	LearningTask	1	39	
162	-200.0	q	200.0																	1.0	0.0	1.0	0.0	9.0	2.0	38.0	1.0																													q	1.0	None	0.0		1.0	hexagonmagenta.gif	go															0.334239006042																								1.11	0.514317989349	0.00089693069458	0.334239006042	1.0	q	696.4829499719999																																	2015_Jun_24_1444	59.9035671031	LearningTask	1	39	
163	-200.0	a	-200.0																	1.0	0.0	1.0	0.0	9.0	3.0	39.0	3.0																													a	1.0	None	0.0		1.0	trianglegreen.gif	stop															0.41771197319																								0.8	0.513990879059	0.0009379386901860002	0.41771197319	1.0	a	699.485894203																																	2015_Jun_24_1444	59.9035671031	LearningTask	1	39	
164	200.0	w	200.0																	1.0	0.0	1.0	0.0	10.0	0.0	40.0	0.0																													w	1.0	None	0.0		4.0	invertedtriangleorange.gif	go															0.38421297073399996																								4.17	0.514630079269	0.00110912322998	0.38421297073399996	1.0	w	702.4894590380001																																	2015_Jun_24_1444	59.9035671031	LearningTask	1	39	
165	200.0	s	-200.0																	1.0	0.0	1.0	0.0	10.0	1.0	41.0	2.0																													s	1.0	None	0.0		1.0	trianglegreen.gif	stop															0.384303092957																								0.0	0.514132022858	0.0008940696716310001	0.384604930878	0.0	a	705.492846012	1.18	0.515579938889	0.000940799713135	0.384303092957	1.0	s	708.4962451460001																										2015_Jun_24_1444	59.9035671031	LearningTask	1	39	
166	-200.0	a	-200.0																	1.0	0.0	1.0	0.0	10.0	2.0	42.0	3.0																													a	1.0	None	0.0		1.0	hexagonmagenta.gif	go															0.40084695816																								0.85	0.514050006866	0.000882863998413	0.40084695816	1.0	a	711.499966145																																	2015_Jun_24_1444	59.9035671031	LearningTask	1	39	
167	200.0	s	-200.0																	1.0	0.0	1.0	0.0	10.0	3.0	43.0	2.0																													s	1.0	None	0.0		4.0	invertedtriangleorange.gif	go															0.384131908417																								0.0	0.513855934143	0.000900983810425	0.384131908417	1.0	s	714.502833128																																	2015_Jun_24_1444	59.9035671031	LearningTask	1	39	
168	-200.0	q	200.0																	1.0	0.0	1.0	0.0	11.0	0.0	44.0	1.0																													q	1.0	None	0.0		2.0	squareblue.gif	go															0.333995103836																								2.2	0.514347076416	0.000867128372192	0.333995103836	1.0	q	717.5063130860001																																	2015_Jun_24_1444	59.9035671031	LearningTask	1	39	
169	-200.0	a	-200.0																	1.0	0.0	1.0	0.0	11.0	1.0	45.0	3.0																													a	1.0	None	0.0		0.5	circlegray.gif	go															0.434215068817																								0.38	0.514373064041	0.000887155532837	0.434215068817	1.0	a	720.509680986																																	2015_Jun_24_1444	59.9035671031	LearningTask	1	39	
170	-200.0	a	-200.0																	1.0	0.0	1.0	0.0	11.0	2.0	46.0	3.0																													a	1.0	None	0.0		0.5	lineyellow.gif	stop															0.45063710212700003																								0.0	0.5146050453190001	0.0009291172027589999	0.45063710212700003	1.0	a	723.5128769869999																																	2015_Jun_24_1444	59.9035671031	LearningTask	1	39	
171	200.0	s	-200.0																	1.0	0.0	1.0	0.0	11.0	3.0	47.0	2.0																													s	1.0	None	0.0		4.0	invertedtriangleorange.gif	go															0.41778182983400003																								3.95	0.51419210434	0.0010941028595	0.41778182983400003	1.0	s	726.51662612																																	2015_Jun_24_1444	59.9035671031	LearningTask	1	39	
172	200.0	s	-200.0																	1.0	0.0	1.0	0.0	12.0	0.0	48.0	2.0																													s	1.0	None	0.0		2.0	crosscyan.gif	stop															0.400916099548																								1.87	0.514074087143	0.0008990764617919999	0.400916099548	1.0	s	729.519966125																																	2015_Jun_24_1444	59.9035671031	LearningTask	1	39	
173	-200.0	a	-200.0																	1.0	0.0	1.0	0.0	12.0	1.0	49.0	3.0																													a	1.0	None	0.0		1.0	trianglegreen.gif	stop															0.434466838837																								1.11	0.513899087906	0.0008909702301030001	0.434466838837	1.0	a	732.5234520439999																																	2015_Jun_24_1444	59.9035671031	LearningTask	1	39	
174	200.0	w	200.0																	1.0	0.0	1.0	0.0	12.0	2.0	50.0	0.0																													w	1.0	None	0.0		2.0	squareblue.gif	go															0.40162587165799996																								1.82	0.513738870621	0.0009069442749019998	0.40162587165799996	1.0	w	735.5263481139999																																	2015_Jun_24_1444	59.9035671031	LearningTask	1	39	
175	-200.0	a	-200.0																	1.0	0.0	1.0	0.0	12.0	3.0	51.0	3.0																													a	1.0	None	0.0		2.0	crosscyan.gif	stop															0.484117984772																								1.8	0.514373064041	0.0008831024169919999	0.484117984772	1.0	a	738.5295100210001																																	2015_Jun_24_1444	59.9035671031	LearningTask	1	39	
176	200.0	w	200.0																	1.0	0.0	1.0	0.0	13.0	0.0	52.0	0.0																													w	1.0	None	0.0		2.0	squareblue.gif	go															0.383857965469																								1.98	0.51430106163	0.000885009765625	0.383857965469	1.0	w	741.5334069730001																																	2015_Jun_24_1444	59.9035671031	LearningTask	1	39	
177	200.0	s	-200.0																	1.0	0.0	1.0	0.0	13.0	1.0	53.0	2.0																													s	1.0	None	0.0		0.5	circlegray.gif	go															0.384076118469																								0.0	0.513413906097	0.0008990764617919999	0.384076118469	1.0	s	744.536453009																																	2015_Jun_24_1444	59.9035671031	LearningTask	1	39	
178	-200.0	q	200.0																	1.0	0.0	1.0	0.0	13.0	2.0	54.0	1.0																													q	1.0	None	0.0		1.0	hexagonmagenta.gif	go															0.350697040558																								0.84	0.514250040054	0.00088095664978	0.350697040558	1.0	q	747.539738178																																	2015_Jun_24_1444	59.9035671031	LearningTask	1	39	
179	200.0	s	-200.0																	1.0	0.0	1.0	0.0	13.0	3.0	55.0	2.0																													s	1.0	None	0.0		1.0	trianglegreen.gif	stop															0.384117126465																								0.0	0.514266967773	0.000880002975464	0.384117126465	1.0	s	750.5432960989999																																	2015_Jun_24_1444	59.9035671031	LearningTask	1	39	
180	200.0	s	-200.0																	1.0	0.0	1.0	0.0	14.0	0.0	56.0	2.0																													s	1.0	None	0.0		0.5	lineyellow.gif	stop															0.384140968323																								0.0	0.513879060745	0.0008869171142580001	0.384140968323	1.0	s	753.546554089																																	2015_Jun_24_1444	59.9035671031	LearningTask	1	39	
181	-200.0	q	200.0																	1.0	0.0	1.0	0.0	14.0	1.0	57.0	1.0																													q	1.0	None	0.0		0.5	circlegray.gif	go															0.5511708259579999																								0.29	0.514314889908	0.00087308883667	0.5511708259579999	1.0	q	756.550266027																																	2015_Jun_24_1444	59.9035671031	LearningTask	1	39	
182	-200.0	q	200.0																	1.0	0.0	1.0	0.0	14.0	2.0	58.0	1.0																													q	1.0	None	0.0		1.0	trianglegreen.gif	stop															0.41800498962399996																								1.01	0.513829946518	0.000873804092407	0.41800498962399996	1.0	q	759.5536880489999																																	2015_Jun_24_1444	59.9035671031	LearningTask	1	39	
183	200.0	w	200.0																	1.0	0.0	1.0	0.0	14.0	3.0	59.0	0.0																													w	1.0	None	0.0		1.0	trianglegreen.gif	stop															0.350806951523																								1.18	0.513877868652	0.000885009765625	0.350806951523	1.0	w	762.5565910339999																																	2015_Jun_24_1444	59.9035671031	LearningTask	1	39	
184	200.0	w	200.0																	1.0	0.0	1.0	0.0	15.0	0.0	60.0	0.0																													w	1.0	None	0.0		2.0	crosscyan.gif	stop															0.40087318420400003																								1.79	0.514380931854	0.0008728504180910001	0.40087318420400003	1.0	w	765.55993104																																	2015_Jun_24_1444	59.9035671031	LearningTask	1	39	
185	-200.0	a	-200.0																	1.0	0.0	1.0	0.0	15.0	1.0	61.0	3.0																													a	1.0	None	0.0		4.0	diamondwhite.gif	stop															0.384078025818																								3.84	0.514450073242	0.0008749961853029999	0.384078025818	1.0	a	768.563413143																																	2015_Jun_24_1444	59.9035671031	LearningTask	1	39	
186	-200.0	q	200.0																	1.0	0.0	1.0	0.0	15.0	2.0	62.0	1.0																													q	1.0	None	0.0		0.5	lineyellow.gif	stop															0.384163856506																								0.61	0.51437997818	0.000890016555786	0.384163856506	1.0	q	771.566732168																																	2015_Jun_24_1444	59.9035671031	LearningTask	1	39	
187	-200.0	a	-200.0																	1.0	0.0	1.0	0.0	15.0	3.0	63.0	3.0																													a	1.0	None	0.0		2.0	squareblue.gif	go															0.43391799926799995																								0.0	0.514344930649	0.000970840454102	0.43391799926799995	1.0	a	774.570262194																																	2015_Jun_24_1444	59.9035671031	LearningTask	1	39	
188	200.0	s	-200.0																	1.0	0.0	1.0	0.0	16.0	0.0	64.0	2.0																													s	1.0	None	0.0		0.5	circlegray.gif	go															0.41791677475																								0.59	0.513881206512	0.0009779930114750001	0.41791677475	1.0	s	777.573441982																																	2015_Jun_24_1444	59.9035671031	LearningTask	1	39	
189	200.0	w	200.0																	1.0	0.0	1.0	0.0	16.0	1.0	65.0	0.0																													w	1.0	None	0.0		4.0	invertedtriangleorange.gif	go															0.317319869995																								0.0	0.514323949814	0.000921964645386	0.317319869995	1.0	w	780.576635122																																	2015_Jun_24_1444	59.9035671031	LearningTask	1	39	
190	-200.0	a	-200.0																	1.0	0.0	1.0	0.0	16.0	2.0	66.0	3.0																													a	1.0	None	0.0		0.5	circlegray.gif	go															0.434611082077																								0.45	0.514059066772	0.000926971435547	0.434611082077	1.0	a	783.58021307																																	2015_Jun_24_1444	59.9035671031	LearningTask	1	39	
191	200.0	w	200.0																	1.0	0.0	1.0	0.0	16.0	3.0	67.0	0.0																													w	1.0	None	0.0		0.5	circlegray.gif	go															0.5006530284880001																								0.48	0.514442920685	0.0008859634399410001	0.5006530284880001	1.0	w	786.5835330489999																																	2015_Jun_24_1444	59.9035671031	LearningTask	1	39	
192	-200.0	q	200.0																	1.0	0.0	1.0	0.0	17.0	0.0	68.0	1.0																													q	1.0	None	0.0		4.0	diamondwhite.gif	stop															0.36767911911																								0.0	0.5142688751219999	0.0008859634399410001	0.36767911911	1.0	q	789.5869870189999																																	2015_Jun_24_1444	59.9035671031	LearningTask	1	39	
193	200.0	w	200.0																	1.0	0.0	1.0	0.0	17.0	1.0	69.0	0.0																													w	1.0	None	0.0		2.0	crosscyan.gif	stop															0.317436218262																								0.0	0.513734817505	0.0008859634399410001	0.317436218262	1.0	w	792.5901789669999																																	2015_Jun_24_1444	59.9035671031	LearningTask	1	39	
194	200.0	s	-200.0																	1.0	0.0	1.0	0.0	17.0	2.0	70.0	2.0																													s	1.0	None	0.0		0.5	lineyellow.gif	stop															0.617609024048																								0.44	0.514587879181	0.0008790493011469999	0.617609024048	1.0	s	795.593579054																																	2015_Jun_24_1444	59.9035671031	LearningTask	1	39	
195	200.0	w	200.0																	1.0	0.0	1.0	0.0	17.0	3.0	71.0	0.0																													w	1.0	None	0.0		1.0	trianglegreen.gif	stop															0.38458085060099995																								1.11	0.514317035675	0.000885009765625	0.38458085060099995	1.0	w	798.5967791080001																																	2015_Jun_24_1444	59.9035671031	LearningTask	1	39	
196	-200.0	a	-200.0																	1.0	0.0	1.0	0.0	18.0	0.0	72.0	3.0																													a	1.0	None	0.0		1.0	hexagonmagenta.gif	go															0.484061956406																								1.06	0.5141701698300001	0.0008959770202639998	0.484061956406	1.0	a	801.600190163																																	2015_Jun_24_1444	59.9035671031	LearningTask	1	39	
197	200.0	s	-200.0																	1.0	0.0	1.0	0.0	18.0	1.0	73.0	2.0																													s	1.0	None	0.0		2.0	crosscyan.gif	stop															0.417608976364																								1.93	0.514101982117	0.0009059906005860001	0.417608976364	1.0	s	804.60367012																																	2015_Jun_24_1444	59.9035671031	LearningTask	1	39	
198	200.0	s	-200.0																	1.0	0.0	1.0	0.0	18.0	2.0	74.0	2.0																													s	1.0	None	0.0		1.0	hexagonmagenta.gif	go															0.383936882019																								1.07	0.514347076416	0.0009019374847410001	0.383936882019	1.0	s	807.607172966																																	2015_Jun_24_1444	59.9035671031	LearningTask	1	39	
199	200.0	w	200.0																	1.0	0.0	1.0	0.0	18.0	3.0	75.0	0.0																													w	1.0	None	0.0		1.0	hexagonmagenta.gif	go															0.367702007294																								1.19	0.514001131058	0.0008831024169919999	0.367702007294	1.0	w	810.610264063																																	2015_Jun_24_1444	59.9035671031	LearningTask	1	39	
200	-200.0	a	-200.0																	1.0	0.0	1.0	0.0	19.0	0.0	76.0	3.0																													a	1.0	None	0.0	0.278517007828	0.5	lineyellow.gif	stop															0.31730890274																								0.0	0.514518976212	0.000880002975464	0.384438991547	0.0	q	813.613479137	0.55	0.515685796738	0.0009448528289790001	0.31730890274	1.0	a	816.617082119																										2015_Jun_24_1444	59.9035671031	LearningTask	1	39	
201	-200.0	a	-200.0																	1.0	0.0	1.0	0.0	19.0	1.0	77.0	3.0																													a	1.0	None	0.0		1.0	trianglegreen.gif	stop															0.317157030106																								0.9	0.514497995377	0.0008740425109860002	0.317157030106	1.0	a	819.6204509739999																																	2015_Jun_24_1444	59.9035671031	LearningTask	1	39	
202	-200.0	a	-200.0																	1.0	0.0	1.0	0.0	19.0	2.0	78.0	3.0																													a	1.0	None	0.0		4.0	diamondwhite.gif	stop															0.350878953934																								3.81	0.514263868332	0.00104904174805	0.350878953934	1.0	a	822.623989105																																	2015_Jun_24_1444	59.9035671031	LearningTask	1	39	
203	-200.0	a	-200.0																	1.0	0.0	1.0	0.0	19.0	3.0	79.0	3.0																													a	1.0	None	0.0		4.0	diamondwhite.gif	stop															0.317431926727																								3.93	0.513871908188	0.00088095664978	0.317431926727	1.0	a	825.627068996																																	2015_Jun_24_1444	59.9035671031	LearningTask	1	39	
204	-200.0	a	-200.0																	1.0	0.0	1.0	0.0	20.0	0.0	80.0	3.0																													a	1.0	a	1.0	0.640871047974	2.0	squareblue.gif	go															0.18396115303																								0.0	0.514364004135	0.00112700462341	0.18396115303	1.0	a	828.630460024																																	2015_Jun_24_1444	59.9035671031	LearningTask	1	39	
205	200.0	w	200.0																	1.0	0.0	1.0	0.0	20.0	1.0	81.0	0.0																													w	1.0	None	0.0		4.0	diamondwhite.gif	stop															0.501389026642																								3.95	0.5141630172730001	0.0009329319000239999	0.501389026642	1.0	w	831.6337850089999																																	2015_Jun_24_1444	59.9035671031	LearningTask	1	39	
206	-200.0	a	-200.0																	1.0	0.0	1.0	0.0	20.0	2.0	82.0	3.0																													a	1.0	None	0.0		1.0	hexagonmagenta.gif	go															0.467685937881																								1.0	0.514398097992	0.0008821487426760002	0.467685937881	1.0	a	834.637264967																																	2015_Jun_24_1444	59.9035671031	LearningTask	1	39	
207	200.0	w	200.0																	1.0	0.0	1.0	0.0	20.0	3.0	83.0	0.0																													w	1.0	None	0.0		0.5	lineyellow.gif	stop															0.434376955032																								0.0	0.514188051224	0.0008759498596189999	0.434376955032	1.0	w	837.640900135																																	2015_Jun_24_1444	59.9035671031	LearningTask	1	39	
208	200.0	s	-200.0																	1.0	0.0	1.0	0.0	21.0	0.0	84.0	2.0																													s	1.0	None	0.0		0.5	lineyellow.gif	stop															0.601238012314																								0.43	0.51388001442	0.0008790493011469999	0.601238012314	1.0	s	840.643813133																																	2015_Jun_24_1444	59.9035671031	LearningTask	1	39	
209	200.0	w	200.0																	1.0	0.0	1.0	0.0	21.0	1.0	85.0	0.0																													w	1.0	None	0.0		1.0	hexagonmagenta.gif	go															0.417505979538																								0.0	0.514518976212	0.0008790493011469999	0.417505979538	1.0	w	843.6475591660001																																	2015_Jun_24_1444	59.9035671031	LearningTask	1	39	
210	200.0	s	-200.0																	1.0	0.0	1.0	0.0	21.0	2.0	86.0	2.0																													s	1.0	None	0.0		4.0	invertedtriangleorange.gif	go															0.400826931																								4.14	0.5137360095979999	0.0008749961853029999	0.400826931	1.0	s	846.650804043																																	2015_Jun_24_1444	59.9035671031	LearningTask	1	39	
211	-200.0	q	200.0																	1.0	0.0	1.0	0.0	21.0	3.0	87.0	1.0																													q	1.0	None	0.0		0.5	circlegray.gif	go															0.367731809616																								0.61	0.513904094696	0.0009250640869139999	0.367731809616	1.0	q	849.654306173																																	2015_Jun_24_1444	59.9035671031	LearningTask	1	39	
212	200.0	s	-200.0																	1.0	0.0	1.0	0.0	22.0	0.0	88.0	2.0																													s	1.0	None	0.0		4.0	diamondwhite.gif	stop															0.367414951324																								3.88	0.5140681266780001	0.0008740425109860002	0.367414951324	1.0	s	852.657521009																																	2015_Jun_24_1444	59.9035671031	LearningTask	1	39	
213	200.0	w	200.0																	1.0	0.0	1.0	0.0	22.0	1.0	89.0	0.0																													w	1.0	None	0.0		2.0	squareblue.gif	go															0.334444046021																								2.18	0.513893842697	0.0008718967437739999	0.334444046021	1.0	w	855.6608910560001																																	2015_Jun_24_1444	59.9035671031	LearningTask	1	39	
214	200.0	s	-200.0																	1.0	0.0	1.0	0.0	22.0	2.0	90.0	2.0																													s	1.0	None	0.0		0.5	lineyellow.gif	stop															0.367409944534																								0.49	0.513982057571	0.0009820461273189998	0.367409944534	1.0	s	858.664083004																																	2015_Jun_24_1444	59.9035671031	LearningTask	1	39	
215	200.0	w	200.0																	1.0	0.0	1.0	0.0	22.0	3.0	91.0	0.0																													w	1.0	None	0.0		0.5	circlegray.gif	go															0.43415594101000005																								0.42	0.514355182648	0.0009031295776369999	0.43415594101000005	1.0	w	861.66726017																																	2015_Jun_24_1444	59.9035671031	LearningTask	1	39	
216	-200.0	q	200.0																	1.0	0.0	1.0	0.0	23.0	0.0	92.0	1.0																													q	1.0	None	0.0		1.0	hexagonmagenta.gif	go															0.334566116333																								1.19	0.514496088028	0.0008821487426760002	0.334566116333	1.0	q	864.6708850860001																																	2015_Jun_24_1444	59.9035671031	LearningTask	1	39	
217	200.0	w	200.0																	1.0	0.0	1.0	0.0	23.0	1.0	93.0	0.0																													w	1.0	None	0.0		4.0	diamondwhite.gif	stop															0.284063816071																								3.9	0.5142099857329999	0.000887155532837	0.284063816071	1.0	w	867.67417717																																	2015_Jun_24_1444	59.9035671031	LearningTask	1	39	
218	-200.0	q	200.0																	1.0	0.0	1.0	0.0	23.0	2.0	94.0	1.0																													q	1.0	None	0.0		1.0	trianglegreen.gif	stop															0.500804185867																								1.16	0.514776945114	0.00103402137756	0.500804185867	1.0	q	870.677764177																																	2015_Jun_24_1444	59.9035671031	LearningTask	1	39	
219	200.0	w	200.0																	1.0	0.0	1.0	0.0	23.0	3.0	95.0	0.0																													w	1.0	None	0.0		2.0	crosscyan.gif	stop															0.36765289306599996																								0.0	0.514290094376	0.000877141952515	0.36765289306599996	1.0	w	873.680528164																																	2015_Jun_24_1444	59.9035671031	LearningTask	1	39	
220	-200.0	a	-200.0																	1.0	0.0	1.0	0.0	24.0	0.0	96.0	3.0																													a	1.0	None	0.0		0.5	circlegray.gif	go															0.41760993003799995																								0.0	0.5147550106050001	0.000931024551392	0.41760993003799995	1.0	a	876.683854103																																	2015_Jun_24_1444	59.9035671031	LearningTask	1	39	
221	-200.0	q	200.0																	1.0	0.0	1.0	0.0	24.0	1.0	97.0	1.0																													q	1.0	None	0.0		0.5	lineyellow.gif	stop															0.417499780655																								0.39	0.514508962631	0.000930070877075	0.417499780655	1.0	q	879.687458992																																	2015_Jun_24_1444	59.9035671031	LearningTask	1	39	
222	-200.0	q	200.0																	1.0	0.0	1.0	0.0	24.0	2.0	98.0	1.0																													q	1.0	None	0.0		2.0	squareblue.gif	go															0.433841943741																								1.92	0.514673948288	0.0008831024169919999	0.433841943741	1.0	q	882.6908731460001																																	2015_Jun_24_1444	59.9035671031	LearningTask	1	39	
223	-200.0	a	-200.0																	1.0	0.0	1.0	0.0	24.0	3.0	99.0	3.0																													a	1.0	None	0.0		1.0	hexagonmagenta.gif	go															0.43438696861299997																								0.95	0.514290094376	0.0008831024169919999	0.43438696861299997	1.0	a	885.694455147																																	2015_Jun_24_1444	59.9035671031	LearningTask	1	39	
224																				1.0	0.0	1.0	0.0																																																																																													9.0	2.37818408012																								2015_Jun_24_1444	59.9035671031	LearningTask	1	39	
225	-200.0	q	200.0																	2.0	0.0	2.0	0.0	0.0	0.0	0.0	1.0																													q	1.0	None	0.0		1.0	hexagonmagenta.gif	go															0.46784186363200003																								0.75	0.5088069438930001	0.000873804092407	0.46784186363200003	1.0	q	891.7852330210001																																	2015_Jun_24_1444	59.9035671031	LearningTask	1	39	
226	200.0	s	-200.0																	2.0	0.0	2.0	0.0	0.0	1.0	1.0	2.0																													s	1.0	None	0.0		1.0	hexagonmagenta.gif	go															0.38411307334899997																								1.03	0.51388001442	0.0009140968322749999	0.38411307334899997	1.0	s	894.787822008																																	2015_Jun_24_1444	59.9035671031	LearningTask	1	39	
227	-200.0	a	-200.0																	2.0	0.0	2.0	0.0	0.0	2.0	2.0	3.0																													a	1.0	None	0.0		4.0	diamondwhite.gif	stop															0.351315975189																								0.0	0.514241933823	0.0008728504180910001	0.351315975189	1.0	a	897.791290045																																	2015_Jun_24_1444	59.9035671031	LearningTask	1	39	
228	-200.0	a	-200.0																	2.0	0.0	2.0	0.0	0.0	3.0	3.0	3.0																													a	1.0	None	0.0		1.0	hexagonmagenta.gif	go															0.500903844833																								0.83	0.513955116272	0.00100302696228	0.500903844833	1.0	a	900.794485092																																	2015_Jun_24_1444	59.9035671031	LearningTask	1	39	
229	200.0	w	200.0																	2.0	0.0	2.0	0.0	1.0	0.0	4.0	0.0																													w	1.0	None	0.0		2.0	crosscyan.gif	stop															0.31744289398200004																								1.84	0.514404058456	0.0008790493011469999	0.31744289398200004	1.0	w	903.797824144																																	2015_Jun_24_1444	59.9035671031	LearningTask	1	39	
230	-200.0	q	200.0																	2.0	0.0	2.0	0.0	1.0	1.0	5.0	1.0																													q	1.0	None	0.0		0.5	circlegray.gif	go															0.36734294891400004																								0.72	0.5142588615420001	0.0008749961853029999	0.36734294891400004	1.0	q	906.80134511																																	2015_Jun_24_1444	59.9035671031	LearningTask	1	39	
231	-200.0	a	-200.0																	2.0	0.0	2.0	0.0	1.0	2.0	6.0	3.0																													a	1.0	None	0.0		4.0	diamondwhite.gif	stop															0.484492063522																								4.02	0.513585090637	0.000890016555786	0.484492063522	1.0	a	909.804646015																																	2015_Jun_24_1444	59.9035671031	LearningTask	1	39	
232	-200.0	a	-200.0																	2.0	0.0	2.0	0.0	1.0	3.0	7.0	3.0																													a	1.0	None	0.0		1.0	trianglegreen.gif	stop															0.41769194603																								0.97	0.51430606842	0.0008721351623539999	0.41769194603	1.0	a	912.8081929680001																																	2015_Jun_24_1444	59.9035671031	LearningTask	1	39	
233	200.0	s	-200.0																	2.0	0.0	2.0	0.0	2.0	0.0	8.0	2.0																													s	1.0	None	0.0		1.0	trianglegreen.gif	stop															0.384407997131																								1.04	0.513917922974	0.0008759498596189999	0.384407997131	1.0	s	915.811376095																																	2015_Jun_24_1444	59.9035671031	LearningTask	1	39	
234	-200.0	q	200.0																	2.0	0.0	2.0	0.0	2.0	1.0	9.0	1.0																													q	1.0	None	0.0		2.0	crosscyan.gif	stop															0.283699035645																								1.78	0.514137983322	0.0008919239044189998	0.283699035645	1.0	q	918.814738035																																	2015_Jun_24_1444	59.9035671031	LearningTask	1	39	
235	200.0	s	-200.0																	2.0	0.0	2.0	0.0	2.0	2.0	10.0	2.0																													s	1.0	None	0.0		0.5	lineyellow.gif	stop															0.383947849274																								0.38	0.514295101166	0.00107908248901	0.383947849274	1.0	s	921.8180041310001																																	2015_Jun_24_1444	59.9035671031	LearningTask	1	39	
236	200.0	w	200.0																	2.0	0.0	2.0	0.0	2.0	3.0	11.0	0.0																													w	1.0	None	0.0		0.5	circlegray.gif	go															0.36664199829099997																								0.3	0.514723062515	0.000877141952515	0.36664199829099997	1.0	w	924.821777105																																	2015_Jun_24_1444	59.9035671031	LearningTask	1	39	
237	200.0	s	-200.0																	2.0	0.0	2.0	0.0	3.0	0.0	12.0	2.0																													s	1.0	None	0.0		4.0	diamondwhite.gif	stop															0.40109801292400005																								4.09	0.513672828674	0.0008909702301030001	0.40109801292400005	1.0	s	927.824767113																																	2015_Jun_24_1444	59.9035671031	LearningTask	1	39	
238	200.0	s	-200.0																	2.0	0.0	2.0	0.0	3.0	1.0	13.0	2.0																													s	1.0	None	0.0		0.5	lineyellow.gif	stop															0.434235811234																								0.43	0.5142841339109999	0.0008780956268310002	0.434235811234	1.0	s	930.828095198																																	2015_Jun_24_1444	59.9035671031	LearningTask	1	39	
239	-200.0	q	200.0																	2.0	0.0	2.0	0.0	3.0	2.0	14.0	1.0																													q	1.0	None	0.0		2.0	crosscyan.gif	stop															0.434083223343																								2.17	0.5143339633940001	0.0008759498596189999	0.434083223343	1.0	q	933.831449986																																	2015_Jun_24_1444	59.9035671031	LearningTask	1	39	
240	200.0	s	-200.0																	2.0	0.0	2.0	0.0	3.0	3.0	15.0	2.0																													s	1.0	None	0.0		1.0	hexagonmagenta.gif	go															0.40070700645400004																								1.09	0.514305114746	0.0008909702301030001	0.40070700645400004	1.0	s	936.8349380489999																																	2015_Jun_24_1444	59.9035671031	LearningTask	1	39	
241	200.0	w	200.0																	2.0	0.0	2.0	0.0	4.0	0.0	16.0	0.0																													w	1.0	None	0.0		1.0	trianglegreen.gif	stop															0.367769002914																								0.78	0.513406991959	0.0009391307830810002	0.367769002914	1.0	w	939.838245153																																	2015_Jun_24_1444	59.9035671031	LearningTask	1	39	
242	200.0	s	-200.0																	2.0	0.0	2.0	0.0	4.0	1.0	17.0	2.0																													s	1.0	None	0.0		4.0	invertedtriangleorange.gif	go															0.40074801445																								3.82	0.514158010483	0.000964879989624	0.40074801445	1.0	s	942.8416130539999																																	2015_Jun_24_1444	59.9035671031	LearningTask	1	39	
243	200.0	s	-200.0																	2.0	0.0	2.0	0.0	4.0	2.0	18.0	2.0																													s	1.0	None	0.0		2.0	crosscyan.gif	stop															0.43462395668000003																								1.77	0.514227867126	0.0008780956268310002	0.43462395668000003	1.0	s	945.844707012																																	2015_Jun_24_1444	59.9035671031	LearningTask	1	39	
244	-200.0	a	-200.0																	2.0	0.0	2.0	0.0	4.0	3.0	19.0	3.0																													a	1.0	None	0.0		0.5	circlegray.gif	go															0.484707117081																								0.25	0.514424085617	0.000984191894531	0.484707117081	1.0	a	948.848110199																																	2015_Jun_24_1444	59.9035671031	LearningTask	1	39	
245	200.0	s	-200.0																	2.0	0.0	2.0	0.0	5.0	0.0	20.0	2.0																													s	1.0	None	0.0		1.0	hexagonmagenta.gif	go															0.450728178024																								0.85	0.514477968216	0.0008790493011469999	0.450728178024	1.0	s	951.851514101																																	2015_Jun_24_1444	59.9035671031	LearningTask	1	39	
246	-200.0	q	200.0																	2.0	0.0	2.0	0.0	5.0	1.0	21.0	1.0																													q	1.0	None	0.0		2.0	crosscyan.gif	stop															0.38415789604199996																								1.99	0.514236927032	0.000880002975464	0.38415789604199996	1.0	q	954.85497117																																	2015_Jun_24_1444	59.9035671031	LearningTask	1	39	
247	-200.0	q	200.0																	2.0	0.0	2.0	0.0	5.0	2.0	22.0	1.0																													q	1.0	None	0.0		0.5	circlegray.gif	go															0.401261091232																								0.25	0.513701915741	0.00088906288147	0.401261091232	1.0	q	957.8581080439999																																	2015_Jun_24_1444	59.9035671031	LearningTask	1	39	
248	200.0	w	200.0																	2.0	0.0	2.0	0.0	5.0	3.0	23.0	0.0																													w	1.0	None	0.0		0.5	lineyellow.gif	stop															0.41806411743199995																								0.65	0.514511108398	0.0008749961853029999	0.41806411743199995	1.0	w	960.86175108																																	2015_Jun_24_1444	59.9035671031	LearningTask	1	39	
249	-200.0	q	200.0																	2.0	0.0	2.0	0.0	6.0	0.0	24.0	1.0																													q	1.0	None	0.0		2.0	crosscyan.gif	stop															0.401041030884																								1.79	0.513675928116	0.0009150505065920001	0.401041030884	1.0	q	963.865346193																																	2015_Jun_24_1444	59.9035671031	LearningTask	1	39	
250	200.0	s	-200.0																	2.0	0.0	2.0	0.0	6.0	1.0	25.0	2.0																													s	1.0	None	0.0		0.5	lineyellow.gif	stop															0.400377035141																								0.0	0.513988018036	0.0008940696716310001	0.400377035141	1.0	s	966.868263006																																	2015_Jun_24_1444	59.9035671031	LearningTask	1	39	
251	-200.0	q	200.0																	2.0	0.0	2.0	0.0	6.0	2.0	26.0	1.0																													q	1.0	None	0.0		2.0	crosscyan.gif	stop															0.384238004684																								2.08	0.514412164688	0.0008761882781980001	0.384238004684	1.0	q	969.871592045																																	2015_Jun_24_1444	59.9035671031	LearningTask	1	39	
252	200.0	s	-200.0																	2.0	0.0	2.0	0.0	6.0	3.0	27.0	2.0																													s	1.0	None	0.0		1.0	trianglegreen.gif	stop															0.35124707221999996																								0.9	0.514272928238	0.0008759498596189999	0.35124707221999996	1.0	s	972.875436068																																	2015_Jun_24_1444	59.9035671031	LearningTask	1	39	
253	-200.0	a	-200.0																	2.0	0.0	2.0	0.0	7.0	0.0	28.0	3.0																													a	1.0	None	0.0		2.0	squareblue.gif	go															0.36756277084399996																								0.0	0.513767957687	0.0008909702301030001	0.36756277084399996	1.0	a	975.878406048																																	2015_Jun_24_1444	59.9035671031	LearningTask	1	39	
254	-200.0	q	200.0																	2.0	0.0	2.0	0.0	7.0	1.0	29.0	1.0																													q	1.0	None	0.0		4.0	invertedtriangleorange.gif	go															0.467742919922																								4.18	0.5142819881440001	0.000882863998413	0.467742919922	1.0	q	978.8816950319999																																	2015_Jun_24_1444	59.9035671031	LearningTask	1	39	
255	-200.0	a	-200.0																	2.0	0.0	2.0	0.0	7.0	2.0	30.0	3.0																													a	1.0	None	0.0		2.0	crosscyan.gif	stop															0.451009988785																								0.0	0.5144309997559999	0.000887155532837	0.400842189789	0.0	q	981.885192156	2.02	0.515161991119	0.0009489059448239998	0.451009988785	1.0	a	984.888916016																										2015_Jun_24_1444	59.9035671031	LearningTask	1	39	
256	-200.0	a	-200.0																	2.0	0.0	2.0	0.0	7.0	3.0	31.0	3.0																													a	1.0	None	0.0		2.0	squareblue.gif	go															0.317966938019																								2.17	0.513565063477	0.000922918319702	0.317966938019	1.0	a	987.8919861319999																																	2015_Jun_24_1444	59.9035671031	LearningTask	1	39	
257	200.0	s	-200.0																	2.0	0.0	2.0	0.0	8.0	0.0	32.0	2.0																													s	1.0	None	0.0		4.0	diamondwhite.gif	stop															0.41726899147																								0.0	0.514376163483	0.0008790493011469999	0.41726899147	1.0	s	990.8952341080001																																	2015_Jun_24_1444	59.9035671031	LearningTask	1	39	
258	-200.0	q	200.0																	2.0	0.0	2.0	0.0	8.0	1.0	33.0	1.0																													q	1.0	None	0.0		2.0	squareblue.gif	go															0.334053993225																								0.0	0.51447892189	0.000869035720825	0.334053993225	1.0	q	993.898576021																																	2015_Jun_24_1444	59.9035671031	LearningTask	1	39	
259	-200.0	a	-200.0																	2.0	0.0	2.0	0.0	8.0	2.0	34.0	3.0																													a	1.0	None	0.0		4.0	invertedtriangleorange.gif	go															0.35101389884900003																								3.98	0.514044046402	0.0009329319000239999	0.35101389884900003	1.0	a	996.9018490310001																																	2015_Jun_24_1444	59.9035671031	LearningTask	1	39	
260	200.0	w	200.0																	2.0	0.0	2.0	0.0	8.0	3.0	35.0	0.0																													w	1.0	None	0.0		1.0	hexagonmagenta.gif	go															0.400858879089																								1.21	0.514292001724	0.0008790493011469999	0.400858879089	1.0	w	999.905265093																																	2015_Jun_24_1444	59.9035671031	LearningTask	1	39	
261	200.0	s	-200.0																	2.0	0.0	2.0	0.0	9.0	0.0	36.0	2.0																													s	1.0	None	0.0		0.5	circlegray.gif	go															0.33443403244000003																								0.0	0.514164924622	0.0008878707885739998	0.33443403244000003	1.0	s	1002.9085660000001																																	2015_Jun_24_1444	59.9035671031	LearningTask	1	39	
262	200.0	s	-200.0																	2.0	0.0	2.0	0.0	9.0	1.0	37.0	2.0																													s	1.0	None	0.0		2.0	crosscyan.gif	stop															0.38364505767800006																								1.78	0.514472961426	0.00089693069458	0.38364505767800006	1.0	s	1005.91200113																																	2015_Jun_24_1444	59.9035671031	LearningTask	1	39	
263	200.0	w	200.0																	2.0	0.0	2.0	0.0	9.0	2.0	38.0	0.0																													w	1.0	None	0.0		1.0	hexagonmagenta.gif	go															0.333956003189																								0.95	0.514500141144	0.0008840560913089999	0.333956003189	1.0	w	1008.91529012																																	2015_Jun_24_1444	59.9035671031	LearningTask	1	39	
264	-200.0	a	-200.0																	2.0	0.0	2.0	0.0	9.0	3.0	39.0	3.0																													a	1.0	None	0.0		1.0	trianglegreen.gif	stop															0.41710901260399996																								1.24	0.514383077621	0.0008759498596189999	0.41710901260399996	1.0	a	1011.9188931																																	2015_Jun_24_1444	59.9035671031	LearningTask	1	39	
265	-200.0	a	-200.0																	2.0	0.0	2.0	0.0	10.0	0.0	40.0	3.0																													a	1.0	None	0.0		0.5	lineyellow.gif	stop															0.45082116127																								0.0	0.514065980911	0.00087308883667	0.36782884597800003	0.0	q	1014.92193317	0.5	0.515804052353	0.00093412399292	0.45082116127	1.0	a	1017.92513609																										2015_Jun_24_1444	59.9035671031	LearningTask	1	39	
266	200.0	w	200.0																	2.0	0.0	2.0	0.0	10.0	1.0	41.0	0.0																													w	1.0	None	0.0		2.0	crosscyan.gif	stop															0.434420824051																								2.24	0.514292001724	0.00090503692627	0.434420824051	1.0	w	1020.92920113																																	2015_Jun_24_1444	59.9035671031	LearningTask	1	39	
267	200.0	s	-200.0																	2.0	0.0	2.0	0.0	10.0	2.0	42.0	2.0																													s	1.0	None	0.0		2.0	squareblue.gif	go															0.384531021118																								1.95	0.513796806335	0.0008909702301030001	0.384531021118	1.0	s	1023.93214798																																	2015_Jun_24_1444	59.9035671031	LearningTask	1	39	
268	-200.0	a	-200.0																	2.0	0.0	2.0	0.0	10.0	3.0	43.0	3.0																													a	1.0	None	0.0		4.0	diamondwhite.gif	stop															0.417216062546																								4.17	0.514342069626	0.0009331703186039999	0.417216062546	1.0	a	1026.93536615																																	2015_Jun_24_1444	59.9035671031	LearningTask	1	39	
269	-200.0	q	200.0																	2.0	0.0	2.0	0.0	11.0	0.0	44.0	1.0																													q	1.0	None	0.0		2.0	squareblue.gif	go															0.41767001151999994																								2.03	0.514480113983	0.000869989395142	0.41767001151999994	1.0	q	1029.93892813																																	2015_Jun_24_1444	59.9035671031	LearningTask	1	39	
270	200.0	w	200.0																	2.0	0.0	2.0	0.0	11.0	1.0	45.0	0.0																													w	1.0	None	0.0		0.5	circlegray.gif	go															0.384532928467																								0.69	0.51416015625	0.000885009765625	0.384532928467	1.0	w	1032.94239211																																	2015_Jun_24_1444	59.9035671031	LearningTask	1	39	
271	200.0	w	200.0																	2.0	0.0	2.0	0.0	11.0	2.0	46.0	0.0																													w	1.0	None	0.0		1.0	trianglegreen.gif	stop															0.31775593757599996																								1.01	0.514074087143	0.000988006591797	0.31775593757599996	1.0	w	1035.94576406																																	2015_Jun_24_1444	59.9035671031	LearningTask	1	39	
272	-200.0	a	-200.0																	2.0	0.0	2.0	0.0	11.0	3.0	47.0	3.0																													a	1.0	None	0.0		0.5	lineyellow.gif	stop															0.41785907745399997																								0.7	0.514055967331	0.000869989395142	0.41785907745399997	1.0	a	1038.94886398																																	2015_Jun_24_1444	59.9035671031	LearningTask	1	39	
273	200.0	s	-200.0																	2.0	0.0	2.0	0.0	12.0	0.0	48.0	2.0																													s	1.0	None	0.0		0.5	lineyellow.gif	stop															0.43420290946999995																								0.38	0.5144670009610001	0.000873804092407	0.43420290946999995	1.0	s	1041.95221615																																	2015_Jun_24_1444	59.9035671031	LearningTask	1	39	
274	-200.0	q	200.0																	2.0	0.0	2.0	0.0	12.0	1.0	49.0	1.0																													q	1.0	None	0.0		4.0	diamondwhite.gif	stop															0.38400101661700003																								4.22	0.514194965363	0.000991106033325	0.38400101661700003	1.0	q	1044.95574307																																	2015_Jun_24_1444	59.9035671031	LearningTask	1	39	
275	200.0	s	-200.0																	2.0	0.0	2.0	0.0	12.0	2.0	50.0	2.0																													s	1.0	None	0.0		0.5	circlegray.gif	go															0.38394594192500003																								0.43	0.5143048763279999	0.0008788108825680001	0.38394594192500003	1.0	s	1047.95902205																																	2015_Jun_24_1444	59.9035671031	LearningTask	1	39	
276	-200.0	q	200.0																	2.0	0.0	2.0	0.0	12.0	3.0	51.0	1.0																													q	1.0	None	0.0		0.5	lineyellow.gif	stop															0.401045084																								0.0	0.514220952988	0.0008790493011469999	0.401045084	1.0	q	1050.96261501																																	2015_Jun_24_1444	59.9035671031	LearningTask	1	39	
277	200.0	s	-200.0																	2.0	0.0	2.0	0.0	13.0	0.0	52.0	2.0																													s	1.0	None	0.0		4.0	invertedtriangleorange.gif	go															0.433613061905																								4.21	0.51425409317	0.000900030136108	0.433613061905	1.0	s	1053.96585798																																	2015_Jun_24_1444	59.9035671031	LearningTask	1	39	
