	xPos	corrAns	yPos	corrGoResp	yPosGoStim	xPosGoStim	pracTrials.thisRepN	pracTrials.thisTrialN	pracTrials.thisN	pracTrials.thisIndex	ReDoLoopPrac.thisRepN	ReDoLoopPrac.thisTrialN	ReDoLoopPrac.thisN	ReDoLoopPrac.thisIndex	ReDoLoopPrac.thisTrial	pracStopTrials.thisRepN	pracStopTrials.thisTrialN	pracStopTrials.thisN	pracStopTrials.thisIndex	Blocks.thisRepN	Blocks.thisTrialN	Blocks.thisN	Blocks.thisIndex	trials.thisRepN	trials.thisTrialN	trials.thisN	trials.thisIndex	ReDoLoopMain.thisRepN	ReDoLoopMain.thisTrialN	ReDoLoopMain.thisN	ReDoLoopMain.thisIndex	ReDoLoopMain.thisTrial	StopBlocks.thisRepN	StopBlocks.thisTrialN	StopBlocks.thisN	StopBlocks.thisIndex	StopTrials.thisRepN	StopTrials.thisTrialN	StopTrials.thisN	StopTrials.thisIndex	auctionBlocks.thisRepN	auctionBlocks.thisTrialN	auctionBlocks.thisN	auctionBlocks.thisIndex	auctionTrials.thisRepN	auctionTrials.thisTrialN	auctionTrials.thisN	auctionTrials.thisIndex	learningTrialList	learningPracTrialList	stopTrialList	stopPracTrialList	auctionTrialList	ok1.keys	ok1.rt	resp.keys	resp.corr	resp.rt	feedbackResp.keys	feedbackResp.corr	currentReward	currentStimulus	currentStimType	firstPracComputedRewardOutput	firstPracLearningStimOnset	firstPracLearningFixOnset	firstPracPresentationRT	firstPracPresentationAcc	firstPracPresentationResp	firstPracEndTrialTimeStamp	StartTrialTimeStamp	trialType	goStim	stimType	stopStimValue	goResp.keys	goResp.corr	goResp.rt	key_resp_9.keys	key_resp_9.corr	fixStopOnset	goStimOnset	EndTrialTimeStamp	stopSignalOnset	key_resp_9.rt	key_resp_3.keys	key_resp_3.rt	feedbackResp.rt	firstComputedRewardOutput	firstLearningStimOnset	firstLearningFixOnset	firstPresentationRT	firstPresentationAcc	firstPresentationResp	firstEndTrialTimeStamp	secondComputedRewardOutput	secondLearningStimOnset	secondLearningFixOnset	secondPresentationRT	secondPresentationAcc	secondPresentationResp	secondEndTrialTimeStamp	key_resp_7.keys	key_resp_7.rt	beginningSSD	EndingSSD	key_resp_4.keys	key_resp_4.rt	auctionResponse.keys	auctionStimDuration	auctionStim	auctionAmounts	auctionStimValue	auctionCondition	chosenAuctionAmount	auctionResponse.rt	key_resp_5.keys	key_resp_5.rt	shuffledRewardList	chosenReward1	chosenReward2	chosenReward3	chosenReward4	chosenReward5	key_resp_6.keys	key_resp_6.rt	date	frameRate	expName	session	participant	Unnamed: 131
0																																																	[]	[]	[]	[]	[]	9.0	45.410984039300004																																																																								2015_Jul_02_1354	59.89603920810001	LearningTask	1	75	
1	-200.0	q	200.0				0.0	0.0	0.0	5.0																																														q	1.0	0.651147842407	None	0.0	1.0	circleorange.gif	stop	0.81	0.5061879158020001	0.0302081108093	0.651147842407	1.0	q	102.43507599799999																																																									2015_Jul_02_1354	59.89603920810001	LearningTask	1	75	
2	-200.0	a	-200.0				0.0	1.0	1.0	7.0																																														a	1.0	0.451194047928	None	0.0	4.0	crossblue.gif	stop	0.0	0.51464009285	0.0384418964386	0.451194047928	1.0	a	105.438057899																																																									2015_Jul_02_1354	59.89603920810001	LearningTask	1	75	
3	200.0	w	200.0				0.0	2.0	2.0	8.0																																														w	1.0	0.367469072342	None	0.0	2.0	linegray.gif	stop	2.25	0.514993906021	0.0493409633636	0.367469072342	1.0	w	108.44123292																																																									2015_Jul_02_1354	59.89603920810001	LearningTask	1	75	
4	200.0	w	200.0				0.0	3.0	3.0	4.0																																														w	1.0	0.384095191956	None	0.0	2.0	trianglemagenta.gif	go	2.09	0.5151450634	0.0015611648559600002	0.384095191956	1.0	w	111.444475889																																																									2015_Jul_02_1354	59.89603920810001	LearningTask	1	75	
5	200.0	s	-200.0				0.0	4.0	4.0	2.0																																														s	1.0	0.317395925522	None	0.0	4.0	squarewhite.gif	go	3.97	0.5156350135800001	0.0439488887787	0.317395925522	1.0	s	114.44830489200001																																																									2015_Jul_02_1354	59.89603920810001	LearningTask	1	75	
6	200.0	w	200.0				0.0	5.0	5.0	0.0																																														w	1.0	0.333898067474	None	0.0	2.0	trianglemagenta.gif	go	1.9	0.514348983765	0.00100803375244	0.333898067474	1.0	w	117.45132494																																																									2015_Jul_02_1354	59.89603920810001	LearningTask	1	75	
7	-200.0	q	200.0				0.0	6.0	6.0	9.0																																														q	1.0	0.36788606643700006	None	0.0	1.0	invertedtrianglegreen.gif	go	1.04	0.515259981155	0.0365009307861	0.36788606643700006	1.0	q	120.45494198799999																																																									2015_Jul_02_1354	59.89603920810001	LearningTask	1	75	
8	200.0	s	-200.0				0.0	7.0	7.0	6.0																																														s	1.0	0.334624052048	None	0.0	2.0	trianglemagenta.gif	go	1.85	0.514961004257	0.0008878707885739998	0.334624052048	1.0	s	123.45823288																																																									2015_Jul_02_1354	59.89603920810001	LearningTask	1	75	
9	-200.0	q	200.0				0.0	8.0	8.0	1.0																																														q	1.0	0.384110927582	None	0.0	1.0	circleorange.gif	stop	0.77	0.5146729946140001	0.0009469985961910001	0.384110927582	1.0	q	126.461257935																																																									2015_Jul_02_1354	59.89603920810001	LearningTask	1	75	
10	-200.0	a	-200.0				0.0	9.0	9.0	3.0																																														a	1.0	0.38455700874300003	None	0.0	0.5	diamondyellow.gif	stop	0.0	0.5154449939729999	0.0155282020569	0.38455700874300003	1.0	a	129.46475195899998																																																									2015_Jul_02_1354	59.89603920810001	LearningTask	1	75	
11				z	0.0	-200.0										0.0	0.0	0.0	0.0																																																				174.829706907	go	invertedtrianglegreen.gif	go	1.0	z	1.0	0.400906801224	None	0.0	0.00133299827576	0.50137591362	177.83541584																																												2015_Jul_02_1354	59.89603920810001	LearningTask	1	75	
12				m	0.0	200.0										0.0	1.0	1.0	1.0																																																				177.835811853	go	trianglemagenta.gif	go	2.0	m	1.0	0.317745923996	None	0.0	0.00104904174805	0.515646219254	180.838649988																																												2015_Jul_02_1354	59.89603920810001	LearningTask	1	75	
13				m	0.0	200.0										1.0	0.0	2.0	1.0																																																				180.839020967	go	squarewhite.gif	go	4.0	m	1.0	0.350464105606	None	0.0	0.0009608268737789999	0.516486883163	183.842206001																																												2015_Jul_02_1354	59.89603920810001	LearningTask	1	75	
14				z	0.0	-200.0										1.0	1.0	3.0	0.0																																																				183.84262085	stop	linegray.gif	stop	2.0	z	1.0	0.668061971664	None	0.0	0.0009551048278810001	0.515429973602	186.845496893	0.765910148621																																											2015_Jul_02_1354	59.89603920810001	LearningTask	1	75	
15				m	0.0	200.0										2.0	0.0	4.0	1.0																																																				186.845876932	stop	diamondyellow.gif	stop	0.5	m	1.0	0.40011501312299996	None	0.0	0.00110483169556	0.515980958939	189.84872698799998	0.7659838199619999																																											2015_Jul_02_1354	59.89603920810001	LearningTask	1	75	
16				m	0.0	200.0										2.0	1.0	5.0	1.0																																																				189.849100828	go	invertedtrianglegreen.gif	go	1.0	m	1.0	0.45156002044699994	None	0.0	0.000995874404907	0.515742063522	192.852107048																																												2015_Jul_02_1354	59.89603920810001	LearningTask	1	75	
17				z	0.0	-200.0										3.0	0.0	6.0	0.0																																																				192.852520943	go	invertedtrianglegreen.gif	go	1.0	z	1.0	0.500746965408	None	0.0	0.000955820083618	0.51576590538	195.85519886																																												2015_Jul_02_1354	59.89603920810001	LearningTask	1	75	
18				m	0.0	200.0										3.0	1.0	7.0	1.0																																																				195.855561018	stop	crossblue.gif	stop	4.0	None	0.0		None	0.0	0.0013439655304	0.5160579681399999	198.85952997200002	0.766451120377																																											2015_Jul_02_1354	59.89603920810001	LearningTask	1	75	
19				z	0.0	-200.0										4.0	0.0	8.0	0.0																																																				198.859895945	go	trianglemagenta.gif	go	2.0	None	0.0		z	1.0	0.000973224639893	0.515107154846	201.862366915		0.0332221984863																																										2015_Jul_02_1354	59.89603920810001	LearningTask	1	75	
20				z	0.0	-200.0										4.0	1.0	9.0	0.0																																																				201.862764835	stop	circleorange.gif	stop	1.0	z	1.0	0.517549037933	None	0.0	0.0009479522705080001	0.515801906586	204.865620852	0.765568971634																																											2015_Jul_02_1354	59.89603920810001	LearningTask	1	75	
21																																																																																						9.0	5.297533035280001																																								2015_Jul_02_1354	59.89603920810001	LearningTask	1	75	
22																																																						9.0	12.5480871201																																																																								2015_Jul_02_1354	59.89603920810001	LearningTask	1	75	
23	-200.0	q	200.0																	0.0	0.0	0.0	0.0	0.0	0.0	0.0	1.0																													q	1.0	0.41758608818099996	None	0.0	2.0	trianglemagenta.gif	go																									0.343225002289	0.0	0.5082459449769999	0.000900983810425	[]	0.0	None	225.890120029	2.22	0.515052080154	0.000941038131714	0.41758608818099996	1.0	q	228.893254995																									2015_Jul_02_1354	59.89603920810001	LearningTask	1	75	
24	-200.0	a	-200.0																	0.0	0.0	0.0	0.0	0.0	1.0	1.0	3.0																													a	1.0	0.317608118057	None	0.0	1.0	invertedtrianglegreen.gif	go																										0.94	0.514156103134	0.000907182693481	0.317608118057	1.0	a	231.896642923																																2015_Jul_02_1354	59.89603920810001	LearningTask	1	75	
25	200.0	s	-200.0																	0.0	0.0	0.0	0.0	0.0	2.0	2.0	2.0																													s	1.0	0.35144805908200005	None	0.0	1.0	invertedtrianglegreen.gif	go																										1.08	0.513643026352	0.000900030136108	0.351448059082	1.0	s	234.900593996																																2015_Jul_02_1354	59.89603920810001	LearningTask	1	75	
26	-200.0	a	-200.0																	0.0	0.0	0.0	0.0	0.0	3.0	3.0	3.0																													a	1.0	0.317327976227	None	0.0	1.0	circleorange.gif	stop																										0.89	0.5139260292050001	0.0010430812835700001	0.317327976227	1.0	a	237.90317702299998																																2015_Jul_02_1354	59.89603920810001	LearningTask	1	75	
27	200.0	w	200.0																	0.0	0.0	0.0	0.0	1.0	0.0	4.0	0.0																													w	1.0	0.35074090957599996	None	0.0	0.5	hexagoncyan.gif	go																										0.52	0.51430106163	0.0354819297791	0.350740909576	1.0	w	240.906648874																																2015_Jul_02_1354	59.89603920810001	LearningTask	1	75	
28	200.0	w	200.0																	0.0	0.0	0.0	0.0	1.0	1.0	5.0	0.0																													w	1.0	0.351045846939	None	0.0	4.0	crossblue.gif	stop																										3.84	0.5141971111300001	0.000888109207153	0.351045846939	1.0	w	243.909993887																																2015_Jul_02_1354	59.89603920810001	LearningTask	1	75	
29	200.0	s	-200.0																	0.0	0.0	0.0	0.0	1.0	2.0	6.0	2.0																													s	1.0	0.317800045013	None	0.0	4.0	squarewhite.gif	go																										3.86	0.513989210129	0.00107908248901	0.317800045013	1.0	s	246.91306901																																2015_Jul_02_1354	59.89603920810001	LearningTask	1	75	
30	200.0	s	-200.0																	0.0	0.0	0.0	0.0	1.0	3.0	7.0	2.0																													s	1.0	0.31727695465100003	None	0.0	0.5	diamondyellow.gif	stop																										0.73	0.514852046967	0.00090503692627	0.317276954651	1.0	s	249.916867018																																2015_Jul_02_1354	59.89603920810001	LearningTask	1	75	
31	-200.0	q	200.0																	0.0	0.0	0.0	0.0	2.0	0.0	8.0	1.0																													q	1.0	0.366991996765	None	0.0	0.5	hexagoncyan.gif	go																										0.38	0.514248847961	0.000918865203857	0.366991996765	1.0	q	252.92014098200002																																2015_Jul_02_1354	59.89603920810001	LearningTask	1	75	
32	-200.0	q	200.0																	0.0	0.0	0.0	0.0	2.0	1.0	9.0	1.0																													q	1.0	0.367540121078	None	0.0	4.0	crossblue.gif	stop																										3.77	0.513805866241	0.0009508132934569999	0.367540121078	1.0	q	255.92332887599997																																2015_Jul_02_1354	59.89603920810001	LearningTask	1	75	
33	200.0	s	-200.0																	0.0	0.0	0.0	0.0	2.0	2.0	10.0	2.0																													s	1.0	0.333695888519	None	0.0	1.0	circleorange.gif	stop																										0.95	0.514688968658	0.00090503692627	0.333695888519	1.0	s	258.92673087099996																																2015_Jul_02_1354	59.89603920810001	LearningTask	1	75	
34	-200.0	q	200.0																	0.0	0.0	0.0	0.0	2.0	3.0	11.0	1.0																													q	1.0	0.350747823715	None	0.0	2.0	trianglemagenta.gif	go																										2.08	0.51433801651	0.000900030136108	0.350747823715	1.0	q	261.930058002																																2015_Jul_02_1354	59.89603920810001	LearningTask	1	75	
35	200.0	w	200.0																	0.0	0.0	0.0	0.0	3.0	0.0	12.0	0.0																													w	1.0	0.301225185394	None	0.0	0.5	hexagoncyan.gif	go																										0.0	0.513931035995	0.0009241104125980002	0.301225185394	1.0	w	264.93333602																																2015_Jul_02_1354	59.89603920810001	LearningTask	1	75	
36	-200.0	a	-200.0																	0.0	0.0	0.0	0.0	3.0	1.0	13.0	3.0																													a	1.0	0.283969163895	None	0.0	1.0	invertedtrianglegreen.gif	go																										1.2	0.514650821686	0.000966787338257	0.283969163895	1.0	a	267.936949015																																2015_Jul_02_1354	59.89603920810001	LearningTask	1	75	
37	-200.0	a	-200.0																	0.0	0.0	0.0	0.0	3.0	2.0	14.0	3.0																													a	1.0	0.33394479751600004	None	0.0	2.0	linegray.gif	stop																										0.0	0.5142691135409999	0.000913143157959	0.3341319561	0.0	q	270.940045834	0.0	0.515408992767	0.000982999801636	0.33394479751600004	1.0	a	273.943382978																									2015_Jul_02_1354	59.89603920810001	LearningTask	1	75	
38	-200.0	q	200.0																	0.0	0.0	0.0	0.0	3.0	3.0	15.0	1.0																													q	1.0	0.317248106003	None	0.0	1.0	circleorange.gif	stop																										0.0	0.514308929443	0.0009729862213130002	0.317248106003	1.0	q	276.946856976																																2015_Jul_02_1354	59.89603920810001	LearningTask	1	75	
39	-200.0	a	-200.0																	0.0	0.0	0.0	0.0	4.0	0.0	16.0	3.0																													a	1.0	0.301025867462	None	0.0	0.5	hexagoncyan.gif	go																										0.26	0.51410984993	0.0009019374847410001	0.301025867462	1.0	a	279.95057892799997																																2015_Jul_02_1354	59.89603920810001	LearningTask	1	75	
40	-200.0	a	-200.0																	0.0	0.0	0.0	0.0	4.0	1.0	17.0	3.0																													a	1.0	0.301004171371	None	0.0	2.0	linegray.gif	stop																										1.87	0.513640880585	0.0009160041809079999	0.301004171371	1.0	a	282.953482866																																2015_Jul_02_1354	59.89603920810001	LearningTask	1	75	
41	200.0	w	200.0																	0.0	0.0	0.0	0.0	4.0	2.0	18.0	0.0																													w	1.0	0.317564964294	None	0.0	2.0	linegray.gif	stop																										2.11	0.514173030853	0.000890016555786	0.317564964294	1.0	w	285.956851959																																2015_Jul_02_1354	59.89603920810001	LearningTask	1	75	
42	200.0	s	-200.0																	0.0	0.0	0.0	0.0	4.0	3.0	19.0	2.0																													s	1.0	0.30068898201	None	0.0	2.0	trianglemagenta.gif	go																										2.06	0.514256954193	0.000900983810425	0.30068898201	1.0	s	288.96043992																																2015_Jul_02_1354	59.89603920810001	LearningTask	1	75	
43	-200.0	q	200.0																	0.0	0.0	0.0	0.0	5.0	0.0	20.0	1.0																													q	1.0	0.301012992859	None	0.0	0.5	hexagoncyan.gif	go																										0.38	0.514029026031	0.000917911529541	0.301012992859	1.0	q	291.963510036																																2015_Jul_02_1354	59.89603920810001	LearningTask	1	75	
44	-200.0	q	200.0																	0.0	0.0	0.0	0.0	5.0	1.0	21.0	1.0																													q	1.0	0.401530981064	None	0.0	2.0	linegray.gif	stop																										2.06	0.514362096786	0.0009109973907470001	0.401530981064	1.0	q	294.966742039																																2015_Jul_02_1354	59.89603920810001	LearningTask	1	75	
45	200.0	s	-200.0																	0.0	0.0	0.0	0.0	5.0	2.0	22.0	2.0																													s	1.0	0.317508935928	None	0.0	4.0	squarewhite.gif	go																										4.13	0.5145130157469999	0.000885009765625	0.317508935928	1.0	s	297.970372915																																2015_Jul_02_1354	59.89603920810001	LearningTask	1	75	
46	-200.0	a	-200.0																	0.0	0.0	0.0	0.0	5.0	3.0	23.0	3.0																													a	1.0	0.317162036896	None	0.0	2.0	linegray.gif	stop																										2.09	0.514597177505	0.0008912086486819999	0.317162036896	1.0	a	300.973867893																																2015_Jul_02_1354	59.89603920810001	LearningTask	1	75	
47	200.0	w	200.0																	0.0	0.0	0.0	0.0	6.0	0.0	24.0	0.0																													w	1.0	0.317543029785	None	0.0	4.0	crossblue.gif	stop																										4.21	0.513915061951	0.00103807449341	0.317543029785	1.0	w	303.976980925																																2015_Jul_02_1354	59.89603920810001	LearningTask	1	75	
48	200.0	s	-200.0																	0.0	0.0	0.0	0.0	6.0	1.0	25.0	2.0																													s	1.0	0.317455053329	None	0.0	0.5	diamondyellow.gif	stop																										0.6	0.514243841171	0.0008959770202639998	0.317455053329	1.0	s	306.980291843																																2015_Jul_02_1354	59.89603920810001	LearningTask	1	75	
49	200.0	s	-200.0																	0.0	0.0	0.0	0.0	6.0	2.0	26.0	2.0																													s	1.0	0.36783504486100005	None	0.0	1.0	circleorange.gif	stop																										0.86	0.514105796814	0.0009319782257080001	0.367835044861	1.0	s	309.983690977																																2015_Jul_02_1354	59.89603920810001	LearningTask	1	75	
50	200.0	s	-200.0																	0.0	0.0	0.0	0.0	6.0	3.0	27.0	2.0																													s	1.0	0.334362030029	None	0.0	2.0	linegray.gif	stop																										2.04	0.514014005661	0.0009400844573969999	0.334362030029	1.0	s	312.987090826																																2015_Jul_02_1354	59.89603920810001	LearningTask	1	75	
51	200.0	w	200.0																	0.0	0.0	0.0	0.0	7.0	0.0	28.0	0.0																													w	1.0	0.284455060959	None	0.0	4.0	crossblue.gif	stop																										3.88	0.51425409317	0.0010461807251	0.284455060959	1.0	w	315.99070692099997																																2015_Jul_02_1354	59.89603920810001	LearningTask	1	75	
52	-200.0	a	-200.0																	0.0	0.0	0.0	0.0	7.0	1.0	29.0	3.0																													a	1.0	0.40096616744999997	None	0.0	0.5	diamondyellow.gif	stop																										0.66	0.514140844345	0.0009047985076900001	0.40096616745	1.0	a	318.99384284																																2015_Jul_02_1354	59.89603920810001	LearningTask	1	75	
53	-200.0	q	200.0																	0.0	0.0	0.0	0.0	7.0	2.0	30.0	1.0																													q	1.0	0.33424115180999997	None	0.0	4.0	squarewhite.gif	go																										3.97	0.514010190964	0.000913143157959	0.33424115181	1.0	q	321.997068882																																2015_Jul_02_1354	59.89603920810001	LearningTask	1	75	
54	-200.0	q	200.0																	0.0	0.0	0.0	0.0	7.0	3.0	31.0	1.0																													q	1.0	0.334190130234	None	0.0	0.5	hexagoncyan.gif	go																										0.59	0.514328956604	0.0009319782257080001	0.334190130234	1.0	q	325.00040102																																2015_Jul_02_1354	59.89603920810001	LearningTask	1	75	
55	200.0	s	-200.0																	0.0	0.0	0.0	0.0	8.0	0.0	32.0	2.0																													s	1.0	0.28408503532400003	None	0.0	2.0	linegray.gif	stop																										2.17	0.514420032501	0.0008981227874760001	0.284085035324	1.0	s	328.003963947																																2015_Jul_02_1354	59.89603920810001	LearningTask	1	75	
56	-200.0	a	-200.0																	0.0	0.0	0.0	0.0	8.0	1.0	33.0	3.0																													a	1.0	0.300718069077	None	0.0	0.5	hexagoncyan.gif	go																										0.63	0.514080047607	0.00108289718628	0.300718069077	1.0	a	331.007554054																																2015_Jul_02_1354	59.89603920810001	LearningTask	1	75	
57	200.0	s	-200.0																	0.0	0.0	0.0	0.0	8.0	2.0	34.0	2.0																													s	1.0	0.30046582222	None	0.0	1.0	circleorange.gif	stop																										0.92	0.514073848724	0.0009779930114750001	0.30046582222	1.0	s	334.010607004																																2015_Jul_02_1354	59.89603920810001	LearningTask	1	75	
58	-200.0	a	-200.0																	0.0	0.0	0.0	0.0	8.0	3.0	35.0	3.0																													a	1.0	0.333899021149	None	0.0	2.0	linegray.gif	stop																										2.19	0.514446973801	0.000909090042114	0.333899021149	1.0	a	337.01402401900003																																2015_Jul_02_1354	59.89603920810001	LearningTask	1	75	
59	200.0	s	-200.0																	0.0	0.0	0.0	0.0	9.0	0.0	36.0	2.0																													s	1.0	0.33434486389199997	None	0.0	0.5	hexagoncyan.gif	go																										0.54	0.514276981354	0.0009019374847410001	0.334344863892	1.0	s	340.01733303099996																																2015_Jul_02_1354	59.89603920810001	LearningTask	1	75	
60	-200.0	a	-200.0																	0.0	0.0	0.0	0.0	9.0	1.0	37.0	3.0																													a	1.0	0.334211111069	None	0.0	2.0	trianglemagenta.gif	go																										2.18	0.514102935791	0.00102996826172	0.334211111069	1.0	a	343.020508051																																2015_Jul_02_1354	59.89603920810001	LearningTask	1	75	
61	200.0	w	200.0																	0.0	0.0	0.0	0.0	9.0	2.0	38.0	0.0																													w	1.0	0.384140014648	None	0.0	4.0	squarewhite.gif	go																										3.83	0.514433145523	0.0008950233459470001	0.384140014648	1.0	w	346.02403903																																2015_Jul_02_1354	59.89603920810001	LearningTask	1	75	
62	200.0	w	200.0																	0.0	0.0	0.0	0.0	9.0	3.0	39.0	0.0																													w	1.0	0.350550889969	None	0.0	1.0	invertedtrianglegreen.gif	go																										1.1	0.514457941055	0.0011420249939000002	0.350550889969	1.0	w	349.027441978																																2015_Jul_02_1354	59.89603920810001	LearningTask	1	75	
63	-200.0	a	-200.0																	0.0	0.0	0.0	0.0	10.0	0.0	40.0	3.0																													a	1.0	0.350838899612	None	0.0	4.0	squarewhite.gif	go																										0.0	0.5140249729159999	0.000941038131714	0.350838899612	1.0	a	352.030870914																																2015_Jul_02_1354	59.89603920810001	LearningTask	1	75	
64	200.0	w	200.0																	0.0	0.0	0.0	0.0	10.0	1.0	41.0	0.0																													w	1.0	0.317565917969	None	0.0	0.5	hexagoncyan.gif	go																										0.67	0.514183998108	0.0009319782257080001	0.317565917969	1.0	w	355.03413987199997																																2015_Jul_02_1354	59.89603920810001	LearningTask	1	75	
65	-200.0	q	200.0																	0.0	0.0	0.0	0.0	10.0	2.0	42.0	1.0																													q	1.0	0.38489508628799995	None	0.0	4.0	crossblue.gif	stop																										0.0	0.514279842377	0.000903844833374	0.350941181183	0.0	a	358.037526846	0.0	0.515250921249	0.00109696388245	0.38489508628799995	1.0	q	361.04081487699995																									2015_Jul_02_1354	59.89603920810001	LearningTask	1	75	
66	200.0	s	-200.0																	0.0	0.0	0.0	0.0	10.0	3.0	43.0	2.0																													s	1.0	0.334234952927	None	0.0	2.0	linegray.gif	stop																										2.16	0.5142600536349999	0.0009860992431639998	0.334234952927	1.0	s	364.044395924																																2015_Jul_02_1354	59.89603920810001	LearningTask	1	75	
67	200.0	s	-200.0																	0.0	0.0	0.0	0.0	11.0	0.0	44.0	2.0																													s	1.0	0.38442301750200003	None	0.0	4.0	squarewhite.gif	go																										4.06	0.514131069183	0.000900983810425	0.384423017502	1.0	s	367.047559023																																2015_Jul_02_1354	59.89603920810001	LearningTask	1	75	
68	200.0	w	200.0																	0.0	0.0	0.0	0.0	11.0	1.0	45.0	0.0																													w	1.0	0.350776195526	None	0.0	2.0	linegray.gif	stop																										1.75	0.514068841934	0.0009319782257080001	0.350776195526	1.0	w	370.050746918																																2015_Jul_02_1354	59.89603920810001	LearningTask	1	75	
69	200.0	w	200.0																	0.0	0.0	0.0	0.0	11.0	2.0	46.0	0.0																													w	1.0	0.317979097366	None	0.0	2.0	trianglemagenta.gif	go																										1.77	0.514307022095	0.00095009803772	0.317979097366	1.0	w	373.05410003699996																																2015_Jul_02_1354	59.89603920810001	LearningTask	1	75	
70	200.0	w	200.0																	0.0	0.0	0.0	0.0	11.0	3.0	47.0	0.0																													w	1.0	0.33417892456099996	None	0.0	4.0	crossblue.gif	stop																										4.02	0.514427900314	0.000900030136108	0.334178924561	1.0	w	376.057997942																																2015_Jul_02_1354	59.89603920810001	LearningTask	1	75	
71	200.0	s	-200.0																	0.0	0.0	0.0	0.0	12.0	0.0	48.0	2.0																													s	1.0	0.284047842026	None	0.0	0.5	hexagoncyan.gif	go																										0.44	0.513723134995	0.0009169578552250001	0.284047842026	1.0	s	379.06113004699995																																2015_Jul_02_1354	59.89603920810001	LearningTask	1	75	
72	200.0	s	-200.0																	0.0	0.0	0.0	0.0	12.0	1.0	49.0	2.0																													s	1.0	0.35079407692000003	None	0.0	1.0	invertedtrianglegreen.gif	go																										1.02	0.514377117157	0.0008950233459470001	0.35079407692	1.0	s	382.064291																																2015_Jul_02_1354	59.89603920810001	LearningTask	1	75	
73	200.0	w	200.0																	0.0	0.0	0.0	0.0	12.0	2.0	50.0	0.0																													w	1.0	0.300898075104	None	0.0	2.0	trianglemagenta.gif	go																										2.25	0.514332056046	0.0009059906005860001	0.300898075104	1.0	w	385.067678928																																2015_Jul_02_1354	59.89603920810001	LearningTask	1	75	
74	-200.0	a	-200.0																	0.0	0.0	0.0	0.0	12.0	3.0	51.0	3.0																													a	1.0	0.334372997284	None	0.0	0.5	diamondyellow.gif	stop																										0.0	0.514318943024	0.0009019374847410001	0.334372997284	1.0	a	388.07107186300004																																2015_Jul_02_1354	59.89603920810001	LearningTask	1	75	
75	200.0	s	-200.0																	0.0	0.0	0.0	0.0	13.0	0.0	52.0	2.0																													s	1.0	0.317823171616	None	0.0	4.0	crossblue.gif	stop																										0.0	0.51425409317	0.0010001659393300002	0.317823171616	1.0	s	391.07415795300005																																2015_Jul_02_1354	59.89603920810001	LearningTask	1	75	
76	-200.0	a	-200.0																	0.0	0.0	0.0	0.0	13.0	1.0	53.0	3.0																													a	1.0	0.36772513389600003	None	0.0	0.5	diamondyellow.gif	stop																										0.26	0.514606952667	0.00088906288147	0.367725133896	1.0	a	394.078384876																																2015_Jul_02_1354	59.89603920810001	LearningTask	1	75	
77	-200.0	q	200.0																	0.0	0.0	0.0	0.0	13.0	2.0	54.0	1.0																													q	1.0	0.35025906562799997	None	0.0	4.0	crossblue.gif	stop																										4.24	0.514068841934	0.000898838043213	0.350259065628	1.0	q	397.08118701																																2015_Jul_02_1354	59.89603920810001	LearningTask	1	75	
78	-200.0	a	-200.0																	0.0	0.0	0.0	0.0	13.0	3.0	55.0	3.0																													a	1.0	0.334214925766	None	0.0	4.0	squarewhite.gif	go																										0.0	0.513962984085	0.0010159015655499999	0.334214925766	1.0	a	400.08442282699997																																2015_Jul_02_1354	59.89603920810001	LearningTask	1	75	
79	200.0	w	200.0																	0.0	0.0	0.0	0.0	14.0	0.0	56.0	0.0																													w	1.0	0.35132694244400003	None	0.0	4.0	squarewhite.gif	go																										0.0	0.51443696022	0.0008790493011469999	0.351326942444	1.0	w	403.087752819																																2015_Jul_02_1354	59.89603920810001	LearningTask	1	75	
80	-200.0	q	200.0																	0.0	0.0	0.0	0.0	14.0	1.0	57.0	1.0																													q	1.0	0.283764839172	None	0.0	1.0	invertedtrianglegreen.gif	go																										0.88	0.514461040497	0.0008938312530519999	0.283764839172	1.0	q	406.091140985																																2015_Jul_02_1354	59.89603920810001	LearningTask	1	75	
81	200.0	w	200.0																	0.0	0.0	0.0	0.0	14.0	2.0	58.0	0.0																													w	1.0	0.38428306579599997	None	0.0	0.5	hexagoncyan.gif	go																										0.7	0.5139210224149999	0.00100302696228	0.384283065796	1.0	w	409.09447884599996																																2015_Jul_02_1354	59.89603920810001	LearningTask	1	75	
82	-200.0	q	200.0																	0.0	0.0	0.0	0.0	14.0	3.0	59.0	1.0																													q	1.0	0.31769895553599997	None	0.0	1.0	invertedtrianglegreen.gif	go																										0.96	0.5144588947300001	0.0010159015655499999	0.317698955536	1.0	q	412.09802603699995																																2015_Jul_02_1354	59.89603920810001	LearningTask	1	75	
83	200.0	s	-200.0																	0.0	0.0	0.0	0.0	15.0	0.0	60.0	2.0																													s	1.0	0.300604104996	None	0.0	0.5	diamondyellow.gif	stop																										0.44	0.514240980148	0.0009031295776369999	0.300604104996	1.0	s	415.101140976																																2015_Jul_02_1354	59.89603920810001	LearningTask	1	75	
84	-200.0	a	-200.0																	0.0	0.0	0.0	0.0	15.0	1.0	61.0	3.0																													a	1.0	0.317398071289	None	0.0	0.5	diamondyellow.gif	stop																										0.71	0.514101982117	0.000934839248657	0.317398071289	1.0	a	418.10451102300004																																2015_Jul_02_1354	59.89603920810001	LearningTask	1	75	
85	200.0	s	-200.0																	0.0	0.0	0.0	0.0	15.0	2.0	62.0	2.0																													s	1.0	0.350641965866	None	0.0	2.0	linegray.gif	stop																										1.84	0.514243841171	0.00095796585083	0.350641965866	1.0	s	421.107905865																																2015_Jul_02_1354	59.89603920810001	LearningTask	1	75	
86	-200.0	q	200.0																	0.0	0.0	0.0	0.0	15.0	3.0	63.0	1.0																													q	1.0	0.38455915451	None	0.0	4.0	crossblue.gif	stop																										0.0	0.514292001724	0.000904083251953	0.38455915451	1.0	q	424.11164403																																2015_Jul_02_1354	59.89603920810001	LearningTask	1	75	
87	-200.0	q	200.0																	0.0	0.0	0.0	0.0	16.0	0.0	64.0	1.0																													q	1.0	0.35093998909	None	0.0	4.0	squarewhite.gif	go																										4.07	0.514005899429	0.000900983810425	0.35093998909	1.0	q	427.114770889																																2015_Jul_02_1354	59.89603920810001	LearningTask	1	75	
88	-200.0	q	200.0																	0.0	0.0	0.0	0.0	16.0	1.0	65.0	1.0																													q	1.0	0.417094945908	None	0.0	2.0	linegray.gif	stop																										2.06	0.514528036118	0.0008978843688960001	0.417094945908	1.0	q	430.117964029																																2015_Jul_02_1354	59.89603920810001	LearningTask	1	75	
89	200.0	w	200.0																	0.0	0.0	0.0	0.0	16.0	2.0	66.0	0.0																													w	1.0	0.350876092911	None	0.0	0.5	hexagoncyan.gif	go																										0.33	0.514449119568	0.0008931159973139998	0.350876092911	1.0	w	433.121497869																																2015_Jul_02_1354	59.89603920810001	LearningTask	1	75	
90	200.0	w	200.0																	0.0	0.0	0.0	0.0	16.0	3.0	67.0	0.0																													w	1.0	0.38432383537299997	None	0.0	0.5	diamondyellow.gif	stop																										0.0	0.5141639709470001	0.0009100437164310001	0.384323835373	1.0	w	436.124683857																																2015_Jul_02_1354	59.89603920810001	LearningTask	1	75	
91	200.0	w	200.0																	0.0	0.0	0.0	0.0	17.0	0.0	68.0	0.0																													w	1.0	0.367604017258	None	0.0	0.5	diamondyellow.gif	stop																										0.45	0.514625072479	0.0009019374847410001	0.367604017258	1.0	w	439.12791585900004																																2015_Jul_02_1354	59.89603920810001	LearningTask	1	75	
92	200.0	w	200.0																	0.0	0.0	0.0	0.0	17.0	1.0	69.0	0.0																													w	1.0	0.36758708953900004	None	0.0	1.0	circleorange.gif	stop																										0.0	0.514313936234	0.0009100437164310001	0.367587089539	1.0	w	442.13148403199995																																2015_Jul_02_1354	59.89603920810001	LearningTask	1	75	
93	-200.0	q	200.0																	0.0	0.0	0.0	0.0	17.0	2.0	70.0	1.0																													q	1.0	0.333759069443	None	0.0	4.0	squarewhite.gif	go																										3.98	0.5145049095149999	0.000885009765625	0.333759069443	1.0	q	445.134860992																																2015_Jul_02_1354	59.89603920810001	LearningTask	1	75	
94	-200.0	a	-200.0																	0.0	0.0	0.0	0.0	17.0	3.0	71.0	3.0																													a	1.0	0.30035781860399996	None	0.0	0.5	hexagoncyan.gif	go																										0.0	0.514185190201	0.0009551048278810001	0.300357818604	1.0	a	448.13817381900003																																2015_Jul_02_1354	59.89603920810001	LearningTask	1	75	
95	-200.0	q	200.0																	0.0	0.0	0.0	0.0	18.0	0.0	72.0	1.0																													q	1.0	0.300613880157	None	0.0	4.0	squarewhite.gif	go																										3.9	0.5143561363220001	0.0008859634399410001	0.300613880157	1.0	q	451.14149093599997																																2015_Jul_02_1354	59.89603920810001	LearningTask	1	75	
96	-200.0	a	-200.0																	0.0	0.0	0.0	0.0	18.0	1.0	73.0	3.0																													a	1.0	0.317342042923	None	0.0	4.0	crossblue.gif	stop																										4.22	0.514481067657	0.0009169578552250001	0.317342042923	1.0	a	454.14482784300003																																2015_Jul_02_1354	59.89603920810001	LearningTask	1	75	
97	200.0	s	-200.0																	0.0	0.0	0.0	0.0	18.0	2.0	74.0	2.0																													s	1.0	0.283734083176	None	0.0	0.5	hexagoncyan.gif	go																										0.49	0.5145308971410001	0.000951051712036	0.283734083176	1.0	s	457.148133039																																2015_Jul_02_1354	59.89603920810001	LearningTask	1	75	
98	-200.0	q	200.0																	0.0	0.0	0.0	0.0	18.0	3.0	75.0	1.0																													q	1.0	0.300646066666	None	0.0	0.5	hexagoncyan.gif	go																										0.58	0.514667034149	0.0009479522705080001	0.300646066666	1.0	q	460.151824951																																2015_Jul_02_1354	59.89603920810001	LearningTask	1	75	
99	200.0	w	200.0																	0.0	0.0	0.0	0.0	19.0	0.0	76.0	0.0																													w	1.0	0.416768074036	None	0.0	2.0	linegray.gif	stop																										0.0	0.5140311717989999	0.0009109973907470001	0.300651073456	0.0	s	463.155544043	1.83	0.515202045441	0.00098705291748	0.416768074036	1.0	w	466.158160925																									2015_Jul_02_1354	59.89603920810001	LearningTask	1	75	
100	200.0	s	-200.0																	0.0	0.0	0.0	0.0	19.0	1.0	77.0	2.0																													s	1.0	0.334336996078	None	0.0	2.0	trianglemagenta.gif	go																										2.25	0.514302968979	0.0009560585021970001	0.334336996078	1.0	s	469.161605835																																2015_Jul_02_1354	59.89603920810001	LearningTask	1	75	
101	200.0	w	200.0																	0.0	0.0	0.0	0.0	19.0	2.0	78.0	0.0																													w	1.0	0.334090948105	None	0.0	1.0	circleorange.gif	stop																										1.21	0.5142819881440001	0.000909090042114	0.334090948105	1.0	w	472.16533494																																2015_Jul_02_1354	59.89603920810001	LearningTask	1	75	
102	-200.0	a	-200.0																	0.0	0.0	0.0	0.0	19.0	3.0	79.0	3.0																													a	1.0	0.334149122238	None	0.0	2.0	linegray.gif	stop																										2.02	0.513959884644	0.000903844833374	0.334149122238	1.0	a	475.16836190199996																																2015_Jul_02_1354	59.89603920810001	LearningTask	1	75	
103	200.0	s	-200.0																	0.0	0.0	0.0	0.0	20.0	0.0	80.0	2.0																													s	1.0	0.28405380249	None	0.0	1.0	circleorange.gif	stop																										0.8	0.514228820801	0.000907897949219	0.28405380249	1.0	s	478.171746016																																2015_Jul_02_1354	59.89603920810001	LearningTask	1	75	
104	-200.0	q	200.0																	0.0	0.0	0.0	0.0	20.0	1.0	81.0	1.0																													q	1.0	0.283933877945	None	0.0	2.0	linegray.gif	stop																										2.12	0.514350175858	0.0009012222290039999	0.283933877945	1.0	q	481.175185919																																2015_Jul_02_1354	59.89603920810001	LearningTask	1	75	
105	-200.0	a	-200.0																	0.0	0.0	0.0	0.0	20.0	2.0	82.0	3.0																													a	1.0	0.35071706771899996	None	0.0	0.5	diamondyellow.gif	stop																										0.52	0.514218091965	0.000900030136108	0.350717067719	1.0	a	484.178437948																																2015_Jul_02_1354	59.89603920810001	LearningTask	1	75	
106	-200.0	a	-200.0																	0.0	0.0	0.0	0.0	20.0	3.0	83.0	3.0																													a	1.0	0.334163188934	None	0.0	1.0	circleorange.gif	stop																										1.01	0.5142600536349999	0.00104713439941	0.334163188934	1.0	a	487.18161988300005																																2015_Jul_02_1354	59.89603920810001	LearningTask	1	75	
107	200.0	w	200.0																	0.0	0.0	0.0	0.0	21.0	0.0	84.0	0.0																													w	1.0	0.36746978759800003	None	0.0	2.0	linegray.gif	stop																										2.07	0.5144739151	0.000907897949219	0.367469787598	1.0	w	490.18510794599996																																2015_Jul_02_1354	59.89603920810001	LearningTask	1	75	
108	-200.0	a	-200.0																	0.0	0.0	0.0	0.0	21.0	1.0	85.0	3.0																													a	1.0	0.418318986893	None	0.0	0.5	hexagoncyan.gif	go																										0.0	0.513837099075	0.0009820461273189998	0.418318986893	1.0	a	493.18868684800003																																2015_Jul_02_1354	59.89603920810001	LearningTask	1	75	
109	200.0	s	-200.0																	0.0	0.0	0.0	0.0	21.0	2.0	86.0	2.0																													s	1.0	0.30088019370999997	None	0.0	0.5	diamondyellow.gif	stop																										0.34	0.513777017593	0.0009570121765139998	0.30088019371	1.0	s	496.19186401400003																																2015_Jul_02_1354	59.89603920810001	LearningTask	1	75	
110	-200.0	q	200.0																	0.0	0.0	0.0	0.0	21.0	3.0	87.0	1.0																													q	1.0	0.284107208252	None	0.0	2.0	trianglemagenta.gif	go																										2.13	0.5143899917600001	0.0008950233459470001	0.284107208252	1.0	q	499.19517803199994																																2015_Jul_02_1354	59.89603920810001	LearningTask	1	75	
111	-200.0	q	200.0																	0.0	0.0	0.0	0.0	22.0	0.0	88.0	1.0																													q	1.0	0.285034894943	None	0.0	2.0	linegray.gif	stop																										0.0	0.514337062836	0.0008931159973139998	0.35080909729	0.0	a	502.19855904599996	2.07	0.515325069427	0.00107908248901	0.285034894943	1.0	q	505.201860905																									2015_Jul_02_1354	59.89603920810001	LearningTask	1	75	
112	200.0	w	200.0																	0.0	0.0	0.0	0.0	22.0	1.0	89.0	0.0																													w	1.0	0.36743998527500005	None	0.0	4.0	crossblue.gif	stop																										3.89	0.5142970085140001	0.00107502937317	0.367439985275	1.0	w	508.20553302800005																																2015_Jul_02_1354	59.89603920810001	LearningTask	1	75	
113	-200.0	q	200.0																	0.0	0.0	0.0	0.0	22.0	2.0	90.0	1.0																													q	1.0	0.33412694931	None	0.0	2.0	linegray.gif	stop																										2.12	0.514039039612	0.0009360313415529999	0.33412694931	1.0	q	511.20872402199996																																2015_Jul_02_1354	59.89603920810001	LearningTask	1	75	
114	200.0	s	-200.0																	0.0	0.0	0.0	0.0	22.0	3.0	91.0	2.0																													s	1.0	0.300512075424	None	0.0	0.5	diamondyellow.gif	stop																										0.74	0.5139858722689999	0.000917911529541	0.300512075424	1.0	s	514.211889982																																2015_Jul_02_1354	59.89603920810001	LearningTask	1	75	
115	-200.0	a	-200.0																	0.0	0.0	0.0	0.0	23.0	0.0	92.0	3.0																													a	1.0	0.38414812088	None	0.0	4.0	squarewhite.gif	go																										3.91	0.5142819881440001	0.000949144363403	0.38414812088	1.0	a	517.215157032																																2015_Jul_02_1354	59.89603920810001	LearningTask	1	75	
116	200.0	w	200.0																	0.0	0.0	0.0	0.0	23.0	1.0	93.0	0.0																													w	1.0	0.350771903992	None	0.0	2.0	linegray.gif	stop																										1.75	0.514506101608	0.0008931159973139998	0.350771903992	1.0	w	520.219094038																																2015_Jul_02_1354	59.89603920810001	LearningTask	1	75	
117	-200.0	q	200.0																	0.0	0.0	0.0	0.0	23.0	2.0	94.0	1.0																													q	1.0	0.35071182251	None	0.0	2.0	linegray.gif	stop																										2.03	0.514094114304	0.00090503692627	0.35071182251	1.0	q	523.2221689219999																																2015_Jul_02_1354	59.89603920810001	LearningTask	1	75	
118	-200.0	q	200.0																	0.0	0.0	0.0	0.0	23.0	3.0	95.0	1.0																													q	1.0	0.334384918213	None	0.0	0.5	diamondyellow.gif	stop																										0.66	0.5146138668060001	0.0008990764617919999	0.334384918213	1.0	q	526.225332975																																2015_Jul_02_1354	59.89603920810001	LearningTask	1	75	
119	-200.0	a	-200.0																	0.0	0.0	0.0	0.0	24.0	0.0	96.0	3.0																													a	1.0	0.601878166199	None	0.0	1.0	invertedtrianglegreen.gif	go																										0.0	0.51424407959	0.0008990764617919999	0.601878166199	1.0	a	529.229140997																																2015_Jul_02_1354	59.89603920810001	LearningTask	1	75	
120	200.0	w	200.0																	0.0	0.0	0.0	0.0	24.0	1.0	97.0	0.0																													w	1.0	0.31744289398200004	None	0.0	2.0	trianglemagenta.gif	go																										1.99	0.513635158539	0.000900983810425	0.317442893982	1.0	w	532.232149839																																2015_Jul_02_1354	59.89603920810001	LearningTask	1	75	
121	200.0	s	-200.0																	0.0	0.0	0.0	0.0	24.0	2.0	98.0	2.0																													s	1.0	0.30140781402600003	None	0.0	4.0	crossblue.gif	stop																										4.14	0.5142381191250001	0.00098705291748	0.301407814026	1.0	s	535.2352800369999																																2015_Jul_02_1354	59.89603920810001	LearningTask	1	75	
122	-200.0	a	-200.0																	0.0	0.0	0.0	0.0	24.0	3.0	99.0	3.0																													a	1.0	0.317347049713	None	0.0	2.0	linegray.gif	stop																										1.77	0.5147111415860001	0.0008990764617919999	0.317347049713	1.0	a	538.238924026																																2015_Jul_02_1354	59.89603920810001	LearningTask	1	75	
123																				0.0	0.0	0.0	0.0																																																																																9.0	41.9682600498																							2015_Jul_02_1354	59.89603920810001	LearningTask	1	75	
124	-200.0	a	-200.0																	1.0	0.0	1.0	0.0	0.0	0.0	0.0	3.0																													a	1.0	0.417397022247	None	0.0	2.0	linegray.gif	stop																									0.04381108284	0.0	0.5093848705290001	0.000922918319702	[]	0.0	None	583.656728029	2.04	0.514806032181	0.0009710788726810001	0.417397022247	1.0	a	586.6599750519999																									2015_Jul_02_1354	59.89603920810001	LearningTask	1	75	
125	-200.0	a	-200.0																	1.0	0.0	1.0	0.0	0.0	1.0	1.0	3.0																													a	1.0	0.551113843918	None	0.0	2.0	linegray.gif	stop																										1.96	0.513453006744	0.0009369850158689999	0.551113843918	1.0	a	589.662904024																																2015_Jul_02_1354	59.89603920810001	LearningTask	1	75	
126	200.0	w	200.0																	1.0	0.0	1.0	0.0	0.0	2.0	2.0	0.0																													w	1.0	0.334112882614	None	0.0	4.0	crossblue.gif	stop																										0.0	0.514485120773	0.0008931159973139998	0.334112882614	1.0	w	592.666400909																																2015_Jul_02_1354	59.89603920810001	LearningTask	1	75	
127	-200.0	q	200.0																	1.0	0.0	1.0	0.0	0.0	3.0	3.0	1.0																													q	1.0	0.31761002540600003	None	0.0	1.0	circleorange.gif	stop																										0.0	0.5140898227690001	0.00115299224854	0.317610025406	1.0	q	595.669774055																																2015_Jul_02_1354	59.89603920810001	LearningTask	1	75	
128	-200.0	a	-200.0																	1.0	0.0	1.0	0.0	1.0	0.0	4.0	3.0																													a	1.0	0.333731889725	None	0.0	1.0	invertedtrianglegreen.gif	go																										0.91	0.51404094696	0.00090503692627	0.333731889725	1.0	a	598.673001051																																2015_Jul_02_1354	59.89603920810001	LearningTask	1	75	
129	200.0	s	-200.0																	1.0	0.0	1.0	0.0	1.0	1.0	5.0	2.0																													s	1.0	0.267298936844	None	0.0	0.5	diamondyellow.gif	stop																										0.66	0.5143709182739999	0.0008959770202639998	0.267298936844	1.0	s	601.676287889																																2015_Jul_02_1354	59.89603920810001	LearningTask	1	75	
130	200.0	w	200.0																	1.0	0.0	1.0	0.0	1.0	2.0	6.0	0.0																													w	1.0	0.3004758358	None	0.0	4.0	squarewhite.gif	go																										0.0	0.514366149902	0.0008931159973139998	0.3004758358	1.0	w	604.680155039																																2015_Jul_02_1354	59.89603920810001	LearningTask	1	75	
131	200.0	w	200.0																	1.0	0.0	1.0	0.0	1.0	3.0	7.0	0.0																													w	1.0	0.300828933716	None	0.0	2.0	trianglemagenta.gif	go																										1.89	0.513687133789	0.0009140968322749999	0.300828933716	1.0	w	607.683117867																																2015_Jul_02_1354	59.89603920810001	LearningTask	1	75	
132	200.0	w	200.0																	1.0	0.0	1.0	0.0	2.0	0.0	8.0	0.0																													w	1.0	0.702038049698	None	0.0	2.0	trianglemagenta.gif	go																										1.94	0.514255046844	0.00102806091309	0.702038049698	1.0	w	610.686609983																																2015_Jul_02_1354	59.89603920810001	LearningTask	1	75	
133	200.0	w	200.0																	1.0	0.0	1.0	0.0	2.0	1.0	9.0	0.0																													w	1.0	0.317273139954	None	0.0	2.0	linegray.gif	stop																										1.78	0.514464139938	0.00088906288147	0.317273139954	1.0	w	613.690184832																																2015_Jul_02_1354	59.89603920810001	LearningTask	1	75	
134	200.0	w	200.0																	1.0	0.0	1.0	0.0	2.0	2.0	10.0	0.0																													w	1.0	0.400722980499	None	0.0	0.5	diamondyellow.gif	stop																										0.28	0.514050006866	0.00090217590332	0.400722980499	1.0	w	616.69314599																																2015_Jul_02_1354	59.89603920810001	LearningTask	1	75	
135	-200.0	q	200.0																	1.0	0.0	1.0	0.0	2.0	3.0	11.0	1.0																													q	1.0	0.33427810668900004	None	0.0	4.0	squarewhite.gif	go																										0.0	0.51419210434	0.0010461807251	0.334278106689	1.0	q	619.696399927																																2015_Jul_02_1354	59.89603920810001	LearningTask	1	75	
136	-200.0	a	-200.0																	1.0	0.0	1.0	0.0	3.0	0.0	12.0	3.0																													a	1.0	0.31743311881999997	None	0.0	0.5	hexagoncyan.gif	go																										0.0	0.514487028122	0.00090503692627	0.301199913025	0.0	s	622.699869871	0.65	0.515526771545	0.0009729862213130002	0.31743311881999997	1.0	a	625.703476906																									2015_Jul_02_1354	59.89603920810001	LearningTask	1	75	
137	-200.0	q	200.0																	1.0	0.0	1.0	0.0	3.0	1.0	13.0	1.0																													q	1.0	0.334218025208	None	0.0	2.0	linegray.gif	stop																										0.0	0.51429605484	0.0009398460388180001	0.334218025208	1.0	q	628.7066268919999																																2015_Jul_02_1354	59.89603920810001	LearningTask	1	75	
138	200.0	s	-200.0																	1.0	0.0	1.0	0.0	3.0	2.0	14.0	2.0																													s	1.0	0.334092855453	None	0.0	4.0	crossblue.gif	stop																										4.13	0.5145540237430001	0.0008749961853029999	0.334092855453	1.0	s	631.709874868																																2015_Jul_02_1354	59.89603920810001	LearningTask	1	75	
139	200.0	w	200.0																	1.0	0.0	1.0	0.0	3.0	3.0	15.0	0.0																													w	1.0	0.3343770504	None	0.0	4.0	squarewhite.gif	go																										4.03	0.514424085617	0.0008721351623539999	0.3343770504	1.0	w	634.713284016																																2015_Jul_02_1354	59.89603920810001	LearningTask	1	75	
140	200.0	w	200.0																	1.0	0.0	1.0	0.0	4.0	0.0	16.0	0.0																													w	1.0	0.35101389884900003	None	0.0	4.0	squarewhite.gif	go																										4.09	0.514055967331	0.000904083251953	0.351013898849	1.0	w	637.7166168690001																																2015_Jul_02_1354	59.89603920810001	LearningTask	1	75	
141	200.0	s	-200.0																	1.0	0.0	1.0	0.0	4.0	1.0	17.0	2.0																													s	1.0	0.334098815918	None	0.0	2.0	trianglemagenta.gif	go																										2.2	0.5141258239750001	0.000918865203857	0.334098815918	1.0	s	640.720182896																																2015_Jul_02_1354	59.89603920810001	LearningTask	1	75	
142	-200.0	q	200.0																	1.0	0.0	1.0	0.0	4.0	2.0	18.0	1.0																													q	1.0	0.28377819061299997	None	0.0	0.5	hexagoncyan.gif	go																										0.0	0.514512062073	0.0008821487426760002	0.3006939888	0.0	a	643.723649979	0.64	0.5153038501739999	0.000974893569946	0.28377819061299997	1.0	q	646.7266259190001																									2015_Jul_02_1354	59.89603920810001	LearningTask	1	75	
143	-200.0	a	-200.0																	1.0	0.0	1.0	0.0	4.0	3.0	19.0	3.0																													a	1.0	0.350692033768	None	0.0	2.0	linegray.gif	stop																										1.98	0.514271974564	0.0010168552398699998	0.350692033768	1.0	a	649.729986906																																2015_Jul_02_1354	59.89603920810001	LearningTask	1	75	
144	200.0	s	-200.0																	1.0	0.0	1.0	0.0	5.0	0.0	20.0	2.0																													s	1.0	0.300675153732	None	0.0	4.0	squarewhite.gif	go																										0.0	0.514442920685	0.00086498260498	0.300675153732	1.0	s	652.733650923																																2015_Jul_02_1354	59.89603920810001	LearningTask	1	75	
145	200.0	s	-200.0																	1.0	0.0	1.0	0.0	5.0	1.0	21.0	2.0																													s	1.0	0.317713975906	None	0.0	1.0	circleorange.gif	stop																										0.76	0.513861894608	0.00088095664978	0.317713975906	1.0	s	655.736862898																																2015_Jul_02_1354	59.89603920810001	LearningTask	1	75	
146	200.0	w	200.0																	1.0	0.0	1.0	0.0	5.0	2.0	22.0	0.0																													w	1.0	0.333567142487	None	0.0	0.5	hexagoncyan.gif	go																										0.66	0.5145130157469999	0.0009372234344480001	0.333567142487	1.0	w	658.7401549819999																																2015_Jul_02_1354	59.89603920810001	LearningTask	1	75	
147	200.0	s	-200.0																	1.0	0.0	1.0	0.0	5.0	3.0	23.0	2.0																													s	1.0	0.283854961395	None	0.0	0.5	diamondyellow.gif	stop																										0.71	0.51446390152	0.00088095664978	0.283854961395	1.0	s	661.74363184																																2015_Jul_02_1354	59.89603920810001	LearningTask	1	75	
148	-200.0	a	-200.0																	1.0	0.0	1.0	0.0	6.0	0.0	24.0	3.0																													a	1.0	0.300936937332	None	0.0	0.5	hexagoncyan.gif	go																										0.28	0.514158010483	0.0008831024169919999	0.300936937332	1.0	a	664.746837854																																2015_Jul_02_1354	59.89603920810001	LearningTask	1	75	
149	-200.0	a	-200.0																	1.0	0.0	1.0	0.0	6.0	1.0	25.0	3.0																													a	1.0	0.33398604393000003	None	0.0	1.0	invertedtrianglegreen.gif	go																										0.96	0.514220952988	0.000978946685791	0.33398604393	1.0	a	667.7499978540001																																2015_Jul_02_1354	59.89603920810001	LearningTask	1	75	
150	-200.0	q	200.0																	1.0	0.0	1.0	0.0	6.0	2.0	26.0	1.0																													q	1.0	0.334226846695	None	0.0	4.0	crossblue.gif	stop																										4.01	0.514597177505	0.0008959770202639998	0.334226846695	1.0	q	670.753617048																																2015_Jul_02_1354	59.89603920810001	LearningTask	1	75	
151	-200.0	q	200.0																	1.0	0.0	1.0	0.0	6.0	3.0	27.0	1.0																													q	1.0	0.317316055298	None	0.0	2.0	linegray.gif	stop																										0.0	0.514266014099	0.0008859634399410001	0.334135055542	0.0	a	673.757223845	0.0	0.515476942062	0.0009529590606689998	0.317316055298	1.0	q	676.7603280540001																									2015_Jul_02_1354	59.89603920810001	LearningTask	1	75	
152	-200.0	q	200.0																	1.0	0.0	1.0	0.0	7.0	0.0	28.0	1.0																													q	1.0	0.317163944244	None	0.0	2.0	linegray.gif	stop																										1.9	0.514364004135	0.000880002975464	0.317163944244	1.0	q	679.7636580469999																																2015_Jul_02_1354	59.89603920810001	LearningTask	1	75	
153	200.0	s	-200.0																	1.0	0.0	1.0	0.0	7.0	1.0	29.0	2.0																													s	1.0	0.317682027817	None	0.0	2.0	linegray.gif	stop																										2.13	0.514400005341	0.0008790493011469999	0.317682027817	1.0	s	682.7668738369999																																2015_Jul_02_1354	59.89603920810001	LearningTask	1	75	
154	-200.0	a	-200.0																	1.0	0.0	1.0	0.0	7.0	2.0	30.0	3.0																													a	1.0	0.334169864655	None	0.0	0.5	hexagoncyan.gif	go																										0.72	0.514220952988	0.0009350776672360002	0.334169864655	1.0	a	685.770416021																																2015_Jul_02_1354	59.89603920810001	LearningTask	1	75	
155	200.0	w	200.0																	1.0	0.0	1.0	0.0	7.0	3.0	31.0	0.0																													w	1.0	0.334626913071	None	0.0	0.5	diamondyellow.gif	stop																										0.29	0.514319181442	0.0008721351623539999	0.334626913071	1.0	w	688.7739009860001																																2015_Jul_02_1354	59.89603920810001	LearningTask	1	75	
156	200.0	s	-200.0																	1.0	0.0	1.0	0.0	8.0	0.0	32.0	2.0																													s	1.0	0.267668962479	None	0.0	1.0	invertedtrianglegreen.gif	go																										0.0	0.514110088348	0.00087308883667	0.267668962479	1.0	s	691.7772040369999																																2015_Jul_02_1354	59.89603920810001	LearningTask	1	75	
157	-200.0	q	200.0																	1.0	0.0	1.0	0.0	8.0	1.0	33.0	1.0																													q	1.0	0.283893108368	None	0.0	0.5	hexagoncyan.gif	go																										0.0	0.5139060020449999	0.000890016555786	0.283893108368	1.0	q	694.7804369930001																																2015_Jul_02_1354	59.89603920810001	LearningTask	1	75	
158	-200.0	a	-200.0																	1.0	0.0	1.0	0.0	8.0	2.0	34.0	3.0																													a	1.0	0.317215919495	None	0.0	4.0	crossblue.gif	stop																										4.04	0.514491796494	0.0008749961853029999	0.317215919495	1.0	a	697.7837309839999																																2015_Jul_02_1354	59.89603920810001	LearningTask	1	75	
159	200.0	s	-200.0																	1.0	0.0	1.0	0.0	8.0	3.0	35.0	2.0																													s	1.0	0.35111212730400004	None	0.0	2.0	trianglemagenta.gif	go																										2.18	0.51441192627	0.0008740425109860002	0.351112127304	1.0	s	700.7876448630001																																2015_Jul_02_1354	59.89603920810001	LearningTask	1	75	
160	200.0	s	-200.0																	1.0	0.0	1.0	0.0	9.0	0.0	36.0	2.0																													s	1.0	0.484832048416	None	0.0	4.0	squarewhite.gif	go																										4.0	0.513499975204	0.0008740425109860002	0.484832048416	1.0	s	703.790565968																																2015_Jul_02_1354	59.89603920810001	LearningTask	1	75	
161	200.0	s	-200.0																	1.0	0.0	1.0	0.0	9.0	1.0	37.0	2.0																													s	1.0	0.350836992264	None	0.0	2.0	trianglemagenta.gif	go																										1.96	0.5143408775330001	0.000888824462891	0.350836992264	1.0	s	706.7941670419999																																2015_Jul_02_1354	59.89603920810001	LearningTask	1	75	
162	200.0	s	-200.0																	1.0	0.0	1.0	0.0	9.0	2.0	38.0	2.0																													s	1.0	0.317591905594	None	0.0	2.0	trianglemagenta.gif	go																										0.0	0.514168977737	0.000880002975464	0.317591905594	1.0	s	709.7973768710001																																2015_Jul_02_1354	59.89603920810001	LearningTask	1	75	
163	200.0	s	-200.0																	1.0	0.0	1.0	0.0	9.0	3.0	39.0	2.0																													s	1.0	0.3342628479	None	0.0	0.5	diamondyellow.gif	stop																										0.0	0.514147043228	0.000877857208252	0.3342628479	1.0	s	712.800547838																																2015_Jul_02_1354	59.89603920810001	LearningTask	1	75	
164	-200.0	a	-200.0																	1.0	0.0	1.0	0.0	10.0	0.0	40.0	3.0																													a	1.0	0.334021091461	None	0.0	4.0	crossblue.gif	stop																										4.21	0.514242887497	0.00103878974915	0.334021091461	1.0	a	715.8038330080001																																2015_Jul_02_1354	59.89603920810001	LearningTask	1	75	
165	-200.0	a	-200.0																	1.0	0.0	1.0	0.0	10.0	1.0	41.0	3.0																													a	1.0	0.317389965057	None	0.0	4.0	squarewhite.gif	go																										4.15	0.514643192291	0.000869989395142	0.317389965057	1.0	a	718.808025837																																2015_Jul_02_1354	59.89603920810001	LearningTask	1	75	
166	200.0	s	-200.0																	1.0	0.0	1.0	0.0	10.0	2.0	42.0	2.0																													s	1.0	0.334316968918	None	0.0	2.0	linegray.gif	stop																										0.0	0.513346195221	0.000941038131714	0.334316968918	1.0	s	721.8108429910001																																2015_Jul_02_1354	59.89603920810001	LearningTask	1	75	
167	-200.0	q	200.0																	1.0	0.0	1.0	0.0	10.0	3.0	43.0	1.0																													q	1.0	0.4344880580899999	None	0.0	0.5	hexagoncyan.gif	go																										0.0	0.514023065567	0.00107598304749	0.0836029052734	0.0	s	724.81398797	0.0	0.5152668952939999	0.0010659694671599999	0.4344880580899999	1.0	q	727.8172008989999																									2015_Jul_02_1354	59.89603920810001	LearningTask	1	75	
168	200.0	s	-200.0																	1.0	0.0	1.0	0.0	11.0	0.0	44.0	2.0																													s	1.0	0.400894880295	None	0.0	0.5	diamondyellow.gif	stop																										0.39	0.514734983444	0.000877857208252	0.400894880295	1.0	s	730.8206779960001																																2015_Jul_02_1354	59.89603920810001	LearningTask	1	75	
169	-200.0	a	-200.0																	1.0	0.0	1.0	0.0	11.0	1.0	45.0	3.0																													a	1.0	0.367578983307	None	0.0	2.0	trianglemagenta.gif	go																										0.0	0.5139720439909999	0.0009391307830810002	0.367578983307	1.0	a	733.8241748810001																																2015_Jul_02_1354	59.89603920810001	LearningTask	1	75	
170	-200.0	q	200.0																	1.0	0.0	1.0	0.0	11.0	2.0	46.0	1.0																													q	1.0	0.33418893814100004	None	0.0	0.5	hexagoncyan.gif	go																										0.62	0.514302968979	0.0009369850158689999	0.334188938141	1.0	q	736.827137947																																2015_Jul_02_1354	59.89603920810001	LearningTask	1	75	
171	-200.0	q	200.0																	1.0	0.0	1.0	0.0	11.0	3.0	47.0	1.0																													q	1.0	0.300720930099	None	0.0	2.0	linegray.gif	stop																										2.05	0.514909029007	0.0008769035339360002	0.300720930099	1.0	q	739.830857038																																2015_Jul_02_1354	59.89603920810001	LearningTask	1	75	
172	200.0	w	200.0																	1.0	0.0	1.0	0.0	12.0	0.0	48.0	0.0																													w	1.0	0.350766897202	None	0.0	4.0	crossblue.gif	stop																										4.17	0.5142171382899999	0.0009140968322749999	0.350766897202	1.0	w	742.833925962																																2015_Jul_02_1354	59.89603920810001	LearningTask	1	75	
173	200.0	w	200.0																	1.0	0.0	1.0	0.0	12.0	1.0	49.0	0.0																													w	1.0	0.334408998489	None	0.0	0.5	diamondyellow.gif	stop																										0.52	0.514741897583	0.0008840560913089999	0.334408998489	1.0	w	745.837566853																																2015_Jul_02_1354	59.89603920810001	LearningTask	1	75	
174	200.0	s	-200.0																	1.0	0.0	1.0	0.0	12.0	2.0	50.0	2.0																													s	1.0	0.31760716438299996	None	0.0	1.0	circleorange.gif	stop																										0.94	0.514252901077	0.0009338855743410001	0.317607164383	1.0	s	748.841265917																																2015_Jul_02_1354	59.89603920810001	LearningTask	1	75	
175	-200.0	q	200.0																	1.0	0.0	1.0	0.0	12.0	3.0	51.0	1.0																													q	1.0	0.267669916153	None	0.0	0.5	hexagoncyan.gif	go																										0.0	0.5136311054230001	0.0008919239044189998	0.267669916153	1.0	q	751.843960047																																2015_Jul_02_1354	59.89603920810001	LearningTask	1	75	
176	-200.0	a	-200.0																	1.0	0.0	1.0	0.0	13.0	0.0	52.0	3.0																													a	1.0	0.334010839462	None	0.0	1.0	invertedtrianglegreen.gif	go																										1.2	0.5145778656009999	0.0010199546814	0.334010839462	1.0	a	754.847724915																																2015_Jul_02_1354	59.89603920810001	LearningTask	1	75	
177	200.0	s	-200.0																	1.0	0.0	1.0	0.0	13.0	1.0	53.0	2.0																													s	1.0	0.35115814209	None	0.0	0.5	hexagoncyan.gif	go																										0.66	0.514210939407	0.000881910324097	0.35115814209	1.0	s	757.851125956																																2015_Jul_02_1354	59.89603920810001	LearningTask	1	75	
178	-200.0	a	-200.0																	1.0	0.0	1.0	0.0	13.0	2.0	54.0	3.0																													a	1.0	0.334039926529	None	0.0	1.0	invertedtrianglegreen.gif	go																										0.87	0.514364957809	0.000903844833374	0.334039926529	1.0	a	760.854338884																																2015_Jul_02_1354	59.89603920810001	LearningTask	1	75	
179	-200.0	q	200.0																	1.0	0.0	1.0	0.0	13.0	3.0	55.0	1.0																													q	1.0	0.284150123596	None	0.0	2.0	linegray.gif	stop																										1.95	0.514094114304	0.000938177108765	0.284150123596	1.0	q	763.857455969																																2015_Jul_02_1354	59.89603920810001	LearningTask	1	75	
180	200.0	w	200.0																	1.0	0.0	1.0	0.0	14.0	0.0	56.0	0.0																													w	1.0	0.38423705100999994	None	0.0	1.0	circleorange.gif	stop																										1.03	0.514522075653	0.0008831024169919999	0.38423705101	1.0	w	766.860967875																																2015_Jul_02_1354	59.89603920810001	LearningTask	1	75	
181	200.0	s	-200.0																	1.0	0.0	1.0	0.0	14.0	1.0	57.0	2.0																													s	1.0	0.317557096481	None	0.0	0.5	hexagoncyan.gif	go																										0.0	0.514381170273	0.0008749961853029999	0.317557096481	1.0	s	769.864498854																																2015_Jul_02_1354	59.89603920810001	LearningTask	1	75	
182	-200.0	q	200.0																	1.0	0.0	1.0	0.0	14.0	2.0	58.0	1.0																													q	1.0	0.41760301590000004	None	0.0	0.5	diamondyellow.gif	stop																										0.0	0.513637781143	0.00107979774475	0.284389019012	0.0	a	772.867948055	0.46	0.515396118164	0.0009400844573969999	0.41760301590000004	1.0	q	775.871048927																									2015_Jul_02_1354	59.89603920810001	LearningTask	1	75	
183	-200.0	a	-200.0																	1.0	0.0	1.0	0.0	14.0	3.0	59.0	3.0																													a	1.0	0.267524957657	None	0.0	0.5	diamondyellow.gif	stop																										0.0	0.514533996582	0.0008831024169919999	0.300540924072	0.0	q	778.87449193	0.0	0.515287160873	0.00102996826172	0.267524957657	1.0	a	781.8776628969999																									2015_Jul_02_1354	59.89603920810001	LearningTask	1	75	
184	200.0	w	200.0																	1.0	0.0	1.0	0.0	15.0	0.0	60.0	0.0																													w	1.0	0.434139966965	None	0.0	1.0	circleorange.gif	stop																										1.12	0.5146160125729999	0.000885009765625	0.434139966965	1.0	w	784.8811140060001																																2015_Jul_02_1354	59.89603920810001	LearningTask	1	75	
185	-200.0	q	200.0																	1.0	0.0	1.0	0.0	15.0	1.0	61.0	1.0																													q	1.0	0.40101981163	None	0.0	2.0	linegray.gif	stop																										2.09	0.514137983322	0.0009100437164310001	0.40101981163	1.0	q	787.884870052																																2015_Jul_02_1354	59.89603920810001	LearningTask	1	75	
186	-200.0	a	-200.0																	1.0	0.0	1.0	0.0	15.0	2.0	62.0	3.0																													a	1.0	0.3507168293	None	0.0	1.0	invertedtrianglegreen.gif	go																										1.09	0.513737201691	0.000877141952515	0.3507168293	1.0	a	790.887876034																																2015_Jul_02_1354	59.89603920810001	LearningTask	1	75	
187	-200.0	q	200.0																	1.0	0.0	1.0	0.0	15.0	3.0	63.0	1.0																													q	1.0	0.30082011222800004	None	0.0	1.0	circleorange.gif	stop																										0.89	0.5144438743590001	0.0009019374847410001	0.300820112228	1.0	q	793.891228914																																2015_Jul_02_1354	59.89603920810001	LearningTask	1	75	
188	200.0	w	200.0																	1.0	0.0	1.0	0.0	16.0	0.0	64.0	0.0																													w	1.0	0.534465074539	None	0.0	0.5	hexagoncyan.gif	go																										0.72	0.514240026474	0.0008919239044189998	0.534465074539	1.0	w	796.89524889																																2015_Jul_02_1354	59.89603920810001	LearningTask	1	75	
189	200.0	s	-200.0																	1.0	0.0	1.0	0.0	16.0	1.0	65.0	2.0																													s	1.0	0.300811052322	None	0.0	0.5	diamondyellow.gif	stop																										0.32	0.513305187225	0.0009031295776369999	0.300811052322	1.0	s	799.8980808260001																																2015_Jul_02_1354	59.89603920810001	LearningTask	1	75	
190	200.0	w	200.0																	1.0	0.0	1.0	0.0	16.0	2.0	66.0	0.0																													w	1.0	0.501260042191	None	0.0	0.5	hexagoncyan.gif	go																										0.6	0.514528989792	0.000928163528442	0.501260042191	1.0	w	802.901345015																																2015_Jul_02_1354	59.89603920810001	LearningTask	1	75	
191	200.0	s	-200.0																	1.0	0.0	1.0	0.0	16.0	3.0	67.0	2.0																													s	1.0	0.334346055984	None	0.0	4.0	crossblue.gif	stop																										3.77	0.514302015305	0.0008780956268310002	0.334346055984	1.0	s	805.904881001																																2015_Jul_02_1354	59.89603920810001	LearningTask	1	75	
192	-200.0	q	200.0																	1.0	0.0	1.0	0.0	17.0	0.0	68.0	1.0																													q	1.0	0.333674907684	None	0.0	4.0	crossblue.gif	stop																										4.15	0.514276981354	0.000981092453003	0.333674907684	1.0	q	808.907942057																																2015_Jul_02_1354	59.89603920810001	LearningTask	1	75	
193	200.0	s	-200.0																	1.0	0.0	1.0	0.0	17.0	1.0	69.0	2.0																													s	1.0	0.334445953369	None	0.0	2.0	trianglemagenta.gif	go																										2.0	0.5143561363220001	0.0009551048278810001	0.334445953369	1.0	s	811.911223888																																2015_Jul_02_1354	59.89603920810001	LearningTask	1	75	
194	-200.0	a	-200.0																	1.0	0.0	1.0	0.0	17.0	2.0	70.0	3.0																													a	1.0	0.33422279357900003	None	0.0	2.0	linegray.gif	stop																										1.88	0.514435052872	0.0008859634399410001	0.334222793579	1.0	a	814.914726973																																2015_Jul_02_1354	59.89603920810001	LearningTask	1	75	
195	-200.0	a	-200.0																	1.0	0.0	1.0	0.0	17.0	3.0	71.0	3.0																													a	1.0	0.584531068802	None	0.0	2.0	trianglemagenta.gif	go																										2.07	0.514261960983	0.0008709430694580001	0.584531068802	1.0	a	817.918337822																																2015_Jul_02_1354	59.89603920810001	LearningTask	1	75	
196	200.0	w	200.0																	1.0	0.0	1.0	0.0	18.0	0.0	72.0	0.0																													w	1.0	0.517946958542	None	0.0	4.0	crossblue.gif	stop																										3.98	0.513988018036	0.0009591579437260001	0.517946958542	1.0	w	820.9216489789999																																2015_Jul_02_1354	59.89603920810001	LearningTask	1	75	
197	-200.0	q	200.0																	1.0	0.0	1.0	0.0	18.0	1.0	73.0	1.0																													q	1.0	0.33429288864100004	None	0.0	2.0	trianglemagenta.gif	go																										2.03	0.514276981354	0.0008759498596189999	0.334292888641	1.0	q	823.924760818																																2015_Jul_02_1354	59.89603920810001	LearningTask	1	75	
198	200.0	w	200.0																	1.0	0.0	1.0	0.0	18.0	2.0	74.0	0.0																													w	1.0	0.8014080524439999	None	0.0	1.0	invertedtrianglegreen.gif	go																										1.05	0.514375925064	0.000881910324097	0.801408052444	1.0	w	826.928287029																																2015_Jul_02_1354	59.89603920810001	LearningTask	1	75	
199	-200.0	a	-200.0																	1.0	0.0	1.0	0.0	18.0	3.0	75.0	3.0																													a	1.0	0.417675018311	None	0.0	1.0	circleorange.gif	stop																										0.0	0.513676166534	0.0009720325469970001	0.417675018311	1.0	a	829.931488037																																2015_Jul_02_1354	59.89603920810001	LearningTask	1	75	
200	-200.0	a	-200.0																	1.0	0.0	1.0	0.0	19.0	0.0	76.0	3.0																													a	1.0	0.384066104889	None	0.0	4.0	crossblue.gif	stop																										0.0	0.514359951019	0.0008749961853029999	0.901639223099	0.0	s	832.935150862	0.0	0.515470027924	0.000941038131714	0.384066104889	1.0	a	835.9385988710001																									2015_Jul_02_1354	59.89603920810001	LearningTask	1	75	
201	200.0	w	200.0																	1.0	0.0	1.0	0.0	19.0	1.0	77.0	0.0																													w	1.0	0.46744799613999993	None	0.0	1.0	invertedtrianglegreen.gif	go																										1.01	0.513730049133	0.000890016555786	0.46744799614	1.0	w	838.9415349960001																																2015_Jul_02_1354	59.89603920810001	LearningTask	1	75	
202	-200.0	q	200.0																	1.0	0.0	1.0	0.0	19.0	2.0	78.0	1.0																													q	1.0	0.317853927612	None	0.0	0.5	hexagoncyan.gif	go																										0.0	0.514406919479	0.000880002975464	0.317853927612	1.0	q	841.9447858330001																																2015_Jul_02_1354	59.89603920810001	LearningTask	1	75	
203	200.0	s	-200.0																	1.0	0.0	1.0	0.0	19.0	3.0	79.0	2.0																													s	1.0	0.35084319114699997	None	0.0	0.5	hexagoncyan.gif	go																										0.0	0.51442193985	0.00088095664978	0.350843191147	1.0	s	844.9489438530001																																2015_Jul_02_1354	59.89603920810001	LearningTask	1	75	
204	-200.0	q	200.0																	1.0	0.0	1.0	0.0	20.0	0.0	80.0	1.0																													q	1.0	0.43376493454	None	0.0	4.0	crossblue.gif	stop																										3.94	0.514143943787	0.000877857208252	0.43376493454	1.0	q	847.9516808989999																																2015_Jul_02_1354	59.89603920810001	LearningTask	1	75	
205	200.0	w	200.0																	1.0	0.0	1.0	0.0	20.0	1.0	81.0	0.0																													w	1.0	0.367650032043	None	0.0	1.0	circleorange.gif	stop																										0.79	0.514050006866	0.0009169578552250001	0.367650032043	1.0	w	850.955238819																																2015_Jul_02_1354	59.89603920810001	LearningTask	1	75	
206	200.0	s	-200.0																	1.0	0.0	1.0	0.0	20.0	2.0	82.0	2.0																													s	1.0	0.334003925323	None	0.0	4.0	squarewhite.gif	go																										0.0	0.514195919037	0.0008769035339360002	0.334003925323	1.0	s	853.95852685																																2015_Jul_02_1354	59.89603920810001	LearningTask	1	75	
207	200.0	w	200.0																	1.0	0.0	1.0	0.0	20.0	3.0	83.0	0.0																													w	1.0	0.367455005646	None	0.0	2.0	trianglemagenta.gif	go																										1.92	0.514173030853	0.0008749961853029999	0.367455005646	1.0	w	856.961668015																																2015_Jul_02_1354	59.89603920810001	LearningTask	1	75	
208	200.0	w	200.0																	1.0	0.0	1.0	0.0	21.0	0.0	84.0	0.0																													w	1.0	0.367980003357	None	0.0	1.0	circleorange.gif	stop																										0.87	0.514258146286	0.000984191894531	0.367980003357	1.0	w	859.964843035																																2015_Jul_02_1354	59.89603920810001	LearningTask	1	75	
209	200.0	s	-200.0																	1.0	0.0	1.0	0.0	21.0	1.0	85.0	2.0																													s	1.0	0.38434791564900006	None	0.0	2.0	linegray.gif	stop																										2.01	0.5145008564	0.0008759498596189999	0.384347915649	1.0	s	862.9684779639999																																2015_Jul_02_1354	59.89603920810001	LearningTask	1	75	
210	-200.0	q	200.0																	1.0	0.0	1.0	0.0	21.0	2.0	86.0	1.0																													q	1.0	0.434373855591	None	0.0	2.0	linegray.gif	stop																										1.92	0.514143943787	0.0008721351623539999	0.434373855591	1.0	q	865.971673012																																2015_Jul_02_1354	59.89603920810001	LearningTask	1	75	
211	-200.0	q	200.0																	1.0	0.0	1.0	0.0	21.0	3.0	87.0	1.0																													q	1.0	0.367920160294	None	0.0	0.5	hexagoncyan.gif	go																										0.52	0.514047861099	0.00112199783325	0.367920160294	1.0	q	868.975178957																																2015_Jul_02_1354	59.89603920810001	LearningTask	1	75	
212	-200.0	a	-200.0																	1.0	0.0	1.0	0.0	22.0	0.0	88.0	3.0																													a	1.0	0.484518051147	None	0.0	0.5	diamondyellow.gif	stop																										0.0	0.514170885086	0.0008759498596189999	0.484518051147	1.0	a	871.978579998																																2015_Jul_02_1354	59.89603920810001	LearningTask	1	75	
213	-200.0	q	200.0																	1.0	0.0	1.0	0.0	22.0	1.0	89.0	1.0																													q	1.0	0.41770100593599996	None	0.0	0.5	diamondyellow.gif	stop																										0.0	0.51425409317	0.0008749961853029999	0.417701005936	1.0	q	874.9818899630001																																2015_Jul_02_1354	59.89603920810001	LearningTask	1	75	
214	-200.0	a	-200.0																	1.0	0.0	1.0	0.0	22.0	2.0	90.0	3.0																													a	1.0	0.434134960175	None	0.0	2.0	trianglemagenta.gif	go																										1.78	0.514450073242	0.0009100437164310001	0.434134960175	1.0	a	877.985050917																																2015_Jul_02_1354	59.89603920810001	LearningTask	1	75	
215	200.0	w	200.0																	1.0	0.0	1.0	0.0	22.0	3.0	91.0	0.0																													w	1.0	0.384306907654	None	0.0	4.0	crossblue.gif	stop																										4.0	0.514464139938	0.0008749961853029999	0.384306907654	1.0	w	880.9887259010001																																2015_Jul_02_1354	59.89603920810001	LearningTask	1	75	
216	-200.0	a	-200.0																	1.0	0.0	1.0	0.0	23.0	0.0	92.0	3.0																													a	1.0	0.300808906555	None	0.0	0.5	diamondyellow.gif	stop																										0.37	0.514060974121	0.0008780956268310002	0.300808906555	1.0	a	883.992482901																																2015_Jul_02_1354	59.89603920810001	LearningTask	1	75	
217	-200.0	q	200.0																	1.0	0.0	1.0	0.0	23.0	1.0	93.0	1.0																													q	1.0	0.467486858368	None	0.0	1.0	circleorange.gif	stop																										1.09	0.513472795486	0.0008978843688960001	0.467486858368	1.0	q	886.995311022																																2015_Jul_02_1354	59.89603920810001	LearningTask	1	75	
218	-200.0	q	200.0																	1.0	0.0	1.0	0.0	23.0	2.0	94.0	1.0																													q	1.0	0.48487806320200005	None	0.0	1.0	invertedtrianglegreen.gif	go																										0.0	0.514375925064	0.0008740425109860002	0.484878063202	1.0	q	889.9988148210001																																2015_Jul_02_1354	59.89603920810001	LearningTask	1	75	
219	200.0	w	200.0																	1.0	0.0	1.0	0.0	23.0	3.0	95.0	0.0																													w	1.0	0.500890016556	None	0.0	1.0	circleorange.gif	stop																										0.94	0.514220952988	0.000881910324097	0.500890016556	1.0	w	893.0025630000001																																2015_Jul_02_1354	59.89603920810001	LearningTask	1	75	
220	200.0	w	200.0																	1.0	0.0	1.0	0.0	24.0	0.0	96.0	0.0																													w	1.0	0.434205055237	None	0.0	4.0	crossblue.gif	stop																										3.88	0.5137798786159999	0.0008938312530519999	0.434205055237	1.0	w	896.005360842																																2015_Jul_02_1354	59.89603920810001	LearningTask	1	75	
221	-200.0	a	-200.0																	1.0	0.0	1.0	0.0	24.0	1.0	97.0	3.0																													a	1.0	0.417652130127	None	0.0	4.0	squarewhite.gif	go																										3.83	0.5146160125729999	0.0008931159973139998	0.417652130127	1.0	a	899.00896287																																2015_Jul_02_1354	59.89603920810001	LearningTask	1	75	
222	200.0	s	-200.0																	1.0	0.0	1.0	0.0	24.0	2.0	98.0	2.0																													s	1.0	0.450951099396	None	0.0	4.0	crossblue.gif	stop																										3.83	0.514307975769	0.0008780956268310002	0.450951099396	1.0	s	902.0122289660001																																2015_Jul_02_1354	59.89603920810001	LearningTask	1	75	
223	-200.0	a	-200.0																	1.0	0.0	1.0	0.0	24.0	3.0	99.0	3.0																													a	1.0	0.350900173187	None	0.0	0.5	diamondyellow.gif	stop																										0.64	0.514168024063	0.0008981227874760001	0.350900173187	1.0	a	905.015296936																																2015_Jul_02_1354	59.89603920810001	LearningTask	1	75	
224																				1.0	0.0	1.0	0.0																																																																																9.0	7.900225162510001																							2015_Jul_02_1354	59.89603920810001	LearningTask	1	75	
225	200.0	w	200.0																	2.0	0.0	2.0	0.0	0.0	0.0	0.0	0.0																													w	1.0	0.718101024628	None	0.0	1.0	invertedtrianglegreen.gif	go																										0.0	0.510107040405	0.0009860992431639998	0.718101024628	1.0	w	916.6292879580001																																2015_Jul_02_1354	59.89603920810001	LearningTask	1	75	
226	-200.0	a	-200.0																	2.0	0.0	2.0	0.0	0.0	1.0	1.0	3.0																													a	1.0	0.400767803192	None	0.0	1.0	circleorange.gif	stop																										1.21	0.513352870941	0.0008790493011469999	0.400767803192	1.0	a	919.631810904																																2015_Jul_02_1354	59.89603920810001	LearningTask	1	75	
227	200.0	s	-200.0																	2.0	0.0	2.0	0.0	0.0	2.0	2.0	2.0																													s	1.0	0.38377404213	None	0.0	0.5	hexagoncyan.gif	go																										0.0	0.5146980285639999	0.0009379386901860002	0.38377404213	1.0	s	922.6349709030001																																2015_Jul_02_1354	59.89603920810001	LearningTask	1	75	
228	-200.0	a	-200.0																	2.0	0.0	2.0	0.0	0.0	3.0	3.0	3.0																													a	1.0	0.467643022537	None	0.0	4.0	squarewhite.gif	go																										4.05	0.514290094376	0.000908136367798	0.467643022537	1.0	a	925.638473034																																2015_Jul_02_1354	59.89603920810001	LearningTask	1	75	
229	200.0	w	200.0																	2.0	0.0	2.0	0.0	1.0	0.0	4.0	0.0																													w	1.0	0.35083603858900003	None	0.0	2.0	trianglemagenta.gif	go																										0.0	0.514326095581	0.000881195068359	0.350836038589	1.0	w	928.64180994																																2015_Jul_02_1354	59.89603920810001	LearningTask	1	75	
230	-200.0	a	-200.0																	2.0	0.0	2.0	0.0	1.0	1.0	5.0	3.0																													a	1.0	0.467764139175	None	0.0	4.0	crossblue.gif	stop																										3.93	0.51403594017	0.000931024551392	0.467764139175	1.0	a	931.645405054																																2015_Jul_02_1354	59.89603920810001	LearningTask	1	75	
231	-200.0	a	-200.0																	2.0	0.0	2.0	0.0	1.0	2.0	6.0	3.0																													a	1.0	0.400642871857	None	0.0	2.0	trianglemagenta.gif	go																										2.07	0.514314889908	0.000890016555786	0.400642871857	1.0	a	934.6485898489999																																2015_Jul_02_1354	59.89603920810001	LearningTask	1	75	
232	200.0	s	-200.0																	2.0	0.0	2.0	0.0	1.0	3.0	7.0	2.0																													s	1.0	0.367817878723	None	0.0	1.0	circleorange.gif	stop																										1.2	0.5140829086300001	0.0008780956268310002	0.367817878723	1.0	s	937.6519658569999																																2015_Jul_02_1354	59.89603920810001	LearningTask	1	75	
233	-200.0	a	-200.0																	2.0	0.0	2.0	0.0	2.0	0.0	8.0	3.0																													a	1.0	0.350980997086	None	0.0	2.0	trianglemagenta.gif	go																										0.0	0.5143940448759999	0.0008759498596189999	0.350980997086	1.0	a	940.655279875																																2015_Jul_02_1354	59.89603920810001	LearningTask	1	75	
234	-200.0	q	200.0																	2.0	0.0	2.0	0.0	2.0	1.0	9.0	1.0																													q	1.0	0.35084891319300004	None	0.0	1.0	circleorange.gif	stop																										1.05	0.514087915421	0.0008838176727290001	0.350848913193	1.0	q	943.6590218539999																																2015_Jul_02_1354	59.89603920810001	LearningTask	1	75	
235	-200.0	q	200.0																	2.0	0.0	2.0	0.0	2.0	2.0	10.0	1.0																													q	1.0	0.368176937103	None	0.0	1.0	invertedtrianglegreen.gif	go																										0.0	0.513702869415	0.000869989395142	0.368176937103	1.0	q	946.661939859																																2015_Jul_02_1354	59.89603920810001	LearningTask	1	75	
236	200.0	w	200.0																	2.0	0.0	2.0	0.0	2.0	3.0	11.0	0.0																													w	1.0	0.334681987762	None	0.0	1.0	invertedtrianglegreen.gif	go																										1.05	0.5141398906710001	0.0008759498596189999	0.334681987762	1.0	w	949.665640831																																2015_Jul_02_1354	59.89603920810001	LearningTask	1	75	
237	-200.0	a	-200.0																	2.0	0.0	2.0	0.0	3.0	0.0	12.0	3.0																													a	1.0	0.401000976562	None	0.0	4.0	crossblue.gif	stop																										0.0	0.513756990433	0.000892877578735	0.401000976562	1.0	a	952.6684160230001																																2015_Jul_02_1354	59.89603920810001	LearningTask	1	75	
238	200.0	s	-200.0																	2.0	0.0	2.0	0.0	3.0	1.0	13.0	2.0																													s	1.0	0.384032011032	None	0.0	2.0	trianglemagenta.gif	go																										0.0	0.514877080917	0.0008749961853029999	0.384032011032	1.0	s	955.672138929																																2015_Jul_02_1354	59.89603920810001	LearningTask	1	75	
239	-200.0	q	200.0																	2.0	0.0	2.0	0.0	3.0	2.0	14.0	1.0																													q	1.0	0.43434214592	None	0.0	2.0	linegray.gif	stop																										1.87	0.514126062393	0.000869035720825	0.43434214592	1.0	q	958.675391912																																2015_Jul_02_1354	59.89603920810001	LearningTask	1	75	
240	-200.0	q	200.0																	2.0	0.0	2.0	0.0	3.0	3.0	15.0	1.0																													q	1.0	0.367553949356	None	0.0	4.0	squarewhite.gif	go																										0.0	0.5143699646000001	0.000926971435547	0.367553949356	1.0	q	961.6785080430001																																2015_Jul_02_1354	59.89603920810001	LearningTask	1	75	
241	-200.0	a	-200.0																	2.0	0.0	2.0	0.0	4.0	0.0	16.0	3.0																													a	1.0	0.350821018219	None	0.0	0.5	hexagoncyan.gif	go																										0.3	0.514620065689	0.00096607208252	0.350821018219	1.0	a	964.682390928																																2015_Jul_02_1354	59.89603920810001	LearningTask	1	75	
242	-200.0	a	-200.0																	2.0	0.0	2.0	0.0	4.0	1.0	17.0	3.0																													a	1.0	0.41758108139	None	0.0	1.0	invertedtrianglegreen.gif	go																										1.13	0.514070987701	0.0008749961853029999	0.41758108139	1.0	a	967.685183048																																2015_Jul_02_1354	59.89603920810001	LearningTask	1	75	
243	200.0	w	200.0																	2.0	0.0	2.0	0.0	4.0	2.0	18.0	0.0																													w	1.0	0.40091300010700004	None	0.0	4.0	squarewhite.gif	go																										4.11	0.514622926712	0.00180792808533	0.400913000107	1.0	w	970.688921928																																2015_Jul_02_1354	59.89603920810001	LearningTask	1	75	
244	-200.0	q	200.0																	2.0	0.0	2.0	0.0	4.0	3.0	19.0	1.0																													q	1.0	0.317581892014	None	0.0	2.0	trianglemagenta.gif	go																										0.0	0.514018058777	0.0011470317840599998	0.317581892014	1.0	q	973.69213891																																2015_Jul_02_1354	59.89603920810001	LearningTask	1	75	
245	200.0	s	-200.0																	2.0	0.0	2.0	0.0	5.0	0.0	20.0	2.0																													s	1.0	0.36785817146300004	None	0.0	1.0	invertedtrianglegreen.gif	go																										1.1	0.514439821243	0.0008759498596189999	0.367858171463	1.0	s	976.69556284																																2015_Jul_02_1354	59.89603920810001	LearningTask	1	75	
246	-200.0	a	-200.0																	2.0	0.0	2.0	0.0	5.0	1.0	21.0	3.0																													a	1.0	0.450768947601	None	0.0	1.0	invertedtrianglegreen.gif	go																										0.76	0.514245986938	0.0009069442749019998	0.450768947601	1.0	a	979.699157953																																2015_Jul_02_1354	59.89603920810001	LearningTask	1	75	
247	200.0	s	-200.0																	2.0	0.0	2.0	0.0	5.0	2.0	22.0	2.0																													s	1.0	0.618468046188	None	0.0	4.0	squarewhite.gif	go																										3.99	0.51347899437	0.000943899154663	0.618468046188	1.0	s	982.702476978																																2015_Jul_02_1354	59.89603920810001	LearningTask	1	75	
248	200.0	w	200.0																	2.0	0.0	2.0	0.0	5.0	3.0	23.0	0.0																													w	1.0	0.417406082153	None	0.0	1.0	circleorange.gif	stop																										0.0	0.5141701698300001	0.000909090042114	0.417406082153	1.0	w	985.705909014																																2015_Jul_02_1354	59.89603920810001	LearningTask	1	75	
249	-200.0	a	-200.0																	2.0	0.0	2.0	0.0	6.0	0.0	24.0	3.0																													a	1.0	0.46675992011999995	None	0.0	0.5	diamondyellow.gif	stop																									0.10986518859899999	0.0	0.514196157455	0.00087308883667	[]	0.0	None	988.7092339989999	0.51	0.5155248641969999	0.0009520053863530001	0.46675992011999995	1.0	a	991.712605																									2015_Jul_02_1354	59.89603920810001	LearningTask	1	75	
250	200.0	w	200.0																	2.0	0.0	2.0	0.0	6.0	1.0	25.0	0.0																													w	1.0	0.43467092514	None	0.0	2.0	linegray.gif	stop																										1.75	0.514227867126	0.000865936279297	0.43467092514	1.0	w	994.7159588339999																																2015_Jul_02_1354	59.89603920810001	LearningTask	1	75	
251	200.0	s	-200.0																	2.0	0.0	2.0	0.0	6.0	2.0	26.0	2.0																													s	1.0	0.36722397804300005	None	0.0	1.0	circleorange.gif	stop																										0.93	0.514140129089	0.000900030136108	0.367223978043	1.0	s	997.7193160060001																																2015_Jul_02_1354	59.89603920810001	LearningTask	1	75	
252	200.0	s	-200.0																	2.0	0.0	2.0	0.0	6.0	3.0	27.0	2.0																													s	1.0	0.38462781906099996	None	0.0	0.5	diamondyellow.gif	stop																										0.33	0.513917922974	0.0008909702301030001	0.384627819061	1.0	s	1000.7224368999999																																2015_Jul_02_1354	59.89603920810001	LearningTask	1	75	
253	200.0	s	-200.0																	2.0	0.0	2.0	0.0	7.0	0.0	28.0	2.0																													s	1.0	0.401077032089	None	0.0	4.0	crossblue.gif	stop																										4.01	0.514132976532	0.0008709430694580001	0.401077032089	1.0	s	1003.72567892																																2015_Jul_02_1354	59.89603920810001	LearningTask	1	75	
254	200.0	w	200.0																	2.0	0.0	2.0	0.0	7.0	1.0	29.0	0.0																													w	1.0	0.401525974274	None	0.0	4.0	crossblue.gif	stop																										3.91	0.514442920685	0.0008749961853029999	0.401525974274	1.0	w	1006.72900701																																2015_Jul_02_1354	59.89603920810001	LearningTask	1	75	
255	200.0	s	-200.0																	2.0	0.0	2.0	0.0	7.0	2.0	30.0	2.0																													s	1.0	0.367474079132	None	0.0	4.0	squarewhite.gif	go																										3.82	0.514344930649	0.0008668899536130001	0.367474079132	1.0	s	1009.73238993																																2015_Jul_02_1354	59.89603920810001	LearningTask	1	75	
256	-200.0	q	200.0																	2.0	0.0	2.0	0.0	7.0	3.0	31.0	1.0																													q	1.0	0.40121698379500004	None	0.0	1.0	circleorange.gif	stop																										0.86	0.514441013336	0.00107502937317	0.401216983795	1.0	q	1012.73610997																																2015_Jul_02_1354	59.89603920810001	LearningTask	1	75	
257	-200.0	q	200.0																	2.0	0.0	2.0	0.0	8.0	0.0	32.0	1.0																													q	1.0	0.467767000198	None	0.0	1.0	invertedtrianglegreen.gif	go																										0.77	0.514165878296	0.0008919239044189998	0.467767000198	1.0	q	1015.7391839																																2015_Jul_02_1354	59.89603920810001	LearningTask	1	75	
258	200.0	w	200.0																	2.0	0.0	2.0	0.0	8.0	1.0	33.0	0.0																													w	1.0	0.35063505172700005	None	0.0	4.0	crossblue.gif	stop																										4.06	0.514575958252	0.000921964645386	0.350635051727	1.0	w	1018.74244785																																2015_Jul_02_1354	59.89603920810001	LearningTask	1	75	
259	200.0	s	-200.0																	2.0	0.0	2.0	0.0	8.0	2.0	34.0	2.0																													s	1.0	0.383830070496	None	0.0	1.0	circleorange.gif	stop																										1.12	0.514456987381	0.000961065292358	0.383830070496	1.0	s	1021.7457819																																2015_Jul_02_1354	59.89603920810001	LearningTask	1	75	
260	-200.0	a	-200.0																	2.0	0.0	2.0	0.0	8.0	3.0	35.0	3.0																													a	1.0	0.33452701568599996	None	0.0	4.0	crossblue.gif	stop																										4.05	0.514351129532	0.000887155532837	0.334527015686	1.0	a	1024.74898887																																2015_Jul_02_1354	59.89603920810001	LearningTask	1	75	
261	-200.0	a	-200.0																	2.0	0.0	2.0	0.0	9.0	0.0	36.0	3.0																													a	1.0	0.200558900833	None	0.0	2.0	trianglemagenta.gif	go																										0.0	0.514382123947	0.0009551048278810001	0.384804964066	0.0	q	1027.75223684	1.79	0.516386032104	0.0010840892791700002	0.200558900833	1.0	a	1030.75602388																									2015_Jul_02_1354	59.89603920810001	LearningTask	1	75	
262	-200.0	a	-200.0																	2.0	0.0	2.0	0.0	9.0	1.0	37.0	3.0																													a	1.0	0.434592008591	None	0.0	2.0	linegray.gif	stop																										1.79	0.513950109482	0.0008840560913089999	0.434592008591	1.0	a	1033.75959396																																2015_Jul_02_1354	59.89603920810001	LearningTask	1	75	
263	200.0	w	200.0																	2.0	0.0	2.0	0.0	9.0	2.0	38.0	0.0																													w	1.0	0.41746187210100005	None	0.0	4.0	squarewhite.gif	go																										0.0	0.514141798019	0.000902891159058	0.417461872101	1.0	w	1036.76290393																																2015_Jul_02_1354	59.89603920810001	LearningTask	1	75	
264	-200.0	q	200.0																	2.0	0.0	2.0	0.0	9.0	3.0	39.0	1.0																													q	1.0	0.383967876434	None	0.0	1.0	invertedtrianglegreen.gif	go																										1.07	0.5139338970180001	0.000881910324097	0.383967876434	1.0	q	1039.76590991																																2015_Jul_02_1354	59.89603920810001	LearningTask	1	75	
265	-200.0	a	-200.0																	2.0	0.0	2.0	0.0	10.0	0.0	40.0	3.0																													a	1.0	0.367579221725	None	0.0	0.5	hexagoncyan.gif	go																										0.41	0.514246940613	0.000961065292358	0.367579221725	1.0	a	1042.76920485																																2015_Jul_02_1354	59.89603920810001	LearningTask	1	75	
266	200.0	s	-200.0																	2.0	0.0	2.0	0.0	10.0	1.0	41.0	2.0																													s	1.0	0.45101499557499997	None	0.0	2.0	trianglemagenta.gif	go																										1.8	0.514736890793	0.000880002975464	0.451014995575	1.0	s	1045.77294993																																2015_Jul_02_1354	59.89603920810001	LearningTask	1	75	
267	-200.0	q	200.0																	2.0	0.0	2.0	0.0	10.0	2.0	42.0	1.0																													q	1.0	0.534100055695	None	0.0	4.0	squarewhite.gif	go																										3.81	0.51397395134	0.000888109207153	0.534100055695	1.0	q	1048.77610898																																2015_Jul_02_1354	59.89603920810001	LearningTask	1	75	
268	200.0	s	-200.0																	2.0	0.0	2.0	0.0	10.0	3.0	43.0	2.0																													s	1.0	0.351390838623	None	0.0	1.0	invertedtrianglegreen.gif	go																										0.87	0.514485836029	0.00088095664978	0.351390838623	1.0	s	1051.77948284																																2015_Jul_02_1354	59.89603920810001	LearningTask	1	75	
269	200.0	w	200.0																	2.0	0.0	2.0	0.0	11.0	0.0	44.0	0.0																													w	1.0	0.41733789443999997	None	0.0	1.0	circleorange.gif	stop																										0.0	0.514368057251	0.0011351108550999999	0.41733789444	1.0	w	1054.78284097																																2015_Jul_02_1354	59.89603920810001	LearningTask	1	75	
270	-200.0	a	-200.0																	2.0	0.0	2.0	0.0	11.0	1.0	45.0	3.0																													a	1.0	0.41835999488799996	None	0.0	1.0	invertedtrianglegreen.gif	go																									0.344310998917	0.0	0.514420032501	0.000973224639893	[]	0.0	None	1057.78581786	0.95	0.515776157379	0.000941038131714	0.41835999488799996	1.0	a	1060.78932095																									2015_Jul_02_1354	59.89603920810001	LearningTask	1	75	
271	200.0	w	200.0																	2.0	0.0	2.0	0.0	11.0	2.0	46.0	0.0																													w	1.0	0.40069103241	None	0.0	2.0	trianglemagenta.gif	go																										2.21	0.514689922333	0.0009100437164310001	0.40069103241	1.0	w	1063.79262805																																2015_Jul_02_1354	59.89603920810001	LearningTask	1	75	
272	200.0	s	-200.0																	2.0	0.0	2.0	0.0	11.0	3.0	47.0	2.0																													s	1.0	0.6508970260620001	None	0.0	4.0	squarewhite.gif	go																										3.75	0.514863967896	0.000907897949219	0.650897026062	1.0	s	1066.796345																																2015_Jul_02_1354	59.89603920810001	LearningTask	1	75	
273	200.0	s	-200.0																	2.0	0.0	2.0	0.0	12.0	0.0	48.0	2.0																													s	1.0	0.400980949402	None	0.0	1.0	circleorange.gif	stop																										1.24	0.513979911804	0.00104999542236	0.400980949402	1.0	s	1069.79964805																																2015_Jul_02_1354	59.89603920810001	LearningTask	1	75	
274	200.0	s	-200.0																	2.0	0.0	2.0	0.0	12.0	1.0	49.0	2.0																													s	1.0	0.35072088241599997	None	0.0	2.0	trianglemagenta.gif	go																										0.0	0.514245986938	0.0008709430694580001	0.350720882416	1.0	s	1072.80269289																																2015_Jul_02_1354	59.89603920810001	LearningTask	1	75	
275	200.0	w	200.0																	2.0	0.0	2.0	0.0	12.0	2.0	50.0	0.0																													w	1.0	0.36777806282	None	0.0	1.0	circleorange.gif	stop																										1.2	0.514348983765	0.00098705291748	0.36777806282	1.0	w	1075.80658293																																2015_Jul_02_1354	59.89603920810001	LearningTask	1	75	
276	200.0	w	200.0																	2.0	0.0	2.0	0.0	12.0	3.0	51.0	0.0																													w	1.0	0.31803202629099997	None	0.0	4.0	squarewhite.gif	go																										4.24	0.513531923294	0.0008990764617919999	0.318032026291	1.0	w	1078.80974603																																2015_Jul_02_1354	59.89603920810001	LearningTask	1	75	
277	200.0	w	200.0																	2.0	0.0	2.0	0.0	13.0	0.0	52.0	0.0																													w	1.0	0.384968996048	None	0.0	4.0	crossblue.gif	stop																										3.81	0.5141468048100001	0.0008838176727290001	0.384968996048	1.0	w	1081.81304502																																2015_Jul_02_1354	59.89603920810001	LearningTask	1	75	
278	-200.0	q	200.0																	2.0	0.0	2.0	0.0	13.0	1.0	53.0	1.0																													q	1.0	0.501064062119	None	0.0	2.0	linegray.gif	stop																										0.0	0.514177083969	0.0008749961853029999	0.601300001144	0.0	a	1084.81664705	2.06	0.5152158737179999	0.0009758472442630001	0.501064062119	1.0	q	1087.81953692																									2015_Jul_02_1354	59.89603920810001	LearningTask	1	75	
279	-200.0	q	200.0																	2.0	0.0	2.0	0.0	13.0	2.0	54.0	1.0																													q	1.0	0.434091091156	None	0.0	2.0	trianglemagenta.gif	go																										2.04	0.514486074448	0.0008740425109860002	0.434091091156	1.0	q	1090.8236959																																2015_Jul_02_1354	59.89603920810001	LearningTask	1	75	
280	-200.0	q	200.0																	2.0	0.0	2.0	0.0	13.0	3.0	55.0	1.0																													q	1.0	0.5011219978329999	None	0.0	2.0	linegray.gif	stop																										0.0	0.513464927673	0.0008831024169919999	0.501121997833	1.0	q	1093.82698083																																2015_Jul_02_1354	59.89603920810001	LearningTask	1	75	
281	200.0	s	-200.0																	2.0	0.0	2.0	0.0	14.0	0.0	56.0	2.0																													s	1.0	0.450725793839	None	0.0	1.0	circleorange.gif	stop																										0.97	0.513751983643	0.000909090042114	0.450725793839	1.0	s	1096.82974887																																2015_Jul_02_1354	59.89603920810001	LearningTask	1	75	
282	-200.0	q	200.0																	2.0	0.0	2.0	0.0	14.0	1.0	57.0	1.0																													q	1.0	0.585099935532	None	0.0	4.0	squarewhite.gif	go																										3.98	0.514317035675	0.0008728504180910001	0.585099935532	1.0	q	1099.8332119000002																																2015_Jul_02_1354	59.89603920810001	LearningTask	1	75	
283	-200.0	a	-200.0																	2.0	0.0	2.0	0.0	14.0	2.0	58.0	3.0																													a	1.0	0.567589998245	None	0.0	4.0	crossblue.gif	stop																										3.88	0.5143198966979999	0.0008759498596189999	0.567589998245	1.0	a	1102.83667588																																2015_Jul_02_1354	59.89603920810001	LearningTask	1	75	
284	200.0	s	-200.0																	2.0	0.0	2.0	0.0	14.0	3.0	59.0	2.0																													s	1.0	0.567170143127	None	0.0	2.0	linegray.gif	stop																										1.85	0.514347076416	0.000930070877075	0.567170143127	1.0	s	1105.83982682																																2015_Jul_02_1354	59.89603920810001	LearningTask	1	75	
285	-200.0	q	200.0																	2.0	0.0	2.0	0.0	15.0	0.0	60.0	1.0																													q	1.0	0.534352064133	None	0.0	2.0	linegray.gif	stop																										2.15	0.514730930328	0.00107097625732	0.534352064133	1.0	q	1108.84345794																																2015_Jul_02_1354	59.89603920810001	LearningTask	1	75	
286	200.0	s	-200.0																	2.0	0.0	2.0	0.0	15.0	1.0	61.0	2.0																													s	1.0	0.517356872559	None	0.0	1.0	circleorange.gif	stop																										1.07	0.514315128326	0.0008790493011469999	0.517356872559	1.0	s	1111.8466289																																2015_Jul_02_1354	59.89603920810001	LearningTask	1	75	
