	xPos	corrAns	yPos	corrGoResp	yPosGoStim	xPosGoStim	pracTrials.thisRepN	pracTrials.thisTrialN	pracTrials.thisN	pracTrials.thisIndex	ReDoLoopPrac.thisRepN	ReDoLoopPrac.thisTrialN	ReDoLoopPrac.thisN	ReDoLoopPrac.thisIndex	ReDoLoopPrac.thisTrial	pracStopTrials.thisRepN	pracStopTrials.thisTrialN	pracStopTrials.thisN	pracStopTrials.thisIndex	Blocks.thisRepN	Blocks.thisTrialN	Blocks.thisN	Blocks.thisIndex	trials.thisRepN	trials.thisTrialN	trials.thisN	trials.thisIndex	ReDoLoopMain.thisRepN	ReDoLoopMain.thisTrialN	ReDoLoopMain.thisN	ReDoLoopMain.thisIndex	ReDoLoopMain.thisTrial	StopBlocks.thisRepN	StopBlocks.thisTrialN	StopBlocks.thisN	StopBlocks.thisIndex	StopTrials.thisRepN	StopTrials.thisTrialN	StopTrials.thisN	StopTrials.thisIndex	auctionBlocks.thisRepN	auctionBlocks.thisTrialN	auctionBlocks.thisN	auctionBlocks.thisIndex	auctionTrials.thisRepN	auctionTrials.thisTrialN	auctionTrials.thisN	auctionTrials.thisIndex	learningTrialList	learningPracTrialList	stopTrialList	stopPracTrialList	auctionTrialList	ok1.keys	ok1.rt	resp.keys	resp.corr	resp.rt	feedbackResp.keys	feedbackResp.corr	currentReward	currentStimulus	currentStimType	firstPracComputedRewardOutput	firstPracLearningStimOnset	firstPracLearningFixOnset	firstPracPresentationRT	firstPracPresentationAcc	firstPracPresentationResp	firstPracEndTrialTimeStamp	StartTrialTimeStamp	trialType	goStim	stimType	stopStimValue	goResp.keys	goResp.corr	goResp.rt	key_resp_9.keys	key_resp_9.corr	fixStopOnset	goStimOnset	stopSignalOnset	EndTrialTimeStamp	key_resp_3.keys	key_resp_3.rt	firstComputedRewardOutput	firstLearningStimOnset	firstLearningFixOnset	firstPresentationRT	firstPresentationAcc	firstPresentationResp	firstEndTrialTimeStamp	secondComputedRewardOutput	secondLearningStimOnset	secondLearningFixOnset	secondPresentationRT	secondPresentationAcc	secondPresentationResp	secondEndTrialTimeStamp	key_resp_7.keys	key_resp_7.rt	thirdComputedRewardOutput	thirdLearningStimOnset	thirdLearningFixOnset	thirdPresentationRT	thirdPresentationAcc	thirdPresentationResp	thirdEndTrialTimeStamp	feedbackResp.rt	fourthComputedRewardOutput	fourthLearningStimOnset	fourthLearningFixOnset	fourthPresentationRT	fourthPresentationAcc	fourthPresentationResp	fourthEndTrialTimeStamp	fifthComputedRewardOutput	fifthLearningStimOnset	fifthLearningFixOnset	fifthPresentationRT	fifthPresentationAcc	fifthPresentationResp	fifthEndTrialTimeStamp	beginningSSD	EndingSSD	key_resp_9.rt	key_resp_4.keys	key_resp_4.rt	auctionResponse.keys	auctionStimDuration	auctionStim	auctionAmounts	auctionStimValue	auctionCondition	chosenAuctionAmount	auctionResponse.rt	key_resp_5.keys	key_resp_5.rt	shuffledRewardList	chosenReward1	chosenReward2	chosenReward3	chosenReward4	chosenReward5	key_resp_6.keys	key_resp_6.rt	date	frameRate	expName	session	participant	Unnamed: 152
0																																																	[]	[]	[]	[]	[]	9.0	49.759258985500004																																																																																													2015_Jun_24_1041	59.7414524923	LearningTask	1	20	
1	200.0	s	-200.0				0.0	0.0	0.0	6.0																																														s	1.0	0.918155193329	None	0.0	0.5	circlecyan.gif	go	0.43	0.506426095963	0.00661206245422	0.918155193329	1.0	s	90.7893111706																																																																														2015_Jun_24_1041	59.7414524923	LearningTask	1	20	
2	200.0	s	-200.0				0.0	1.0	1.0	2.0																																														s	1.0	0.38394403457599996	None	0.0	1.0	trianglegray.gif	go	1.1	0.514781951904	0.00129294395447	0.38394403457599996	1.0	s	93.79212212559999																																																																														2015_Jun_24_1041	59.7414524923	LearningTask	1	20	
3	-200.0	q	200.0				0.0	2.0	2.0	5.0																																														q	1.0	0.417373895645	None	0.0	0.5	hexagonyellow.gif	stop	0.67	0.515226125717	0.001305103302	0.417373895645	1.0	q	96.7956559658																																																																														2015_Jun_24_1041	59.7414524923	LearningTask	1	20	
4	-200.0	a	-200.0				0.0	3.0	3.0	7.0																																														a	1.0	0.30104589462299997	None	0.0	2.0	diamondorange.gif	stop	1.81	0.5147340297699999	0.0014510154724100002	0.30104589462299997	1.0	a	99.7989120483																																																																														2015_Jun_24_1041	59.7414524923	LearningTask	1	20	
5	200.0	w	200.0				0.0	4.0	4.0	8.0																																														w	1.0	0.351150035858	None	0.0	1.0	squaremagenta.gif	stop	0.0	0.515111923218	0.00128483772278	0.351150035858	1.0	w	102.80218911200001																																																																														2015_Jun_24_1041	59.7414524923	LearningTask	1	20	
6	200.0	w	200.0				0.0	5.0	5.0	0.0																																														w	1.0	0.400912046432	None	0.0	4.0	linegreen.gif	stop	0.0	0.515017032623	0.0012850761413599999	0.400912046432	1.0	w	105.80570817																																																																														2015_Jun_24_1041	59.7414524923	LearningTask	1	20	
7	200.0	w	200.0				0.0	6.0	6.0	4.0																																														w	1.0	0.46772694587700003	None	0.0	4.0	crosswhite.gif	go	0.0	0.514885902405	0.0013220310211199998	0.46772694587700003	1.0	w	108.80904698399999																																																																														2015_Jun_24_1041	59.7414524923	LearningTask	1	20	
8	-200.0	a	-200.0				0.0	7.0	7.0	3.0																																														a	1.0	0.634334087372	None	0.0	0.5	hexagonyellow.gif	stop	0.46	0.5150279998780001	0.000904083251953	0.634334087372	1.0	a	111.81222009700001																																																																														2015_Jun_24_1041	59.7414524923	LearningTask	1	20	
9	-200.0	q	200.0				0.0	8.0	8.0	1.0																																														q	1.0	0.434329032898	None	0.0	1.0	trianglegray.gif	go	0.9	0.5150661468509999	0.0008909702301030001	0.434329032898	1.0	q	114.81562805200001																																																																														2015_Jun_24_1041	59.7414524923	LearningTask	1	20	
10	-200.0	q	200.0				0.0	9.0	9.0	9.0																																														q	1.0	0.417392969131	None	0.0	1.0	trianglegray.gif	go	1.16	0.515088796616	0.00092601776123	0.417392969131	1.0	q	117.819051981																																																																														2015_Jun_24_1041	59.7414524923	LearningTask	1	20	
11				z	0.0	-200.0										0.0	0.0	0.0	0.0																																																				159.320862055	stop	diamondorange.gif	stop	2.0	z	1.0	0.334391117096	None	0.0	0.00129294395447	0.5097990036010001	0.7602119445800001	162.318694115																																																																2015_Jun_24_1041	59.7414524923	LearningTask	1	20	
12				m	0.0	200.0										0.0	1.0	1.0	1.0																																																				162.319133043	go	crosswhite.gif	go	4.0	m	1.0	0.400973796844	None	0.0	0.000970125198364	0.515304088593		165.321599007																																																																2015_Jun_24_1041	59.7414524923	LearningTask	1	20	
13				m	0.0	200.0										1.0	0.0	2.0	1.0																																																				165.32195711100002	go	invertedtriangleblue.gif	go	2.0	m	1.0	0.46753191947899997	None	0.0	0.0013320446014400001	0.516028165817		168.325121164																																																																2015_Jun_24_1041	59.7414524923	LearningTask	1	20	
14				m	0.0	200.0										1.0	1.0	3.0	1.0																																																				168.325492144	go	crosswhite.gif	go	4.0	m	1.0	0.43436503410300004	None	0.0	0.0009570121765139998	0.515809059143		171.32842207																																																																2015_Jun_24_1041	59.7414524923	LearningTask	1	20	
15				m	0.0	200.0										2.0	0.0	4.0	1.0																																																				171.328828096	stop	diamondorange.gif	stop	2.0	m	1.0	0.400786876678	None	0.0	0.00106906890869	0.51588010788	0.766028165817	174.331954002																																																																2015_Jun_24_1041	59.7414524923	LearningTask	1	20	
16				z	0.0	-200.0										2.0	1.0	5.0	0.0																																																				174.33230900799998	go	trianglegray.gif	go	1.0	z	1.0	0.517746210098	None	0.0	0.000942945480347	0.515764951706		177.334912062																																																																2015_Jun_24_1041	59.7414524923	LearningTask	1	20	
17				z	0.0	-200.0										3.0	0.0	6.0	0.0																																																				177.335322142	stop	diamondorange.gif	stop	2.0	None	0.0		None	0.0	0.00100111961365	0.5159850120539999	0.766364097595	180.33867216099998																																																																2015_Jun_24_1041	59.7414524923	LearningTask	1	20	
18				z	0.0	-200.0										3.0	1.0	7.0	0.0																																																				180.339027166	go	circlecyan.gif	go	0.5	z	1.0	0.484462022781	None	0.0	0.00116205215454	0.515626907349		183.341776133																																																																2015_Jun_24_1041	59.7414524923	LearningTask	1	20	
19				m	0.0	200.0										4.0	0.0	8.0	1.0																																																				183.342137098	stop	diamondorange.gif	stop	2.0	None	0.0		None	0.0	0.000942945480347	0.5160930156710001	0.7662720680239999	186.345389128																																																																2015_Jun_24_1041	59.7414524923	LearningTask	1	20	
20				z	0.0	-200.0										4.0	1.0	9.0	0.0																																																				186.345745087	stop	squaremagenta.gif	stop	1.0	None	0.0		None	0.0	0.000931024551392	0.515933036804	0.765752077103	189.34874796900002																																																																2015_Jun_24_1041	59.7414524923	LearningTask	1	20	
21																																																																																					9.0	56.3017029762																																																														2015_Jun_24_1041	59.7414524923	LearningTask	1	20	
22																																																						9.0	3.23688411713																																																																																													2015_Jun_24_1041	59.7414524923	LearningTask	1	20	
23	200.0	w	200.0																	0.0	0.0	0.0	0.0	0.0	0.0	0.0	0.0																													w	1.0	0.568103075027	None	0.0	4.0	linegreen.gif	stop																								0.0	0.508241891861	0.000918865203857	0.568103075027	1.0	w	252.053407192																																																							2015_Jun_24_1041	59.7414524923	LearningTask	1	20	
24	200.0	s	-200.0																	0.0	0.0	0.0	0.0	0.0	1.0	1.0	2.0																													s	1.0	0.467550992966	None	0.0	4.0	crosswhite.gif	go																								4.04	0.513626813889	0.0011458396911600002	0.467550992966	1.0	s	255.055994034																																																							2015_Jun_24_1041	59.7414524923	LearningTask	1	20	
25	200.0	w	200.0																	0.0	0.0	0.0	0.0	0.0	2.0	2.0	0.0																													w	1.0	0.6007378101349999	None	0.0	0.5	hexagonyellow.gif	stop																								0.0	0.514589071274	0.0008940696716310001	0.600737810135	1.0	w	258.059452057																																																							2015_Jun_24_1041	59.7414524923	LearningTask	1	20	
26	200.0	w	200.0																	0.0	0.0	0.0	0.0	0.0	3.0	3.0	0.0																													w	1.0	0.434414148331	None	0.0	2.0	invertedtriangleblue.gif	go																								2.03	0.514372825623	0.0008909702301030001	0.434414148331	1.0	w	261.06302809700003																																																							2015_Jun_24_1041	59.7414524923	LearningTask	1	20	
27	200.0	w	200.0																	0.0	0.0	0.0	0.0	1.0	0.0	4.0	0.0																													w	1.0	0.36740016937299996	None	0.0	2.0	diamondorange.gif	stop																								2.23	0.513997793198	0.00114393234253	0.367400169373	1.0	w	264.066326141																																																							2015_Jun_24_1041	59.7414524923	LearningTask	1	20	
28	200.0	w	200.0																	0.0	0.0	0.0	0.0	1.0	1.0	5.0	0.0																													w	1.0	0.400773048401	None	0.0	2.0	invertedtriangleblue.gif	go																								0.0	0.513559103012	0.000994920730591	0.400773048401	1.0	w	267.069477081																																																							2015_Jun_24_1041	59.7414524923	LearningTask	1	20	
29	-200.0	q	200.0																	0.0	0.0	0.0	0.0	1.0	2.0	6.0	1.0																													q	1.0	0.350829839706	None	0.0	1.0	squaremagenta.gif	stop																								0.98	0.514315843582	0.0008878707885739998	0.350829839706	1.0	q	270.072782993																																																							2015_Jun_24_1041	59.7414524923	LearningTask	1	20	
30	-200.0	q	200.0																	0.0	0.0	0.0	0.0	1.0	3.0	7.0	1.0																													q	1.0	0.317715883255	None	0.0	0.5	circlecyan.gif	go																								0.6	0.5143098831180001	0.000931024551392	0.317715883255	1.0	q	273.07609319700003																																																							2015_Jun_24_1041	59.7414524923	LearningTask	1	20	
31	-200.0	a	-200.0																	0.0	0.0	0.0	0.0	2.0	0.0	8.0	3.0																													a	1.0	0.36736607551600003	None	0.0	2.0	invertedtriangleblue.gif	go																								0.0	0.514235973358	0.0009860992431639998	0.350836038589	0.0	q	276.079648018	2.12	0.515414953232	0.0009758472442630001	0.367366075516	1.0	a	279.083342075																																																2015_Jun_24_1041	59.7414524923	LearningTask	1	20	
32	-200.0	q	200.0																	0.0	0.0	0.0	0.0	2.0	1.0	9.0	1.0																													q	1.0	0.350646018982	None	0.0	2.0	diamondorange.gif	stop																								0.0	0.51376914978	0.0009191036224369998	0.350646018982	1.0	q	282.08613205																																																							2015_Jun_24_1041	59.7414524923	LearningTask	1	20	
33	-200.0	q	200.0																	0.0	0.0	0.0	0.0	2.0	2.0	10.0	1.0																													q	1.0	0.434625148773	None	0.0	4.0	crosswhite.gif	go																								3.76	0.514250040054	0.0009560585021970001	0.434625148773	1.0	q	285.089370012																																																							2015_Jun_24_1041	59.7414524923	LearningTask	1	20	
34	200.0	w	200.0																	0.0	0.0	0.0	0.0	2.0	3.0	11.0	0.0																													w	1.0	0.467680931091	None	0.0	2.0	invertedtriangleblue.gif	go																								0.0	0.51430606842	0.00111603736877	0.467680931091	1.0	w	288.093191147																																																							2015_Jun_24_1041	59.7414524923	LearningTask	1	20	
35	-200.0	a	-200.0																	0.0	0.0	0.0	0.0	3.0	0.0	12.0	3.0																													a	1.0	0.451112031937	None	0.0	4.0	linegreen.gif	stop																								3.77	0.513796806335	0.0009210109710689999	0.451112031937	1.0	a	291.09636902799997																																																							2015_Jun_24_1041	59.7414524923	LearningTask	1	20	
36	200.0	s	-200.0																	0.0	0.0	0.0	0.0	3.0	1.0	13.0	2.0																													s	1.0	0.450726032257	None	0.0	1.0	squaremagenta.gif	stop																								1.19	0.5145118236540001	0.0008919239044189998	0.450726032257	1.0	s	294.099431038																																																							2015_Jun_24_1041	59.7414524923	LearningTask	1	20	
37	-200.0	a	-200.0																	0.0	0.0	0.0	0.0	3.0	2.0	14.0	3.0																													a	1.0	0.41751694679300005	None	0.0	2.0	diamondorange.gif	stop																								2.18	0.514653921127	0.0009109973907470001	0.417516946793	1.0	a	297.103142977																																																							2015_Jun_24_1041	59.7414524923	LearningTask	1	20	
38	-200.0	q	200.0																	0.0	0.0	0.0	0.0	3.0	3.0	15.0	1.0																													q	1.0	0.450832128525	None	0.0	0.5	hexagonyellow.gif	stop																								0.53	0.514095067978	0.0009069442749019998	0.450832128525	1.0	q	300.106383085																																																							2015_Jun_24_1041	59.7414524923	LearningTask	1	20	
39	-200.0	a	-200.0																	0.0	0.0	0.0	0.0	4.0	0.0	16.0	3.0																													a	1.0	0.35110020637500006	None	0.0	4.0	crosswhite.gif	go																								3.83	0.514274835587	0.000898838043213	0.351100206375	1.0	a	303.10967111599996																																																							2015_Jun_24_1041	59.7414524923	LearningTask	1	20	
40	200.0	s	-200.0																	0.0	0.0	0.0	0.0	4.0	1.0	17.0	2.0																													s	1.0	0.384128093719	None	0.0	2.0	diamondorange.gif	stop																								0.0	0.514380931854	0.000902891159058	0.35079407692	0.0	w	306.1131742	2.09	0.515594959259	0.0009760856628420001	0.384128093719	1.0	s	309.11661815599996																																																2015_Jun_24_1041	59.7414524923	LearningTask	1	20	
41	200.0	w	200.0																	0.0	0.0	0.0	0.0	4.0	2.0	18.0	0.0																													w	1.0	0.433971166611	None	0.0	0.5	circlecyan.gif	go																								0.64	0.5135638713840001	0.000962018966675	0.433971166611	1.0	w	312.11995697																																																							2015_Jun_24_1041	59.7414524923	LearningTask	1	20	
42	-200.0	a	-200.0																	0.0	0.0	0.0	0.0	4.0	3.0	19.0	3.0																													a	1.0	0.40081787109399997	None	0.0	2.0	invertedtriangleblue.gif	go																								1.78	0.513442993164	0.0010600090026900001	0.400817871094	1.0	a	315.123495102																																																							2015_Jun_24_1041	59.7414524923	LearningTask	1	20	
43	200.0	s	-200.0																	0.0	0.0	0.0	0.0	5.0	0.0	20.0	2.0																													s	1.0	0.3674659729	None	0.0	1.0	trianglegray.gif	go																								1.13	0.513753890991	0.0009450912475589999	0.3674659729	1.0	s	318.126492977																																																							2015_Jun_24_1041	59.7414524923	LearningTask	1	20	
44	-200.0	q	200.0																	0.0	0.0	0.0	0.0	5.0	1.0	21.0	1.0																													q	1.0	0.467662096024	None	0.0	4.0	crosswhite.gif	go																								4.11	0.5141861438750001	0.0009329319000239999	0.467662096024	1.0	q	321.129785061																																																							2015_Jun_24_1041	59.7414524923	LearningTask	1	20	
45	200.0	s	-200.0																	0.0	0.0	0.0	0.0	5.0	2.0	22.0	2.0																													s	1.0	0.43478298187299996	None	0.0	1.0	squaremagenta.gif	stop																								1.06	0.5142891407010001	0.0008990764617919999	0.434782981873	1.0	s	324.133045197																																																							2015_Jun_24_1041	59.7414524923	LearningTask	1	20	
46	200.0	s	-200.0																	0.0	0.0	0.0	0.0	5.0	3.0	23.0	2.0																													s	1.0	0.36754083633400003	None	0.0	2.0	diamondorange.gif	stop																								1.89	0.514470100403	0.0008878707885739998	0.367540836334	1.0	s	327.13660001799997																																																							2015_Jun_24_1041	59.7414524923	LearningTask	1	20	
47	200.0	s	-200.0																	0.0	0.0	0.0	0.0	6.0	0.0	24.0	2.0																													s	1.0	0.400613069534	None	0.0	0.5	circlecyan.gif	go																								0.37	0.51429605484	0.0009369850158689999	0.400613069534	1.0	s	330.139862061																																																							2015_Jun_24_1041	59.7414524923	LearningTask	1	20	
48	200.0	s	-200.0																	0.0	0.0	0.0	0.0	6.0	1.0	25.0	2.0																													s	1.0	0.36760592460600006	None	0.0	0.5	hexagonyellow.gif	stop																								0.47	0.514189958572	0.000962018966675	0.367605924606	1.0	s	333.143478155																																																							2015_Jun_24_1041	59.7414524923	LearningTask	1	20	
49	-200.0	q	200.0																	0.0	0.0	0.0	0.0	6.0	2.0	26.0	1.0																													q	1.0	0.434256076813	None	0.0	0.5	circlecyan.gif	go																								0.0	0.514086961746	0.0008981227874760001	0.434256076813	1.0	q	336.14704299																																																							2015_Jun_24_1041	59.7414524923	LearningTask	1	20	
50	-200.0	a	-200.0																	0.0	0.0	0.0	0.0	6.0	3.0	27.0	3.0																													a	1.0	0.367816209793	None	0.0	4.0	crosswhite.gif	go																								3.88	0.5131950378419999	0.0009129047393799999	0.367816209793	1.0	a	339.149998188																																																							2015_Jun_24_1041	59.7414524923	LearningTask	1	20	
51	-200.0	a	-200.0																	0.0	0.0	0.0	0.0	7.0	0.0	28.0	3.0																													a	1.0	0.383517980576	None	0.0	1.0	trianglegray.gif	go																								1.16	0.514395952225	0.0009210109710689999	0.383517980576	1.0	a	342.153195143																																																							2015_Jun_24_1041	59.7414524923	LearningTask	1	20	
52	-200.0	q	200.0																	0.0	0.0	0.0	0.0	7.0	1.0	29.0	1.0																													q	1.0	0.41707301139799996	None	0.0	1.0	trianglegray.gif	go																								0.0	0.514818906784	0.000907897949219	0.417073011398	1.0	q	345.157103062																																																							2015_Jun_24_1041	59.7414524923	LearningTask	1	20	
53	-200.0	a	-200.0																	0.0	0.0	0.0	0.0	7.0	2.0	30.0	3.0																													a	1.0	0.40120792388899995	None	0.0	4.0	linegreen.gif	stop																								4.18	0.513611793518	0.0009109973907470001	0.401207923889	1.0	a	348.160078049																																																							2015_Jun_24_1041	59.7414524923	LearningTask	1	20	
54	200.0	w	200.0																	0.0	0.0	0.0	0.0	7.0	3.0	31.0	0.0																													w	1.0	0.384073972702	None	0.0	2.0	invertedtriangleblue.gif	go																								2.1	0.514229059219	0.0008909702301030001	0.384073972702	1.0	w	351.163312197																																																							2015_Jun_24_1041	59.7414524923	LearningTask	1	20	
55	-200.0	a	-200.0																	0.0	0.0	0.0	0.0	8.0	0.0	32.0	3.0																													a	1.0	0.40085911750799996	None	0.0	0.5	hexagonyellow.gif	stop																								0.51	0.51428103447	0.0008950233459470001	0.400859117508	1.0	a	354.16683411599996																																																							2015_Jun_24_1041	59.7414524923	LearningTask	1	20	
56	-200.0	q	200.0																	0.0	0.0	0.0	0.0	8.0	1.0	33.0	1.0																													q	1.0	0.350704908371	None	0.0	2.0	diamondorange.gif	stop																								2.11	0.514410972595	0.0009100437164310001	0.350704908371	1.0	q	357.170186996																																																							2015_Jun_24_1041	59.7414524923	LearningTask	1	20	
57	-200.0	q	200.0																	0.0	0.0	0.0	0.0	8.0	2.0	34.0	1.0																													q	1.0	0.41747593879699996	None	0.0	0.5	hexagonyellow.gif	stop																								0.0	0.514142990112	0.00118398666382	0.417475938797	1.0	q	360.17337608300005																																																							2015_Jun_24_1041	59.7414524923	LearningTask	1	20	
58	200.0	w	200.0																	0.0	0.0	0.0	0.0	8.0	3.0	35.0	0.0																													w	1.0	0.41796708107	None	0.0	4.0	crosswhite.gif	go																								3.81	0.5144071578980001	0.000900983810425	0.41796708107	1.0	w	363.176645994																																																							2015_Jun_24_1041	59.7414524923	LearningTask	1	20	
59	-200.0	a	-200.0																	0.0	0.0	0.0	0.0	9.0	0.0	36.0	3.0																													a	1.0	0.351470947266	None	0.0	1.0	trianglegray.gif	go																								1.14	0.514480829239	0.000907897949219	0.351470947266	1.0	a	366.18014907800006																																																							2015_Jun_24_1041	59.7414524923	LearningTask	1	20	
60	200.0	w	200.0																	0.0	0.0	0.0	0.0	9.0	1.0	37.0	0.0																													w	1.0	0.41792011261	None	0.0	2.0	invertedtriangleblue.gif	go																								2.16	0.51396894455	0.000953912734985	0.41792011261	1.0	w	369.183385134																																																							2015_Jun_24_1041	59.7414524923	LearningTask	1	20	
61	200.0	w	200.0																	0.0	0.0	0.0	0.0	9.0	2.0	38.0	0.0																													w	1.0	0.467511892319	None	0.0	1.0	trianglegray.gif	go																								1.17	0.5146980285639999	0.00103688240051	0.467511892319	1.0	w	372.1871562																																																							2015_Jun_24_1041	59.7414524923	LearningTask	1	20	
62	-200.0	q	200.0																	0.0	0.0	0.0	0.0	9.0	3.0	39.0	1.0																													q	1.0	0.400656938553	None	0.0	0.5	hexagonyellow.gif	stop																								0.0	0.513880968094	0.000900983810425	0.400656938553	1.0	q	375.190356016																																																							2015_Jun_24_1041	59.7414524923	LearningTask	1	20	
63	200.0	w	200.0																	0.0	0.0	0.0	0.0	10.0	0.0	40.0	0.0																													w	1.0	0.40066409111	None	0.0	1.0	squaremagenta.gif	stop																								0.97	0.51397395134	0.0009119510650630002	0.40066409111	1.0	w	378.193344116																																																							2015_Jun_24_1041	59.7414524923	LearningTask	1	20	
64	200.0	w	200.0																	0.0	0.0	0.0	0.0	10.0	1.0	41.0	0.0																													w	1.0	0.41743683815	None	0.0	1.0	squaremagenta.gif	stop																								1.21	0.514481782913	0.0009248256683350001	0.41743683815	1.0	w	381.196768999																																																							2015_Jun_24_1041	59.7414524923	LearningTask	1	20	
65	-200.0	q	200.0																	0.0	0.0	0.0	0.0	10.0	2.0	42.0	1.0																													q	1.0	0.384192943573	None	0.0	1.0	trianglegray.gif	go																								0.8	0.514492034912	0.0008950233459470001	0.384192943573	1.0	q	384.200725079																																																							2015_Jun_24_1041	59.7414524923	LearningTask	1	20	
66	200.0	s	-200.0																	0.0	0.0	0.0	0.0	10.0	3.0	43.0	2.0																													s	1.0	0.434204101562	None	0.0	0.5	hexagonyellow.gif	stop																								0.0	0.513735055923	0.00090217590332	0.434204101562	1.0	s	387.20371103300005																																																							2015_Jun_24_1041	59.7414524923	LearningTask	1	20	
67	-200.0	a	-200.0																	0.0	0.0	0.0	0.0	11.0	0.0	44.0	3.0																													a	1.0	0.400582790375	None	0.0	1.0	trianglegray.gif	go																								0.85	0.514568805695	0.0008919239044189998	0.400582790375	1.0	a	390.20690012																																																							2015_Jun_24_1041	59.7414524923	LearningTask	1	20	
68	-200.0	q	200.0																	0.0	0.0	0.0	0.0	11.0	1.0	45.0	1.0																													q	1.0	0.434843063354	None	0.0	4.0	crosswhite.gif	go																								0.0	0.514245033264	0.00118708610535	0.434843063354	1.0	q	393.21095705																																																							2015_Jun_24_1041	59.7414524923	LearningTask	1	20	
69	-200.0	a	-200.0																	0.0	0.0	0.0	0.0	11.0	2.0	46.0	3.0																													a	1.0	0.367439031601	None	0.0	0.5	hexagonyellow.gif	stop																								0.37	0.513470172882	0.0009441375732419999	0.367439031601	1.0	a	396.213662148																																																							2015_Jun_24_1041	59.7414524923	LearningTask	1	20	
70	200.0	w	200.0																	0.0	0.0	0.0	0.0	11.0	3.0	47.0	0.0																													w	1.0	0.46795296668999997	None	0.0	0.5	hexagonyellow.gif	stop																								0.32	0.514162063599	0.00093412399292	0.46795296669	1.0	w	399.216933966																																																							2015_Jun_24_1041	59.7414524923	LearningTask	1	20	
71	200.0	w	200.0																	0.0	0.0	0.0	0.0	12.0	0.0	48.0	0.0																													w	1.0	0.401578903198	None	0.0	1.0	squaremagenta.gif	stop																								0.0	0.51437997818	0.00088906288147	0.401578903198	1.0	w	402.220421076																																																							2015_Jun_24_1041	59.7414524923	LearningTask	1	20	
72	200.0	w	200.0																	0.0	0.0	0.0	0.0	12.0	1.0	49.0	0.0																													w	1.0	0.500882863998	None	0.0	1.0	trianglegray.gif	go																								0.92	0.51406788826	0.0009129047393799999	0.500882863998	1.0	w	405.22385597199997																																																							2015_Jun_24_1041	59.7414524923	LearningTask	1	20	
73	200.0	s	-200.0																	0.0	0.0	0.0	0.0	12.0	2.0	50.0	2.0																													s	1.0	0.450953960419	None	0.0	2.0	diamondorange.gif	stop																								2.07	0.514355182648	0.00127506256104	0.450953960419	1.0	s	408.227285147																																																							2015_Jun_24_1041	59.7414524923	LearningTask	1	20	
74	-200.0	a	-200.0																	0.0	0.0	0.0	0.0	12.0	3.0	51.0	3.0																													a	1.0	0.450845956802	None	0.0	4.0	crosswhite.gif	go																								0.0	0.514130830765	0.0009119510650630002	0.450845956802	1.0	a	411.23020219800003																																																							2015_Jun_24_1041	59.7414524923	LearningTask	1	20	
75	-200.0	a	-200.0																	0.0	0.0	0.0	0.0	13.0	0.0	52.0	3.0																													a	1.0	0.38482499122599995	None	0.0	1.0	squaremagenta.gif	stop																								0.93	0.5145790576929999	0.0009119510650630002	0.384824991226	1.0	a	414.23371815699994																																																							2015_Jun_24_1041	59.7414524923	LearningTask	1	20	
76	200.0	s	-200.0																	0.0	0.0	0.0	0.0	13.0	1.0	53.0	2.0																													s	1.0	0.46789312362700003	None	0.0	0.5	circlecyan.gif	go																								0.47	0.51393699646	0.0010879039764400001	0.467893123627	1.0	s	417.237091064																																																							2015_Jun_24_1041	59.7414524923	LearningTask	1	20	
77	-200.0	q	200.0																	0.0	0.0	0.0	0.0	13.0	2.0	54.0	1.0																													q	1.0	0.350930929184	None	0.0	0.5	hexagonyellow.gif	stop																								0.75	0.514263153076	0.0009751319885249999	0.350930929184	1.0	q	420.24073004699994																																																							2015_Jun_24_1041	59.7414524923	LearningTask	1	20	
78	-200.0	q	200.0																	0.0	0.0	0.0	0.0	13.0	3.0	55.0	1.0																													q	1.0	0.367100000381	None	0.0	0.5	circlecyan.gif	go																								0.0	0.513986110687	0.0008971691131589999	0.400686979294	0.0	a	423.24414610900004	0.4	0.515261173248	0.000998020172119	0.367100000381	1.0	q	426.24715018300003																																																2015_Jun_24_1041	59.7414524923	LearningTask	1	20	
79	200.0	s	-200.0																	0.0	0.0	0.0	0.0	14.0	0.0	56.0	2.0																													s	1.0	0.384297847748	None	0.0	4.0	crosswhite.gif	go																								0.0	0.513959169388	0.0009520053863530001	0.384297847748	1.0	s	429.25041604																																																							2015_Jun_24_1041	59.7414524923	LearningTask	1	20	
80	200.0	s	-200.0																	0.0	0.0	0.0	0.0	14.0	1.0	57.0	2.0																													s	1.0	0.517804861069	None	0.0	2.0	invertedtriangleblue.gif	go																								2.12	0.514400005341	0.0008950233459470001	0.517804861069	1.0	s	432.253942966																																																							2015_Jun_24_1041	59.7414524923	LearningTask	1	20	
81	-200.0	a	-200.0																	0.0	0.0	0.0	0.0	14.0	2.0	58.0	3.0																													a	1.0	0.5343539714810001	None	0.0	0.5	circlecyan.gif	go																								0.0	0.5138900279999999	0.0009279251098630001	0.534353971481	1.0	a	435.257277012																																																							2015_Jun_24_1041	59.7414524923	LearningTask	1	20	
82	-200.0	a	-200.0																	0.0	0.0	0.0	0.0	14.0	3.0	59.0	3.0																													a	1.0	0.433777809143	None	0.0	4.0	linegreen.gif	stop																								0.0	0.514402866364	0.0008978843688960001	0.433777809143	1.0	a	438.26048207300005																																																							2015_Jun_24_1041	59.7414524923	LearningTask	1	20	
83	200.0	s	-200.0																	0.0	0.0	0.0	0.0	15.0	0.0	60.0	2.0																													s	1.0	0.434428930283	None	0.0	0.5	circlecyan.gif	go																								0.33	0.514454841614	0.000946044921875	0.434428930283	1.0	s	441.264439106																																																							2015_Jun_24_1041	59.7414524923	LearningTask	1	20	
84	200.0	s	-200.0																	0.0	0.0	0.0	0.0	15.0	1.0	61.0	2.0																													s	1.0	0.417646884918	None	0.0	2.0	diamondorange.gif	stop																								1.93	0.5136168003079999	0.0009119510650630002	0.417646884918	1.0	s	444.267431021																																																							2015_Jun_24_1041	59.7414524923	LearningTask	1	20	
85	-200.0	a	-200.0																	0.0	0.0	0.0	0.0	15.0	2.0	62.0	3.0																													a	1.0	0.451011896133	None	0.0	4.0	crosswhite.gif	go																								4.01	0.5141191482540001	0.0009331703186039999	0.451011896133	1.0	a	447.270714998																																																							2015_Jun_24_1041	59.7414524923	LearningTask	1	20	
86	-200.0	a	-200.0																	0.0	0.0	0.0	0.0	15.0	3.0	63.0	3.0																													a	1.0	0.434437990189	None	0.0	0.5	circlecyan.gif	go																								0.62	0.514065980911	0.0009119510650630002	0.434437990189	1.0	a	450.274122																																																							2015_Jun_24_1041	59.7414524923	LearningTask	1	20	
87	200.0	s	-200.0																	0.0	0.0	0.0	0.0	16.0	0.0	64.0	2.0																													s	1.0	0.518368005753	None	0.0	1.0	trianglegray.gif	go																								0.98	0.513960123062	0.000900030136108	0.518368005753	1.0	s	453.277228117																																																							2015_Jun_24_1041	59.7414524923	LearningTask	1	20	
88	-200.0	a	-200.0																	0.0	0.0	0.0	0.0	16.0	1.0	65.0	3.0																													a	1.0	0.501413106918	None	0.0	2.0	invertedtriangleblue.gif	go																								0.0	0.51441693306	0.00113201141357	0.501413106918	1.0	a	456.28077602400003																																																							2015_Jun_24_1041	59.7414524923	LearningTask	1	20	
89	-200.0	q	200.0																	0.0	0.0	0.0	0.0	16.0	2.0	66.0	1.0																													q	1.0	0.450758934021	None	0.0	0.5	circlecyan.gif	go																								0.72	0.5145180225370001	0.0008859634399410001	0.450758934021	1.0	q	459.284073114																																																							2015_Jun_24_1041	59.7414524923	LearningTask	1	20	
90	200.0	s	-200.0																	0.0	0.0	0.0	0.0	16.0	3.0	67.0	2.0																													s	1.0	0.40116119384800003	None	0.0	4.0	crosswhite.gif	go																								3.92	0.514400959015	0.0008971691131589999	0.401161193848	1.0	s	462.287379026																																																							2015_Jun_24_1041	59.7414524923	LearningTask	1	20	
91	200.0	s	-200.0																	0.0	0.0	0.0	0.0	17.0	0.0	68.0	2.0																													s	1.0	0.401114940643	None	0.0	0.5	hexagonyellow.gif	stop																								0.54	0.514153003693	0.00096607208252	0.401114940643	1.0	s	465.29076004																																																							2015_Jun_24_1041	59.7414524923	LearningTask	1	20	
92	200.0	w	200.0																	0.0	0.0	0.0	0.0	17.0	1.0	69.0	0.0																													w	1.0	0.517616033554	None	0.0	0.5	circlecyan.gif	go																								0.58	0.514508962631	0.0012419223785399998	0.517616033554	1.0	w	468.294546127																																																							2015_Jun_24_1041	59.7414524923	LearningTask	1	20	
93	-200.0	a	-200.0																	0.0	0.0	0.0	0.0	17.0	2.0	70.0	3.0																													a	1.0	0.48429012298600005	None	0.0	0.5	circlecyan.gif	go																								0.67	0.513906955719	0.0008909702301030001	0.484290122986	1.0	a	471.297513008																																																							2015_Jun_24_1041	59.7414524923	LearningTask	1	20	
94	-200.0	q	200.0																	0.0	0.0	0.0	0.0	17.0	3.0	71.0	1.0																													q	1.0	0.434192180634	None	0.0	2.0	diamondorange.gif	stop																								0.0	0.514118909836	0.0009059906005860001	0.434192180634	1.0	q	474.300813198																																																							2015_Jun_24_1041	59.7414524923	LearningTask	1	20	
95	-200.0	a	-200.0																	0.0	0.0	0.0	0.0	18.0	0.0	72.0	3.0																													a	1.0	0.48439002037	None	0.0	1.0	trianglegray.gif	go																								0.0	0.514271020889	0.0009319782257080001	0.48439002037	1.0	a	477.304156065																																																							2015_Jun_24_1041	59.7414524923	LearningTask	1	20	
96	200.0	w	200.0																	0.0	0.0	0.0	0.0	18.0	1.0	73.0	0.0																													w	1.0	0.600902080536	None	0.0	2.0	diamondorange.gif	stop																								1.96	0.514315843582	0.000894784927368	0.600902080536	1.0	w	480.30755400699996																																																							2015_Jun_24_1041	59.7414524923	LearningTask	1	20	
97	200.0	w	200.0																	0.0	0.0	0.0	0.0	18.0	2.0	74.0	0.0																													w	1.0	0.56759595871	None	0.0	4.0	linegreen.gif	stop																								4.07	0.514091968536	0.00092601776123	0.56759595871	1.0	w	483.311128139																																																							2015_Jun_24_1041	59.7414524923	LearningTask	1	20	
98	-200.0	a	-200.0																	0.0	0.0	0.0	0.0	18.0	3.0	75.0	3.0																													a	1.0	0.5172250270840001	None	0.0	1.0	squaremagenta.gif	stop																								1.23	0.514574050903	0.00088906288147	0.517225027084	1.0	a	486.31451106099996																																																							2015_Jun_24_1041	59.7414524923	LearningTask	1	20	
99	-200.0	q	200.0																	0.0	0.0	0.0	0.0	19.0	0.0	76.0	1.0																													q	1.0	0.417671203613	None	0.0	2.0	diamondorange.gif	stop																								0.0	0.514406919479	0.000902891159058	0.417671203613	1.0	q	489.318153143																																																							2015_Jun_24_1041	59.7414524923	LearningTask	1	20	
100	200.0	s	-200.0																	0.0	0.0	0.0	0.0	19.0	1.0	77.0	2.0																													s	1.0	0.417655944824	None	0.0	0.5	circlecyan.gif	go																								0.52	0.513638973236	0.00090217590332	0.417655944824	1.0	s	492.320954084																																																							2015_Jun_24_1041	59.7414524923	LearningTask	1	20	
101	200.0	s	-200.0																	0.0	0.0	0.0	0.0	19.0	2.0	78.0	2.0																													s	1.0	0.450836181641	None	0.0	2.0	invertedtriangleblue.gif	go																								2.09	0.514137029648	0.0009100437164310001	0.450836181641	1.0	s	495.32428407699996																																																							2015_Jun_24_1041	59.7414524923	LearningTask	1	20	
102	-200.0	q	200.0																	0.0	0.0	0.0	0.0	19.0	3.0	79.0	1.0																													q	1.0	0.5011711120610001	None	0.0	1.0	trianglegray.gif	go																								0.78	0.513611078262	0.0010139942169199998	0.501171112061	1.0	q	498.327896118																																																							2015_Jun_24_1041	59.7414524923	LearningTask	1	20	
103	-200.0	a	-200.0																	0.0	0.0	0.0	0.0	20.0	0.0	80.0	3.0																													a	1.0	0.467475891113	None	0.0	4.0	linegreen.gif	stop																								4.03	0.514086008072	0.00089693069458	0.467475891113	1.0	a	501.33107805300006																																																							2015_Jun_24_1041	59.7414524923	LearningTask	1	20	
104	200.0	w	200.0																	0.0	0.0	0.0	0.0	20.0	1.0	81.0	0.0																													w	1.0	0.501118898392	None	0.0	1.0	trianglegray.gif	go																								1.16	0.51432800293	0.00117993354797	0.501118898392	1.0	w	504.334149122																																																							2015_Jun_24_1041	59.7414524923	LearningTask	1	20	
105	200.0	w	200.0																	0.0	0.0	0.0	0.0	20.0	2.0	82.0	0.0																													w	1.0	0.434062004089	None	0.0	2.0	invertedtriangleblue.gif	go																								1.84	0.514570951462	0.0008950233459470001	0.434062004089	1.0	w	507.33797311800004																																																							2015_Jun_24_1041	59.7414524923	LearningTask	1	20	
106	-200.0	q	200.0																	0.0	0.0	0.0	0.0	20.0	3.0	83.0	1.0																													q	1.0	0.43421697616599997	None	0.0	2.0	invertedtriangleblue.gif	go																								1.88	0.514147043228	0.0009181499481200001	0.434216976166	1.0	q	510.341077089																																																							2015_Jun_24_1041	59.7414524923	LearningTask	1	20	
107	200.0	w	200.0																	0.0	0.0	0.0	0.0	21.0	0.0	84.0	0.0																													w	1.0	0.418078899384	None	0.0	4.0	linegreen.gif	stop																								4.15	0.513902902603	0.0009520053863530001	0.418078899384	1.0	w	513.344390154																																																							2015_Jun_24_1041	59.7414524923	LearningTask	1	20	
108	-200.0	q	200.0																	0.0	0.0	0.0	0.0	21.0	1.0	85.0	1.0																													q	1.0	0.568211078644	None	0.0	1.0	squaremagenta.gif	stop																								0.78	0.514279127121	0.000942945480347	0.568211078644	1.0	q	516.347576141																																																							2015_Jun_24_1041	59.7414524923	LearningTask	1	20	
109	-200.0	a	-200.0																	0.0	0.0	0.0	0.0	21.0	2.0	86.0	3.0																													a	1.0	0.41738319397	None	0.0	0.5	hexagonyellow.gif	stop																								0.7	0.5146958827970001	0.000942945480347	0.41738319397	1.0	a	519.351041079																																																							2015_Jun_24_1041	59.7414524923	LearningTask	1	20	
110	200.0	s	-200.0																	0.0	0.0	0.0	0.0	21.0	3.0	87.0	2.0																													s	1.0	0.46827816963200003	None	0.0	1.0	trianglegray.gif	go																								1.1	0.513766050339	0.00095009803772	0.468278169632	1.0	s	522.3544189930001																																																							2015_Jun_24_1041	59.7414524923	LearningTask	1	20	
111	200.0	s	-200.0																	0.0	0.0	0.0	0.0	22.0	0.0	88.0	2.0																													s	1.0	0.46751499176000005	None	0.0	2.0	diamondorange.gif	stop																								2.23	0.514396190643	0.000946044921875	0.46751499176	1.0	s	525.357839108																																																							2015_Jun_24_1041	59.7414524923	LearningTask	1	20	
112	-200.0	q	200.0																	0.0	0.0	0.0	0.0	22.0	1.0	89.0	1.0																													q	1.0	0.484362840652	None	0.0	2.0	invertedtriangleblue.gif	go																								1.76	0.51442694664	0.0008950233459470001	0.484362840652	1.0	q	528.361407995																																																							2015_Jun_24_1041	59.7414524923	LearningTask	1	20	
113	200.0	w	200.0																	0.0	0.0	0.0	0.0	22.0	2.0	90.0	0.0																													w	1.0	0.417438030243	None	0.0	1.0	squaremagenta.gif	stop																								0.0	0.513664007187	0.00090503692627	0.417438030243	1.0	w	531.364772081																																																							2015_Jun_24_1041	59.7414524923	LearningTask	1	20	
114	200.0	w	200.0																	0.0	0.0	0.0	0.0	22.0	3.0	91.0	0.0																													w	1.0	0.518264055252	None	0.0	1.0	trianglegray.gif	go																								0.78	0.5137279033659999	0.0009357929229739999	0.518264055252	1.0	w	534.367957115																																																							2015_Jun_24_1041	59.7414524923	LearningTask	1	20	
115	200.0	w	200.0																	0.0	0.0	0.0	0.0	23.0	0.0	92.0	0.0																													w	1.0	0.43409705162	None	0.0	1.0	squaremagenta.gif	stop																								0.9	0.514545917511	0.00088906288147	0.43409705162	1.0	w	537.371944189																																																							2015_Jun_24_1041	59.7414524923	LearningTask	1	20	
116	-200.0	a	-200.0																	0.0	0.0	0.0	0.0	23.0	1.0	93.0	3.0																													a	1.0	0.450790882111	None	0.0	2.0	invertedtriangleblue.gif	go																								1.83	0.513503074646	0.0008990764617919999	0.450790882111	1.0	a	540.374659061																																																							2015_Jun_24_1041	59.7414524923	LearningTask	1	20	
117	200.0	s	-200.0																	0.0	0.0	0.0	0.0	23.0	2.0	94.0	2.0																													s	1.0	0.434441804886	None	0.0	0.5	circlecyan.gif	go																								0.64	0.514277935028	0.00090503692627	0.434441804886	1.0	s	543.377995968																																																							2015_Jun_24_1041	59.7414524923	LearningTask	1	20	
118	200.0	s	-200.0																	0.0	0.0	0.0	0.0	23.0	3.0	95.0	2.0																													s	1.0	0.46787905693099996	None	0.0	0.5	circlecyan.gif	go																								0.68	0.514263868332	0.000892877578735	0.467879056931	1.0	s	546.381550074																																																							2015_Jun_24_1041	59.7414524923	LearningTask	1	20	
119	200.0	s	-200.0																	0.0	0.0	0.0	0.0	24.0	0.0	96.0	2.0																													s	1.0	0.41771006584200004	None	0.0	0.5	circlecyan.gif	go																								0.42	0.513998985291	0.0009031295776369999	0.417710065842	1.0	s	549.384858131																																																							2015_Jun_24_1041	59.7414524923	LearningTask	1	20	
120	-200.0	q	200.0																	0.0	0.0	0.0	0.0	24.0	1.0	97.0	1.0																													q	1.0	0.467349052429	None	0.0	1.0	trianglegray.gif	go																								0.0	0.514523029327	0.0010809898376500002	0.467349052429	1.0	q	552.388381004																																																							2015_Jun_24_1041	59.7414524923	LearningTask	1	20	
121	-200.0	q	200.0																	0.0	0.0	0.0	0.0	24.0	2.0	98.0	1.0																													q	1.0	0.466816186905	None	0.0	4.0	crosswhite.gif	go																								4.06	0.514313936234	0.0008940696716310001	0.466816186905	1.0	q	555.391355038																																																							2015_Jun_24_1041	59.7414524923	LearningTask	1	20	
122	-200.0	q	200.0																	0.0	0.0	0.0	0.0	24.0	3.0	99.0	1.0																													q	1.0	0.467533111572	None	0.0	0.5	circlecyan.gif	go																								0.73	0.5142841339109999	0.0008940696716310001	0.467533111572	1.0	q	558.394889116																																																							2015_Jun_24_1041	59.7414524923	LearningTask	1	20	
123																				0.0	0.0	0.0	0.0																																																																														9.0	11.3394169807																																														2015_Jun_24_1041	59.7414524923	LearningTask	1	20	
124	-200.0	q	200.0																	1.0	0.0	1.0	0.0	0.0	0.0	0.0	1.0																													q	1.0	0.367552995682	None	0.0	0.5	circlecyan.gif	go																								0.26	0.509382009506	0.000961065292358	0.367552995682	1.0	q	573.1782300469999																																																							2015_Jun_24_1041	59.7414524923	LearningTask	1	20	
125	-200.0	a	-200.0																	1.0	0.0	1.0	0.0	0.0	1.0	1.0	3.0																													a	1.0	0.46794795990000004	None	0.0	0.5	hexagonyellow.gif	stop																								0.45	0.5140399932859999	0.000902891159058	0.4679479599	1.0	a	576.181230068																																																							2015_Jun_24_1041	59.7414524923	LearningTask	1	20	
126	-200.0	a	-200.0																	1.0	0.0	1.0	0.0	0.0	2.0	2.0	3.0																													a	1.0	0.45073914527900005	None	0.0	2.0	invertedtriangleblue.gif	go																								1.76	0.514322042465	0.0008959770202639998	0.450739145279	1.0	a	579.184656143																																																							2015_Jun_24_1041	59.7414524923	LearningTask	1	20	
127	-200.0	q	200.0																	1.0	0.0	1.0	0.0	0.0	3.0	3.0	1.0																													q	1.0	0.567733049393	None	0.0	4.0	linegreen.gif	stop																								4.12	0.514229059219	0.000927209854126	0.567733049393	1.0	q	582.188278198																																																							2015_Jun_24_1041	59.7414524923	LearningTask	1	20	
128	200.0	w	200.0																	1.0	0.0	1.0	0.0	1.0	0.0	4.0	0.0																													w	1.0	0.484879970551	None	0.0	4.0	linegreen.gif	stop																								0.0	0.5139198303220001	0.00105094909668	0.484879970551	1.0	w	585.191956043																																																							2015_Jun_24_1041	59.7414524923	LearningTask	1	20	
129	200.0	w	200.0																	1.0	0.0	1.0	0.0	1.0	1.0	5.0	0.0																													w	1.0	0.484236001968	None	0.0	4.0	crosswhite.gif	go																								3.83	0.513532876968	0.0008909702301030001	0.484236001968	1.0	w	588.194903135																																																							2015_Jun_24_1041	59.7414524923	LearningTask	1	20	
130	200.0	s	-200.0																	1.0	0.0	1.0	0.0	1.0	2.0	6.0	2.0																													s	1.0	0.400842189789	None	0.0	2.0	diamondorange.gif	stop																								1.87	0.514041900635	0.000951051712036	0.400842189789	1.0	s	591.1979911330001																																																							2015_Jun_24_1041	59.7414524923	LearningTask	1	20	
131	-200.0	a	-200.0																	1.0	0.0	1.0	0.0	1.0	3.0	7.0	3.0																													a	1.0	0.400807857513	None	0.0	1.0	squaremagenta.gif	stop																								0.0	0.5141499042509999	0.00137686729431	0.400807857513	1.0	a	594.20147109																																																							2015_Jun_24_1041	59.7414524923	LearningTask	1	20	
132	-200.0	a	-200.0																	1.0	0.0	1.0	0.0	2.0	0.0	8.0	3.0																													a	1.0	0.40080690383900003	None	0.0	4.0	crosswhite.gif	go																								4.18	0.514325857162	0.000902891159058	0.400806903839	1.0	a	597.2045841219999																																																							2015_Jun_24_1041	59.7414524923	LearningTask	1	20	
133	200.0	w	200.0																	1.0	0.0	1.0	0.0	2.0	1.0	9.0	0.0																													w	1.0	0.467406988144	None	0.0	2.0	diamondorange.gif	stop																								0.0	0.514358043671	0.0009160041809079999	0.467406988144	1.0	w	600.208053112																																																							2015_Jun_24_1041	59.7414524923	LearningTask	1	20	
134	-200.0	q	200.0																	1.0	0.0	1.0	0.0	2.0	2.0	10.0	1.0																													q	1.0	0.46794605255099997	None	0.0	1.0	squaremagenta.gif	stop																								1.16	0.513876914978	0.0009319782257080001	0.467946052551	1.0	q	603.211310148																																																							2015_Jun_24_1041	59.7414524923	LearningTask	1	20	
135	200.0	s	-200.0																	1.0	0.0	1.0	0.0	2.0	3.0	11.0	2.0																													s	1.0	0.434284925461	None	0.0	4.0	linegreen.gif	stop																								3.98	0.514480113983	0.000892162322998	0.434284925461	1.0	s	606.2149260040001																																																							2015_Jun_24_1041	59.7414524923	LearningTask	1	20	
136	-200.0	a	-200.0																	1.0	0.0	1.0	0.0	3.0	0.0	12.0	3.0																													a	1.0	0.450839996338	None	0.0	0.5	circlecyan.gif	go																								0.55	0.514153957367	0.0008959770202639998	0.450839996338	1.0	a	609.218539																																																							2015_Jun_24_1041	59.7414524923	LearningTask	1	20	
137	-200.0	a	-200.0																	1.0	0.0	1.0	0.0	3.0	1.0	13.0	3.0																													a	1.0	0.40079784393299994	None	0.0	4.0	crosswhite.gif	go																								4.17	0.513519048691	0.00095009803772	0.400797843933	1.0	a	612.221701145																																																							2015_Jun_24_1041	59.7414524923	LearningTask	1	20	
138	200.0	w	200.0																	1.0	0.0	1.0	0.0	3.0	2.0	14.0	0.0																													w	1.0	0.550956964493	None	0.0	4.0	crosswhite.gif	go																								0.0	0.514126062393	0.000922918319702	0.550956964493	1.0	w	615.225215197																																																							2015_Jun_24_1041	59.7414524923	LearningTask	1	20	
139	200.0	s	-200.0																	1.0	0.0	1.0	0.0	3.0	3.0	15.0	2.0																													s	1.0	0.384230136871	None	0.0	0.5	hexagonyellow.gif	stop																								0.54	0.513857841492	0.000900983810425	0.384230136871	1.0	s	618.2288920880001																																																							2015_Jun_24_1041	59.7414524923	LearningTask	1	20	
140	200.0	w	200.0																	1.0	0.0	1.0	0.0	4.0	0.0	16.0	0.0																													w	1.0	0.567751169205	None	0.0	1.0	trianglegray.gif	go																								0.0	0.513689041138	0.00096607208252	0.567751169205	1.0	w	621.231633186																																																							2015_Jun_24_1041	59.7414524923	LearningTask	1	20	
141	200.0	w	200.0																	1.0	0.0	1.0	0.0	4.0	1.0	17.0	0.0																													w	1.0	0.384371042252	None	0.0	0.5	hexagonyellow.gif	stop																								0.61	0.514434099197	0.000922918319702	0.384371042252	1.0	w	624.2350540159999																																																							2015_Jun_24_1041	59.7414524923	LearningTask	1	20	
142	200.0	s	-200.0																	1.0	0.0	1.0	0.0	4.0	2.0	18.0	2.0																													s	1.0	0.417532920837	None	0.0	2.0	diamondorange.gif	stop																								1.82	0.514284849167	0.0008769035339360002	0.417532920837	1.0	s	627.238296032																																																							2015_Jun_24_1041	59.7414524923	LearningTask	1	20	
143	-200.0	a	-200.0																	1.0	0.0	1.0	0.0	4.0	3.0	19.0	3.0																													a	1.0	0.351174116135	None	0.0	4.0	linegreen.gif	stop																								4.09	0.513965129852	0.0009160041809079999	0.351174116135	1.0	a	630.241394043																																																							2015_Jun_24_1041	59.7414524923	LearningTask	1	20	
144	-200.0	q	200.0																	1.0	0.0	1.0	0.0	5.0	0.0	20.0	1.0																													q	1.0	0.367343902588	None	0.0	2.0	invertedtriangleblue.gif	go																								2.1	0.5147070884699999	0.0009391307830810002	0.367343902588	1.0	q	633.2456531519999																																																							2015_Jun_24_1041	59.7414524923	LearningTask	1	20	
145	-200.0	a	-200.0																	1.0	0.0	1.0	0.0	5.0	1.0	21.0	3.0																													a	1.0	0.36738109588600004	None	0.0	1.0	squaremagenta.gif	stop																								0.0	0.513782978058	0.000869989395142	0.367381095886	1.0	a	636.24842																																																							2015_Jun_24_1041	59.7414524923	LearningTask	1	20	
146	-200.0	q	200.0																	1.0	0.0	1.0	0.0	5.0	2.0	22.0	1.0																													q	1.0	0.40082478523299997	None	0.0	2.0	diamondorange.gif	stop																								0.0	0.514107942581	0.000931024551392	0.400824785233	1.0	q	639.251698971																																																							2015_Jun_24_1041	59.7414524923	LearningTask	1	20	
147	-200.0	q	200.0																	1.0	0.0	1.0	0.0	5.0	3.0	23.0	1.0																													q	1.0	0.434457778931	None	0.0	4.0	crosswhite.gif	go																								0.0	0.5141999721530001	0.00103998184204	0.434457778931	1.0	q	642.255103111																																																							2015_Jun_24_1041	59.7414524923	LearningTask	1	20	
148	200.0	w	200.0																	1.0	0.0	1.0	0.0	6.0	0.0	24.0	0.0																													w	1.0	0.501190900803	None	0.0	0.5	circlecyan.gif	go																								0.26	0.514378786087	0.0008788108825680001	0.501190900803	1.0	w	645.258753061																																																							2015_Jun_24_1041	59.7414524923	LearningTask	1	20	
149	200.0	w	200.0																	1.0	0.0	1.0	0.0	6.0	1.0	25.0	0.0																													w	1.0	0.451199054718	None	0.0	4.0	linegreen.gif	stop																								3.85	0.513416051865	0.00088095664978	0.451199054718	1.0	w	648.261625051																																																							2015_Jun_24_1041	59.7414524923	LearningTask	1	20	
150	200.0	s	-200.0																	1.0	0.0	1.0	0.0	6.0	2.0	26.0	2.0																													s	1.0	0.467799186707	None	0.0	0.5	hexagonyellow.gif	stop																								0.37	0.514092922211	0.0009119510650630002	0.467799186707	1.0	s	651.2651200290001																																																							2015_Jun_24_1041	59.7414524923	LearningTask	1	20	
151	-200.0	a	-200.0																	1.0	0.0	1.0	0.0	6.0	3.0	27.0	3.0																													a	1.0	0.43440604209899997	None	0.0	1.0	trianglegray.gif	go																								0.0	0.51430106163	0.000885009765625	0.434406042099	1.0	a	654.268511057																																																							2015_Jun_24_1041	59.7414524923	LearningTask	1	20	
152	-200.0	a	-200.0																	1.0	0.0	1.0	0.0	7.0	0.0	28.0	3.0																													a	1.0	0.5341911315919999	None	0.0	2.0	diamondorange.gif	stop																								2.13	0.5142149925230001	0.00088095664978	0.534191131592	1.0	a	657.2719731330001																																																							2015_Jun_24_1041	59.7414524923	LearningTask	1	20	
153	-200.0	q	200.0																	1.0	0.0	1.0	0.0	7.0	1.0	29.0	1.0																													q	1.0	0.467882156372	None	0.0	0.5	hexagonyellow.gif	stop																								0.0	0.5139939785000001	0.0009250640869139999	0.467882156372	1.0	q	660.2751801009999																																																							2015_Jun_24_1041	59.7414524923	LearningTask	1	20	
154	200.0	w	200.0																	1.0	0.0	1.0	0.0	7.0	2.0	30.0	0.0																													w	1.0	0.584290981293	None	0.0	1.0	trianglegray.gif	go																								1.02	0.5140759944919999	0.0009109973907470001	0.584290981293	1.0	w	663.2787292																																																							2015_Jun_24_1041	59.7414524923	LearningTask	1	20	
155	-200.0	q	200.0																	1.0	0.0	1.0	0.0	7.0	3.0	31.0	1.0																													q	1.0	0.5344858169560001	None	0.0	0.5	circlecyan.gif	go																								0.36	0.513808965683	0.0009019374847410001	0.534485816956	1.0	q	666.282095194																																																							2015_Jun_24_1041	59.7414524923	LearningTask	1	20	
156	-200.0	a	-200.0																	1.0	0.0	1.0	0.0	8.0	0.0	32.0	3.0																													a	1.0	0.41792201995800005	None	0.0	2.0	invertedtriangleblue.gif	go																								0.0	0.5138080120090001	0.000869989395142	0.417922019958	1.0	a	669.285303116																																																							2015_Jun_24_1041	59.7414524923	LearningTask	1	20	
157	-200.0	a	-200.0																	1.0	0.0	1.0	0.0	8.0	1.0	33.0	3.0																													a	1.0	0.38434195518500003	None	0.0	1.0	squaremagenta.gif	stop																								0.0	0.5140910148619999	0.0008718967437739999	0.384341955185	1.0	a	672.288534164																																																							2015_Jun_24_1041	59.7414524923	LearningTask	1	20	
158	200.0	s	-200.0																	1.0	0.0	1.0	0.0	8.0	2.0	34.0	2.0																													s	1.0	0.501029968262	None	0.0	0.5	hexagonyellow.gif	stop																								0.7	0.5143098831180001	0.0008940696716310001	0.501029968262	1.0	s	675.291949987																																																							2015_Jun_24_1041	59.7414524923	LearningTask	1	20	
159	200.0	w	200.0																	1.0	0.0	1.0	0.0	8.0	3.0	35.0	0.0																													w	1.0	0.48456382751500005	None	0.0	0.5	hexagonyellow.gif	stop																								0.42	0.513543844223	0.00122594833374	0.484563827515	1.0	w	678.2950880530001																																																							2015_Jun_24_1041	59.7414524923	LearningTask	1	20	
160	-200.0	q	200.0																	1.0	0.0	1.0	0.0	9.0	0.0	36.0	1.0																													q	1.0	0.401007890701	None	0.0	2.0	invertedtriangleblue.gif	go																								2.03	0.5144081115720001	0.00137615203857	0.401007890701	1.0	q	681.298349142																																																							2015_Jun_24_1041	59.7414524923	LearningTask	1	20	
161	200.0	w	200.0																	1.0	0.0	1.0	0.0	9.0	1.0	37.0	0.0																													w	1.0	0.451056957245	None	0.0	1.0	squaremagenta.gif	stop																								1.2	0.514601945877	0.0012669563293499998	0.451056957245	1.0	w	684.302175045																																																							2015_Jun_24_1041	59.7414524923	LearningTask	1	20	
162	200.0	s	-200.0																	1.0	0.0	1.0	0.0	9.0	2.0	38.0	2.0																													s	1.0	0.400938987732	None	0.0	1.0	squaremagenta.gif	stop																								0.75	0.513972997665	0.000930070877075	0.400938987732	1.0	s	687.305507183																																																							2015_Jun_24_1041	59.7414524923	LearningTask	1	20	
163	200.0	s	-200.0																	1.0	0.0	1.0	0.0	9.0	3.0	39.0	2.0																													s	1.0	0.434150934219	None	0.0	2.0	invertedtriangleblue.gif	go																								2.06	0.5138621330259999	0.000962018966675	0.434150934219	1.0	s	690.308765173																																																							2015_Jun_24_1041	59.7414524923	LearningTask	1	20	
164	200.0	s	-200.0																	1.0	0.0	1.0	0.0	10.0	0.0	40.0	2.0																													s	1.0	0.434500932693	None	0.0	4.0	linegreen.gif	stop																								3.93	0.514355182648	0.00125813484192	0.434500932693	1.0	s	693.311747074																																																							2015_Jun_24_1041	59.7414524923	LearningTask	1	20	
165	200.0	w	200.0																	1.0	0.0	1.0	0.0	10.0	1.0	41.0	0.0																													w	1.0	0.467772006989	None	0.0	4.0	linegreen.gif	stop																								0.0	0.514374017715	0.0009329319000239999	0.467772006989	1.0	w	696.3152441980001																																																							2015_Jun_24_1041	59.7414524923	LearningTask	1	20	
166	200.0	w	200.0																	1.0	0.0	1.0	0.0	10.0	2.0	42.0	0.0																													w	1.0	0.484555959702	None	0.0	1.0	trianglegray.gif	go																								1.06	0.5142099857329999	0.00130391120911	0.484555959702	1.0	w	699.3188860419999																																																							2015_Jun_24_1041	59.7414524923	LearningTask	1	20	
167	200.0	s	-200.0																	1.0	0.0	1.0	0.0	10.0	3.0	43.0	2.0																													s	1.0	0.401124000549	None	0.0	0.5	circlecyan.gif	go																								0.0	0.514122009277	0.0012800693512	0.401124000549	1.0	s	702.322103024																																																							2015_Jun_24_1041	59.7414524923	LearningTask	1	20	
168	-200.0	q	200.0																	1.0	0.0	1.0	0.0	11.0	0.0	44.0	1.0																													q	1.0	0.400853157043	None	0.0	1.0	trianglegray.gif	go																								0.78	0.514339208603	0.00090217590332	0.400853157043	1.0	q	705.325481176																																																							2015_Jun_24_1041	59.7414524923	LearningTask	1	20	
169	-200.0	a	-200.0																	1.0	0.0	1.0	0.0	11.0	1.0	45.0	3.0																													a	1.0	0.400949954987	None	0.0	2.0	diamondorange.gif	stop																								0.0	0.514066934586	0.00127482414246	0.400949954987	1.0	a	708.3289291860001																																																							2015_Jun_24_1041	59.7414524923	LearningTask	1	20	
170	200.0	w	200.0																	1.0	0.0	1.0	0.0	11.0	2.0	46.0	0.0																													w	1.0	0.53458404541	None	0.0	2.0	diamondorange.gif	stop																								0.0	0.514007091522	0.000996112823486	0.53458404541	1.0	w	711.3322529789999																																																							2015_Jun_24_1041	59.7414524923	LearningTask	1	20	
171	-200.0	q	200.0																	1.0	0.0	1.0	0.0	11.0	3.0	47.0	1.0																													q	1.0	0.43389892578100003	None	0.0	1.0	trianglegray.gif	go																								0.0	0.5145790576929999	0.0008740425109860002	0.433898925781	1.0	q	714.3360021110001																																																							2015_Jun_24_1041	59.7414524923	LearningTask	1	20	
172	200.0	s	-200.0																	1.0	0.0	1.0	0.0	12.0	0.0	48.0	2.0																													s	1.0	0.450979948044	None	0.0	4.0	crosswhite.gif	go																								3.87	0.513936042786	0.00143694877625	0.450979948044	1.0	s	717.338845968																																																							2015_Jun_24_1041	59.7414524923	LearningTask	1	20	
173	200.0	w	200.0																	1.0	0.0	1.0	0.0	12.0	1.0	49.0	0.0																													w	1.0	0.400700092316	None	0.0	4.0	linegreen.gif	stop																								4.0	0.514393091202	0.0008740425109860002	0.400700092316	1.0	w	720.342403173																																																							2015_Jun_24_1041	59.7414524923	LearningTask	1	20	
174	200.0	w	200.0																	1.0	0.0	1.0	0.0	12.0	2.0	50.0	0.0																													w	1.0	0.517566204071	None	0.0	4.0	linegreen.gif	stop																								0.0	0.514108896255	0.0008769035339360002	0.517566204071	1.0	w	723.345927																																																							2015_Jun_24_1041	59.7414524923	LearningTask	1	20	
175	-200.0	a	-200.0																	1.0	0.0	1.0	0.0	12.0	3.0	51.0	3.0																													a	1.0	0.417320966721	None	0.0	2.0	diamondorange.gif	stop																								2.04	0.513924121857	0.0009360313415529999	0.417320966721	1.0	a	726.348831177																																																							2015_Jun_24_1041	59.7414524923	LearningTask	1	20	
176	-200.0	q	200.0																	1.0	0.0	1.0	0.0	13.0	0.0	52.0	1.0																													q	1.0	0.3342461586	None	0.0	0.5	circlecyan.gif	go																								0.0	0.5145640373229999	0.0014841556549100002	0.3342461586	1.0	q	729.352738142																																																							2015_Jun_24_1041	59.7414524923	LearningTask	1	20	
177	-200.0	q	200.0																	1.0	0.0	1.0	0.0	13.0	1.0	53.0	1.0																													q	1.0	0.384427070618	None	0.0	0.5	hexagonyellow.gif	stop																								0.0	0.5138080120090001	0.000890016555786	0.384427070618	1.0	q	732.35571003																																																							2015_Jun_24_1041	59.7414524923	LearningTask	1	20	
178	200.0	w	200.0																	1.0	0.0	1.0	0.0	13.0	2.0	54.0	0.0																													w	1.0	0.384532928467	None	0.0	0.5	circlecyan.gif	go																								0.44	0.514231920242	0.000904083251953	0.384532928467	1.0	w	735.358940125																																																							2015_Jun_24_1041	59.7414524923	LearningTask	1	20	
179	200.0	s	-200.0																	1.0	0.0	1.0	0.0	13.0	3.0	55.0	2.0																													s	1.0	0.401211023331	None	0.0	1.0	trianglegray.gif	go																								1.07	0.514465093613	0.0011169910430899998	0.401211023331	1.0	s	738.362508059																																																							2015_Jun_24_1041	59.7414524923	LearningTask	1	20	
180	200.0	w	200.0																	1.0	0.0	1.0	0.0	14.0	0.0	56.0	0.0																													w	1.0	0.417764186859	None	0.0	1.0	trianglegray.gif	go																								0.9	0.514543056488	0.000880002975464	0.417764186859	1.0	w	741.3656611439999																																																							2015_Jun_24_1041	59.7414524923	LearningTask	1	20	
181	-200.0	a	-200.0																	1.0	0.0	1.0	0.0	14.0	1.0	57.0	3.0																													a	1.0	0.400744915009	None	0.0	0.5	circlecyan.gif	go																								0.0	0.5140831470489999	0.0008959770202639998	0.417883872986	0.0	q	744.368896008	0.33	0.5157330036159999	0.00109910964966	0.400744915009	1.0	a	747.372678995																																																2015_Jun_24_1041	59.7414524923	LearningTask	1	20	
182	200.0	s	-200.0																	1.0	0.0	1.0	0.0	14.0	2.0	58.0	2.0																													s	1.0	0.6008338928220001	None	0.0	1.0	trianglegray.gif	go																								0.76	0.51428103447	0.0008728504180910001	0.600833892822	1.0	s	750.3758640289999																																																							2015_Jun_24_1041	59.7414524923	LearningTask	1	20	
183	-200.0	q	200.0																	1.0	0.0	1.0	0.0	14.0	3.0	59.0	1.0																													q	1.0	0.41751194000200004	None	0.0	0.5	circlecyan.gif	go																								0.39	0.514079093933	0.0008821487426760002	0.417511940002	1.0	q	753.3792061810001																																																							2015_Jun_24_1041	59.7414524923	LearningTask	1	20	
184	-200.0	q	200.0																	1.0	0.0	1.0	0.0	15.0	0.0	60.0	1.0																													q	1.0	0.384240150452	None	0.0	4.0	linegreen.gif	stop																								4.05	0.5140399932859999	0.00089693069458	0.384240150452	1.0	q	756.3824319839999																																																							2015_Jun_24_1041	59.7414524923	LearningTask	1	20	
185	200.0	s	-200.0																	1.0	0.0	1.0	0.0	15.0	1.0	61.0	2.0																													s	1.0	0.451042890549	None	0.0	1.0	squaremagenta.gif	stop																								1.16	0.514511108398	0.000877141952515	0.451042890549	1.0	s	759.3862750530001																																																							2015_Jun_24_1041	59.7414524923	LearningTask	1	20	
186	-200.0	a	-200.0																	1.0	0.0	1.0	0.0	15.0	2.0	62.0	3.0																													a	1.0	0.366970062256	None	0.0	0.5	circlecyan.gif	go																								0.57	0.514321088791	0.000880002975464	0.366970062256	1.0	a	762.389590025																																																							2015_Jun_24_1041	59.7414524923	LearningTask	1	20	
187	200.0	w	200.0																	1.0	0.0	1.0	0.0	15.0	3.0	63.0	0.0																													w	1.0	0.451056003571	None	0.0	0.5	circlecyan.gif	go																								0.0	0.513997077942	0.0009210109710689999	0.451056003571	1.0	w	765.392575979																																																							2015_Jun_24_1041	59.7414524923	LearningTask	1	20	
188	-200.0	q	200.0																	1.0	0.0	1.0	0.0	16.0	0.0	64.0	1.0																													q	1.0	0.467679023743	None	0.0	1.0	trianglegray.gif	go																								1.16	0.5143840312960001	0.0008878707885739998	0.467679023743	1.0	q	768.396098137																																																							2015_Jun_24_1041	59.7414524923	LearningTask	1	20	
189	-200.0	q	200.0																	1.0	0.0	1.0	0.0	16.0	1.0	65.0	1.0																													q	1.0	0.534283876419	None	0.0	2.0	diamondorange.gif	stop																								2.16	0.5142140388490001	0.00088095664978	0.534283876419	1.0	q	771.399507999																																																							2015_Jun_24_1041	59.7414524923	LearningTask	1	20	
190	-200.0	q	200.0																	1.0	0.0	1.0	0.0	16.0	2.0	66.0	1.0																													q	1.0	0.500822067261	None	0.0	2.0	invertedtriangleblue.gif	go																								2.21	0.514007091522	0.0008940696716310001	0.500822067261	1.0	q	774.4024810789999																																																							2015_Jun_24_1041	59.7414524923	LearningTask	1	20	
191	-200.0	q	200.0																	1.0	0.0	1.0	0.0	16.0	3.0	67.0	1.0																													q	1.0	0.5009269714360001	None	0.0	2.0	invertedtriangleblue.gif	go																								2.12	0.514481067657	0.0008769035339360002	0.500926971436	1.0	q	777.405794144																																																							2015_Jun_24_1041	59.7414524923	LearningTask	1	20	
192	200.0	s	-200.0																	1.0	0.0	1.0	0.0	17.0	0.0	68.0	2.0																													s	1.0	0.501143932343	None	0.0	1.0	trianglegray.gif	go																								0.8	0.514452934265	0.000900983810425	0.501143932343	1.0	s	780.4093170169999																																																							2015_Jun_24_1041	59.7414524923	LearningTask	1	20	
193	200.0	w	200.0																	1.0	0.0	1.0	0.0	17.0	1.0	69.0	0.0																													w	1.0	0.484162092209	None	0.0	1.0	trianglegray.gif	go																								1.18	0.51424908638	0.0009369850158689999	0.484162092209	1.0	w	783.4126579760001																																																							2015_Jun_24_1041	59.7414524923	LearningTask	1	20	
194	200.0	w	200.0																	1.0	0.0	1.0	0.0	17.0	2.0	70.0	0.0																													w	1.0	0.48420286178599997	None	0.0	4.0	linegreen.gif	stop																								3.91	0.514297962189	0.000921964645386	0.484202861786	1.0	w	786.416006088																																																							2015_Jun_24_1041	59.7414524923	LearningTask	1	20	
195	200.0	w	200.0																	1.0	0.0	1.0	0.0	17.0	3.0	71.0	0.0																													w	1.0	0.567939996719	None	0.0	1.0	trianglegray.gif	go																								1.12	0.514406204224	0.0008749961853029999	0.567939996719	1.0	w	789.41933918																																																							2015_Jun_24_1041	59.7414524923	LearningTask	1	20	
196	-200.0	q	200.0																	1.0	0.0	1.0	0.0	18.0	0.0	72.0	1.0																													q	1.0	0.43514990806599996	None	0.0	0.5	circlecyan.gif	go																								0.57	0.513952970505	0.0008990764617919999	0.435149908066	1.0	q	792.4225800039999																																																							2015_Jun_24_1041	59.7414524923	LearningTask	1	20	
197	-200.0	q	200.0																	1.0	0.0	1.0	0.0	18.0	1.0	73.0	1.0																													q	1.0	0.46699905395499997	None	0.0	1.0	squaremagenta.gif	stop																								1.18	0.51501584053	0.0009379386901860002	0.466999053955	1.0	q	795.4261519910001																																																							2015_Jun_24_1041	59.7414524923	LearningTask	1	20	
198	200.0	w	200.0																	1.0	0.0	1.0	0.0	18.0	2.0	74.0	0.0																													w	1.0	0.434161186218	None	0.0	4.0	crosswhite.gif	go																								3.77	0.5145130157469999	0.0008761882781980001	0.434161186218	1.0	w	798.4295210839999																																																							2015_Jun_24_1041	59.7414524923	LearningTask	1	20	
199	200.0	s	-200.0																	1.0	0.0	1.0	0.0	18.0	3.0	75.0	2.0																													s	1.0	0.367312908173	None	0.0	4.0	linegreen.gif	stop																								0.0	0.514189004898	0.0008978843688960001	0.517715930939	0.0	w	801.4328231810001	0.0	0.5155839920040001	0.0009601116180419999	0.367312908173	1.0	s	804.436457157																																																2015_Jun_24_1041	59.7414524923	LearningTask	1	20	
200	200.0	s	-200.0																	1.0	0.0	1.0	0.0	19.0	0.0	76.0	2.0																													s	1.0	0.584683179855	None	0.0	0.5	hexagonyellow.gif	stop																								0.36	0.51396894455	0.0008831024169919999	0.584683179855	1.0	s	807.4398050310001																																																							2015_Jun_24_1041	59.7414524923	LearningTask	1	20	
201	200.0	w	200.0																	1.0	0.0	1.0	0.0	19.0	1.0	77.0	0.0																													w	1.0	0.484308958054	None	0.0	4.0	linegreen.gif	stop																								4.1	0.5140249729159999	0.0009779930114750001	0.484308958054	1.0	w	810.44355607																																																							2015_Jun_24_1041	59.7414524923	LearningTask	1	20	
202	-200.0	a	-200.0																	1.0	0.0	1.0	0.0	19.0	2.0	78.0	3.0																													a	1.0	0.40137791633599995	None	0.0	1.0	trianglegray.gif	go																								0.81	0.513650894165	0.000917911529541	0.401377916336	1.0	a	813.4461870189999																																																							2015_Jun_24_1041	59.7414524923	LearningTask	1	20	
203	-200.0	a	-200.0																	1.0	0.0	1.0	0.0	19.0	3.0	79.0	3.0																													a	1.0	0.467960119247	None	0.0	1.0	squaremagenta.gif	stop																								1.06	0.514401912689	0.0008680820465089999	0.467960119247	1.0	a	816.449676037																																																							2015_Jun_24_1041	59.7414524923	LearningTask	1	20	
204	-200.0	a	-200.0																	1.0	0.0	1.0	0.0	20.0	0.0	80.0	3.0																													a	1.0	0.4172539711	None	0.0	0.5	hexagonyellow.gif	stop																								0.57	0.5143840312960001	0.0008869171142580001	0.4172539711	1.0	a	819.4531540869999																																																							2015_Jun_24_1041	59.7414524923	LearningTask	1	20	
205	-200.0	q	200.0																	1.0	0.0	1.0	0.0	20.0	1.0	81.0	1.0																													q	1.0	0.467958927155	None	0.0	0.5	circlecyan.gif	go																								0.53	0.513902187347	0.0009520053863530001	0.467958927155	1.0	q	822.4561111930001																																																							2015_Jun_24_1041	59.7414524923	LearningTask	1	20	
206	-200.0	a	-200.0																	1.0	0.0	1.0	0.0	20.0	2.0	82.0	3.0																													a	1.0	0.517574071884	None	0.0	1.0	squaremagenta.gif	stop																								1.01	0.514580965042	0.000867128372192	0.517574071884	1.0	a	825.460039139																																																							2015_Jun_24_1041	59.7414524923	LearningTask	1	20	
207	200.0	w	200.0																	1.0	0.0	1.0	0.0	20.0	3.0	83.0	0.0																													w	1.0	0.550642967224	None	0.0	2.0	invertedtriangleblue.gif	go																								2.14	0.513938903809	0.0009799003601070001	0.550642967224	1.0	w	828.4633340839999																																																							2015_Jun_24_1041	59.7414524923	LearningTask	1	20	
208	200.0	s	-200.0																	1.0	0.0	1.0	0.0	21.0	0.0	84.0	2.0																													s	1.0	0.434131860733	None	0.0	2.0	invertedtriangleblue.gif	go																								1.96	0.5139210224149999	0.000926971435547	0.434131860733	1.0	s	831.4663960930001																																																							2015_Jun_24_1041	59.7414524923	LearningTask	1	20	
209	-200.0	a	-200.0																	1.0	0.0	1.0	0.0	21.0	1.0	85.0	3.0																													a	1.0	0.567858934402	None	0.0	4.0	linegreen.gif	stop																								3.93	0.514156103134	0.0011100769043	0.567858934402	1.0	a	834.469632149																																																							2015_Jun_24_1041	59.7414524923	LearningTask	1	20	
210	-200.0	q	200.0																	1.0	0.0	1.0	0.0	21.0	2.0	86.0	1.0																													q	1.0	0.401017904282	None	0.0	2.0	invertedtriangleblue.gif	go																								1.86	0.514557123184	0.000869035720825	0.401017904282	1.0	q	837.472988129																																																							2015_Jun_24_1041	59.7414524923	LearningTask	1	20	
211	200.0	s	-200.0																	1.0	0.0	1.0	0.0	21.0	3.0	87.0	2.0																													s	1.0	0.48448300361599994	None	0.0	1.0	squaremagenta.gif	stop																								1.07	0.514064073563	0.000900030136108	0.484483003616	1.0	s	840.476325989																																																							2015_Jun_24_1041	59.7414524923	LearningTask	1	20	
212	-200.0	a	-200.0																	1.0	0.0	1.0	0.0	22.0	0.0	88.0	3.0																													a	1.0	0.401365995407	None	0.0	0.5	circlecyan.gif	go																								0.43	0.5140209198	0.0009160041809079999	0.401365995407	1.0	a	843.479829073																																																							2015_Jun_24_1041	59.7414524923	LearningTask	1	20	
213	200.0	s	-200.0																	1.0	0.0	1.0	0.0	22.0	1.0	89.0	2.0																													s	1.0	0.551167011261	None	0.0	4.0	crosswhite.gif	go																								0.0	0.5143120288849999	0.0008759498596189999	0.551167011261	1.0	s	846.482971191																																																							2015_Jun_24_1041	59.7414524923	LearningTask	1	20	
214	-200.0	a	-200.0																	1.0	0.0	1.0	0.0	22.0	2.0	90.0	3.0																													a	1.0	0.38345098495499996	None	0.0	4.0	linegreen.gif	stop																								0.0	0.5146980285639999	0.000964879989624	0.383450984955	1.0	a	849.486625195																																																							2015_Jun_24_1041	59.7414524923	LearningTask	1	20	
215	200.0	s	-200.0																	1.0	0.0	1.0	0.0	22.0	3.0	91.0	2.0																													s	1.0	0.484528779984	None	0.0	1.0	trianglegray.gif	go																								0.9	0.5140829086300001	0.0008959770202639998	0.484528779984	1.0	s	852.4897980689999																																																							2015_Jun_24_1041	59.7414524923	LearningTask	1	20	
216	200.0	s	-200.0																	1.0	0.0	1.0	0.0	23.0	0.0	92.0	2.0																													s	1.0	0.5511789321899999	None	0.0	1.0	squaremagenta.gif	stop																								0.86	0.514358043671	0.0008640289306639999	0.55117893219	1.0	s	855.493488073																																																							2015_Jun_24_1041	59.7414524923	LearningTask	1	20	
217	200.0	s	-200.0																	1.0	0.0	1.0	0.0	23.0	1.0	93.0	2.0																													s	1.0	0.584403991699	None	0.0	1.0	squaremagenta.gif	stop																								0.0	0.514044046402	0.000869035720825	0.584403991699	1.0	s	858.496896982																																																							2015_Jun_24_1041	59.7414524923	LearningTask	1	20	
218	-200.0	a	-200.0																	1.0	0.0	1.0	0.0	23.0	2.0	94.0	3.0																													a	1.0	0.517991065979	None	0.0	4.0	crosswhite.gif	go																								0.0	0.51353096962	0.0009489059448239998	0.517991065979	1.0	a	861.499976158																																																							2015_Jun_24_1041	59.7414524923	LearningTask	1	20	
219	200.0	s	-200.0																	1.0	0.0	1.0	0.0	23.0	3.0	95.0	2.0																													s	1.0	0.45097804069499997	None	0.0	4.0	crosswhite.gif	go																								0.0	0.514409065247	0.00089693069458	0.450978040695	1.0	s	864.50357008																																																							2015_Jun_24_1041	59.7414524923	LearningTask	1	20	
220	200.0	s	-200.0																	1.0	0.0	1.0	0.0	24.0	0.0	96.0	2.0																													s	1.0	0.617702007294	None	0.0	0.5	circlecyan.gif	go																								0.39	0.51405620575	0.0008840560913089999	0.617702007294	1.0	s	867.50682807																																																							2015_Jun_24_1041	59.7414524923	LearningTask	1	20	
221	-200.0	a	-200.0																	1.0	0.0	1.0	0.0	24.0	1.0	97.0	3.0																													a	1.0	0.45102691650399995	None	0.0	0.5	hexagonyellow.gif	stop																								0.0	0.514012098312	0.000951051712036	0.451026916504	1.0	a	870.5097579960001																																																							2015_Jun_24_1041	59.7414524923	LearningTask	1	20	
222	-200.0	q	200.0																	1.0	0.0	1.0	0.0	24.0	2.0	98.0	1.0																													q	1.0	0.384486913681	None	0.0	0.5	hexagonyellow.gif	stop																								0.62	0.514497995377	0.0009210109710689999	0.384486913681	1.0	q	873.513209105																																																							2015_Jun_24_1041	59.7414524923	LearningTask	1	20	
223	-200.0	q	200.0																	1.0	0.0	1.0	0.0	24.0	3.0	99.0	1.0																													q	1.0	0.38421702384900003	None	0.0	2.0	invertedtriangleblue.gif	go																								1.76	0.5144460201259999	0.0008749961853029999	0.384217023849	1.0	q	876.516580105																																																							2015_Jun_24_1041	59.7414524923	LearningTask	1	20	
224																				1.0	0.0	1.0	0.0																																																																														9.0	11.1270811558																																														2015_Jun_24_1041	59.7414524923	LearningTask	1	20	
225	200.0	s	-200.0																	2.0	0.0	2.0	0.0	0.0	0.0	0.0	2.0																													s	1.0	0.417207956314	None	0.0	1.0	trianglegray.gif	go																								0.0	0.509047985077	0.000882863998413	0.417207956314	1.0	s	891.3502120969999																																																							2015_Jun_24_1041	59.7414524923	LearningTask	1	20	
226	200.0	w	200.0																	2.0	0.0	2.0	0.0	0.0	1.0	1.0	0.0																													w	1.0	0.5345771312709999	None	0.0	1.0	trianglegray.gif	go																								1.21	0.5139698982240001	0.0008709430694580001	0.534577131271	1.0	w	894.353598118																																																							2015_Jun_24_1041	59.7414524923	LearningTask	1	20	
227	200.0	s	-200.0																	2.0	0.0	2.0	0.0	0.0	2.0	2.0	2.0																													s	1.0	0.417656898499	None	0.0	0.5	circlecyan.gif	go																								0.38	0.5140981674189999	0.00087308883667	0.417656898499	1.0	s	897.3566591739999																																																							2015_Jun_24_1041	59.7414524923	LearningTask	1	20	
228	-200.0	q	200.0																	2.0	0.0	2.0	0.0	0.0	3.0	3.0	1.0																													q	1.0	0.383911132812	None	0.0	4.0	linegreen.gif	stop																								4.04	0.514487028122	0.000988960266113	0.383911132812	1.0	q	900.360193014																																																							2015_Jun_24_1041	59.7414524923	LearningTask	1	20	
229	200.0	w	200.0																	2.0	0.0	2.0	0.0	1.0	0.0	4.0	0.0																													w	1.0	0.43415880203199997	None	0.0	0.5	hexagonyellow.gif	stop																								0.0	0.514136075974	0.000890016555786	0.434158802032	1.0	w	903.363249063																																																							2015_Jun_24_1041	59.7414524923	LearningTask	1	20	
230	-200.0	q	200.0																	2.0	0.0	2.0	0.0	1.0	1.0	5.0	1.0																													q	1.0	0.4842441082	None	0.0	4.0	linegreen.gif	stop																								4.19	0.514374017715	0.00088095664978	0.4842441082	1.0	q	906.366950035																																																							2015_Jun_24_1041	59.7414524923	LearningTask	1	20	
231	-200.0	a	-200.0																	2.0	0.0	2.0	0.0	1.0	2.0	6.0	3.0																													a	1.0	0.40118789672899996	None	0.0	1.0	squaremagenta.gif	stop																								0.82	0.513646841049	0.000907897949219	0.401187896729	1.0	a	909.370084047																																																							2015_Jun_24_1041	59.7414524923	LearningTask	1	20	
232	-200.0	a	-200.0																	2.0	0.0	2.0	0.0	1.0	3.0	7.0	3.0																													a	1.0	0.41729187965400005	None	0.0	1.0	squaremagenta.gif	stop																								0.97	0.514267921448	0.00088906288147	0.417291879654	1.0	a	912.373401165																																																							2015_Jun_24_1041	59.7414524923	LearningTask	1	20	
233	200.0	s	-200.0																	2.0	0.0	2.0	0.0	2.0	0.0	8.0	2.0																													s	1.0	0.518019914627	None	0.0	0.5	hexagonyellow.gif	stop																								0.3	0.514428138733	0.0008859634399410001	0.518019914627	1.0	s	915.376856089																																																							2015_Jun_24_1041	59.7414524923	LearningTask	1	20	
234	-200.0	a	-200.0																	2.0	0.0	2.0	0.0	2.0	1.0	9.0	3.0																													a	1.0	0.567661046982	None	0.0	2.0	diamondorange.gif	stop																								1.92	0.5141050815579999	0.000888109207153	0.567661046982	1.0	a	918.38004899																																																							2015_Jun_24_1041	59.7414524923	LearningTask	1	20	
235	-200.0	a	-200.0																	2.0	0.0	2.0	0.0	2.0	2.0	10.0	3.0																													a	1.0	0.433750152588	None	0.0	0.5	hexagonyellow.gif	stop																								0.66	0.514434099197	0.0008859634399410001	0.433750152588	1.0	a	921.3834981919999																																																							2015_Jun_24_1041	59.7414524923	LearningTask	1	20	
236	200.0	s	-200.0																	2.0	0.0	2.0	0.0	2.0	3.0	11.0	2.0																													s	1.0	0.31803894043000003	None	0.0	2.0	diamondorange.gif	stop																								0.0	0.514208078384	0.0008790493011469999	0.684409856796	0.0	a	924.3870441910001	1.97	0.515117883682	0.000969886779785	0.31803894043	1.0	s	927.390621185																																																2015_Jun_24_1041	59.7414524923	LearningTask	1	20	
237	200.0	w	200.0																	2.0	0.0	2.0	0.0	3.0	0.0	12.0	0.0																													w	1.0	0.517380952835	None	0.0	0.5	hexagonyellow.gif	stop																								0.0	0.513976097107	0.0008831024169919999	0.517380952835	1.0	w	930.393472195																																																							2015_Jun_24_1041	59.7414524923	LearningTask	1	20	
238	200.0	s	-200.0																	2.0	0.0	2.0	0.0	3.0	1.0	13.0	2.0																													s	1.0	0.500905036926	None	0.0	4.0	crosswhite.gif	go																								3.75	0.514555931091	0.0008769035339360002	0.500905036926	1.0	s	933.397224188																																																							2015_Jun_24_1041	59.7414524923	LearningTask	1	20	
239	-200.0	q	200.0																	2.0	0.0	2.0	0.0	3.0	2.0	14.0	1.0																													q	1.0	0.434186935425	None	0.0	1.0	squaremagenta.gif	stop																								1.03	0.5137958526609999	0.0009329319000239999	0.434186935425	1.0	q	936.400254011																																																							2015_Jun_24_1041	59.7414524923	LearningTask	1	20	
240	200.0	w	200.0																	2.0	0.0	2.0	0.0	3.0	3.0	15.0	0.0																													w	1.0	0.484214067459	None	0.0	4.0	linegreen.gif	stop																								4.24	0.514502048492	0.0008919239044189998	0.484214067459	1.0	w	939.4035069939999																																																							2015_Jun_24_1041	59.7414524923	LearningTask	1	20	
241	-200.0	q	200.0																	2.0	0.0	2.0	0.0	4.0	0.0	16.0	1.0																													q	1.0	0.417497873306	None	0.0	0.5	circlecyan.gif	go																								0.66	0.514456987381	0.0011909008026099999	0.417497873306	1.0	q	942.4067561630001																																																							2015_Jun_24_1041	59.7414524923	LearningTask	1	20	
242	-200.0	a	-200.0																	2.0	0.0	2.0	0.0	4.0	1.0	17.0	3.0																													a	1.0	0.484138011932	None	0.0	2.0	invertedtriangleblue.gif	go																								2.08	0.514389038086	0.000877141952515	0.484138011932	1.0	a	945.410369158																																																							2015_Jun_24_1041	59.7414524923	LearningTask	1	20	
243	-200.0	q	200.0																	2.0	0.0	2.0	0.0	4.0	2.0	18.0	1.0																													q	1.0	0.550943136215	None	0.0	4.0	linegreen.gif	stop																								3.77	0.514348983765	0.000962018966675	0.550943136215	1.0	q	948.413727045																																																							2015_Jun_24_1041	59.7414524923	LearningTask	1	20	
244	200.0	s	-200.0																	2.0	0.0	2.0	0.0	4.0	3.0	19.0	2.0																													s	1.0	0.6181080341340001	None	0.0	0.5	circlecyan.gif	go																								0.53	0.51428604126	0.0008831024169919999	0.618108034134	1.0	s	951.4169089789999																																																							2015_Jun_24_1041	59.7414524923	LearningTask	1	20	
245	-200.0	q	200.0																	2.0	0.0	2.0	0.0	5.0	0.0	20.0	1.0																													q	1.0	0.567409038544	None	0.0	4.0	linegreen.gif	stop																								0.0	0.51457285881	0.0008788108825680001	0.567409038544	1.0	q	954.420356035																																																							2015_Jun_24_1041	59.7414524923	LearningTask	1	20	
246	-200.0	a	-200.0																	2.0	0.0	2.0	0.0	5.0	1.0	21.0	3.0																													a	1.0	0.584568023682	None	0.0	2.0	invertedtriangleblue.gif	go																								2.0	0.5141508579249999	0.0009338855743410001	0.584568023682	1.0	a	957.423649073																																																							2015_Jun_24_1041	59.7414524923	LearningTask	1	20	
247	200.0	w	200.0																	2.0	0.0	2.0	0.0	5.0	2.0	22.0	0.0																													w	1.0	0.517599821091	None	0.0	1.0	trianglegray.gif	go																								0.0	0.5147559642790001	0.00088095664978	0.517599821091	1.0	w	960.42714715																																																							2015_Jun_24_1041	59.7414524923	LearningTask	1	20	
248	200.0	w	200.0																	2.0	0.0	2.0	0.0	5.0	3.0	23.0	0.0																													w	1.0	0.618057966232	None	0.0	2.0	invertedtriangleblue.gif	go																								2.07	0.5144450664519999	0.000881910324097	0.618057966232	1.0	w	963.430608034																																																							2015_Jun_24_1041	59.7414524923	LearningTask	1	20	
249	200.0	w	200.0																	2.0	0.0	2.0	0.0	6.0	0.0	24.0	0.0																													w	1.0	0.433779001236	None	0.0	4.0	crosswhite.gif	go																								3.89	0.514362096786	0.000904083251953	0.433779001236	1.0	w	966.4338381289999																																																							2015_Jun_24_1041	59.7414524923	LearningTask	1	20	
250	200.0	s	-200.0																	2.0	0.0	2.0	0.0	6.0	1.0	25.0	2.0																													s	1.0	0.584738016129	None	0.0	2.0	diamondorange.gif	stop																								2.12	0.514292955399	0.0008769035339360002	0.584738016129	1.0	s	969.4371671680001																																																							2015_Jun_24_1041	59.7414524923	LearningTask	1	20	
251	200.0	s	-200.0																	2.0	0.0	2.0	0.0	6.0	2.0	26.0	2.0																													s	1.0	0.43414306640600003	None	0.0	2.0	diamondorange.gif	stop																								2.15	0.514323949814	0.000880002975464	0.434143066406	1.0	s	972.440788031																																																							2015_Jun_24_1041	59.7414524923	LearningTask	1	20	
252	200.0	w	200.0																	2.0	0.0	2.0	0.0	6.0	3.0	27.0	0.0																													w	1.0	0.434504985809	None	0.0	4.0	crosswhite.gif	go																								3.94	0.513982057571	0.0009329319000239999	0.434504985809	1.0	w	975.443914175																																																							2015_Jun_24_1041	59.7414524923	LearningTask	1	20	
253	-200.0	a	-200.0																	2.0	0.0	2.0	0.0	7.0	0.0	28.0	3.0																													a	1.0	0.384546995163	None	0.0	4.0	crosswhite.gif	go																								3.87	0.514342069626	0.000877141952515	0.384546995163	1.0	a	978.44733119																																																							2015_Jun_24_1041	59.7414524923	LearningTask	1	20	
254	-200.0	a	-200.0																	2.0	0.0	2.0	0.0	7.0	1.0	29.0	3.0																													a	1.0	0.450621128082	None	0.0	4.0	linegreen.gif	stop																								4.09	0.514277935028	0.000918865203857	0.450621128082	1.0	a	981.4508521560001																																																							2015_Jun_24_1041	59.7414524923	LearningTask	1	20	
255	200.0	w	200.0																	2.0	0.0	2.0	0.0	7.0	2.0	30.0	0.0																													w	1.0	0.53408408165	None	0.0	2.0	invertedtriangleblue.gif	go																								2.03	0.514162063599	0.0008831024169919999	0.53408408165	1.0	w	984.454101086																																																							2015_Jun_24_1041	59.7414524923	LearningTask	1	20	
256	-200.0	q	200.0																	2.0	0.0	2.0	0.0	7.0	3.0	31.0	1.0																													q	1.0	0.584511995316	None	0.0	0.5	hexagonyellow.gif	stop																								0.5	0.514010190964	0.000970125198364	0.584511995316	1.0	q	987.457166195																																																							2015_Jun_24_1041	59.7414524923	LearningTask	1	20	
257	200.0	w	200.0																	2.0	0.0	2.0	0.0	8.0	0.0	32.0	0.0																													w	1.0	0.46782207488999994	None	0.0	1.0	squaremagenta.gif	stop																								0.93	0.514527797699	0.00088095664978	0.46782207489	1.0	w	990.460700035																																																							2015_Jun_24_1041	59.7414524923	LearningTask	1	20	
258	-200.0	q	200.0																	2.0	0.0	2.0	0.0	8.0	1.0	33.0	1.0																													q	1.0	0.383914232254	None	0.0	4.0	crosswhite.gif	go																								3.82	0.514516830444	0.000873804092407	0.383914232254	1.0	q	993.463911057																																																							2015_Jun_24_1041	59.7414524923	LearningTask	1	20	
259	-200.0	a	-200.0																	2.0	0.0	2.0	0.0	8.0	2.0	34.0	3.0																													a	1.0	0.38462591171300003	None	0.0	1.0	trianglegray.gif	go																								1.24	0.514299154282	0.000946044921875	0.384625911713	1.0	a	996.467378139																																																							2015_Jun_24_1041	59.7414524923	LearningTask	1	20	
260	-200.0	q	200.0																	2.0	0.0	2.0	0.0	8.0	3.0	35.0	1.0																													q	1.0	0.351380825043	None	0.0	1.0	squaremagenta.gif	stop																								0.93	0.514374017715	0.000881910324097	0.351380825043	1.0	q	999.470786095																																																							2015_Jun_24_1041	59.7414524923	LearningTask	1	20	
261	-200.0	q	200.0																	2.0	0.0	2.0	0.0	9.0	0.0	36.0	1.0																													q	1.0	0.46780109405500003	None	0.0	0.5	circlecyan.gif	go																								0.57	0.514315843582	0.000877857208252	0.467801094055	1.0	q	1002.47407913																																																							2015_Jun_24_1041	59.7414524923	LearningTask	1	20	
262	200.0	w	200.0																	2.0	0.0	2.0	0.0	9.0	1.0	37.0	0.0																													w	1.0	0.567807912827	None	0.0	1.0	squaremagenta.gif	stop																								1.09	0.5141341686249999	0.000962018966675	0.567807912827	1.0	w	1005.47738314																																																							2015_Jun_24_1041	59.7414524923	LearningTask	1	20	
263	-200.0	q	200.0																	2.0	0.0	2.0	0.0	9.0	2.0	38.0	1.0																													q	1.0	0.401389122009	None	0.0	4.0	crosswhite.gif	go																								3.82	0.514138936996	0.000900983810425	0.401389122009	1.0	q	1008.48067403																																																							2015_Jun_24_1041	59.7414524923	LearningTask	1	20	
264	200.0	s	-200.0																	2.0	0.0	2.0	0.0	9.0	3.0	39.0	2.0																													s	1.0	0.400810003281	None	0.0	0.5	hexagonyellow.gif	stop																								0.66	0.514451026917	0.000877857208252	0.400810003281	1.0	s	1011.48413897																																																							2015_Jun_24_1041	59.7414524923	LearningTask	1	20	
265	200.0	w	200.0																	2.0	0.0	2.0	0.0	10.0	0.0	40.0	0.0																													w	1.0	0.467577934265	None	0.0	4.0	crosswhite.gif	go																								3.75	0.51429605484	0.0009169578552250001	0.467577934265	1.0	w	1014.4873960000001																																																							2015_Jun_24_1041	59.7414524923	LearningTask	1	20	
266	-200.0	a	-200.0																	2.0	0.0	2.0	0.0	10.0	1.0	41.0	3.0																													a	1.0	0.40080690383900003	None	0.0	2.0	invertedtriangleblue.gif	go																								2.06	0.514418125153	0.0008769035339360002	0.400806903839	1.0	a	1017.49088097																																																							2015_Jun_24_1041	59.7414524923	LearningTask	1	20	
267	200.0	s	-200.0																	2.0	0.0	2.0	0.0	10.0	2.0	42.0	2.0																													s	1.0	0.584753990173	None	0.0	2.0	diamondorange.gif	stop																								0.0	0.514256000519	0.0009109973907470001	0.584753990173	1.0	s	1020.49429917																																																							2015_Jun_24_1041	59.7414524923	LearningTask	1	20	
268	-200.0	q	200.0																	2.0	0.0	2.0	0.0	10.0	3.0	43.0	1.0																													q	1.0	0.500862121582	None	0.0	4.0	linegreen.gif	stop																								3.81	0.514068841934	0.0011467933654800001	0.500862121582	1.0	q	1023.49755812																																																							2015_Jun_24_1041	59.7414524923	LearningTask	1	20	
269	200.0	s	-200.0																	2.0	0.0	2.0	0.0	11.0	0.0	44.0	2.0																													s	1.0	0.46742010116599997	None	0.0	0.5	circlecyan.gif	go																								0.54	0.514512062073	0.0008831024169919999	0.467420101166	1.0	s	1026.50098801																																																							2015_Jun_24_1041	59.7414524923	LearningTask	1	20	
270	-200.0	q	200.0																	2.0	0.0	2.0	0.0	11.0	1.0	45.0	1.0																													q	1.0	0.451215028763	None	0.0	4.0	crosswhite.gif	go																								4.08	0.514073848724	0.0008869171142580001	0.451215028763	1.0	q	1029.5044601																																																							2015_Jun_24_1041	59.7414524923	LearningTask	1	20	
271	200.0	w	200.0																	2.0	0.0	2.0	0.0	11.0	2.0	46.0	0.0																													w	1.0	0.417840957642	None	0.0	0.5	hexagonyellow.gif	stop																								0.52	0.514189004898	0.000887155532837	0.417840957642	1.0	w	1032.5076561																																																							2015_Jun_24_1041	59.7414524923	LearningTask	1	20	
272	-200.0	q	200.0																	2.0	0.0	2.0	0.0	11.0	3.0	47.0	1.0																													q	1.0	0.41772007942199996	None	0.0	4.0	crosswhite.gif	go																								3.84	0.514326095581	0.00094199180603	0.417720079422	1.0	q	1035.51070619																																																							2015_Jun_24_1041	59.7414524923	LearningTask	1	20	
273	-200.0	a	-200.0																	2.0	0.0	2.0	0.0	12.0	0.0	48.0	3.0																													a	1.0	0.45090484619099996	None	0.0	4.0	crosswhite.gif	go																								3.79	0.51460814476	0.0008740425109860002	0.450904846191	1.0	a	1038.51463318																																																							2015_Jun_24_1041	59.7414524923	LearningTask	1	20	
