	accuracy	block	chosen_bidding_amount	chosen_bidding_level	left_SSD	num_trial_presentations	paired_with_stopping	possible_bid_1	possible_bid_2	possible_bid_3	possible_bid_4	possible_bid_5	possible_bid_6	quadrant	raw_reward_magnitude	reaction_time	response	right_SSD	stepwise_reward_magnitude	stim_color	stim_reward	stim_shape	stop_signal_trial_type	which_part
0		1.0				1.0	0.0							4.0	421.0	0.4221788586582989	4.0		4.0	5.0	4.0	6.0		part_1
1		1.0				1.0	1.0							4.0	0.0	0.4901166243944317	4.0		0.0	2.0	8.0	7.0		part_1
2		1.0				1.0	0.0							2.0	99.0	0.4121200940571725	2.0		2.0	7.0	2.0	5.0		part_1
3		1.0				1.0	0.0							1.0	117.0	0.3454640475101769	1.0		2.0	7.0	2.0	5.0		part_1
4		1.0				1.0	1.0							1.0	420.0	0.33456541458144784	1.0		4.0	2.0	8.0	7.0		part_1
5		1.0				1.0	0.0							2.0	381.0	0.3243077339138836	2.0		4.0	5.0	4.0	6.0		part_1
6		1.0				1.0	1.0							2.0	208.0	0.3012375549878925	2.0		3.0	1.0	7.0	8.0		part_1
7		1.0				1.0	0.0							3.0	82.0	0.2683513299562037	3.0		2.0	7.0	2.0	5.0		part_1
8		1.0				1.0	1.0							3.0	56.0	0.31356207747012377	3.0		1.0	8.0	5.0	1.0		part_1
9		1.0				1.0	1.0							1.0	189.0	0.3155769663862884	1.0		3.0	1.0	7.0	8.0		part_1
10		1.0				1.0	0.0							3.0	208.0	0.3029507335741073	3.0		3.0	6.0	3.0	4.0		part_1
11		1.0				1.0	0.0							1.0	389.0	0.2936978740617633	1.0		4.0	5.0	4.0	6.0		part_1
12		1.0				1.0	0.0							2.0	114.0	0.3286804414819926	2.0		2.0	7.0	2.0	5.0		part_1
13		1.0				1.0	0.0							2.0	52.0	0.3173578295391053	2.0		1.0	4.0	1.0	3.0		part_1
14		1.0				1.0	0.0							3.0	101.0	0.27287677046842873	3.0		2.0	7.0	2.0	5.0		part_1
15		1.0				1.0	0.0							1.0	199.0	0.29716934845782816	1.0		3.0	6.0	3.0	4.0		part_1
16		1.0				1.0	1.0							2.0	81.0	0.2622663730289787	2.0		2.0	3.0	6.0	2.0		part_1
17		1.0				1.0	1.0							1.0	68.0	0.3320170931983739	1.0		1.0	8.0	5.0	1.0		part_1
18		1.0				1.0	1.0							3.0	0.0	0.2970224900636822	3.0		0.0	2.0	8.0	7.0		part_1
19		1.0				1.0	0.0							1.0	386.0	0.3435522229410708	1.0		4.0	5.0	4.0	6.0		part_1
20		1.0				1.0	0.0							3.0	403.0	0.3219508046749979	3.0		4.0	5.0	4.0	6.0		part_1
21		1.0				1.0	1.0							4.0	0.0	0.4115907547529787	4.0		0.0	2.0	8.0	7.0		part_1
22		1.0				1.0	0.0							3.0	379.0	0.28903730656020343	3.0		4.0	5.0	4.0	6.0		part_1
23		1.0				1.0	1.0							3.0	382.0	0.3007476080674678	3.0		4.0	2.0	8.0	7.0		part_1
24		1.0				1.0	1.0							2.0	382.0	0.3118042154237628	2.0		4.0	2.0	8.0	7.0		part_1
25		1.0				1.0	0.0							4.0	105.0	0.3232229850254953	4.0		2.0	7.0	2.0	5.0		part_1
26		1.0				1.0	1.0							1.0	96.0	0.31247905106283724	1.0		2.0	3.0	6.0	2.0		part_1
27		1.0				1.0	0.0							4.0	425.0	0.33593919267877936	4.0		4.0	5.0	4.0	6.0		part_1
28		1.0				1.0	1.0							2.0	34.0	0.32461370318196714	2.0		1.0	8.0	5.0	1.0		part_1
29		1.0				1.0	0.0							4.0	117.0	0.29270035051740706	4.0		2.0	7.0	2.0	5.0		part_1
30		1.0				1.0	0.0							3.0	186.0	0.2922518281266093	3.0		3.0	6.0	3.0	4.0		part_1
31		1.0				1.0	0.0							4.0	80.0	0.2832644374575466	4.0		2.0	7.0	2.0	5.0		part_1
32		1.0				1.0	1.0							3.0	414.0	0.3050295519642532	3.0		4.0	2.0	8.0	7.0		part_1
33		1.0				1.0	1.0							2.0	0.0	0.3162112149875611	2.0		0.0	8.0	5.0	1.0		part_1
34		1.0				1.0	1.0							4.0	201.0	0.32780627021566033	4.0		3.0	1.0	7.0	8.0		part_1
35		1.0				1.0	1.0							4.0	124.0	0.3411959740333259	4.0		2.0	3.0	6.0	2.0		part_1
36		1.0				1.0	1.0							1.0	388.0	0.3194429920986295	1.0		4.0	2.0	8.0	7.0		part_1
37		1.0				1.0	0.0							1.0	59.0	0.2968514394015074	1.0		1.0	4.0	1.0	3.0		part_1
38		1.0				1.0	1.0							1.0	0.0	0.30831162165850395	1.0		0.0	2.0	8.0	7.0		part_1
39		1.0				1.0	1.0							3.0	199.0	0.3414492136798799	3.0		3.0	1.0	7.0	8.0		part_1
40		1.0				1.0	0.0							4.0	396.0	0.2978660997468978	4.0		4.0	5.0	4.0	6.0		part_1
41		1.0				1.0	0.0							1.0	414.0	0.28733696858398616	1.0		4.0	5.0	4.0	6.0		part_1
42		1.0				1.0	1.0							2.0	116.0	0.2872822091449052	2.0		2.0	3.0	6.0	2.0		part_1
43		1.0				1.0	0.0							2.0	76.0	0.3005194761790335	2.0		2.0	7.0	2.0	5.0		part_1
44		1.0				1.0	0.0							2.0	55.0	0.3008390157483518	2.0		1.0	4.0	1.0	3.0		part_1
45		1.0				1.0	1.0							1.0	0.0	0.3005139871966094	1.0		0.0	1.0	7.0	8.0		part_1
46		1.0				1.0	0.0							2.0	193.0	0.3025686505716294	2.0		3.0	6.0	3.0	4.0		part_1
47		1.0				1.0	0.0							3.0	401.0	0.3018965155351907	3.0		4.0	5.0	4.0	6.0		part_1
48		1.0				1.0	1.0							2.0	380.0	0.3154388281982392	2.0		4.0	2.0	8.0	7.0		part_1
49		1.0				1.0	1.0							1.0	418.0	0.29223632882349193	1.0		4.0	2.0	8.0	7.0		part_1
50		1.0				1.0	1.0							4.0	63.0	0.2915507315192372	4.0		1.0	8.0	5.0	1.0		part_1
51		1.0				1.0	1.0							3.0	62.0	0.259106571553275	3.0		1.0	8.0	5.0	1.0		part_1
52		1.0				1.0	1.0							2.0	179.0	0.2483153122011572	2.0		3.0	1.0	7.0	8.0		part_1
53		1.0				1.0	0.0							2.0	418.0	0.27148307021707296	2.0		4.0	5.0	4.0	6.0		part_1
54		1.0				1.0	1.0							1.0	25.0	0.27358196512795985	1.0		1.0	8.0	5.0	1.0		part_1
55		1.0				1.0	0.0							2.0	29.0	0.2725299538578838	2.0		1.0	4.0	1.0	3.0		part_1
56		1.0				1.0	1.0							2.0	417.0	0.2861050229985267	2.0		4.0	2.0	8.0	7.0		part_1
57		1.0				1.0	1.0							3.0	124.0	0.2846851879730821	3.0		2.0	3.0	6.0	2.0		part_1
58		1.0				1.0	0.0							3.0	210.0	0.2637302582152188	3.0		3.0	6.0	3.0	4.0		part_1
59		1.0				1.0	1.0							4.0	106.0	0.33038078318350017	4.0		2.0	3.0	6.0	2.0		part_1
60		1.0				1.0	0.0							3.0	409.0	0.26300015207380056	3.0		4.0	5.0	4.0	6.0		part_1
61		1.0				1.0	0.0							3.0	97.0	0.28677810402587056	3.0		2.0	7.0	2.0	5.0		part_1
62		1.0				1.0	0.0							3.0	110.0	0.2418547300621867	3.0		2.0	7.0	2.0	5.0		part_1
63		1.0				1.0	0.0							2.0	50.0	0.3000305560417473	2.0		1.0	4.0	1.0	3.0		part_1
64		1.0				1.0	0.0							2.0	205.0	0.2896767556667328	2.0		3.0	6.0	3.0	4.0		part_1
65		1.0				1.0	1.0							1.0	177.0	0.3234910350292921	1.0		3.0	1.0	7.0	8.0		part_1
66		1.0				1.0	1.0							1.0	79.0	0.26900199009105563	1.0		2.0	3.0	6.0	2.0		part_1
67		1.0				1.0	1.0							2.0	29.0	0.27950238110497594	2.0		1.0	8.0	5.0	1.0		part_1
68		1.0				1.0	0.0							2.0	40.0	0.2792525130789727	2.0		1.0	4.0	1.0	3.0		part_1
69		1.0				1.0	0.0							2.0	186.0	0.2916817613877356	2.0		3.0	6.0	3.0	4.0		part_1
70		1.0				1.0	1.0							3.0	175.0	0.2695419453084469	3.0		3.0	1.0	7.0	8.0		part_1
71		1.0				1.0	1.0							3.0	25.0	0.28101192764006555	3.0		1.0	8.0	5.0	1.0		part_1
72		1.0				1.0	0.0							1.0	212.0	0.3270345232449472	1.0		3.0	6.0	3.0	4.0		part_1
73		1.0				1.0	0.0							4.0	417.0	0.3043138678185642	4.0		4.0	5.0	4.0	6.0		part_1
74		1.0				1.0	0.0							3.0	119.0	0.2945591451134533	3.0		2.0	7.0	2.0	5.0		part_1
75		1.0				1.0	1.0							3.0	105.0	0.2732304942328483	3.0		2.0	3.0	6.0	2.0		part_1
76		1.0				1.0	1.0							3.0	196.0	0.2727958911564201	3.0		3.0	1.0	7.0	8.0		part_1
77		1.0				1.0	1.0							4.0	401.0	0.3406849470920861	4.0		4.0	2.0	8.0	7.0		part_1
78		1.0				1.0	1.0							4.0	99.0	0.3087012246251106	4.0		2.0	3.0	6.0	2.0		part_1
79		1.0				1.0	0.0							1.0	382.0	0.3304776134900749	1.0		4.0	5.0	4.0	6.0		part_1
80		1.0				1.0	1.0							2.0	0.0	0.34234401071444154	2.0		0.0	3.0	6.0	2.0		part_1
81		1.0				1.0	1.0							2.0	0.0	0.2999447155743837	2.0		0.0	8.0	5.0	1.0		part_1
82		1.0				1.0	0.0							1.0	0.0	0.32156993402168155	1.0		0.0	6.0	3.0	4.0		part_1
83		1.0				1.0	0.0							2.0	0.0	0.3106440689880401	2.0		0.0	7.0	2.0	5.0		part_1
84		1.0				1.0	0.0							2.0	0.0	0.33409142354503274	2.0		0.0	7.0	2.0	5.0		part_1
85		1.0				1.0	0.0							4.0	70.0	0.3338077154476196	4.0		1.0	4.0	1.0	3.0		part_1
86		1.0				1.0	1.0							3.0	0.0	0.3126645311713219	3.0		0.0	3.0	6.0	2.0		part_1
87		1.0				1.0	1.0							4.0	117.0	0.3015162276569754	4.0		2.0	3.0	6.0	2.0		part_1
88		1.0				1.0	1.0							4.0	33.0	0.2900533201172948	4.0		1.0	8.0	5.0	1.0		part_1
89		1.0				1.0	1.0							2.0	400.0	0.3375802601221949	2.0		4.0	2.0	8.0	7.0		part_1
90		1.0				1.0	0.0							3.0	77.0	0.326024730456993	3.0		2.0	7.0	2.0	5.0		part_1
91		1.0				1.0	0.0							4.0	0.0	0.2816522181965411	4.0		0.0	7.0	2.0	5.0		part_1
92		1.0				1.0	1.0							2.0	77.0	0.2939833120908588	2.0		2.0	3.0	6.0	2.0		part_1
93		1.0				1.0	0.0							3.0	411.0	0.33959701005369425	3.0		4.0	5.0	4.0	6.0		part_1
94		1.0				1.0	0.0							2.0	201.0	0.3055904142092913	2.0		3.0	6.0	3.0	4.0		part_1
95		1.0				1.0	0.0							3.0	0.0	0.29418948106467724	3.0		0.0	5.0	4.0	6.0		part_1
96		1.0				1.0	0.0							3.0	378.0	0.30561545211821795	3.0		4.0	5.0	4.0	6.0		part_1
97		1.0				1.0	1.0							2.0	0.0	0.26212153350934386	2.0		0.0	3.0	6.0	2.0		part_1
98		1.0				1.0	1.0							4.0	0.0	0.30725794611498713	4.0		0.0	3.0	6.0	2.0		part_1
99		1.0				1.0	1.0							2.0	50.0	0.27539369417354465	2.0		1.0	8.0	5.0	1.0		part_1
100		2.0				1.0	0.0							1.0	61.0	0.3301713105756789	1.0		1.0	4.0	1.0	3.0		part_1
101		2.0				1.0	1.0							2.0	408.0	0.30777393747121096	2.0		4.0	2.0	8.0	7.0		part_1
102		2.0				1.0	0.0							2.0	424.0	0.32056581415236	2.0		4.0	5.0	4.0	6.0		part_1
103		2.0				1.0	1.0							1.0	0.0	0.3094195141457021	1.0		0.0	2.0	8.0	7.0		part_1
104		2.0				1.0	0.0							4.0	196.0	0.27497301902621984	4.0		3.0	6.0	3.0	4.0		part_1
105		2.0				1.0	1.0							4.0	122.0	0.2771398040931672	4.0		2.0	3.0	6.0	2.0		part_1
106		2.0				1.0	0.0							1.0	54.0	0.2659344053827226	1.0		1.0	4.0	1.0	3.0		part_1
107		2.0				1.0	0.0							2.0	106.0	0.26730643445625896	2.0		2.0	7.0	2.0	5.0		part_1
108		2.0				1.0	0.0							1.0	76.0	0.26834238274022937	1.0		2.0	7.0	2.0	5.0		part_1
109		2.0				1.0	1.0							3.0	0.0	0.25551192881539464	3.0		0.0	3.0	6.0	2.0		part_1
110		2.0				1.0	0.0							2.0	61.0	0.23555410210974514	2.0		1.0	4.0	1.0	3.0		part_1
111		2.0				1.0	0.0							2.0	0.0	0.2586550421547145	2.0		0.0	5.0	4.0	6.0		part_1
112		2.0				1.0	0.0							2.0	81.0	0.2572875232435763	2.0		2.0	7.0	2.0	5.0		part_1
113		2.0				1.0	0.0							4.0	195.0	0.28101363801397383	4.0		3.0	6.0	3.0	4.0		part_1
114		2.0				1.0	1.0							2.0	105.0	0.27145013003610075	2.0		2.0	3.0	6.0	2.0		part_1
115		2.0				1.0	1.0							1.0	35.0	0.3159080781042576	1.0		1.0	8.0	5.0	1.0		part_1
116		2.0				1.0	1.0							3.0	180.0	0.24891642620787024	3.0		3.0	1.0	7.0	8.0		part_1
117		2.0				2.0	0.0							1.0	0.0	0.3175190482288599	1.0		0.0	4.0	1.0	3.0		part_1
118		2.0				1.0	0.0							2.0	0.0	0.31811016029678285	2.0		0.0	4.0	1.0	3.0		part_1
119		2.0				1.0	1.0							2.0	196.0	0.3075824431143701	2.0		3.0	1.0	7.0	8.0		part_1
120		2.0				1.0	1.0							3.0	0.0	0.31831725873053074	3.0		0.0	3.0	6.0	2.0		part_1
121		2.0				1.0	1.0							1.0	52.0	0.3416715699713677	1.0		1.0	8.0	5.0	1.0		part_1
122		2.0				1.0	1.0							1.0	0.0	0.2974938636180013	1.0		0.0	8.0	5.0	1.0		part_1
123		2.0				1.0	0.0							3.0	0.0	0.3097174172289669	3.0		0.0	4.0	1.0	3.0		part_1
124		2.0				1.0	0.0							3.0	0.0	0.34373872447758913	3.0		0.0	5.0	4.0	6.0		part_1
125		2.0				1.0	1.0							1.0	89.0	0.3218211671337485	1.0		2.0	3.0	6.0	2.0		part_1
126		2.0				1.0	1.0							1.0	219.0	0.3330444183666259	1.0		3.0	1.0	7.0	8.0		part_1
127		2.0				1.0	1.0							2.0	119.0	0.34503001463599503	2.0		2.0	3.0	6.0	2.0		part_1
128		2.0				1.0	0.0							2.0	104.0	0.3453948374371976	2.0		2.0	7.0	2.0	5.0		part_1
129		2.0				1.0	1.0							4.0	0.0	0.3459623015951365	4.0		0.0	8.0	5.0	1.0		part_1
130		2.0				1.0	1.0							2.0	221.0	0.3248184740077704	2.0		3.0	1.0	7.0	8.0		part_1
131		2.0				1.0	1.0							2.0	202.0	0.3363226486835629	2.0		3.0	1.0	7.0	8.0		part_1
132		2.0				1.0	0.0							1.0	208.0	0.3257939675822854	1.0		3.0	6.0	3.0	4.0		part_1
133		2.0				1.0	0.0							2.0	100.0	0.3032982556615025	2.0		2.0	7.0	2.0	5.0		part_1
134		2.0				1.0	1.0							3.0	0.0	0.2928685999941081	3.0		0.0	2.0	8.0	7.0		part_1
135		2.0				1.0	0.0							4.0	0.0	0.30563438404351473	4.0		0.0	7.0	2.0	5.0		part_1
136		2.0				1.0	0.0							2.0	422.0	0.2716479515656829	2.0		4.0	5.0	4.0	6.0		part_1
137		2.0				1.0	1.0							3.0	210.0	0.3508829784113914	3.0		3.0	1.0	7.0	8.0		part_1
138		2.0				1.0	0.0							4.0	406.0	0.3278873912058771	4.0		4.0	5.0	4.0	6.0		part_1
139		2.0				1.0	1.0							1.0	381.0	0.31964464439079165	1.0		4.0	2.0	8.0	7.0		part_1
140		2.0				1.0	0.0							1.0	194.0	0.4097089651040733	1.0		3.0	6.0	3.0	4.0		part_1
141		2.0				1.0	1.0							4.0	76.0	0.3308436390943825	4.0		2.0	3.0	6.0	2.0		part_1
142		2.0				1.0	0.0							2.0	62.0	0.31974206399172544	2.0		1.0	4.0	1.0	3.0		part_1
143		2.0				1.0	1.0							4.0	377.0	0.3307594496291131	4.0		4.0	2.0	8.0	7.0		part_1
144		2.0				1.0	1.0							3.0	101.0	0.34362480021081865	3.0		2.0	3.0	6.0	2.0		part_1
145		2.0				1.0	0.0							4.0	210.0	0.3217385376337916	4.0		3.0	6.0	3.0	4.0		part_1
146		2.0				1.0	1.0							3.0	224.0	0.34335421421565115	3.0		3.0	1.0	7.0	8.0		part_1
147		2.0				1.0	0.0							1.0	0.0	0.32301590126007795	1.0		0.0	6.0	3.0	4.0		part_1
148		2.0				1.0	0.0							4.0	0.0	0.3233955840114504	4.0		0.0	5.0	4.0	6.0		part_1
149		2.0				1.0	1.0							4.0	0.0	0.3459513625130057	4.0		0.0	8.0	5.0	1.0		part_1
150		2.0				1.0	0.0							2.0	179.0	0.3357604348566383	2.0		3.0	6.0	3.0	4.0		part_1
151		2.0				1.0	1.0							3.0	424.0	0.3471411964856088	3.0		4.0	2.0	8.0	7.0		part_1
152		2.0				1.0	0.0							3.0	0.0	0.33530406607314944	3.0		0.0	5.0	4.0	6.0		part_1
153		2.0				1.0	0.0							4.0	395.0	0.33701729774475103	4.0		4.0	5.0	4.0	6.0		part_1
154		2.0				1.0	1.0							1.0	390.0	0.2940612630918622	1.0		4.0	2.0	8.0	7.0		part_1
155		2.0				1.0	0.0							4.0	63.0	0.3036637976765633	4.0		1.0	4.0	1.0	3.0		part_1
156		2.0				1.0	1.0							3.0	44.0	0.2930129796732217	3.0		1.0	8.0	5.0	1.0		part_1
157		2.0				1.0	0.0							1.0	100.0	0.3053755310829729	1.0		2.0	7.0	2.0	5.0		part_1
158		2.0				1.0	1.0							1.0	77.0	0.3174072196707129	1.0		2.0	3.0	6.0	2.0		part_1
159		2.0				1.0	1.0							1.0	0.0	0.329945526085794	1.0		0.0	1.0	7.0	8.0		part_1
160		2.0				1.0	1.0							4.0	0.0	0.32961001712828875	4.0		0.0	8.0	5.0	1.0		part_1
161		2.0				1.0	1.0							3.0	61.0	0.3185803659725934	3.0		1.0	8.0	5.0	1.0		part_1
162		2.0				1.0	1.0							2.0	0.0	0.3083770030643791	2.0		0.0	1.0	7.0	8.0		part_1
163		2.0				1.0	0.0							3.0	412.0	0.2968011577613652	3.0		4.0	5.0	4.0	6.0		part_1
164		2.0				1.0	0.0							3.0	0.0	0.3086856685113162	3.0		0.0	4.0	1.0	3.0		part_1
165		2.0				1.0	1.0							1.0	42.0	0.3097865141462535	1.0		1.0	8.0	5.0	1.0		part_1
166		2.0				1.0	0.0							3.0	0.0	0.31039992067962885	3.0		0.0	7.0	2.0	5.0		part_1
167		2.0				1.0	0.0							2.0	56.0	0.31234291940927505	2.0		1.0	4.0	1.0	3.0		part_1
168		2.0				1.0	1.0							2.0	76.0	0.30160671402700245	2.0		2.0	3.0	6.0	2.0		part_1
169		2.0				1.0	0.0							3.0	191.0	0.30172017798759043	3.0		3.0	6.0	3.0	4.0		part_1
170		2.0				1.0	1.0							3.0	100.0	0.3229413516819477	3.0		2.0	3.0	6.0	2.0		part_1
171		2.0				1.0	1.0							1.0	110.0	0.3245990045834333	1.0		2.0	3.0	6.0	2.0		part_1
172		2.0				1.0	1.0							4.0	43.0	0.30272106151096523	4.0		1.0	8.0	5.0	1.0		part_1
173		2.0				1.0	0.0							3.0	182.0	0.3040943306405097	3.0		3.0	6.0	3.0	4.0		part_1
174		2.0				1.0	0.0							1.0	0.0	0.3040100436192006	1.0		0.0	4.0	1.0	3.0		part_1
175		2.0				1.0	0.0							3.0	34.0	0.3264482566155493	3.0		1.0	4.0	1.0	3.0		part_1
176		2.0				1.0	1.0							1.0	398.0	0.2831975715234876	1.0		4.0	2.0	8.0	7.0		part_1
177		2.0				1.0	0.0							4.0	180.0	0.3269263519905508	4.0		3.0	6.0	3.0	4.0		part_1
178		2.0				1.0	1.0							4.0	382.0	0.3501689375843853	4.0		4.0	2.0	8.0	7.0		part_1
179		2.0				1.0	0.0							3.0	68.0	0.29430364770814776	3.0		1.0	4.0	1.0	3.0		part_1
180		2.0				1.0	0.0							4.0	0.0	0.3068552394397557	4.0		0.0	4.0	1.0	3.0		part_1
181		2.0				1.0	0.0							4.0	70.0	0.2732598097063601	4.0		1.0	4.0	1.0	3.0		part_1
182		2.0				1.0	0.0							2.0	116.0	0.3196753761731088	2.0		2.0	7.0	2.0	5.0		part_1
183		2.0				1.0	1.0							2.0	0.0	0.28615560149773955	2.0		0.0	1.0	7.0	8.0		part_1
184		2.0				1.0	1.0							2.0	0.0	0.31980552803725004	2.0		0.0	3.0	6.0	2.0		part_1
185		2.0				1.0	0.0							3.0	197.0	0.38845014409162093	3.0		3.0	6.0	3.0	4.0		part_1
186		2.0				1.0	1.0							2.0	70.0	0.3230854496359825	2.0		1.0	8.0	5.0	1.0		part_1
187		2.0				1.0	1.0							2.0	378.0	0.3013221768196672	2.0		4.0	2.0	8.0	7.0		part_1
188		2.0				1.0	0.0							4.0	35.0	0.30072575551457703	4.0		1.0	4.0	1.0	3.0		part_1
189		2.0				1.0	0.0							3.0	89.0	0.3223636536858976	3.0		2.0	7.0	2.0	5.0		part_1
190		2.0				1.0	1.0							3.0	186.0	0.32406431064009666	3.0		3.0	1.0	7.0	8.0		part_1
191		2.0				1.0	1.0							3.0	0.0	0.3122059600427747	3.0		0.0	3.0	6.0	2.0		part_1
192		2.0				1.0	1.0							2.0	186.0	0.3139964991714805	2.0		3.0	1.0	7.0	8.0		part_1
193		2.0				1.0	1.0							4.0	0.0	0.3152468267362565	4.0		0.0	2.0	8.0	7.0		part_1
194		2.0				1.0	0.0							3.0	415.0	0.2467703362926841	3.0		4.0	5.0	4.0	6.0		part_1
195		2.0				1.0	1.0							4.0	403.0	0.3613074901513755	4.0		4.0	2.0	8.0	7.0		part_1
196		2.0				1.0	0.0							3.0	177.0	0.3036752205807716	3.0		3.0	6.0	3.0	4.0		part_1
197		2.0				1.0	0.0							1.0	25.0	0.28426180011592805	1.0		1.0	4.0	1.0	3.0		part_1
198		2.0				1.0	1.0							2.0	384.0	0.37398400972597295	2.0		4.0	2.0	8.0	7.0		part_1
199		2.0				1.0	1.0							4.0	389.0	0.2940479430835694	4.0		4.0	2.0	8.0	7.0		part_1
200		3.0				1.0	1.0							2.0	210.0	0.2927756411954761	2.0		3.0	1.0	7.0	8.0		part_1
201		3.0				1.0	1.0							3.0	94.0	0.3034066020045429	3.0		2.0	3.0	6.0	2.0		part_1
202		3.0				1.0	0.0							1.0	403.0	0.29226150922477245	1.0		4.0	5.0	4.0	6.0		part_1
203		3.0				1.0	1.0							3.0	106.0	0.35942630376666784	3.0		2.0	3.0	6.0	2.0		part_1
204		3.0				1.0	1.0							1.0	80.0	0.2931258932221681	1.0		2.0	3.0	6.0	2.0		part_1
205		3.0				1.0	0.0							3.0	186.0	0.3156668941956013	3.0		3.0	6.0	3.0	4.0		part_1
206		3.0				1.0	1.0							2.0	411.0	0.3166868847329169	2.0		4.0	2.0	8.0	7.0		part_1
207		3.0				1.0	1.0							3.0	208.0	0.3065705010667443	3.0		3.0	1.0	7.0	8.0		part_1
208		3.0				1.0	1.0							2.0	35.0	0.2956931230146438	2.0		1.0	8.0	5.0	1.0		part_1
209		3.0				1.0	1.0							3.0	396.0	0.2956044767051935	3.0		4.0	2.0	8.0	7.0		part_1
210		3.0				1.0	1.0							1.0	210.0	0.27584701124578714	1.0		3.0	1.0	7.0	8.0		part_1
211		3.0				1.0	0.0							1.0	203.0	0.2862210830207914	1.0		3.0	6.0	3.0	4.0		part_1
212		3.0				1.0	0.0							1.0	68.0	0.2986965710297227	1.0		1.0	4.0	1.0	3.0		part_1
213		3.0				1.0	0.0							2.0	214.0	0.28699304698966444	2.0		3.0	6.0	3.0	4.0		part_1
214		3.0				2.0	1.0							4.0	412.0	0.32208652258850634	4.0		4.0	2.0	8.0	7.0		part_1
215		3.0				1.0	0.0							4.0	25.0	0.3565303522627801	4.0		1.0	4.0	1.0	3.0		part_1
216		3.0				1.0	1.0							1.0	88.0	0.3232876418624073	1.0		2.0	3.0	6.0	2.0		part_1
217		3.0				1.0	0.0							4.0	196.0	0.335183784365654	4.0		3.0	6.0	3.0	4.0		part_1
218		3.0				1.0	1.0							3.0	195.0	0.345501905772835	3.0		3.0	1.0	7.0	8.0		part_1
219		3.0				1.0	0.0							1.0	25.0	0.2922545145265758	1.0		1.0	4.0	1.0	3.0		part_1
220		3.0				1.0	1.0							3.0	0.0	0.3361953243147582	3.0		0.0	3.0	6.0	2.0		part_1
221		3.0				1.0	1.0							3.0	386.0	0.33624334423802793	3.0		4.0	2.0	8.0	7.0		part_1
222		3.0				1.0	1.0							1.0	415.0	0.315109652467072	1.0		4.0	2.0	8.0	7.0		part_1
223		3.0				1.0	1.0							4.0	409.0	0.3502359467092901	4.0		4.0	2.0	8.0	7.0		part_1
224		3.0				1.0	0.0							1.0	106.0	0.3283978281542659	1.0		2.0	7.0	2.0	5.0		part_1
225		3.0				1.0	0.0							4.0	211.0	0.31701312004588544	4.0		3.0	6.0	3.0	4.0		part_1
226		3.0				1.0	1.0							3.0	406.0	0.35155088314786553	3.0		4.0	2.0	8.0	7.0		part_1
227		3.0				1.0	0.0							1.0	175.0	0.2959114876575768	1.0		3.0	6.0	3.0	4.0		part_1
228		3.0				1.0	1.0							2.0	117.0	0.3412651494145393	2.0		2.0	3.0	6.0	2.0		part_1
229		3.0				1.0	0.0							4.0	377.0	0.2954295210074633	4.0		4.0	5.0	4.0	6.0		part_1
230		3.0				1.0	1.0							1.0	59.0	0.3542407259810716	1.0		1.0	8.0	5.0	1.0		part_1
231		3.0				1.0	0.0							1.0	390.0	0.2992862935643643	1.0		4.0	5.0	4.0	6.0		part_1
232		3.0				1.0	1.0							3.0	123.0	0.3425188839901239	3.0		2.0	3.0	6.0	2.0		part_1
233		3.0				1.0	0.0							3.0	0.0	0.3313359036110341	3.0		0.0	6.0	3.0	4.0		part_1
234		3.0				1.0	0.0							1.0	210.0	0.30979826860129833	1.0		3.0	6.0	3.0	4.0		part_1
235		3.0				1.0	1.0							3.0	69.0	0.3324887545313686	3.0		1.0	8.0	5.0	1.0		part_1
236		3.0				1.0	0.0							1.0	65.0	0.4245772606227547	1.0		1.0	4.0	1.0	3.0		part_1
237		3.0				1.0	1.0							3.0	214.0	0.3455586191266775	3.0		3.0	1.0	7.0	8.0		part_1
238		3.0				1.0	0.0							1.0	408.0	0.33566935011185706	1.0		4.0	5.0	4.0	6.0		part_1
239		3.0				1.0	0.0							3.0	33.0	0.3126408285461366	3.0		1.0	4.0	1.0	3.0		part_1
240		3.0				1.0	1.0							1.0	0.0	0.3146686991676688	1.0		0.0	1.0	7.0	8.0		part_1
241		3.0				1.0	0.0							1.0	123.0	0.31402836460620165	1.0		2.0	7.0	2.0	5.0		part_1
242		3.0				1.0	0.0							4.0	35.0	0.3257188550196588	4.0		1.0	4.0	1.0	3.0		part_1
243		3.0				1.0	0.0							3.0	48.0	0.3268345093820244	3.0		1.0	4.0	1.0	3.0		part_1
244		3.0				1.0	0.0							1.0	57.0	0.2933914177119732	1.0		1.0	4.0	1.0	3.0		part_1
245		3.0				1.0	1.0							4.0	0.0	0.3390030460432172	4.0		0.0	2.0	8.0	7.0		part_1
246		3.0				1.0	1.0							4.0	182.0	0.35207804455421865	4.0		3.0	1.0	7.0	8.0		part_1
247		3.0				1.0	1.0							4.0	61.0	0.3290068081114441	4.0		1.0	8.0	5.0	1.0		part_1
248		3.0				1.0	0.0							4.0	0.0	0.30654297419823706	4.0		0.0	6.0	3.0	4.0		part_1
249		3.0				1.0	1.0							4.0	375.0	0.30792594398371875	4.0		4.0	2.0	8.0	7.0		part_1
250		3.0				1.0	0.0							3.0	36.0	0.2866886830888689	3.0		1.0	4.0	1.0	3.0		part_1
251		3.0				1.0	0.0							2.0	0.0	0.3196412476245314	2.0		0.0	7.0	2.0	5.0		part_1
252		3.0				1.0	0.0							4.0	77.0	0.3437624939251691	4.0		2.0	7.0	2.0	5.0		part_1
253		3.0				1.0	1.0							4.0	202.0	0.3313008127734065	4.0		3.0	1.0	7.0	8.0		part_1
254		3.0				1.0	0.0							4.0	400.0	0.33180935657583177	4.0		4.0	5.0	4.0	6.0		part_1
255		3.0				1.0	1.0							1.0	57.0	0.3005689822603017	1.0		1.0	8.0	5.0	1.0		part_1
256		3.0				1.0	0.0							2.0	122.0	0.3000963786616921	2.0		2.0	7.0	2.0	5.0		part_1
257		3.0				1.0	0.0							4.0	81.0	0.3790212215390056	4.0		2.0	7.0	2.0	5.0		part_1
258		3.0				1.0	0.0							4.0	375.0	0.3682480305433273	4.0		4.0	5.0	4.0	6.0		part_1
259		3.0				1.0	0.0							3.0	0.0	0.3465460427105427	3.0		0.0	6.0	3.0	4.0		part_1
260		3.0				1.0	0.0							3.0	0.0	0.35778512991964817	3.0		0.0	6.0	3.0	4.0		part_1
261		3.0				1.0	0.0							3.0	202.0	0.32460112567059696	3.0		3.0	6.0	3.0	4.0		part_1
262		3.0				1.0	0.0							1.0	88.0	0.3369468846358359	1.0		2.0	7.0	2.0	5.0		part_1
263		3.0				1.0	0.0							4.0	79.0	0.35002338280901313	4.0		2.0	7.0	2.0	5.0		part_1
264		3.0				1.0	1.0							4.0	37.0	0.36198944319039583	4.0		1.0	8.0	5.0	1.0		part_1
265		3.0				1.0	1.0							2.0	0.0	0.33830877812579274	2.0		0.0	2.0	8.0	7.0		part_1
266		3.0				1.0	0.0							2.0	420.0	0.32827787240967155	2.0		4.0	5.0	4.0	6.0		part_1
267		3.0				1.0	0.0							1.0	107.0	0.3283287170343101	1.0		2.0	7.0	2.0	5.0		part_1
268		3.0				1.0	0.0							4.0	124.0	0.3063514931127429	4.0		2.0	7.0	2.0	5.0		part_1
269		3.0				1.0	0.0							2.0	382.0	0.3199913175776601	2.0		4.0	5.0	4.0	6.0		part_1
270		3.0				1.0	0.0							4.0	64.0	0.3081454827915877	4.0		1.0	4.0	1.0	3.0		part_1
271		3.0				1.0	0.0							2.0	0.0	0.3419335230719298	2.0		0.0	6.0	3.0	4.0		part_1
272		3.0				1.0	1.0							2.0	185.0	0.3422957228031009	2.0		3.0	1.0	7.0	8.0		part_1
273		3.0				1.0	1.0							4.0	197.0	0.3421716233715415	4.0		3.0	1.0	7.0	8.0		part_1
274		3.0				1.0	1.0							2.0	0.0	0.3115969356149435	2.0		0.0	1.0	7.0	8.0		part_1
275		3.0				1.0	0.0							4.0	215.0	0.3553349943831563	4.0		3.0	6.0	3.0	4.0		part_1
276		3.0				1.0	0.0							1.0	0.0	0.33300181943923235	1.0		0.0	4.0	1.0	3.0		part_1
277		3.0				1.0	1.0							1.0	122.0	0.3349939710460603	1.0		2.0	3.0	6.0	2.0		part_1
278		3.0				1.0	1.0							1.0	82.0	0.2672924753278494	1.0		2.0	3.0	6.0	2.0		part_1
279		3.0				1.0	1.0							4.0	422.0	0.32407824392430484	4.0		4.0	2.0	8.0	7.0		part_1
280		3.0				1.0	0.0							2.0	224.0	0.3136885762214661	2.0		3.0	6.0	3.0	4.0		part_1
281		3.0				1.0	1.0							3.0	425.0	0.31378213153220713	3.0		4.0	2.0	8.0	7.0		part_1
282		3.0				1.0	0.0							2.0	221.0	0.2933849517721683	2.0		3.0	6.0	3.0	4.0		part_1
283		3.0				1.0	0.0							4.0	216.0	0.3150244462303817	4.0		3.0	6.0	3.0	4.0		part_1
284		3.0				1.0	1.0							4.0	215.0	0.3823048823978752	4.0		3.0	1.0	7.0	8.0		part_1
285		3.0				1.0	0.0							1.0	380.0	0.30612110416404903	1.0		4.0	5.0	4.0	6.0		part_1
286		3.0				1.0	1.0							1.0	40.0	0.3061987101100385	1.0		1.0	8.0	5.0	1.0		part_1
287		3.0				1.0	0.0							4.0	70.0	0.3062597720418125	4.0		1.0	4.0	1.0	3.0		part_1
288		3.0				1.0	0.0							1.0	94.0	0.30793359503149986	1.0		2.0	7.0	2.0	5.0		part_1
289		3.0				1.0	0.0							4.0	44.0	0.3172799914609641	4.0		1.0	4.0	1.0	3.0		part_1
290		3.0				1.0	1.0							2.0	107.0	0.3425281555391848	2.0		2.0	3.0	6.0	2.0		part_1
291		3.0				1.0	0.0							4.0	0.0	0.3206665276084095	4.0		0.0	4.0	1.0	3.0		part_1
292		3.0				1.0	0.0							1.0	0.0	0.2647078901063651	1.0		0.0	7.0	2.0	5.0		part_1
293		3.0				1.0	0.0							3.0	34.0	0.3201932276133448	3.0		1.0	4.0	1.0	3.0		part_1
294		3.0				1.0	1.0							2.0	95.0	0.2997028275858611	2.0		2.0	3.0	6.0	2.0		part_1
295		3.0				1.0	0.0							3.0	0.0	0.3548054057173431	3.0		0.0	5.0	4.0	6.0		part_1
296		3.0				1.0	1.0							2.0	36.0	0.35748679004609585	2.0		1.0	8.0	5.0	1.0		part_1
297		3.0				1.0	1.0							3.0	397.0	0.276649329578504	3.0		4.0	2.0	8.0	7.0		part_1
298		3.0				1.0	1.0							4.0	35.0	0.35640655271708965	4.0		1.0	8.0	5.0	1.0		part_1
299		3.0				1.0	0.0							3.0	69.0	0.32381062186323106	3.0		1.0	4.0	1.0	3.0		part_1
300		4.0				1.0	1.0							4.0	97.0	0.3270123931579292	4.0		2.0	3.0	6.0	2.0		part_1
301		4.0				1.0	1.0							1.0	0.0	0.3276895256713033	1.0		0.0	1.0	7.0	8.0		part_1
302		4.0				1.0	1.0							2.0	70.0	0.3170519338455051	2.0		1.0	8.0	5.0	1.0		part_1
303		4.0				1.0	0.0							3.0	189.0	0.2846265539992601	3.0		3.0	6.0	3.0	4.0		part_1
304		4.0				1.0	0.0							2.0	408.0	0.2730394385289401	2.0		4.0	5.0	4.0	6.0		part_1
305		4.0				1.0	0.0							4.0	0.0	0.3292261066380888	4.0		0.0	7.0	2.0	5.0		part_1
306		4.0				1.0	0.0							1.0	384.0	0.2845891916658729	1.0		4.0	5.0	4.0	6.0		part_1
307		4.0				1.0	0.0							4.0	105.0	0.3317971690557897	4.0		2.0	7.0	2.0	5.0		part_1
308		4.0				1.0	1.0							4.0	0.0	0.3546344435308129	4.0		0.0	8.0	5.0	1.0		part_1
309		4.0				1.0	0.0							2.0	199.0	0.344203318702057	2.0		3.0	6.0	3.0	4.0		part_1
310		4.0				1.0	1.0							3.0	396.0	0.321739572333172	3.0		4.0	2.0	8.0	7.0		part_1
311		4.0				1.0	0.0							4.0	122.0	0.3113612607121468	4.0		2.0	7.0	2.0	5.0		part_1
312		4.0				1.0	1.0							1.0	379.0	0.3108780230395496	1.0		4.0	2.0	8.0	7.0		part_1
313		4.0				1.0	0.0							3.0	95.0	0.2900138976983726	3.0		2.0	7.0	2.0	5.0		part_1
314		4.0				1.0	0.0							1.0	59.0	0.32364072906784713	1.0		1.0	4.0	1.0	3.0		part_1
315		4.0				1.0	0.0							1.0	35.0	0.3129901760257781	1.0		1.0	4.0	1.0	3.0		part_1
316		4.0				1.0	0.0							4.0	30.0	0.3584592491388321	4.0		1.0	4.0	1.0	3.0		part_1
317		4.0				1.0	1.0							1.0	182.0	0.2812662175856531	1.0		3.0	1.0	7.0	8.0		part_1
318		4.0				1.0	1.0							1.0	204.0	0.2919656876474619	1.0		3.0	1.0	7.0	8.0		part_1
319		4.0				1.0	1.0							1.0	199.0	0.32604394550435245	1.0		3.0	1.0	7.0	8.0		part_1
320		4.0				1.0	1.0							1.0	205.0	0.3041591802611947	1.0		3.0	1.0	7.0	8.0		part_1
321		4.0				1.0	0.0							3.0	397.0	0.2937589576467872	3.0		4.0	5.0	4.0	6.0		part_1
322		4.0				1.0	1.0							4.0	186.0	0.3171755271032453	4.0		3.0	1.0	7.0	8.0		part_1
323		4.0				1.0	0.0							1.0	0.0	0.3299511382356286	1.0		0.0	5.0	4.0	6.0		part_1
324		4.0				1.0	1.0							2.0	100.0	0.3179250773973763	2.0		2.0	3.0	6.0	2.0		part_1
325		4.0				1.0	0.0							1.0	0.0	0.27306372462771833	1.0		0.0	4.0	1.0	3.0		part_1
326		4.0				1.0	1.0							4.0	212.0	0.3190248205792159	4.0		3.0	1.0	7.0	8.0		part_1
327		4.0				1.0	1.0							4.0	81.0	0.29645457956939936	4.0		2.0	3.0	6.0	2.0		part_1
328		4.0				1.0	1.0							2.0	225.0	0.2969461395405233	2.0		3.0	1.0	7.0	8.0		part_1
329		4.0				1.0	1.0							1.0	59.0	0.3102213037200272	1.0		1.0	8.0	5.0	1.0		part_1
330		4.0				1.0	1.0							2.0	54.0	0.3105383815709501	2.0		1.0	8.0	5.0	1.0		part_1
331		4.0				1.0	1.0							4.0	114.0	0.3217480781022459	4.0		2.0	3.0	6.0	2.0		part_1
332		4.0				1.0	1.0							4.0	55.0	0.3438125385437161	4.0		1.0	8.0	5.0	1.0		part_1
333		4.0				1.0	0.0							3.0	0.0	0.3223589840345085	3.0		0.0	6.0	3.0	4.0		part_1
334		4.0				1.0	1.0							2.0	211.0	0.2910175980068743	2.0		3.0	1.0	7.0	8.0		part_1
335		4.0				1.0	1.0							1.0	401.0	0.3027337514795363	1.0		4.0	2.0	8.0	7.0		part_1
336		4.0				1.0	0.0							2.0	219.0	0.3020359799265861	2.0		3.0	6.0	3.0	4.0		part_1
337		4.0				1.0	1.0							4.0	203.0	0.3241172123234719	4.0		3.0	1.0	7.0	8.0		part_1
338		4.0				1.0	0.0							2.0	0.0	0.2921882891096175	2.0		0.0	5.0	4.0	6.0		part_1
339		4.0				1.0	1.0							2.0	64.0	0.3034502554219216	2.0		1.0	8.0	5.0	1.0		part_1
340		4.0				1.0	1.0							2.0	403.0	0.3047115025110543	2.0		4.0	2.0	8.0	7.0		part_1
341		4.0				1.0	1.0							3.0	104.0	0.3148417035117745	3.0		2.0	3.0	6.0	2.0		part_1
342		4.0				1.0	1.0							4.0	113.0	0.3724018957000226	4.0		2.0	3.0	6.0	2.0		part_1
343		4.0				1.0	0.0							2.0	84.0	0.27265409915708005	2.0		2.0	7.0	2.0	5.0		part_1
344		4.0				1.0	1.0							3.0	48.0	0.3061397431883961	3.0		1.0	8.0	5.0	1.0		part_1
345		4.0				1.0	1.0							3.0	54.0	0.2845205767080188	3.0		1.0	8.0	5.0	1.0		part_1
346		4.0				1.0	1.0							1.0	191.0	0.26194852963089943	1.0		3.0	1.0	7.0	8.0		part_1
347		4.0				1.0	0.0							2.0	0.0	0.3190490615088493	2.0		0.0	4.0	1.0	3.0		part_1
348		4.0				1.0	0.0							2.0	398.0	0.2972047820221633	2.0		4.0	5.0	4.0	6.0		part_1
349		4.0				1.0	1.0							4.0	25.0	0.3199206134304404	4.0		1.0	8.0	5.0	1.0		part_1
350		4.0				1.0	1.0							2.0	0.0	0.2749896217137575	2.0		0.0	8.0	5.0	1.0		part_1
351		4.0				1.0	1.0							3.0	87.0	0.2752800991293043	3.0		2.0	3.0	6.0	2.0		part_1
352		4.0				1.0	0.0							1.0	204.0	0.2770913790445775	1.0		3.0	6.0	3.0	4.0		part_1
353		4.0				1.0	1.0							1.0	104.0	0.29986141179688275	1.0		2.0	3.0	6.0	2.0		part_1
354		4.0				1.0	0.0							1.0	113.0	0.3116052038967609	1.0		2.0	7.0	2.0	5.0		part_1
355		4.0				1.0	0.0							2.0	388.0	0.30076559470035136	2.0		4.0	5.0	4.0	6.0		part_1
356		4.0				1.0	0.0							3.0	412.0	0.3127718800678849	3.0		4.0	5.0	4.0	6.0		part_1
357		4.0				1.0	1.0							1.0	193.0	0.2699501814786345	1.0		3.0	1.0	7.0	8.0		part_1
358		4.0				1.0	0.0							1.0	202.0	0.3378166861366481	1.0		3.0	6.0	3.0	4.0		part_1
359		4.0				1.0	1.0							4.0	194.0	0.35936043318361044	4.0		3.0	1.0	7.0	8.0		part_1
360		4.0				1.0	0.0							1.0	401.0	0.3038165136240423	1.0		4.0	5.0	4.0	6.0		part_1
361		4.0				1.0	1.0							2.0	68.0	0.3490140971262008	2.0		1.0	8.0	5.0	1.0		part_1
362		4.0				1.0	1.0							3.0	70.0	0.3054373641498387	3.0		1.0	8.0	5.0	1.0		part_1
363		4.0				1.0	1.0							4.0	34.0	0.3625424080528319	4.0		1.0	8.0	5.0	1.0		part_1
364		4.0				1.0	1.0							4.0	408.0	0.3727841000072658	4.0		4.0	2.0	8.0	7.0		part_1
365		4.0				1.0	0.0							3.0	72.0	0.2721149732824415	3.0		1.0	4.0	1.0	3.0		part_1
366		4.0				1.0	0.0							3.0	37.0	0.3416090861428529	3.0		1.0	4.0	1.0	3.0		part_1
367		4.0				1.0	1.0							4.0	0.0	0.34063023515045643	4.0		0.0	8.0	5.0	1.0		part_1
368		4.0				1.0	0.0							3.0	42.0	0.2855847075115889	3.0		1.0	4.0	1.0	3.0		part_1
369		4.0				1.0	1.0							3.0	0.0	0.2864255167078227	3.0		0.0	1.0	7.0	8.0		part_1
370		4.0				1.0	1.0							3.0	0.0	0.30923507106490433	3.0		0.0	3.0	6.0	2.0		part_1
371		4.0				1.0	0.0							2.0	43.0	0.28702133358456194	2.0		1.0	4.0	1.0	3.0		part_1
372		4.0				1.0	1.0							3.0	84.0	0.3334132395684719	3.0		2.0	3.0	6.0	2.0		part_1
373		4.0				1.0	0.0							3.0	0.0	0.2543313272763044	3.0		0.0	6.0	3.0	4.0		part_1
374		4.0				1.0	1.0							4.0	216.0	0.3786274760495871	4.0		3.0	1.0	7.0	8.0		part_1
375		4.0				1.0	0.0							2.0	54.0	0.3226976511068642	2.0		1.0	4.0	1.0	3.0		part_1
376		4.0				1.0	0.0							3.0	0.0	0.2564698357600719	3.0		0.0	7.0	2.0	5.0		part_1
377		4.0				1.0	0.0							4.0	182.0	0.2915480595547706	4.0		3.0	6.0	3.0	4.0		part_1
378		4.0				1.0	1.0							1.0	0.0	0.29271383909508586	1.0		0.0	1.0	7.0	8.0		part_1
379		4.0				1.0	1.0							2.0	0.0	0.2462330076377839	2.0		0.0	8.0	5.0	1.0		part_1
380		4.0				1.0	0.0							1.0	185.0	0.29377502063289285	1.0		3.0	6.0	3.0	4.0		part_1
381		4.0				1.0	1.0							3.0	0.0	0.2928909307811409	3.0		0.0	1.0	7.0	8.0		part_1
382		4.0				1.0	1.0							3.0	395.0	0.3383285084273666	3.0		4.0	2.0	8.0	7.0		part_1
383		4.0				1.0	0.0							4.0	104.0	0.2950103394687176	4.0		2.0	7.0	2.0	5.0		part_1
384		4.0				1.0	0.0							1.0	0.0	0.294023065129295	1.0		0.0	6.0	3.0	4.0		part_1
385		4.0				1.0	0.0							3.0	87.0	0.3064403731841594	3.0		2.0	7.0	2.0	5.0		part_1
386		4.0				1.0	0.0							4.0	225.0	0.31837939913384616	4.0		3.0	6.0	3.0	4.0		part_1
387		4.0				1.0	0.0							4.0	382.0	0.3070544970687479	4.0		4.0	5.0	4.0	6.0		part_1
388		4.0				1.0	1.0							2.0	421.0	0.30790392053313553	2.0		4.0	2.0	8.0	7.0		part_1
389		4.0				1.0	1.0							4.0	30.0	0.34143582824617624	4.0		1.0	8.0	5.0	1.0		part_1
390		4.0				1.0	1.0							1.0	0.0	0.3091177842579782	1.0		0.0	2.0	8.0	7.0		part_1
391		4.0				1.0	1.0							1.0	412.0	0.30951631790958345	1.0		4.0	2.0	8.0	7.0		part_1
392		4.0				1.0	0.0							2.0	396.0	0.3214778965339065	2.0		4.0	5.0	4.0	6.0		part_1
393		4.0				1.0	0.0							2.0	0.0	0.2770662014372647	2.0		0.0	7.0	2.0	5.0		part_1
394		4.0				1.0	1.0							1.0	72.0	0.2659575471188873	1.0		1.0	8.0	5.0	1.0		part_1
395		4.0				1.0	0.0							1.0	124.0	0.30206398060545325	1.0		2.0	7.0	2.0	5.0		part_1
396		4.0				1.0	1.0							3.0	65.0	0.2897456716746092	3.0		1.0	8.0	5.0	1.0		part_1
397		4.0				1.0	0.0							1.0	0.0	0.3016029661521316	1.0		0.0	5.0	4.0	6.0		part_1
398		4.0				1.0	0.0							3.0	96.0	0.3015590400900692	3.0		2.0	7.0	2.0	5.0		part_1
399		4.0				1.0	0.0							3.0	0.0	0.291148838121444	3.0		0.0	5.0	4.0	6.0		part_1
0	4.0	1.0			250.0	0.0	1.0							6.0	0.0	0.0	0.0	250.0	1.0	8.0	5.0	1.0	1.0	part_2
1	1.0	1.0			250.0	0.0	1.0							5.0	0.0	0.7003124016337097	5.0	300.0	2.0	3.0	6.0	2.0	0.0	part_2
2	1.0	1.0			250.0	0.0	0.0							6.0	0.0	0.33909484767355025	6.0	300.0	2.0	7.0	2.0	5.0	0.0	part_2
3	1.0	1.0			250.0	0.0	0.0							5.0	0.0	0.6324522525537759	5.0	300.0	2.0	7.0	2.0	5.0	0.0	part_2
4	4.0	1.0			250.0	0.0	1.0							5.0	0.0	0.0	0.0	300.0	4.0	2.0	8.0	7.0	1.0	part_2
5	4.0	1.0			300.0	0.0	1.0							6.0	0.0	0.0	0.0	300.0	1.0	8.0	5.0	1.0	1.0	part_2
6	4.0	1.0			300.0	0.0	1.0							5.0	0.0	0.0	0.0	350.0	3.0	1.0	7.0	8.0	1.0	part_2
7	1.0	1.0			350.0	0.0	0.0							6.0	0.0	0.43399442196823657	6.0	350.0	3.0	6.0	3.0	4.0	0.0	part_2
8	1.0	1.0			350.0	0.0	0.0							6.0	0.0	0.6705228216014802	6.0	350.0	2.0	7.0	2.0	5.0	0.0	part_2
9	4.0	1.0			350.0	0.0	1.0							5.0	0.0	0.0	0.0	350.0	4.0	2.0	8.0	7.0	1.0	part_2
10	4.0	1.0			400.0	0.0	1.0							5.0	0.0	0.0	0.0	350.0	1.0	8.0	5.0	1.0	1.0	part_2
11	4.0	1.0			450.0	0.0	1.0							5.0	0.0	0.0	0.0	350.0	3.0	1.0	7.0	8.0	1.0	part_2
12	1.0	1.0			500.0	0.0	0.0							5.0	0.0	0.8103276691399515	5.0	350.0	3.0	6.0	3.0	4.0	0.0	part_2
13	3.0	1.0			500.0	0.0	1.0							5.0	0.0	0.6632374762557447	5.0	350.0	2.0	3.0	6.0	2.0	1.0	part_2
14	1.0	1.0			450.0	0.0	1.0							6.0	0.0	0.8339972510002553	6.0	350.0	3.0	1.0	7.0	8.0	0.0	part_2
15	4.0	1.0			450.0	0.0	1.0							6.0	0.0	0.0	0.0	350.0	2.0	3.0	6.0	2.0	1.0	part_2
16	1.0	1.0			450.0	0.0	0.0							5.0	0.0	0.8469912435393779	5.0	400.0	2.0	7.0	2.0	5.0	0.0	part_2
17	1.0	1.0			450.0	0.0	0.0							5.0	0.0	0.7472057796549052	5.0	400.0	3.0	6.0	3.0	4.0	0.0	part_2
18	1.0	1.0			450.0	0.0	1.0							6.0	0.0	0.6344945831224322	6.0	400.0	1.0	8.0	5.0	1.0	0.0	part_2
19	1.0	1.0			450.0	0.0	0.0							6.0	0.0	0.6022713826969266	6.0	400.0	2.0	7.0	2.0	5.0	0.0	part_2
20	1.0	1.0			450.0	0.0	0.0							5.0	0.0	0.6360950972884893	5.0	400.0	2.0	7.0	2.0	5.0	0.0	part_2
21	4.0	1.0			450.0	0.0	1.0							5.0	0.0	0.0	0.0	400.0	3.0	1.0	7.0	8.0	1.0	part_2
22	1.0	1.0			500.0	0.0	1.0							5.0	0.0	0.6369969225488603	5.0	400.0	4.0	2.0	8.0	7.0	0.0	part_2
23	1.0	1.0			500.0	0.0	1.0							5.0	0.0	0.6963203370105475	5.0	400.0	2.0	3.0	6.0	2.0	0.0	part_2
24	4.0	1.0			500.0	0.0	1.0							5.0	0.0	0.0	0.0	400.0	4.0	2.0	8.0	7.0	1.0	part_2
25	1.0	1.0			550.0	0.0	0.0							6.0	0.0	0.7990634746383876	6.0	400.0	3.0	6.0	3.0	4.0	0.0	part_2
26	1.0	1.0			550.0	0.0	0.0							5.0	0.0	0.7758725984022021	5.0	400.0	2.0	7.0	2.0	5.0	0.0	part_2
27	4.0	1.0			550.0	0.0	1.0							5.0	0.0	0.0	0.0	400.0	4.0	2.0	8.0	7.0	1.0	part_2
28	3.0	1.0			600.0	0.0	1.0							5.0	0.0	0.6878185451496392	5.0	400.0	2.0	3.0	6.0	2.0	1.0	part_2
29	4.0	1.0			550.0	0.0	1.0							6.0	0.0	0.0	0.0	400.0	4.0	2.0	8.0	7.0	1.0	part_2
30	1.0	1.0			550.0	0.0	0.0							5.0	0.0	0.8123420353513211	5.0	450.0	2.0	7.0	2.0	5.0	0.0	part_2
31	4.0	1.0			550.0	0.0	1.0							5.0	0.0	0.0	0.0	450.0	1.0	8.0	5.0	1.0	1.0	part_2
32	1.0	1.0			600.0	0.0	0.0							5.0	0.0	1.0841697270516306	5.0	450.0	2.0	7.0	2.0	5.0	0.0	part_2
33	4.0	1.0			600.0	0.0	1.0							5.0	0.0	0.0	0.0	450.0	1.0	8.0	5.0	1.0	1.0	part_2
34	1.0	1.0			650.0	0.0	0.0							6.0	0.0	0.9638467789627612	6.0	450.0	3.0	6.0	3.0	4.0	0.0	part_2
35	1.0	1.0			650.0	0.0	0.0							5.0	0.0	1.0767988462466749	5.0	450.0	3.0	6.0	3.0	4.0	0.0	part_2
36	1.0	2.0			650.0	0.0	0.0							5.0	0.0	0.6664877834264189	5.0	450.0	1.0	4.0	1.0	3.0	0.0	part_2
37	1.0	2.0			650.0	0.0	0.0							6.0	0.0	0.31639089155942196	6.0	450.0	4.0	5.0	4.0	6.0	0.0	part_2
38	1.0	2.0			650.0	0.0	0.0							5.0	0.0	0.5312870375346392	5.0	450.0	4.0	5.0	4.0	6.0	0.0	part_2
39	1.0	2.0			650.0	0.0	0.0							5.0	0.0	0.5546607363503426	5.0	450.0	4.0	5.0	4.0	6.0	0.0	part_2
40	3.0	2.0			650.0	0.0	1.0							5.0	0.0	0.5216591921634972	5.0	450.0	4.0	2.0	8.0	7.0	1.0	part_2
41	1.0	2.0			600.0	0.0	0.0							5.0	0.0	0.7032294860109687	5.0	450.0	3.0	6.0	3.0	4.0	0.0	part_2
42	4.0	2.0			600.0	0.0	1.0							5.0	0.0	0.0	0.0	450.0	4.0	2.0	8.0	7.0	1.0	part_2
43	3.0	2.0			650.0	0.0	1.0							6.0	0.0	0.5803334650117904	6.0	450.0	4.0	2.0	8.0	7.0	1.0	part_2
44	4.0	2.0			650.0	0.0	1.0							5.0	0.0	0.0	0.0	400.0	1.0	8.0	5.0	1.0	1.0	part_2
45	1.0	2.0			700.0	0.0	0.0							6.0	0.0	0.8518014985602349	6.0	400.0	4.0	5.0	4.0	6.0	0.0	part_2
46	1.0	2.0			700.0	0.0	0.0							5.0	0.0	1.0904060252942145	5.0	400.0	2.0	7.0	2.0	5.0	0.0	part_2
47	1.0	2.0			700.0	0.0	0.0							5.0	0.0	0.8878707061521709	5.0	400.0	3.0	6.0	3.0	4.0	0.0	part_2
48	1.0	2.0			700.0	0.0	0.0							5.0	0.0	0.9554894794709979	5.0	400.0	4.0	5.0	4.0	6.0	0.0	part_2
49	1.0	2.0			700.0	0.0	0.0							5.0	0.0	0.7658697224687785	5.0	400.0	4.0	5.0	4.0	6.0	0.0	part_2
50	1.0	2.0			700.0	0.0	0.0							5.0	0.0	0.4736755474004895	5.0	400.0	2.0	7.0	2.0	5.0	0.0	part_2
51	1.0	2.0			700.0	0.0	1.0							6.0	0.0	0.8686659403610975	6.0	400.0	1.0	8.0	5.0	1.0	0.0	part_2
52	4.0	2.0			700.0	0.0	1.0							6.0	0.0	0.0	0.0	400.0	1.0	8.0	5.0	1.0	1.0	part_2
53	1.0	2.0			700.0	0.0	1.0							6.0	0.0	0.5891625506337732	6.0	450.0	2.0	3.0	6.0	2.0	0.0	part_2
54	1.0	2.0			700.0	0.0	0.0							6.0	0.0	0.6460408603306861	6.0	450.0	1.0	4.0	1.0	3.0	0.0	part_2
55	4.0	2.0			700.0	0.0	1.0							6.0	0.0	0.0	0.0	450.0	4.0	2.0	8.0	7.0	1.0	part_2
56	1.0	2.0			700.0	0.0	0.0							6.0	0.0	0.7950258150231093	6.0	500.0	3.0	6.0	3.0	4.0	0.0	part_2
57	4.0	2.0			700.0	0.0	1.0							6.0	0.0	0.0	0.0	500.0	3.0	1.0	7.0	8.0	1.0	part_2
58	1.0	2.0			700.0	0.0	0.0							5.0	0.0	0.683529446600005	5.0	550.0	1.0	4.0	1.0	3.0	0.0	part_2
59	3.0	2.0			700.0	0.0	1.0							5.0	0.0	0.8634069913532585	5.0	550.0	3.0	1.0	7.0	8.0	1.0	part_2
60	1.0	2.0			650.0	0.0	1.0							6.0	0.0	0.8985856347717345	6.0	550.0	2.0	3.0	6.0	2.0	0.0	part_2
61	1.0	2.0			650.0	0.0	0.0							6.0	0.0	0.7870051770005375	6.0	550.0	4.0	5.0	4.0	6.0	0.0	part_2
62	1.0	2.0			650.0	0.0	0.0							5.0	0.0	0.7658244203776121	5.0	550.0	2.0	7.0	2.0	5.0	0.0	part_2
63	1.0	2.0			650.0	0.0	0.0							5.0	0.0	0.7883265407290309	5.0	550.0	4.0	5.0	4.0	6.0	0.0	part_2
64	3.0	2.0			650.0	0.0	1.0							5.0	0.0	0.7342908871360123	5.0	550.0	3.0	1.0	7.0	8.0	1.0	part_2
65	1.0	2.0			600.0	0.0	1.0							5.0	0.0	0.677699122345075	5.0	550.0	3.0	1.0	7.0	8.0	0.0	part_2
66	1.0	2.0			600.0	0.0	0.0							6.0	0.0	0.7129674945026636	6.0	550.0	1.0	4.0	1.0	3.0	0.0	part_2
67	1.0	2.0			600.0	0.0	0.0							5.0	0.0	0.8257039480376989	5.0	550.0	3.0	6.0	3.0	4.0	0.0	part_2
68	1.0	2.0			600.0	0.0	1.0							5.0	0.0	0.4107023028191179	5.0	550.0	2.0	3.0	6.0	2.0	0.0	part_2
69	3.0	2.0			600.0	0.0	1.0							6.0	0.0	0.5136585782747716	6.0	550.0	4.0	2.0	8.0	7.0	1.0	part_2
70	1.0	2.0			600.0	0.0	0.0							6.0	0.0	0.8971625952981412	6.0	500.0	2.0	7.0	2.0	5.0	0.0	part_2
71	1.0	2.0			600.0	0.0	0.0							6.0	0.0	0.7740359622985125	6.0	500.0	3.0	6.0	3.0	4.0	0.0	part_2
72	3.0	3.0			600.0	0.0	1.0							6.0	0.0	0.35924825142137706	6.0	500.0	2.0	3.0	6.0	2.0	1.0	part_2
73	1.0	3.0			600.0	0.0	0.0							6.0	0.0	0.5832203640602529	6.0	450.0	1.0	4.0	1.0	3.0	0.0	part_2
74	3.0	3.0			600.0	0.0	1.0							5.0	0.0	0.3147644968703389	5.0	450.0	3.0	1.0	7.0	8.0	1.0	part_2
75	1.0	3.0			550.0	0.0	0.0							6.0	0.0	0.6070558072533458	6.0	450.0	4.0	5.0	4.0	6.0	0.0	part_2
76	1.0	3.0			550.0	0.0	0.0							5.0	0.0	0.5301205343566835	5.0	450.0	3.0	6.0	3.0	4.0	0.0	part_2
77	3.0	3.0			550.0	0.0	1.0							5.0	0.0	0.5994783558417112	5.0	450.0	1.0	8.0	5.0	1.0	1.0	part_2
78	4.0	3.0			500.0	0.0	1.0							6.0	0.0	0.0	0.0	450.0	4.0	2.0	8.0	7.0	1.0	part_2
79	1.0	3.0			500.0	0.0	0.0							5.0	0.0	0.8033449237700552	5.0	500.0	1.0	4.0	1.0	3.0	0.0	part_2
80	1.0	3.0			500.0	0.0	1.0							6.0	0.0	0.6467522541061044	6.0	500.0	1.0	8.0	5.0	1.0	0.0	part_2
81	1.0	3.0			500.0	0.0	0.0							6.0	0.0	0.6254415872972459	6.0	500.0	1.0	4.0	1.0	3.0	0.0	part_2
82	4.0	3.0			500.0	0.0	1.0							6.0	0.0	0.0	0.0	500.0	2.0	3.0	6.0	2.0	1.0	part_2
83	3.0	3.0			500.0	0.0	1.0							6.0	0.0	0.5695702624507248	6.0	550.0	2.0	3.0	6.0	2.0	1.0	part_2
84	1.0	3.0			500.0	0.0	0.0							5.0	0.0	0.6264754952862859	5.0	500.0	4.0	5.0	4.0	6.0	0.0	part_2
85	1.0	3.0			500.0	0.0	0.0							6.0	0.0	0.3567096891347319	6.0	500.0	3.0	6.0	3.0	4.0	0.0	part_2
86	1.0	3.0			500.0	0.0	0.0							5.0	0.0	0.6727854234632105	5.0	500.0	1.0	4.0	1.0	3.0	0.0	part_2
87	3.0	3.0			500.0	0.0	1.0							5.0	0.0	0.4166685903910548	5.0	500.0	1.0	8.0	5.0	1.0	1.0	part_2
88	1.0	3.0			450.0	0.0	0.0							5.0	0.0	0.6191535766702145	5.0	500.0	1.0	4.0	1.0	3.0	0.0	part_2
89	1.0	3.0			450.0	0.0	0.0							6.0	0.0	0.3172598455566913	6.0	500.0	3.0	6.0	3.0	4.0	0.0	part_2
90	4.0	3.0			450.0	0.0	1.0							6.0	0.0	0.0	0.0	500.0	1.0	8.0	5.0	1.0	1.0	part_2
91	4.0	3.0			450.0	0.0	1.0							6.0	0.0	0.0	0.0	550.0	4.0	2.0	8.0	7.0	1.0	part_2
92	1.0	3.0			450.0	0.0	0.0							6.0	0.0	0.7246765543241054	6.0	600.0	1.0	4.0	1.0	3.0	0.0	part_2
93	1.0	3.0			450.0	0.0	0.0							6.0	0.0	0.5551346959546208	6.0	600.0	4.0	5.0	4.0	6.0	0.0	part_2
94	3.0	3.0			450.0	0.0	1.0							5.0	0.0	0.4879647500347346	5.0	600.0	1.0	8.0	5.0	1.0	1.0	part_2
95	3.0	3.0			400.0	0.0	1.0							6.0	0.0	0.5792420438956469	6.0	600.0	2.0	3.0	6.0	2.0	1.0	part_2
96	4.0	3.0			400.0	0.0	1.0							5.0	0.0	0.0	0.0	550.0	4.0	2.0	8.0	7.0	1.0	part_2
97	1.0	3.0			450.0	0.0	1.0							6.0	0.0	0.6488834389019758	6.0	550.0	4.0	2.0	8.0	7.0	0.0	part_2
98	1.0	3.0			450.0	0.0	0.0							6.0	0.0	0.5820108482148498	6.0	550.0	3.0	6.0	3.0	4.0	0.0	part_2
99	4.0	3.0			450.0	0.0	1.0							6.0	0.0	0.0	0.0	550.0	1.0	8.0	5.0	1.0	1.0	part_2
100	1.0	3.0			450.0	0.0	0.0							5.0	0.0	0.5051607189234346	5.0	600.0	1.0	4.0	1.0	3.0	0.0	part_2
101	1.0	3.0			450.0	0.0	0.0							5.0	0.0	0.6859761190135032	5.0	600.0	1.0	4.0	1.0	3.0	0.0	part_2
102	1.0	3.0			450.0	0.0	0.0							6.0	0.0	0.3953729814384133	6.0	600.0	4.0	5.0	4.0	6.0	0.0	part_2
103	1.0	3.0			450.0	0.0	0.0							6.0	0.0	0.664837988326326	6.0	600.0	2.0	7.0	2.0	5.0	0.0	part_2
104	3.0	3.0			450.0	0.0	1.0							6.0	0.0	0.4634391728322953	6.0	600.0	4.0	2.0	8.0	7.0	1.0	part_2
105	3.0	3.0			450.0	0.0	1.0							5.0	0.0	0.3741683680564165	5.0	550.0	3.0	1.0	7.0	8.0	1.0	part_2
106	3.0	3.0			400.0	0.0	1.0							6.0	0.0	0.6001012362539768	6.0	550.0	3.0	1.0	7.0	8.0	1.0	part_2
107	1.0	3.0			400.0	0.0	0.0							5.0	0.0	0.6022166511975229	5.0	500.0	3.0	6.0	3.0	4.0	0.0	part_2
108	1.0	4.0			400.0	0.0	0.0							5.0	0.0	0.3881450199987739	5.0	500.0	1.0	4.0	1.0	3.0	0.0	part_2
109	1.0	4.0			400.0	0.0	0.0							6.0	0.0	0.38855734444223344	6.0	500.0	2.0	7.0	2.0	5.0	0.0	part_2
110	1.0	4.0			400.0	0.0	0.0							5.0	0.0	0.4799438645131886	5.0	500.0	3.0	6.0	3.0	4.0	0.0	part_2
111	1.0	4.0			400.0	0.0	0.0							5.0	0.0	0.3575772235635668	5.0	500.0	3.0	6.0	3.0	4.0	0.0	part_2
112	3.0	4.0			400.0	0.0	1.0							6.0	0.0	0.40358276944607496	6.0	500.0	4.0	2.0	8.0	7.0	1.0	part_2
113	4.0	4.0			400.0	0.0	1.0							5.0	0.0	0.0	0.0	450.0	4.0	2.0	8.0	7.0	1.0	part_2
114	1.0	4.0			450.0	0.0	0.0							6.0	0.0	0.5736581543460488	6.0	450.0	4.0	5.0	4.0	6.0	0.0	part_2
115	4.0	4.0			450.0	0.0	1.0							6.0	0.0	0.0	0.0	450.0	2.0	3.0	6.0	2.0	1.0	part_2
116	4.0	4.0			450.0	0.0	1.0							5.0	0.0	0.0	0.0	500.0	3.0	1.0	7.0	8.0	1.0	part_2
117	1.0	4.0			500.0	0.0	0.0							5.0	0.0	0.3957443630788475	5.0	500.0	1.0	4.0	1.0	3.0	0.0	part_2
118	4.0	4.0			500.0	0.0	1.0							5.0	0.0	0.0	0.0	500.0	1.0	8.0	5.0	1.0	1.0	part_2
119	1.0	4.0			550.0	0.0	0.0							5.0	0.0	0.6792038972489536	5.0	500.0	1.0	4.0	1.0	3.0	0.0	part_2
120	1.0	4.0			550.0	0.0	0.0							6.0	0.0	0.7467668578028679	6.0	500.0	1.0	4.0	1.0	3.0	0.0	part_2
121	1.0	4.0			550.0	0.0	0.0							6.0	0.0	0.5572768351994455	6.0	500.0	1.0	4.0	1.0	3.0	0.0	part_2
122	1.0	4.0			550.0	0.0	1.0							5.0	0.0	0.32232306129299104	5.0	500.0	1.0	8.0	5.0	1.0	0.0	part_2
123	1.0	4.0			550.0	0.0	0.0							5.0	0.0	0.5695973488036543	5.0	500.0	4.0	5.0	4.0	6.0	0.0	part_2
124	1.0	4.0			550.0	0.0	0.0							5.0	0.0	0.34566831192933023	5.0	500.0	1.0	4.0	1.0	3.0	0.0	part_2
125	3.0	4.0			550.0	0.0	1.0							6.0	0.0	0.33596177608706057	6.0	500.0	2.0	3.0	6.0	2.0	1.0	part_2
126	3.0	4.0			550.0	0.0	1.0							6.0	0.0	0.4366651100572199	6.0	450.0	2.0	3.0	6.0	2.0	1.0	part_2
127	1.0	4.0			550.0	0.0	0.0							5.0	0.0	0.6847487387713045	5.0	400.0	1.0	4.0	1.0	3.0	0.0	part_2
128	1.0	4.0			550.0	0.0	1.0							5.0	0.0	0.6974564082920551	5.0	400.0	3.0	1.0	7.0	8.0	0.0	part_2
129	3.0	4.0			550.0	0.0	1.0							5.0	0.0	0.4952570567838848	5.0	400.0	3.0	1.0	7.0	8.0	1.0	part_2
130	1.0	4.0			500.0	0.0	1.0							5.0	0.0	0.6211427531670779	5.0	400.0	4.0	2.0	8.0	7.0	0.0	part_2
131	1.0	4.0			500.0	0.0	1.0							6.0	0.0	0.4292967049404979	6.0	400.0	1.0	8.0	5.0	1.0	0.0	part_2
132	1.0	4.0			500.0	0.0	0.0							6.0	0.0	0.454257667530328	6.0	400.0	1.0	4.0	1.0	3.0	0.0	part_2
133	3.0	4.0			500.0	0.0	1.0							6.0	0.0	0.5436756785493344	6.0	400.0	3.0	1.0	7.0	8.0	1.0	part_2
134	1.0	4.0			500.0	0.0	0.0							6.0	0.0	0.6578717501834035	6.0	350.0	1.0	4.0	1.0	3.0	0.0	part_2
135	1.0	4.0			500.0	0.0	0.0							6.0	0.0	0.33200427889823914	6.0	350.0	4.0	5.0	4.0	6.0	0.0	part_2
136	4.0	4.0			500.0	0.0	1.0							6.0	0.0	0.0	0.0	350.0	2.0	3.0	6.0	2.0	1.0	part_2
137	4.0	4.0			500.0	0.0	1.0							5.0	0.0	0.0	0.0	400.0	1.0	8.0	5.0	1.0	1.0	part_2
138	1.0	4.0			550.0	0.0	0.0							5.0	0.0	0.7290550156030804	5.0	400.0	4.0	5.0	4.0	6.0	0.0	part_2
139	4.0	4.0			550.0	0.0	1.0							6.0	0.0	0.0	0.0	400.0	3.0	1.0	7.0	8.0	1.0	part_2
140	1.0	4.0			550.0	0.0	0.0							6.0	0.0	0.5614329439122231	6.0	450.0	3.0	6.0	3.0	4.0	0.0	part_2
141	4.0	4.0			550.0	0.0	1.0							5.0	0.0	0.0	0.0	450.0	4.0	2.0	8.0	7.0	1.0	part_2
142	1.0	4.0			600.0	0.0	0.0							6.0	0.0	0.3486542331520468	6.0	450.0	4.0	5.0	4.0	6.0	0.0	part_2
143	4.0	4.0			600.0	0.0	1.0							5.0	0.0	0.0	0.0	450.0	1.0	8.0	5.0	1.0	1.0	part_2
144	3.0	5.0			650.0	0.0	1.0							5.0	0.0	0.6049452675506473	5.0	450.0	2.0	3.0	6.0	2.0	1.0	part_2
145	1.0	5.0			600.0	0.0	0.0							5.0	0.0	0.6055630664341152	5.0	450.0	4.0	5.0	4.0	6.0	0.0	part_2
146	1.0	5.0			600.0	0.0	1.0							6.0	0.0	0.6409562237095088	6.0	450.0	1.0	8.0	5.0	1.0	0.0	part_2
147	1.0	5.0			600.0	0.0	0.0							6.0	0.0	0.6871537312399596	6.0	450.0	1.0	4.0	1.0	3.0	0.0	part_2
148	1.0	5.0			600.0	0.0	1.0							6.0	0.0	0.7225056411698461	6.0	450.0	4.0	2.0	8.0	7.0	0.0	part_2
149	1.0	5.0			600.0	0.0	1.0							6.0	0.0	0.6557610030286014	6.0	450.0	3.0	1.0	7.0	8.0	0.0	part_2
150	1.0	5.0			600.0	0.0	0.0							5.0	0.0	0.6110879858024418	5.0	450.0	3.0	6.0	3.0	4.0	0.0	part_2
151	1.0	5.0			600.0	0.0	0.0							6.0	0.0	0.4646529671736062	6.0	450.0	2.0	7.0	2.0	5.0	0.0	part_2
152	1.0	5.0			600.0	0.0	0.0							6.0	0.0	0.4892456701491028	6.0	450.0	3.0	6.0	3.0	4.0	0.0	part_2
153	1.0	5.0			600.0	0.0	1.0							5.0	0.0	0.6805687234736979	5.0	450.0	4.0	2.0	8.0	7.0	0.0	part_2
154	4.0	5.0			600.0	0.0	1.0							6.0	0.0	0.0	0.0	450.0	1.0	8.0	5.0	1.0	1.0	part_2
155	3.0	5.0			600.0	0.0	1.0							6.0	0.0	0.7494373982772231	6.0	500.0	4.0	2.0	8.0	7.0	1.0	part_2
156	1.0	5.0			600.0	0.0	0.0							5.0	0.0	0.7388994905631989	5.0	450.0	2.0	7.0	2.0	5.0	0.0	part_2
157	1.0	5.0			600.0	0.0	1.0							5.0	0.0	0.7175660277716815	5.0	450.0	4.0	2.0	8.0	7.0	0.0	part_2
158	1.0	5.0			600.0	0.0	0.0							5.0	0.0	0.6839228251483291	5.0	450.0	4.0	5.0	4.0	6.0	0.0	part_2
159	4.0	5.0			600.0	0.0	1.0							6.0	0.0	0.0	0.0	450.0	4.0	2.0	8.0	7.0	1.0	part_2
160	4.0	5.0			600.0	0.0	1.0							5.0	0.0	0.0	0.0	500.0	1.0	8.0	5.0	1.0	1.0	part_2
161	1.0	5.0			650.0	0.0	0.0							5.0	0.0	0.6989471013657749	5.0	500.0	2.0	7.0	2.0	5.0	0.0	part_2
162	3.0	5.0			650.0	0.0	1.0							5.0	0.0	0.6870865242090076	5.0	500.0	2.0	3.0	6.0	2.0	1.0	part_2
163	1.0	5.0			600.0	0.0	0.0							5.0	0.0	0.6889416098129004	5.0	500.0	1.0	4.0	1.0	3.0	0.0	part_2
164	1.0	5.0			600.0	0.0	0.0							5.0	0.0	0.7125878746155649	5.0	500.0	3.0	6.0	3.0	4.0	0.0	part_2
165	1.0	5.0			600.0	0.0	1.0							6.0	0.0	0.7345561177935451	6.0	500.0	3.0	1.0	7.0	8.0	0.0	part_2
166	3.0	5.0			600.0	0.0	1.0							5.0	0.0	0.7022451704833657	5.0	500.0	1.0	8.0	5.0	1.0	1.0	part_2
167	1.0	5.0			550.0	0.0	0.0							6.0	0.0	0.7160121107008308	6.0	500.0	4.0	5.0	4.0	6.0	0.0	part_2
168	1.0	5.0			550.0	0.0	1.0							6.0	0.0	0.6698614379856735	6.0	500.0	4.0	2.0	8.0	7.0	0.0	part_2
169	3.0	5.0			550.0	0.0	1.0							5.0	0.0	0.6595087298192084	5.0	500.0	4.0	2.0	8.0	7.0	1.0	part_2
170	1.0	5.0			500.0	0.0	0.0							6.0	0.0	0.6500670392997563	6.0	500.0	3.0	6.0	3.0	4.0	0.0	part_2
171	4.0	5.0			500.0	0.0	1.0							6.0	0.0	0.0	0.0	500.0	2.0	3.0	6.0	2.0	1.0	part_2
172	4.0	5.0			500.0	0.0	1.0							6.0	0.0	0.0	0.0	550.0	1.0	8.0	5.0	1.0	1.0	part_2
173	1.0	5.0			500.0	0.0	0.0							5.0	0.0	0.5050412979908288	5.0	600.0	2.0	7.0	2.0	5.0	0.0	part_2
174	1.0	5.0			500.0	0.0	0.0							5.0	0.0	0.7765860713552684	5.0	600.0	3.0	6.0	3.0	4.0	0.0	part_2
175	3.0	5.0			500.0	0.0	1.0							6.0	0.0	0.6535417640116066	6.0	600.0	3.0	1.0	7.0	8.0	1.0	part_2
176	4.0	5.0			500.0	0.0	1.0							5.0	0.0	0.0	0.0	550.0	2.0	3.0	6.0	2.0	1.0	part_2
177	1.0	5.0			550.0	0.0	0.0							6.0	0.0	0.6106636552140117	6.0	550.0	2.0	7.0	2.0	5.0	0.0	part_2
178	1.0	5.0			550.0	0.0	0.0							6.0	0.0	0.4767429274506867	6.0	550.0	4.0	5.0	4.0	6.0	0.0	part_2
179	1.0	5.0			550.0	0.0	0.0							6.0	0.0	0.5101891830563545	6.0	550.0	3.0	6.0	3.0	4.0	0.0	part_2
180	1.0	6.0			550.0	0.0	0.0							5.0	0.0	0.4002872558776289	5.0	550.0	4.0	5.0	4.0	6.0	0.0	part_2
181	1.0	6.0			550.0	0.0	1.0							6.0	0.0	0.3685961186420173	6.0	550.0	3.0	1.0	7.0	8.0	0.0	part_2
182	1.0	6.0			550.0	0.0	0.0							6.0	0.0	0.4815698734018952	6.0	550.0	2.0	7.0	2.0	5.0	0.0	part_2
183	3.0	6.0			550.0	0.0	1.0							6.0	0.0	0.5499697143677622	6.0	550.0	3.0	1.0	7.0	8.0	1.0	part_2
184	1.0	6.0			550.0	0.0	0.0							6.0	0.0	0.4939300655387342	6.0	500.0	4.0	5.0	4.0	6.0	0.0	part_2
185	1.0	6.0			550.0	0.0	0.0							6.0	0.0	0.6410322543233633	6.0	500.0	2.0	7.0	2.0	5.0	0.0	part_2
186	3.0	6.0			550.0	0.0	1.0							6.0	0.0	0.4632943270262331	6.0	500.0	2.0	3.0	6.0	2.0	1.0	part_2
187	4.0	6.0			550.0	0.0	1.0							6.0	0.0	0.0	0.0	450.0	3.0	1.0	7.0	8.0	1.0	part_2
188	3.0	6.0			550.0	0.0	1.0							6.0	0.0	0.3849644274450839	6.0	500.0	3.0	1.0	7.0	8.0	1.0	part_2
189	1.0	6.0			550.0	0.0	0.0							6.0	0.0	0.7343397801741958	6.0	450.0	3.0	6.0	3.0	4.0	0.0	part_2
190	1.0	6.0			550.0	0.0	1.0							5.0	0.0	0.8263255413621664	5.0	450.0	2.0	3.0	6.0	2.0	0.0	part_2
191	1.0	6.0			550.0	0.0	0.0							6.0	0.0	0.29761613975279033	6.0	450.0	4.0	5.0	4.0	6.0	0.0	part_2
192	1.0	6.0			550.0	0.0	0.0							5.0	0.0	0.5921566539909691	5.0	450.0	1.0	4.0	1.0	3.0	0.0	part_2
193	1.0	6.0			550.0	0.0	0.0							6.0	0.0	0.40021747001446784	6.0	450.0	3.0	6.0	3.0	4.0	0.0	part_2
194	1.0	6.0			550.0	0.0	0.0							6.0	0.0	0.4805130008608103	6.0	450.0	1.0	4.0	1.0	3.0	0.0	part_2
195	4.0	6.0			550.0	0.0	1.0							6.0	0.0	0.0	0.0	450.0	4.0	2.0	8.0	7.0	1.0	part_2
196	1.0	6.0			550.0	0.0	0.0							6.0	0.0	0.6509035998024046	6.0	500.0	4.0	5.0	4.0	6.0	0.0	part_2
197	1.0	6.0			550.0	0.0	0.0							6.0	0.0	0.348789477488026	6.0	500.0	2.0	7.0	2.0	5.0	0.0	part_2
198	1.0	6.0			550.0	0.0	0.0							6.0	0.0	0.7772347654681653	6.0	500.0	1.0	4.0	1.0	3.0	0.0	part_2
199	1.0	6.0			550.0	0.0	0.0							6.0	0.0	0.4961656359955669	6.0	500.0	2.0	7.0	2.0	5.0	0.0	part_2
200	3.0	6.0			550.0	0.0	1.0							5.0	0.0	0.6203076499514282	5.0	500.0	2.0	3.0	6.0	2.0	1.0	part_2
201	1.0	6.0			500.0	0.0	0.0							5.0	0.0	0.6092506614513695	5.0	500.0	2.0	7.0	2.0	5.0	0.0	part_2
202	1.0	6.0			500.0	0.0	0.0							5.0	0.0	0.6773887102026492	5.0	500.0	4.0	5.0	4.0	6.0	0.0	part_2
203	1.0	6.0			500.0	0.0	0.0							6.0	0.0	0.6680321185849607	6.0	500.0	1.0	4.0	1.0	3.0	0.0	part_2
204	4.0	6.0			500.0	0.0	1.0							5.0	0.0	0.0	0.0	500.0	1.0	8.0	5.0	1.0	1.0	part_2
205	1.0	6.0			550.0	0.0	0.0							5.0	0.0	0.7137666358612478	5.0	500.0	4.0	5.0	4.0	6.0	0.0	part_2
206	1.0	6.0			550.0	0.0	1.0							5.0	0.0	0.8056099840905517	5.0	500.0	3.0	1.0	7.0	8.0	0.0	part_2
207	1.0	6.0			550.0	0.0	0.0							5.0	0.0	0.3564074439927936	5.0	500.0	2.0	7.0	2.0	5.0	0.0	part_2
208	1.0	6.0			550.0	0.0	0.0							5.0	0.0	0.37885824451223016	5.0	500.0	3.0	6.0	3.0	4.0	0.0	part_2
209	3.0	6.0			550.0	0.0	1.0							5.0	0.0	0.4466914811637253	5.0	500.0	2.0	3.0	6.0	2.0	1.0	part_2
210	3.0	6.0			500.0	0.0	1.0							6.0	0.0	0.35901603288948536	6.0	500.0	3.0	1.0	7.0	8.0	1.0	part_2
211	1.0	6.0			500.0	0.0	0.0							5.0	0.0	0.6187701909802854	5.0	450.0	4.0	5.0	4.0	6.0	0.0	part_2
212	4.0	6.0			500.0	0.0	1.0							5.0	0.0	0.0	0.0	450.0	4.0	2.0	8.0	7.0	1.0	part_2
213	1.0	6.0			550.0	0.0	0.0							6.0	0.0	0.7208492283243686	6.0	450.0	4.0	5.0	4.0	6.0	0.0	part_2
214	1.0	6.0			550.0	0.0	0.0							5.0	0.0	0.3505853943061084	5.0	450.0	4.0	5.0	4.0	6.0	0.0	part_2
215	1.0	6.0			550.0	0.0	0.0							5.0	0.0	0.3516399778891355	5.0	450.0	2.0	7.0	2.0	5.0	0.0	part_2
216	1.0	7.0			550.0	0.0	1.0							6.0	0.0	0.4406417321879417	6.0	450.0	1.0	8.0	5.0	1.0	0.0	part_2
217	1.0	7.0			550.0	0.0	0.0							5.0	0.0	0.5765409702435136	5.0	450.0	4.0	5.0	4.0	6.0	0.0	part_2
218	3.0	7.0			550.0	0.0	1.0							6.0	0.0	0.32067693513818085	6.0	450.0	3.0	1.0	7.0	8.0	1.0	part_2
219	3.0	7.0			550.0	0.0	1.0							6.0	0.0	0.3304599178954959	6.0	400.0	1.0	8.0	5.0	1.0	1.0	part_2
220	1.0	7.0			550.0	0.0	0.0							6.0	0.0	0.5685222104657441	6.0	350.0	2.0	7.0	2.0	5.0	0.0	part_2
221	1.0	7.0			550.0	0.0	0.0							5.0	0.0	0.5817233794368804	5.0	350.0	2.0	7.0	2.0	5.0	0.0	part_2
222	3.0	7.0			550.0	0.0	1.0							5.0	0.0	0.5477601340971887	5.0	350.0	2.0	3.0	6.0	2.0	1.0	part_2
223	3.0	7.0			500.0	0.0	1.0							6.0	0.0	0.492365149082616	6.0	350.0	1.0	8.0	5.0	1.0	1.0	part_2
224	1.0	7.0			500.0	0.0	0.0							6.0	0.0	0.4810983983334154	6.0	300.0	1.0	4.0	1.0	3.0	0.0	part_2
225	4.0	7.0			500.0	0.0	1.0							5.0	0.0	0.0	0.0	300.0	2.0	3.0	6.0	2.0	1.0	part_2
226	1.0	7.0			550.0	0.0	0.0							6.0	0.0	0.33661514217965305	6.0	300.0	1.0	4.0	1.0	3.0	0.0	part_2
227	3.0	7.0			550.0	0.0	1.0							5.0	0.0	0.6528992971871048	5.0	300.0	3.0	1.0	7.0	8.0	1.0	part_2
228	4.0	7.0			500.0	0.0	1.0							6.0	0.0	0.0	0.0	300.0	2.0	3.0	6.0	2.0	1.0	part_2
229	1.0	7.0			500.0	0.0	0.0							5.0	0.0	0.3060875786468387	5.0	350.0	3.0	6.0	3.0	4.0	0.0	part_2
230	1.0	7.0			500.0	0.0	1.0							6.0	0.0	0.7565988358110189	6.0	350.0	1.0	8.0	5.0	1.0	0.0	part_2
231	1.0	7.0			500.0	0.0	1.0							6.0	0.0	0.4662408034782857	6.0	350.0	1.0	8.0	5.0	1.0	0.0	part_2
232	1.0	7.0			500.0	0.0	0.0							6.0	0.0	0.3865020945668221	6.0	350.0	2.0	7.0	2.0	5.0	0.0	part_2
233	4.0	7.0			500.0	0.0	1.0							6.0	0.0	0.0	0.0	350.0	3.0	1.0	7.0	8.0	1.0	part_2
234	1.0	7.0			500.0	0.0	1.0							5.0	0.0	0.3892158593516797	5.0	400.0	2.0	3.0	6.0	2.0	0.0	part_2
235	1.0	7.0			500.0	0.0	0.0							5.0	0.0	0.8059846244286746	5.0	400.0	4.0	5.0	4.0	6.0	0.0	part_2
236	1.0	7.0			500.0	0.0	1.0							5.0	0.0	0.3333833385258913	5.0	400.0	3.0	1.0	7.0	8.0	0.0	part_2
237	3.0	7.0			500.0	0.0	1.0							5.0	0.0	0.3681790654081851	5.0	400.0	3.0	1.0	7.0	8.0	1.0	part_2
238	1.0	7.0			450.0	0.0	0.0							6.0	0.0	0.36933681718073785	6.0	400.0	3.0	6.0	3.0	4.0	0.0	part_2
239	4.0	7.0			450.0	0.0	1.0							5.0	0.0	0.0	0.0	400.0	3.0	1.0	7.0	8.0	1.0	part_2
240	1.0	7.0			500.0	0.0	0.0							6.0	0.0	0.505493086297065	6.0	400.0	3.0	6.0	3.0	4.0	0.0	part_2
241	4.0	7.0			500.0	0.0	1.0							6.0	0.0	0.0	0.0	400.0	1.0	8.0	5.0	1.0	1.0	part_2
242	3.0	7.0			500.0	0.0	1.0							5.0	0.0	0.32733155996538693	5.0	450.0	2.0	3.0	6.0	2.0	1.0	part_2
243	1.0	7.0			450.0	0.0	0.0							5.0	0.0	0.6328683164902031	5.0	450.0	3.0	6.0	3.0	4.0	0.0	part_2
244	3.0	7.0			450.0	0.0	1.0							6.0	0.0	0.30633781547658145	6.0	450.0	4.0	2.0	8.0	7.0	1.0	part_2
245	3.0	7.0			450.0	0.0	1.0							6.0	0.0	0.5669115574564785	6.0	400.0	3.0	1.0	7.0	8.0	1.0	part_2
246	4.0	7.0			450.0	0.0	1.0							6.0	0.0	0.0	0.0	350.0	4.0	2.0	8.0	7.0	1.0	part_2
247	1.0	7.0			450.0	0.0	0.0							5.0	0.0	0.5459286125842482	5.0	400.0	3.0	6.0	3.0	4.0	0.0	part_2
248	1.0	7.0			450.0	0.0	0.0							6.0	0.0	0.8611829723231494	6.0	400.0	3.0	6.0	3.0	4.0	0.0	part_2
249	4.0	7.0			450.0	0.0	1.0							5.0	0.0	0.0	0.0	400.0	3.0	1.0	7.0	8.0	1.0	part_2
250	1.0	7.0			500.0	0.0	1.0							6.0	0.0	0.34633743832819164	6.0	400.0	4.0	2.0	8.0	7.0	0.0	part_2
251	1.0	7.0			500.0	0.0	0.0							6.0	0.0	0.6276005173567683	6.0	400.0	1.0	4.0	1.0	3.0	0.0	part_2
252	3.0	8.0			500.0	0.0	1.0							6.0	0.0	0.3302510185167193	6.0	400.0	3.0	1.0	7.0	8.0	1.0	part_2
253	3.0	8.0			500.0	0.0	1.0							6.0	0.0	0.3655582510400564	6.0	350.0	4.0	2.0	8.0	7.0	1.0	part_2
254	3.0	8.0			500.0	0.0	1.0							5.0	0.0	0.2880327187012881	5.0	300.0	1.0	8.0	5.0	1.0	1.0	part_2
255	1.0	8.0			450.0	0.0	0.0							6.0	0.0	0.6591519224457443	6.0	300.0	1.0	4.0	1.0	3.0	0.0	part_2
256	4.0	8.0			450.0	0.0	1.0							6.0	0.0	0.0	0.0	300.0	2.0	3.0	6.0	2.0	1.0	part_2
257	3.0	8.0			450.0	0.0	1.0							5.0	0.0	0.5258385795168579	5.0	350.0	4.0	2.0	8.0	7.0	1.0	part_2
258	1.0	8.0			400.0	0.0	0.0							6.0	0.0	0.2678613536991179	6.0	350.0	2.0	7.0	2.0	5.0	0.0	part_2
259	1.0	8.0			400.0	0.0	0.0							6.0	0.0	0.68530852207914	6.0	350.0	2.0	7.0	2.0	5.0	0.0	part_2
260	3.0	8.0			400.0	0.0	1.0							5.0	0.0	0.34923317818902433	5.0	350.0	2.0	3.0	6.0	2.0	1.0	part_2
261	4.0	8.0			350.0	0.0	1.0							5.0	0.0	0.0	0.0	350.0	2.0	3.0	6.0	2.0	1.0	part_2
262	1.0	8.0			400.0	0.0	0.0							5.0	0.0	0.4521551264915615	5.0	350.0	1.0	4.0	1.0	3.0	0.0	part_2
263	1.0	8.0			400.0	0.0	0.0							5.0	0.0	0.5873424680903554	5.0	350.0	3.0	6.0	3.0	4.0	0.0	part_2
264	1.0	8.0			400.0	0.0	1.0							5.0	0.0	0.5994409893173724	5.0	350.0	3.0	1.0	7.0	8.0	0.0	part_2
265	1.0	8.0			400.0	0.0	0.0							6.0	0.0	0.3865751754492521	6.0	350.0	4.0	5.0	4.0	6.0	0.0	part_2
266	1.0	8.0			400.0	0.0	0.0							5.0	0.0	0.4104921363759786	5.0	350.0	1.0	4.0	1.0	3.0	0.0	part_2
267	3.0	8.0			400.0	0.0	1.0							5.0	0.0	0.33321061823517084	5.0	350.0	4.0	2.0	8.0	7.0	1.0	part_2
268	1.0	8.0			350.0	0.0	0.0							5.0	0.0	0.3781835786066949	5.0	350.0	2.0	7.0	2.0	5.0	0.0	part_2
269	1.0	8.0			350.0	0.0	0.0							6.0	0.0	0.32298368681222195	6.0	350.0	4.0	5.0	4.0	6.0	0.0	part_2
270	1.0	8.0			350.0	0.0	1.0							5.0	0.0	0.33369459491223097	5.0	350.0	2.0	3.0	6.0	2.0	0.0	part_2
271	1.0	8.0			350.0	0.0	0.0							6.0	0.0	0.3246131911873817	6.0	350.0	3.0	6.0	3.0	4.0	0.0	part_2
272	4.0	8.0			350.0	0.0	1.0							6.0	0.0	0.0	0.0	350.0	2.0	3.0	6.0	2.0	1.0	part_2
273	4.0	8.0			350.0	0.0	1.0							6.0	0.0	0.0	0.0	400.0	2.0	3.0	6.0	2.0	1.0	part_2
274	1.0	8.0			350.0	0.0	0.0							6.0	0.0	0.4727822230197489	6.0	450.0	2.0	7.0	2.0	5.0	0.0	part_2
275	1.0	8.0			350.0	0.0	0.0							6.0	0.0	0.5870101575274019	6.0	450.0	1.0	4.0	1.0	3.0	0.0	part_2
276	1.0	8.0			350.0	0.0	0.0							5.0	0.0	0.3498455574735999	5.0	450.0	1.0	4.0	1.0	3.0	0.0	part_2
277	4.0	8.0			350.0	0.0	1.0							5.0	0.0	0.0	0.0	450.0	1.0	8.0	5.0	1.0	1.0	part_2
278	1.0	8.0			400.0	0.0	0.0							6.0	0.0	0.4188262023963034	6.0	450.0	2.0	7.0	2.0	5.0	0.0	part_2
279	1.0	8.0			400.0	0.0	1.0							6.0	0.0	0.4211759916506708	6.0	450.0	2.0	3.0	6.0	2.0	0.0	part_2
280	1.0	8.0			400.0	0.0	0.0							6.0	0.0	0.467061503790319	6.0	450.0	4.0	5.0	4.0	6.0	0.0	part_2
281	3.0	8.0			400.0	0.0	1.0							5.0	0.0	0.3110927133820951	5.0	450.0	1.0	8.0	5.0	1.0	1.0	part_2
282	1.0	8.0			350.0	0.0	0.0							5.0	0.0	0.557509328937158	5.0	450.0	2.0	7.0	2.0	5.0	0.0	part_2
283	3.0	8.0			350.0	0.0	1.0							6.0	0.0	0.3105072386097163	6.0	450.0	3.0	1.0	7.0	8.0	1.0	part_2
284	1.0	8.0			350.0	0.0	0.0							5.0	0.0	0.35812752367928624	5.0	400.0	1.0	4.0	1.0	3.0	0.0	part_2
285	1.0	8.0			350.0	0.0	0.0							5.0	0.0	0.4266928841825575	5.0	400.0	4.0	5.0	4.0	6.0	0.0	part_2
286	4.0	8.0			350.0	0.0	1.0							5.0	0.0	0.0	0.0	400.0	1.0	8.0	5.0	1.0	1.0	part_2
287	1.0	8.0			400.0	0.0	1.0							5.0	0.0	0.3833430376835168	5.0	400.0	4.0	2.0	8.0	7.0	0.0	part_2
0	0.0	1.0	132.0	3.0	0.0	1.0	1.0	176.0	88.0	44.0	132.0	220.0	264.0	7.0	0.0	4.834685723064466	4.0	0.0	2.0	3.0	6.0	2.0	0.0	part_3
1	0.0	1.0	176.0	4.0	0.0	2.0	0.0	88.0	132.0	44.0	264.0	176.0	220.0	7.0	0.0	1.382143683033064	5.0	0.0	1.0	4.0	1.0	3.0	0.0	part_3
2	0.0	1.0	136.0	4.0	0.0	1.0	0.0	34.0	170.0	68.0	204.0	136.0	102.0	7.0	0.0	2.3394056679680943	5.0	0.0	3.0	6.0	3.0	4.0	0.0	part_3
3	0.0	1.0	147.0	3.0	0.0	1.0	0.0	294.0	49.0	98.0	196.0	245.0	147.0	7.0	0.0	2.4993380908854306	6.0	0.0	2.0	7.0	2.0	5.0	0.0	part_3
4	0.0	1.0	98.0	2.0	0.0	1.0	1.0	49.0	245.0	196.0	98.0	294.0	147.0	7.0	0.0	3.1873156339861453	4.0	0.0	3.0	1.0	7.0	8.0	0.0	part_3
5	0.0	1.0	108.0	2.0	0.0	1.0	0.0	162.0	108.0	324.0	216.0	54.0	270.0	7.0	0.0	1.7705555679276586	2.0	0.0	1.0	4.0	1.0	3.0	0.0	part_3
6	0.0	1.0	136.0	4.0	0.0	1.0	1.0	170.0	68.0	136.0	34.0	102.0	204.0	7.0	0.0	2.6043355148285627	3.0	0.0	1.0	8.0	5.0	1.0	0.0	part_3
7	0.0	1.0	176.0	4.0	0.0	1.0	0.0	220.0	264.0	176.0	44.0	132.0	88.0	7.0	0.0	1.3333347048610449	3.0	0.0	3.0	6.0	3.0	4.0	0.0	part_3
8	0.0	1.0	162.0	3.0	0.0	1.0	0.0	324.0	162.0	108.0	54.0	216.0	270.0	7.0	0.0	1.5925983481574804	2.0	0.0	4.0	5.0	4.0	6.0	0.0	part_3
9	0.0	1.0	147.0	3.0	0.0	1.0	1.0	49.0	147.0	245.0	98.0	294.0	196.0	7.0	0.0	1.3678758847527206	2.0	0.0	1.0	8.0	5.0	1.0	0.0	part_3
10	0.0	1.0	170.0	5.0	0.0	1.0	0.0	204.0	170.0	34.0	136.0	68.0	102.0	7.0	0.0	3.1812399169430137	2.0	0.0	4.0	5.0	4.0	6.0	0.0	part_3
11	0.0	1.0	216.0	4.0	0.0	1.0	0.0	270.0	54.0	162.0	108.0	324.0	216.0	7.0	0.0	2.607990249991417	6.0	0.0	3.0	6.0	3.0	4.0	0.0	part_3
12	0.0	1.0	176.0	4.0	0.0	1.0	0.0	44.0	88.0	176.0	220.0	264.0	132.0	7.0	0.0	2.1930751588661224	3.0	0.0	3.0	6.0	3.0	4.0	0.0	part_3
13	0.0	1.0	170.0	5.0	0.0	1.0	1.0	34.0	204.0	136.0	170.0	68.0	102.0	7.0	0.0	1.6204612329602242	4.0	0.0	3.0	1.0	7.0	8.0	0.0	part_3
14	0.0	1.0	136.0	4.0	0.0	1.0	0.0	170.0	204.0	102.0	68.0	34.0	136.0	7.0	0.0	1.9366033459082248	6.0	0.0	2.0	7.0	2.0	5.0	0.0	part_3
15	0.0	1.0	117.0	3.0	0.0	1.0	1.0	156.0	39.0	117.0	234.0	195.0	78.0	7.0	0.0	2.7829205088783056	3.0	0.0	1.0	8.0	5.0	1.0	0.0	part_3
16	0.0	1.0	156.0	4.0	0.0	1.0	0.0	78.0	117.0	195.0	234.0	156.0	39.0	7.0	0.0	2.232049560872838	5.0	0.0	3.0	6.0	3.0	4.0	0.0	part_3
17	0.0	1.0	156.0	4.0	0.0	1.0	0.0	195.0	156.0	117.0	234.0	78.0	39.0	7.0	0.0	2.312536777928472	2.0	0.0	2.0	7.0	2.0	5.0	0.0	part_3
18	0.0	1.0	132.0	3.0	0.0	1.0	0.0	44.0	132.0	220.0	176.0	264.0	88.0	7.0	0.0	2.0083398579154164	2.0	0.0	1.0	4.0	1.0	3.0	0.0	part_3
19	0.0	1.0	117.0	3.0	0.0	1.0	1.0	39.0	78.0	234.0	195.0	117.0	156.0	7.0	0.0	2.055722356075421	5.0	0.0	2.0	3.0	6.0	2.0	0.0	part_3
20	0.0	2.0	170.0	5.0	0.0	1.0	0.0	204.0	68.0	102.0	34.0	170.0	136.0	7.0	0.0	0.8074005220551044	5.0	0.0	1.0	4.0	1.0	3.0	0.0	part_3
21	0.0	2.0	195.0	5.0	0.0	1.0	1.0	78.0	234.0	117.0	156.0	39.0	195.0	7.0	0.0	1.583791006822139	6.0	0.0	4.0	2.0	8.0	7.0	0.0	part_3
22	0.0	2.0	147.0	3.0	0.0	1.0	1.0	98.0	196.0	49.0	294.0	147.0	245.0	7.0	0.0	1.9781362588983031	5.0	0.0	4.0	2.0	8.0	7.0	0.0	part_3
23	0.0	2.0	195.0	5.0	0.0	1.0	0.0	78.0	156.0	195.0	117.0	234.0	39.0	7.0	0.0	1.7674519747961313	3.0	0.0	4.0	5.0	4.0	6.0	0.0	part_3
24	0.0	2.0	147.0	3.0	0.0	1.0	1.0	196.0	147.0	245.0	294.0	98.0	49.0	7.0	0.0	1.5310702149290591	2.0	0.0	2.0	3.0	6.0	2.0	0.0	part_3
25	0.0	2.0	132.0	3.0	0.0	1.0	1.0	88.0	220.0	264.0	176.0	44.0	132.0	7.0	0.0	1.7117649880237875	6.0	0.0	2.0	3.0	6.0	2.0	0.0	part_3
26	0.0	2.0	147.0	3.0	0.0	1.0	0.0	245.0	196.0	147.0	49.0	294.0	98.0	7.0	0.0	1.5326978648081422	3.0	0.0	3.0	6.0	3.0	4.0	0.0	part_3
27	0.0	2.0	136.0	4.0	0.0	1.0	0.0	68.0	204.0	170.0	136.0	102.0	34.0	7.0	0.0	0.8020776170305908	4.0	0.0	3.0	6.0	3.0	4.0	0.0	part_3
28	0.0	2.0	132.0	3.0	0.0	1.0	1.0	88.0	44.0	132.0	220.0	176.0	264.0	7.0	0.0	1.5355624870862812	3.0	0.0	3.0	1.0	7.0	8.0	0.0	part_3
29	0.0	2.0	102.0	3.0	0.0	1.0	0.0	136.0	204.0	68.0	34.0	102.0	170.0	7.0	0.0	1.6368364177178591	5.0	0.0	4.0	5.0	4.0	6.0	0.0	part_3
30	0.0	2.0	132.0	3.0	0.0	1.0	1.0	44.0	132.0	176.0	220.0	88.0	264.0	7.0	0.0	1.5387556010391563	2.0	0.0	4.0	2.0	8.0	7.0	0.0	part_3
31	0.0	2.0	132.0	3.0	0.0	1.0	1.0	132.0	264.0	176.0	44.0	220.0	88.0	7.0	0.0	2.0559746418148284	1.0	0.0	4.0	2.0	8.0	7.0	0.0	part_3
32	0.0	2.0	176.0	4.0	0.0	1.0	0.0	220.0	176.0	88.0	264.0	132.0	44.0	7.0	0.0	2.968507089884952	2.0	0.0	4.0	5.0	4.0	6.0	0.0	part_3
33	0.0	2.0	147.0	3.0	0.0	1.0	0.0	98.0	245.0	294.0	49.0	147.0	196.0	7.0	0.0	2.2051592930220068	5.0	0.0	3.0	6.0	3.0	4.0	0.0	part_3
34	0.0	2.0	294.0	6.0	0.0	1.0	0.0	98.0	245.0	294.0	196.0	49.0	147.0	7.0	0.0	3.354710226878524	3.0	0.0	1.0	4.0	1.0	3.0	0.0	part_3
35	0.0	2.0	162.0	3.0	0.0	1.0	1.0	54.0	162.0	324.0	270.0	108.0	216.0	7.0	0.0	2.4439725179690868	2.0	0.0	2.0	3.0	6.0	2.0	0.0	part_3
36	0.0	2.0	156.0	4.0	0.0	1.0	0.0	195.0	39.0	117.0	156.0	78.0	234.0	7.0	0.0	1.825049964012578	4.0	0.0	1.0	4.0	1.0	3.0	0.0	part_3
37	0.0	2.0	132.0	3.0	0.0	1.0	1.0	220.0	264.0	44.0	176.0	88.0	132.0	7.0	0.0	1.7813426409848034	6.0	0.0	1.0	8.0	5.0	1.0	0.0	part_3
38	0.0	2.0	156.0	4.0	0.0	1.0	1.0	156.0	78.0	234.0	195.0	39.0	117.0	7.0	0.0	2.1197156631387766	1.0	0.0	2.0	3.0	6.0	2.0	0.0	part_3
39	0.0	2.0	147.0	3.0	0.0	1.0	0.0	49.0	294.0	196.0	245.0	147.0	98.0	7.0	0.0	1.9525312969926745	5.0	0.0	2.0	7.0	2.0	5.0	0.0	part_3
40	0.0	3.0	216.0	4.0	0.0	1.0	1.0	324.0	216.0	54.0	270.0	108.0	162.0	7.0	0.0	2.9630555890034884	2.0	0.0	4.0	2.0	8.0	7.0	0.0	part_3
41	0.0	3.0	147.0	3.0	0.0	1.0	1.0	147.0	196.0	245.0	294.0	49.0	98.0	7.0	0.0	1.1741156100761143	1.0	0.0	3.0	1.0	7.0	8.0	0.0	part_3
42	0.0	3.0	156.0	4.0	0.0	1.0	1.0	195.0	156.0	78.0	234.0	117.0	39.0	7.0	0.0	1.6490482308436183	2.0	0.0	4.0	2.0	8.0	7.0	0.0	part_3
43	0.0	3.0	176.0	4.0	0.0	1.0	0.0	44.0	88.0	220.0	264.0	176.0	132.0	7.0	0.0	1.884596276097	5.0	0.0	2.0	7.0	2.0	5.0	0.0	part_3
44	0.0	3.0	147.0	3.0	0.0	1.0	1.0	294.0	245.0	147.0	196.0	49.0	98.0	7.0	0.0	2.4820628699380904	3.0	0.0	2.0	3.0	6.0	2.0	0.0	part_3
45	0.0	3.0	132.0	3.0	0.0	1.0	1.0	220.0	44.0	88.0	132.0	264.0	176.0	7.0	0.0	2.3723276639357205	4.0	0.0	1.0	8.0	5.0	1.0	0.0	part_3
46	0.0	3.0	102.0	3.0	0.0	1.0	1.0	170.0	34.0	204.0	68.0	102.0	136.0	7.0	0.0	1.2814154149964452	5.0	0.0	3.0	1.0	7.0	8.0	0.0	part_3
47	0.0	3.0	136.0	4.0	0.0	1.0	1.0	136.0	34.0	170.0	68.0	204.0	102.0	7.0	0.0	1.407253328943625	1.0	0.0	1.0	8.0	5.0	1.0	0.0	part_3
48	0.0	3.0	102.0	3.0	0.0	1.0	1.0	204.0	102.0	170.0	136.0	34.0	68.0	7.0	0.0	1.3627813409548253	2.0	0.0	2.0	3.0	6.0	2.0	0.0	part_3
49	0.0	3.0	98.0	2.0	0.0	1.0	0.0	196.0	147.0	98.0	49.0	294.0	245.0	7.0	0.0	2.1278533460572358	3.0	0.0	1.0	4.0	1.0	3.0	0.0	part_3
50	0.0	3.0	162.0	3.0	0.0	1.0	0.0	216.0	162.0	54.0	324.0	270.0	108.0	7.0	0.0	1.3653557400684804	2.0	0.0	1.0	4.0	1.0	3.0	0.0	part_3
51	0.0	3.0	195.0	5.0	0.0	1.0	0.0	78.0	39.0	156.0	234.0	117.0	195.0	7.0	0.0	2.3997252210974693	6.0	0.0	3.0	6.0	3.0	4.0	0.0	part_3
52	0.0	3.0	117.0	3.0	0.0	1.0	0.0	156.0	117.0	195.0	39.0	234.0	78.0	7.0	0.0	0.8484331120271236	2.0	0.0	1.0	4.0	1.0	3.0	0.0	part_3
53	0.0	3.0	162.0	3.0	0.0	1.0	1.0	54.0	162.0	216.0	324.0	108.0	270.0	7.0	0.0	1.3575958290603012	2.0	0.0	3.0	1.0	7.0	8.0	0.0	part_3
54	0.0	3.0	195.0	5.0	0.0	1.0	0.0	39.0	156.0	195.0	234.0	78.0	117.0	7.0	0.0	2.1456397627480333	3.0	0.0	4.0	5.0	4.0	6.0	0.0	part_3
55	0.0	3.0	170.0	5.0	0.0	1.0	1.0	170.0	102.0	204.0	136.0	68.0	34.0	7.0	0.0	1.7971561669837683	1.0	0.0	4.0	2.0	8.0	7.0	0.0	part_3
56	0.0	3.0	216.0	4.0	0.0	1.0	0.0	270.0	216.0	54.0	324.0	162.0	108.0	7.0	0.0	3.293809653026983	2.0	0.0	2.0	7.0	2.0	5.0	0.0	part_3
57	0.0	3.0	156.0	4.0	0.0	1.0	1.0	39.0	78.0	234.0	195.0	117.0	156.0	7.0	0.0	1.24911720585078	6.0	0.0	3.0	1.0	7.0	8.0	0.0	part_3
58	0.0	3.0	220.0	5.0	0.0	1.0	0.0	44.0	264.0	88.0	176.0	220.0	132.0	7.0	0.0	1.5751668401062489	5.0	0.0	4.0	5.0	4.0	6.0	0.0	part_3
59	0.0	3.0	162.0	3.0	0.0	1.0	1.0	54.0	162.0	216.0	108.0	270.0	324.0	7.0	0.0	1.3510739579796789	2.0	0.0	4.0	2.0	8.0	7.0	0.0	part_3
60	0.0	4.0	162.0	3.0	0.0	1.0	0.0	54.0	162.0	270.0	216.0	324.0	108.0	7.0	0.0	1.3872965509071946	2.0	0.0	2.0	7.0	2.0	5.0	0.0	part_3
61	0.0	4.0	132.0	3.0	0.0	1.0	1.0	88.0	264.0	176.0	44.0	220.0	132.0	7.0	0.0	1.207904244074598	6.0	0.0	3.0	1.0	7.0	8.0	0.0	part_3
62	0.0	4.0	117.0	3.0	0.0	1.0	1.0	117.0	195.0	39.0	156.0	234.0	78.0	7.0	0.0	0.8715634718537331	1.0	0.0	3.0	1.0	7.0	8.0	0.0	part_3
63	0.0	4.0	196.0	4.0	0.0	1.0	0.0	294.0	98.0	196.0	147.0	49.0	245.0	7.0	0.0	1.3782692539971322	3.0	0.0	4.0	5.0	4.0	6.0	0.0	part_3
64	0.0	4.0	245.0	5.0	0.0	1.0	0.0	49.0	245.0	147.0	196.0	98.0	294.0	7.0	0.0	1.2671958319842815	2.0	0.0	4.0	5.0	4.0	6.0	0.0	part_3
65	0.0	4.0	156.0	4.0	0.0	1.0	1.0	156.0	117.0	78.0	234.0	195.0	39.0	7.0	0.0	1.943266581045464	1.0	0.0	1.0	8.0	5.0	1.0	0.0	part_3
66	0.0	4.0	132.0	3.0	0.0	1.0	0.0	176.0	264.0	88.0	44.0	220.0	132.0	7.0	0.0	1.4031405870337041	6.0	0.0	2.0	7.0	2.0	5.0	0.0	part_3
67	0.0	4.0	136.0	4.0	0.0	1.0	0.0	68.0	34.0	204.0	170.0	102.0	136.0	7.0	0.0	1.743561872979626	6.0	0.0	2.0	7.0	2.0	5.0	0.0	part_3
68	0.0	4.0	102.0	3.0	0.0	1.0	0.0	102.0	204.0	136.0	34.0	170.0	68.0	7.0	0.0	1.5304263290017843	1.0	0.0	1.0	4.0	1.0	3.0	0.0	part_3
69	0.0	4.0	162.0	3.0	0.0	1.0	1.0	108.0	162.0	270.0	216.0	54.0	324.0	7.0	0.0	1.1491431349422785	2.0	0.0	3.0	1.0	7.0	8.0	0.0	part_3
70	0.0	4.0	196.0	4.0	0.0	1.0	1.0	49.0	196.0	294.0	245.0	98.0	147.0	7.0	0.0	1.689632561057806	2.0	0.0	4.0	2.0	8.0	7.0	0.0	part_3
71	0.0	4.0	170.0	5.0	0.0	1.0	1.0	102.0	68.0	204.0	34.0	170.0	136.0	7.0	0.0	3.0756883649155498	5.0	0.0	4.0	2.0	8.0	7.0	0.0	part_3
72	0.0	4.0	147.0	3.0	0.0	1.0	1.0	294.0	49.0	98.0	196.0	147.0	245.0	7.0	0.0	1.60187089885585	5.0	0.0	1.0	8.0	5.0	1.0	0.0	part_3
73	0.0	4.0	216.0	4.0	0.0	1.0	0.0	270.0	54.0	324.0	162.0	216.0	108.0	7.0	0.0	1.6020493758842351	5.0	0.0	4.0	5.0	4.0	6.0	0.0	part_3
74	0.0	4.0	162.0	3.0	0.0	1.0	0.0	108.0	324.0	54.0	216.0	162.0	270.0	7.0	0.0	3.0551423809956764	5.0	0.0	3.0	6.0	3.0	4.0	0.0	part_3
75	0.0	4.0	216.0	4.0	0.0	1.0	1.0	162.0	270.0	54.0	216.0	324.0	108.0	7.0	0.0	2.1108181749004866	4.0	0.0	2.0	3.0	6.0	2.0	0.0	part_3
76	0.0	4.0	204.0	6.0	0.0	1.0	1.0	102.0	204.0	136.0	170.0	68.0	34.0	7.0	0.0	1.94341011508368	2.0	0.0	2.0	3.0	6.0	2.0	0.0	part_3
77	0.0	4.0	216.0	4.0	0.0	1.0	1.0	216.0	162.0	324.0	108.0	54.0	270.0	7.0	0.0	1.8100888379849491	1.0	0.0	1.0	8.0	5.0	1.0	0.0	part_3
78	0.0	4.0	156.0	4.0	0.0	1.0	0.0	156.0	78.0	39.0	117.0	234.0	195.0	7.0	0.0	1.0906493249349296	1.0	0.0	2.0	7.0	2.0	5.0	0.0	part_3
79	0.0	4.0	162.0	3.0	0.0	1.0	1.0	54.0	270.0	162.0	108.0	324.0	216.0	7.0	0.0	2.027183727826923	3.0	0.0	1.0	8.0	5.0	1.0	0.0	part_3
