	accuracy	block	chosen_bidding_amount	chosen_bidding_level	left_SSD	num_trial_presentations	paired_with_stopping	possible_bid_1	possible_bid_2	possible_bid_3	possible_bid_4	possible_bid_5	possible_bid_6	quadrant	raw_reward_magnitude	reaction_time	response	right_SSD	stepwise_reward_magnitude	stim_color	stim_reward	stim_shape	stop_signal_trial_type	which_part
0		1.0				1.0	1.0							2.0	0.0	0.4647564275655896	2.0		0.0	2.0	7.0	6.0		part_1
1		1.0				1.0	0.0							2.0	385.0	0.5099215552327223	2.0		4.0	5.0	4.0	4.0		part_1
2		1.0				1.0	0.0							2.0	113.0	0.4310751490993425	2.0		2.0	3.0	2.0	5.0		part_1
3		1.0				1.0	0.0							3.0	391.0	0.3864021390909329	3.0		4.0	5.0	4.0	4.0		part_1
4		1.0				1.0	1.0							3.0	214.0	0.3762001351569779	3.0		3.0	2.0	7.0	6.0		part_1
5		1.0				1.0	0.0							3.0	0.0	0.4888690077350475	3.0		0.0	8.0	1.0	7.0		part_1
6		1.0				1.0	1.0							1.0	412.0	0.3764467562432401	1.0		4.0	6.0	8.0	3.0		part_1
7		1.0				1.0	0.0							3.0	0.0	0.35502114257542416	3.0		0.0	4.0	3.0	1.0		part_1
8		1.0				1.0	0.0							2.0	0.0	0.3451545967254788	2.0		0.0	4.0	3.0	1.0		part_1
9		1.0				1.0	0.0							2.0	61.0	0.4584268995677121	2.0		1.0	8.0	1.0	7.0		part_1
10		1.0				1.0	0.0							4.0	121.0	0.35664647520752624	4.0		2.0	3.0	2.0	5.0		part_1
11		1.0				1.0	0.0							3.0	186.0	0.44668062636628747	3.0		3.0	4.0	3.0	1.0		part_1
12		1.0				1.0	1.0							1.0	113.0	0.3349947242531925	1.0		2.0	7.0	6.0	8.0		part_1
13		1.0				1.0	0.0							1.0	98.0	0.4500605092616752	1.0		2.0	3.0	2.0	5.0		part_1
14		1.0				1.0	0.0							4.0	179.0	0.3486310081207193	4.0		3.0	4.0	3.0	1.0		part_1
15		1.0				1.0	1.0							3.0	60.0	0.3025329860392958	3.0		1.0	1.0	5.0	2.0		part_1
16		1.0				1.0	1.0							1.0	66.0	0.3260366718750447	1.0		1.0	1.0	5.0	2.0		part_1
17		1.0				1.0	0.0							4.0	0.0	0.3034192461054772	4.0		0.0	3.0	2.0	5.0		part_1
18		1.0				1.0	0.0							4.0	107.0	0.32757183379726484	4.0		2.0	3.0	2.0	5.0		part_1
19		1.0				1.0	0.0							1.0	177.0	0.3163368646637537	1.0		3.0	4.0	3.0	1.0		part_1
20		1.0				1.0	1.0							1.0	93.0	0.3860297673381865	1.0		2.0	7.0	6.0	8.0		part_1
21		1.0				1.0	1.0							3.0	377.0	0.3504283432266675	3.0		4.0	6.0	8.0	3.0		part_1
22		1.0				1.0	0.0							4.0	0.0	0.3534806995885447	4.0		0.0	8.0	1.0	7.0		part_1
23		1.0				1.0	1.0							1.0	30.0	0.31907604017760605	1.0		1.0	1.0	5.0	2.0		part_1
24		1.0				1.0	0.0							4.0	0.0	0.3754601628752425	4.0		0.0	4.0	3.0	1.0		part_1
25		1.0				1.0	1.0							1.0	86.0	0.33229014434618875	1.0		2.0	7.0	6.0	8.0		part_1
26		1.0				1.0	0.0							1.0	422.0	0.32034045108594	1.0		4.0	5.0	4.0	4.0		part_1
27		1.0				2.0	1.0							4.0	184.0	0.4466776492772624	4.0		3.0	2.0	7.0	6.0		part_1
28		1.0				1.0	0.0							4.0	214.0	0.52510093228193	4.0		3.0	4.0	3.0	1.0		part_1
29		1.0				1.0	1.0							2.0	411.0	0.5380854701506905	2.0		4.0	6.0	8.0	3.0		part_1
30		1.0				1.0	1.0							4.0	204.0	0.5155924877617508	4.0		3.0	2.0	7.0	6.0		part_1
31		1.0				1.0	1.0							4.0	70.0	0.4027078705839813	4.0		1.0	1.0	5.0	2.0		part_1
32		1.0				1.0	0.0							4.0	107.0	0.3694791762391105	4.0		2.0	3.0	2.0	5.0		part_1
33		1.0				1.0	1.0							3.0	43.0	0.3585018569137901	3.0		1.0	1.0	5.0	2.0		part_1
34		1.0				1.0	1.0							4.0	397.0	0.4269705535261892	4.0		4.0	6.0	8.0	3.0		part_1
35		1.0				1.0	1.0							3.0	125.0	0.3702768544317223	3.0		2.0	7.0	6.0	8.0		part_1
36		1.0				1.0	1.0							3.0	415.0	0.3143385087605566	3.0		4.0	6.0	8.0	3.0		part_1
37		1.0				1.0	0.0							4.0	415.0	0.3383895510341972	4.0		4.0	5.0	4.0	4.0		part_1
38		1.0				1.0	0.0							1.0	107.0	0.4399436801904813	1.0		2.0	3.0	2.0	5.0		part_1
39		1.0				1.0	1.0							1.0	92.0	0.3974423296749592	1.0		2.0	7.0	6.0	8.0		part_1
40		1.0				1.0	1.0							1.0	390.0	0.3305445911246352	1.0		4.0	6.0	8.0	3.0		part_1
41		1.0				1.0	0.0							4.0	125.0	0.40865323174512014	4.0		2.0	3.0	2.0	5.0		part_1
42		1.0				1.0	0.0							2.0	37.0	0.5103438652586192	2.0		1.0	8.0	1.0	7.0		part_1
43		1.0				1.0	0.0							4.0	116.0	0.3535154632409103	4.0		2.0	3.0	2.0	5.0		part_1
44		1.0				1.0	1.0							1.0	210.0	0.3874374447041191	1.0		3.0	2.0	7.0	6.0		part_1
45		1.0				1.0	0.0							3.0	0.0	0.39890775992535055	3.0		0.0	4.0	3.0	1.0		part_1
46		1.0				1.0	0.0							4.0	196.0	0.3763693490764126	4.0		3.0	4.0	3.0	1.0		part_1
47		1.0				1.0	1.0							1.0	0.0	0.34419515781337395	1.0		0.0	1.0	5.0	2.0		part_1
48		1.0				1.0	1.0							4.0	416.0	0.3674195333733224	4.0		4.0	6.0	8.0	3.0		part_1
49		1.0				1.0	1.0							2.0	407.0	0.30100936081726104	2.0		4.0	6.0	8.0	3.0		part_1
50		1.0				1.0	1.0							3.0	198.0	0.43601962365210056	3.0		3.0	2.0	7.0	6.0		part_1
51		1.0				1.0	0.0							2.0	0.0	0.3802829415653832	2.0		0.0	8.0	1.0	7.0		part_1
52		1.0				2.0	0.0							1.0	93.0	0.39208501018583775	1.0		2.0	3.0	2.0	5.0		part_1
53		1.0				1.0	0.0							3.0	402.0	0.3473874132614583	3.0		4.0	5.0	4.0	4.0		part_1
54		1.0				1.0	1.0							2.0	37.0	0.33851047162897885	2.0		1.0	1.0	5.0	2.0		part_1
55		1.0				1.0	1.0							2.0	118.0	0.4291559761622921	2.0		2.0	7.0	6.0	8.0		part_1
56		1.0				1.0	0.0							2.0	387.0	0.3381680108141154	2.0		4.0	5.0	4.0	4.0		part_1
57		1.0				1.0	0.0							4.0	60.0	0.3608837945503183	4.0		1.0	8.0	1.0	7.0		part_1
58		1.0				1.0	0.0							3.0	377.0	0.5303589680115692	3.0		4.0	5.0	4.0	4.0		part_1
59		1.0				1.0	1.0							4.0	85.0	0.4514351151301526	4.0		2.0	7.0	6.0	8.0		part_1
60		1.0				1.0	1.0							3.0	87.0	0.3619809572119266	3.0		2.0	7.0	6.0	8.0		part_1
61		1.0				1.0	1.0							4.0	0.0	0.3409438956878148	4.0		0.0	1.0	5.0	2.0		part_1
62		1.0				1.0	1.0							1.0	51.0	0.3983044849592261	1.0		1.0	1.0	5.0	2.0		part_1
63		1.0				2.0	0.0							1.0	83.0	0.4887296625529416	1.0		2.0	3.0	2.0	5.0		part_1
64		1.0				1.0	0.0							2.0	0.0	0.6580461546545848	2.0		0.0	3.0	2.0	5.0		part_1
65		1.0				1.0	0.0							1.0	111.0	0.6040460923686624	1.0		2.0	3.0	2.0	5.0		part_1
66		1.0				1.0	1.0							4.0	122.0	0.6143799702986144	4.0		2.0	7.0	6.0	8.0		part_1
67		1.0				1.0	0.0							2.0	177.0	0.3565213067340665	2.0		3.0	4.0	3.0	1.0		part_1
68		1.0				1.0	0.0							3.0	92.0	0.423805070691742	3.0		2.0	3.0	2.0	5.0		part_1
69		1.0				1.0	0.0							1.0	0.0	0.4038429370848462	1.0		0.0	5.0	4.0	4.0		part_1
70		1.0				1.0	1.0							2.0	92.0	0.5163607035647146	2.0		2.0	7.0	6.0	8.0		part_1
71		1.0				1.0	1.0							2.0	217.0	0.4598420387483202	2.0		3.0	2.0	7.0	6.0		part_1
72		1.0				1.0	1.0							4.0	82.0	0.5395179872866721	4.0		2.0	7.0	6.0	8.0		part_1
73		1.0				1.0	0.0							3.0	409.0	0.5506468043313362	3.0		4.0	5.0	4.0	4.0		part_1
74		1.0				1.0	0.0							1.0	66.0	0.4615390953258611	1.0		1.0	8.0	1.0	7.0		part_1
75		1.0				1.0	0.0							2.0	78.0	0.40489357232581824	2.0		2.0	3.0	2.0	5.0		part_1
76		1.0				1.0	0.0							3.0	394.0	0.42860899114748463	3.0		4.0	5.0	4.0	4.0		part_1
77		1.0				1.0	0.0							4.0	184.0	0.5082131560775451	4.0		3.0	4.0	3.0	1.0		part_1
78		1.0				1.0	1.0							4.0	116.0	0.44111650972627103	4.0		2.0	7.0	6.0	8.0		part_1
79		1.0				1.0	1.0							4.0	214.0	0.4309555596555583	4.0		3.0	2.0	7.0	6.0		part_1
80		1.0				1.0	1.0							4.0	421.0	0.3406778342323378	4.0		4.0	6.0	8.0	3.0		part_1
81		1.0				1.0	0.0							1.0	412.0	0.3761450815945864	1.0		4.0	5.0	4.0	4.0		part_1
82		1.0				1.0	1.0							1.0	186.0	0.3639520120341331	1.0		3.0	2.0	7.0	6.0		part_1
83		1.0				1.0	0.0							1.0	215.0	0.3665832789265551	1.0		3.0	4.0	3.0	1.0		part_1
84		1.0				1.0	0.0							3.0	85.0	0.4881439632736146	3.0		2.0	3.0	2.0	5.0		part_1
85		1.0				1.0	0.0							4.0	74.0	0.42241471854504203	4.0		1.0	8.0	1.0	7.0		part_1
86		1.0				1.0	0.0							4.0	99.0	0.4341474688262679	4.0		2.0	3.0	2.0	5.0		part_1
87		1.0				1.0	1.0							3.0	0.0	0.5245747592416592	3.0		0.0	7.0	6.0	8.0		part_1
88		1.0				1.0	1.0							3.0	0.0	0.3898504739627242	3.0		0.0	2.0	7.0	6.0		part_1
89		1.0				1.0	1.0							4.0	54.0	0.5382903978461401	4.0		1.0	1.0	5.0	2.0		part_1
90		1.0				1.0	0.0							3.0	54.0	0.5491798182483763	3.0		1.0	8.0	1.0	7.0		part_1
91		1.0				1.0	1.0							2.0	0.0	0.5275702297803946	2.0		0.0	7.0	6.0	8.0		part_1
92		1.0				1.0	1.0							1.0	213.0	0.34849990613292897	1.0		3.0	2.0	7.0	6.0		part_1
93		1.0				1.0	1.0							3.0	207.0	0.4044883592287079	3.0		3.0	2.0	7.0	6.0		part_1
94		1.0				1.0	1.0							2.0	35.0	0.3943544089561328	2.0		1.0	1.0	5.0	2.0		part_1
95		1.0				1.0	1.0							2.0	107.0	0.3485012702876702	2.0		2.0	7.0	6.0	8.0		part_1
96		1.0				1.0	1.0							4.0	196.0	0.6542452158755623	4.0		3.0	2.0	7.0	6.0		part_1
97		1.0				1.0	1.0							4.0	224.0	0.5630263636121526	4.0		3.0	2.0	7.0	6.0		part_1
98		1.0				1.0	0.0							2.0	0.0	0.6224926006980239	2.0		0.0	8.0	1.0	7.0		part_1
99		1.0				1.0	1.0							3.0	121.0	0.5997924396651797	3.0		2.0	7.0	6.0	8.0		part_1
100		2.0				1.0	1.0							1.0	93.0	0.4121367512852885	1.0		2.0	7.0	6.0	8.0		part_1
101		2.0				1.0	0.0							1.0	119.0	0.3793109093094245	1.0		2.0	3.0	2.0	5.0		part_1
102		2.0				1.0	1.0							3.0	0.0	0.3999846985680051	3.0		0.0	7.0	6.0	8.0		part_1
103		2.0				1.0	0.0							4.0	375.0	0.4013291136943735	4.0		4.0	5.0	4.0	4.0		part_1
104		2.0				1.0	1.0							4.0	420.0	0.379885800066404	4.0		4.0	6.0	8.0	3.0		part_1
105		2.0				1.0	1.0							2.0	40.0	0.3241320939268917	2.0		1.0	1.0	5.0	2.0		part_1
106		2.0				1.0	0.0							2.0	122.0	0.381065218243748	2.0		2.0	3.0	2.0	5.0		part_1
107		2.0				1.0	1.0							2.0	0.0	0.31388746009906754	2.0		0.0	7.0	6.0	8.0		part_1
108		2.0				1.0	0.0							1.0	0.0	0.3273488268023357	1.0		0.0	3.0	2.0	5.0		part_1
109		2.0				1.0	0.0							3.0	125.0	0.3600551227573305	3.0		2.0	3.0	2.0	5.0		part_1
110		2.0				1.0	0.0							3.0	93.0	0.4390471221413464	3.0		2.0	3.0	2.0	5.0		part_1
111		2.0				1.0	0.0							3.0	218.0	0.4393450971110724	3.0		3.0	4.0	3.0	1.0		part_1
112		2.0				1.0	0.0							1.0	54.0	0.37411711434833705	1.0		1.0	8.0	1.0	7.0		part_1
113		2.0				1.0	0.0							4.0	72.0	0.3513964317389764	4.0		1.0	8.0	1.0	7.0		part_1
114		2.0				1.0	0.0							3.0	56.0	0.3525103726424277	3.0		1.0	8.0	1.0	7.0		part_1
115		2.0				1.0	0.0							1.0	0.0	0.3969039643416181	1.0		0.0	3.0	2.0	5.0		part_1
116		2.0				1.0	1.0							3.0	0.0	0.35306154465069994	3.0		0.0	2.0	7.0	6.0		part_1
117		2.0				1.0	0.0							4.0	405.0	0.30847097700461745	4.0		4.0	5.0	4.0	4.0		part_1
118		2.0				1.0	1.0							4.0	382.0	0.3878189742099494	4.0		4.0	6.0	8.0	3.0		part_1
119		2.0				1.0	0.0							2.0	188.0	0.5675012085703202	2.0		3.0	4.0	3.0	1.0		part_1
120		2.0				1.0	1.0							3.0	199.0	0.6480742251733318	3.0		3.0	2.0	7.0	6.0		part_1
121		2.0				1.0	0.0							4.0	25.0	0.41248638718388975	4.0		1.0	8.0	1.0	7.0		part_1
122		2.0				1.0	1.0							3.0	192.0	0.37908962316578254	3.0		3.0	2.0	7.0	6.0		part_1
123		2.0				1.0	0.0							1.0	0.0	0.3225192836835049	1.0		0.0	5.0	4.0	4.0		part_1
124		2.0				1.0	1.0							2.0	188.0	0.357966011215467	2.0		3.0	2.0	7.0	6.0		part_1
125		2.0				1.0	1.0							3.0	0.0	0.3579221112304367	3.0		0.0	2.0	7.0	6.0		part_1
126		2.0				1.0	1.0							3.0	50.0	0.3806308017810807	3.0		1.0	1.0	5.0	2.0		part_1
127		2.0				1.0	0.0							2.0	414.0	0.38221277511911467	2.0		4.0	5.0	4.0	4.0		part_1
128		2.0				1.0	1.0							3.0	51.0	0.3810004875413142	3.0		1.0	1.0	5.0	2.0		part_1
129		2.0				1.0	1.0							1.0	71.0	0.3379118041484617	1.0		1.0	1.0	5.0	2.0		part_1
130		2.0				1.0	1.0							4.0	211.0	0.3379028637427837	4.0		3.0	2.0	7.0	6.0		part_1
131		2.0				1.0	1.0							4.0	176.0	0.3380431925761513	4.0		3.0	2.0	7.0	6.0		part_1
132		2.0				1.0	1.0							4.0	0.0	0.41744064306840295	4.0		0.0	1.0	5.0	2.0		part_1
133		2.0				1.0	1.0							1.0	177.0	0.4308219342492521	1.0		3.0	2.0	7.0	6.0		part_1
134		2.0				1.0	1.0							2.0	422.0	0.3297639917582273	2.0		4.0	6.0	8.0	3.0		part_1
135		2.0				1.0	1.0							4.0	0.0	0.4528890592046082	4.0		0.0	2.0	7.0	6.0		part_1
136		2.0				1.0	1.0							1.0	0.0	0.2958544851280749	1.0		0.0	1.0	5.0	2.0		part_1
137		2.0				1.0	1.0							3.0	394.0	0.4307729627471417	3.0		4.0	6.0	8.0	3.0		part_1
138		2.0				1.0	0.0							3.0	180.0	0.4668520507984794	3.0		3.0	4.0	3.0	1.0		part_1
139		2.0				1.0	0.0							3.0	415.0	0.308659692236688	3.0		4.0	5.0	4.0	4.0		part_1
140		2.0				1.0	1.0							3.0	119.0	0.3883712470997125	3.0		2.0	7.0	6.0	8.0		part_1
141		2.0				1.0	1.0							2.0	0.0	0.4110708427615464	2.0		0.0	2.0	7.0	6.0		part_1
142		2.0				1.0	1.0							1.0	25.0	0.3108603686559945	1.0		1.0	1.0	5.0	2.0		part_1
143		2.0				1.0	1.0							4.0	218.0	0.44538552331505343	4.0		3.0	2.0	7.0	6.0		part_1
144		2.0				1.0	0.0							3.0	214.0	0.36917865386931226	3.0		3.0	4.0	3.0	1.0		part_1
145		2.0				1.0	0.0							3.0	208.0	0.33441608457360417	3.0		3.0	4.0	3.0	1.0		part_1
146		2.0				1.0	1.0							2.0	113.0	0.3803455905872397	2.0		2.0	7.0	6.0	8.0		part_1
147		2.0				1.0	1.0							2.0	179.0	0.5171034591039643	2.0		3.0	2.0	7.0	6.0		part_1
148		2.0				1.0	1.0							4.0	98.0	0.6966302406508476	4.0		2.0	7.0	6.0	8.0		part_1
149		2.0				1.0	0.0							4.0	197.0	0.5501443336834201	4.0		3.0	4.0	3.0	1.0		part_1
150		2.0				1.0	0.0							1.0	107.0	0.3380694628576748	1.0		2.0	3.0	2.0	5.0		part_1
151		2.0				1.0	0.0							3.0	396.0	0.32638419995782897	3.0		4.0	5.0	4.0	4.0		part_1
152		2.0				1.0	0.0							1.0	57.0	0.3386695456574671	1.0		1.0	8.0	1.0	7.0		part_1
153		2.0				1.0	0.0							4.0	384.0	0.4631431852467358	4.0		4.0	5.0	4.0	4.0		part_1
154		2.0				1.0	0.0							1.0	220.0	0.34010883065639064	1.0		3.0	4.0	3.0	1.0		part_1
155		2.0				1.0	1.0							1.0	380.0	0.3399870232096873	1.0		4.0	6.0	8.0	3.0		part_1
156		2.0				1.0	0.0							2.0	0.0	0.5224372508237138	2.0		0.0	8.0	1.0	7.0		part_1
157		2.0				1.0	1.0							3.0	418.0	0.4205655700643547	3.0		4.0	6.0	8.0	3.0		part_1
158		2.0				1.0	0.0							3.0	213.0	0.44270829984452575	3.0		3.0	4.0	3.0	1.0		part_1
159		2.0				1.0	1.0							2.0	413.0	0.3309840699075721	2.0		4.0	6.0	8.0	3.0		part_1
160		2.0				1.0	1.0							1.0	0.0	0.33206931297900155	1.0		0.0	6.0	8.0	3.0		part_1
161		2.0				1.0	0.0							2.0	207.0	0.5027010491467081	2.0		3.0	4.0	3.0	1.0		part_1
162		2.0				1.0	1.0							4.0	0.0	0.4008213712368161	4.0		0.0	1.0	5.0	2.0		part_1
163		2.0				1.0	1.0							4.0	415.0	0.4012873603496701	4.0		4.0	6.0	8.0	3.0		part_1
164		2.0				1.0	0.0							3.0	102.0	0.4240620778291486	3.0		2.0	3.0	2.0	5.0		part_1
165		2.0				1.0	0.0							2.0	200.0	0.4485168785904534	2.0		3.0	4.0	3.0	1.0		part_1
166		2.0				1.0	1.0							2.0	381.0	0.3231980378041044	2.0		4.0	6.0	8.0	3.0		part_1
167		2.0				1.0	0.0							2.0	111.0	0.3254107861430384	2.0		2.0	3.0	2.0	5.0		part_1
168		2.0				1.0	1.0							3.0	189.0	0.3916596875642426	3.0		3.0	2.0	7.0	6.0		part_1
169		2.0				1.0	1.0							2.0	35.0	0.3493351298966445	2.0		1.0	1.0	5.0	2.0		part_1
170		2.0				1.0	1.0							2.0	186.0	0.39527313224971294	2.0		3.0	2.0	7.0	6.0		part_1
171		2.0				1.0	1.0							2.0	410.0	0.3726911713019945	2.0		4.0	6.0	8.0	3.0		part_1
172		2.0				1.0	1.0							4.0	0.0	0.5062575016636401	4.0		0.0	6.0	8.0	3.0		part_1
173		2.0				1.0	1.0							1.0	204.0	0.32821934076491743	1.0		3.0	2.0	7.0	6.0		part_1
174		2.0				1.0	1.0							3.0	378.0	0.3507368862628937	3.0		4.0	6.0	8.0	3.0		part_1
175		2.0				1.0	0.0							4.0	35.0	0.5650904578506015	4.0		1.0	8.0	1.0	7.0		part_1
176		2.0				1.0	0.0							1.0	416.0	0.3759063472389244	1.0		4.0	5.0	4.0	4.0		part_1
177		2.0				1.0	0.0							2.0	25.0	0.3647863056394272	2.0		1.0	8.0	1.0	7.0		part_1
178		2.0				2.0	1.0							2.0	62.0	0.37659573880955577	2.0		1.0	1.0	5.0	2.0		part_1
179		2.0				1.0	0.0							1.0	184.0	0.4217320136376657	1.0		3.0	4.0	3.0	1.0		part_1
180		2.0				1.0	0.0							1.0	0.0	0.6033673917991109	1.0		0.0	4.0	3.0	1.0		part_1
181		2.0				1.0	1.0							1.0	194.0	0.344826853252016	1.0		3.0	2.0	7.0	6.0		part_1
182		2.0				1.0	1.0							3.0	119.0	0.3892269500647672	3.0		2.0	7.0	6.0	8.0		part_1
183		2.0				1.0	0.0							3.0	199.0	0.3781752738286741	3.0		3.0	4.0	3.0	1.0		part_1
184		2.0				2.0	0.0							4.0	118.0	0.44799150817561895	4.0		2.0	3.0	2.0	5.0		part_1
185		2.0				1.0	0.0							4.0	411.0	0.4144712096313015	4.0		4.0	5.0	4.0	4.0		part_1
186		2.0				1.0	0.0							3.0	60.0	0.6619604043662548	3.0		1.0	8.0	1.0	7.0		part_1
187		2.0				1.0	0.0							1.0	36.0	0.5839756751083769	1.0		1.0	8.0	1.0	7.0		part_1
188		2.0				1.0	1.0							4.0	177.0	0.6062328512198292	4.0		3.0	2.0	7.0	6.0		part_1
189		2.0				1.0	1.0							3.0	0.0	0.4049533421639353	3.0		0.0	6.0	8.0	3.0		part_1
190		2.0				1.0	1.0							1.0	0.0	0.3939565522014163	1.0		0.0	7.0	6.0	8.0		part_1
191		2.0				1.0	1.0							2.0	399.0	0.4062868185574189	2.0		4.0	6.0	8.0	3.0		part_1
192		2.0				1.0	1.0							1.0	396.0	0.4860507157281973	1.0		4.0	6.0	8.0	3.0		part_1
193		2.0				1.0	1.0							3.0	47.0	0.5761411160929129	3.0		1.0	1.0	5.0	2.0		part_1
194		2.0				1.0	1.0							2.0	29.0	0.4418710892205127	2.0		1.0	1.0	5.0	2.0		part_1
195		2.0				1.0	0.0							2.0	410.0	0.4307922943262383	2.0		4.0	5.0	4.0	4.0		part_1
196		2.0				1.0	1.0							4.0	95.0	0.4986579161486589	4.0		2.0	7.0	6.0	8.0		part_1
197		2.0				1.0	0.0							4.0	0.0	0.4423652209807187	4.0		0.0	5.0	4.0	4.0		part_1
198		2.0				1.0	1.0							1.0	385.0	0.4000649417284876	1.0		4.0	6.0	8.0	3.0		part_1
199		2.0				1.0	1.0							1.0	405.0	0.4573055671062321	1.0		4.0	6.0	8.0	3.0		part_1
200		3.0				1.0	1.0							3.0	196.0	0.3815542520605959	3.0		3.0	2.0	7.0	6.0		part_1
201		3.0				1.0	0.0							1.0	0.0	0.32714811176992953	1.0		0.0	3.0	2.0	5.0		part_1
202		3.0				1.0	0.0							4.0	0.0	0.39494158310117206	4.0		0.0	4.0	3.0	1.0		part_1
203		3.0				1.0	0.0							4.0	204.0	0.3721936214715241	4.0		3.0	4.0	3.0	1.0		part_1
204		3.0				1.0	0.0							1.0	43.0	0.3858341738814488	1.0		1.0	8.0	1.0	7.0		part_1
205		3.0				1.0	0.0							4.0	0.0	0.3965921268681996	4.0		0.0	5.0	4.0	4.0		part_1
206		3.0				1.0	1.0							1.0	409.0	0.3086193926865235	1.0		4.0	6.0	8.0	3.0		part_1
207		3.0				1.0	1.0							4.0	66.0	0.408726557798218	4.0		1.0	1.0	5.0	2.0		part_1
208		3.0				1.0	1.0							1.0	209.0	0.3094601897173561	1.0		3.0	2.0	7.0	6.0		part_1
209		3.0				1.0	1.0							1.0	120.0	0.35402034374419605	1.0		2.0	7.0	6.0	8.0		part_1
210		3.0				1.0	0.0							4.0	194.0	0.3431137077277526	4.0		3.0	4.0	3.0	1.0		part_1
211		3.0				1.0	0.0							4.0	0.0	0.4108613981516101	4.0		0.0	8.0	1.0	7.0		part_1
212		3.0				1.0	1.0							2.0	57.0	0.3668027745443396	2.0		1.0	1.0	5.0	2.0		part_1
213		3.0				1.0	1.0							4.0	0.0	0.3892821106710471	4.0		0.0	6.0	8.0	3.0		part_1
214		3.0				1.0	0.0							4.0	182.0	0.4118556017638184	4.0		3.0	4.0	3.0	1.0		part_1
215		3.0				1.0	0.0							3.0	378.0	0.41224378859624267	3.0		4.0	5.0	4.0	4.0		part_1
216		3.0				1.0	0.0							1.0	217.0	0.3473585657193325	1.0		3.0	4.0	3.0	1.0		part_1
217		3.0				1.0	0.0							3.0	82.0	0.3353901952505112	3.0		2.0	3.0	2.0	5.0		part_1
218		3.0				1.0	1.0							2.0	33.0	0.4941193407285027	2.0		1.0	1.0	5.0	2.0		part_1
219		3.0				1.0	0.0							3.0	0.0	0.5962603608495556	3.0		0.0	4.0	3.0	1.0		part_1
220		3.0				1.0	1.0							3.0	402.0	0.4725709183840081	3.0		4.0	6.0	8.0	3.0		part_1
221		3.0				1.0	0.0							1.0	62.0	0.4951298496453092	1.0		1.0	8.0	1.0	7.0		part_1
222		3.0				1.0	1.0							1.0	208.0	0.3619939566124231	1.0		3.0	2.0	7.0	6.0		part_1
223		3.0				1.0	1.0							3.0	107.0	0.3500665337196551	3.0		2.0	7.0	6.0	8.0		part_1
224		3.0				1.0	1.0							1.0	0.0	0.41809494368499145	1.0		0.0	6.0	8.0	3.0		part_1
225		3.0				1.0	0.0							3.0	35.0	0.4418590520508587	3.0		1.0	8.0	1.0	7.0		part_1
226		3.0				1.0	1.0							4.0	0.0	0.5444351176265627	4.0		0.0	2.0	7.0	6.0		part_1
227		3.0				1.0	1.0							1.0	78.0	0.3869646051898599	1.0		2.0	7.0	6.0	8.0		part_1
228		3.0				1.0	1.0							2.0	86.0	0.34310496161924675	2.0		2.0	7.0	6.0	8.0		part_1
229		3.0				1.0	0.0							3.0	68.0	0.34265872690593824	3.0		1.0	8.0	1.0	7.0		part_1
230		3.0				1.0	0.0							1.0	380.0	0.2983359427889809	1.0		4.0	5.0	4.0	4.0		part_1
231		3.0				1.0	1.0							4.0	416.0	0.4449565602117218	4.0		4.0	6.0	8.0	3.0		part_1
232		3.0				1.0	0.0							2.0	0.0	0.35480302484938875	2.0		0.0	8.0	1.0	7.0		part_1
233		3.0				1.0	0.0							3.0	92.0	0.40111294982489204	3.0		2.0	3.0	2.0	5.0		part_1
234		3.0				2.0	1.0							4.0	26.0	0.5136149297468364	4.0		1.0	1.0	5.0	2.0		part_1
235		3.0				1.0	0.0							1.0	0.0	0.44830499682575453	1.0		0.0	3.0	2.0	5.0		part_1
236		3.0				1.0	1.0							1.0	57.0	0.4709632911253721	1.0		1.0	1.0	5.0	2.0		part_1
237		3.0				1.0	1.0							1.0	0.0	0.3584127195645124	1.0		0.0	6.0	8.0	3.0		part_1
238		3.0				1.0	0.0							3.0	210.0	0.5045270886039361	3.0		3.0	4.0	3.0	1.0		part_1
239		3.0				1.0	0.0							3.0	120.0	0.4597087740548886	3.0		2.0	3.0	2.0	5.0		part_1
240		3.0				1.0	1.0							4.0	0.0	0.5742625763523392	4.0		0.0	7.0	6.0	8.0		part_1
241		3.0				1.0	1.0							4.0	197.0	0.3949223698000424	4.0		3.0	2.0	7.0	6.0		part_1
242		3.0				1.0	1.0							1.0	62.0	0.3960317277233116	1.0		1.0	1.0	5.0	2.0		part_1
243		3.0				1.0	1.0							1.0	384.0	0.4175283716758713	1.0		4.0	6.0	8.0	3.0		part_1
244		3.0				1.0	0.0							2.0	71.0	0.4406692975317128	2.0		1.0	8.0	1.0	7.0		part_1
245		3.0				1.0	0.0							3.0	52.0	0.4301358652883209	3.0		1.0	8.0	1.0	7.0		part_1
246		3.0				1.0	1.0							2.0	82.0	0.35225648304913193	2.0		2.0	7.0	6.0	8.0		part_1
247		3.0				1.0	1.0							2.0	0.0	0.3757404272328131	2.0		0.0	6.0	8.0	3.0		part_1
248		3.0				1.0	1.0							3.0	72.0	0.6242288482026197	3.0		1.0	1.0	5.0	2.0		part_1
249		3.0				1.0	0.0							2.0	0.0	0.4094365643104538	2.0		0.0	4.0	3.0	1.0		part_1
250		3.0				1.0	0.0							3.0	0.0	0.3771626019151881	3.0		0.0	3.0	2.0	5.0		part_1
251		3.0				1.0	0.0							2.0	0.0	0.4579798625782132	2.0		0.0	5.0	4.0	4.0		part_1
252		3.0				1.0	1.0							1.0	215.0	0.3777796138310805	1.0		3.0	2.0	7.0	6.0		part_1
253		3.0				1.0	1.0							3.0	61.0	0.3670945373596624	3.0		1.0	1.0	5.0	2.0		part_1
254		3.0				1.0	1.0							2.0	0.0	0.3803559443331324	2.0		0.0	6.0	8.0	3.0		part_1
255		3.0				1.0	1.0							3.0	218.0	0.4460318991914392	3.0		3.0	2.0	7.0	6.0		part_1
256		3.0				1.0	0.0							4.0	420.0	0.5262790679116733	4.0		4.0	5.0	4.0	4.0		part_1
257		3.0				1.0	0.0							2.0	43.0	0.31300359673332423	2.0		1.0	8.0	1.0	7.0		part_1
258		3.0				1.0	1.0							2.0	43.0	0.3472904186928645	2.0		1.0	1.0	5.0	2.0		part_1
259		3.0				1.0	1.0							2.0	0.0	0.3368015306768939	2.0		0.0	1.0	5.0	2.0		part_1
260		3.0				1.0	0.0							4.0	29.0	0.41737663303501904	4.0		1.0	8.0	1.0	7.0		part_1
261		3.0				1.0	0.0							1.0	399.0	0.3153000882011838	1.0		4.0	5.0	4.0	4.0		part_1
262		3.0				1.0	0.0							3.0	209.0	0.4273200271418318	3.0		3.0	4.0	3.0	1.0		part_1
263		3.0				2.0	0.0							2.0	381.0	0.6657772452454083	2.0		4.0	5.0	4.0	4.0		part_1
264		3.0				1.0	1.0							3.0	414.0	0.7227735628257506	3.0		4.0	6.0	8.0	3.0		part_1
265		3.0				1.0	0.0							4.0	0.0	0.4644248060649261	4.0		0.0	5.0	4.0	4.0		part_1
266		3.0				1.0	0.0							3.0	57.0	0.43037824117345735	3.0		1.0	8.0	1.0	7.0		part_1
267		3.0				1.0	1.0							2.0	220.0	0.5679317566100508	2.0		3.0	2.0	7.0	6.0		part_1
268		3.0				1.0	1.0							3.0	89.0	0.4103435826837085	3.0		2.0	7.0	6.0	8.0		part_1
269		3.0				1.0	0.0							2.0	224.0	0.4665759347262792	2.0		3.0	4.0	3.0	1.0		part_1
270		3.0				1.0	0.0							3.0	0.0	0.4213085285737179	3.0		0.0	3.0	2.0	5.0		part_1
271		3.0				1.0	1.0							4.0	86.0	0.5119966035708785	4.0		2.0	7.0	6.0	8.0		part_1
272		3.0				1.0	1.0							4.0	33.0	0.3894544147187844	4.0		1.0	1.0	5.0	2.0		part_1
273		3.0				1.0	0.0							2.0	0.0	0.3339217421016656	2.0		0.0	8.0	1.0	7.0		part_1
274		3.0				1.0	1.0							2.0	398.0	0.7053882365580648	2.0		4.0	6.0	8.0	3.0		part_1
275		3.0				1.0	1.0							4.0	68.0	0.5050486997351982	4.0		1.0	1.0	5.0	2.0		part_1
276		3.0				1.0	1.0							1.0	99.0	0.44790449884021655	1.0		2.0	7.0	6.0	8.0		part_1
277		3.0				1.0	0.0							1.0	382.0	0.3588990441057831	1.0		4.0	5.0	4.0	4.0		part_1
278		3.0				1.0	0.0							2.0	57.0	0.35909307072870433	2.0		1.0	8.0	1.0	7.0		part_1
279		3.0				1.0	0.0							3.0	0.0	0.42708524770569056	3.0		0.0	3.0	2.0	5.0		part_1
280		3.0				1.0	1.0							4.0	62.0	0.4060708926408552	4.0		1.0	1.0	5.0	2.0		part_1
281		3.0				1.0	0.0							1.0	33.0	0.3391080900328234	1.0		1.0	8.0	1.0	7.0		part_1
282		3.0				1.0	0.0							3.0	0.0	0.5755169751355425	3.0		0.0	4.0	3.0	1.0		part_1
283		3.0				1.0	0.0							4.0	0.0	0.4640112195629626	4.0		0.0	3.0	2.0	5.0		part_1
284		3.0				1.0	0.0							2.0	188.0	0.3845678172074258	2.0		3.0	4.0	3.0	1.0		part_1
285		3.0				1.0	0.0							3.0	119.0	0.3511580250924453	3.0		2.0	3.0	2.0	5.0		part_1
286		3.0				1.0	1.0							4.0	0.0	0.4095594807295129	4.0		0.0	1.0	5.0	2.0		part_1
287		3.0				1.0	0.0							4.0	30.0	0.4541464876383543	4.0		1.0	8.0	1.0	7.0		part_1
288		3.0				1.0	1.0							3.0	0.0	0.397769900271669	3.0		0.0	7.0	6.0	8.0		part_1
289		3.0				1.0	0.0							2.0	26.0	0.3426581251551397	2.0		1.0	8.0	1.0	7.0		part_1
290		3.0				1.0	1.0							1.0	79.0	0.37868251162581146	1.0		2.0	7.0	6.0	8.0		part_1
291		3.0				2.0	0.0							2.0	413.0	0.6813401726540178	2.0		4.0	5.0	4.0	4.0		part_1
292		3.0				1.0	0.0							1.0	216.0	0.5029013141756877	1.0		3.0	4.0	3.0	1.0		part_1
293		3.0				1.0	0.0							2.0	99.0	0.5821501366444863	2.0		2.0	3.0	2.0	5.0		part_1
294		3.0				1.0	0.0							2.0	192.0	0.6165503251831979	2.0		3.0	4.0	3.0	1.0		part_1
295		3.0				1.0	0.0							3.0	51.0	0.7292464018100873	3.0		1.0	8.0	1.0	7.0		part_1
296		3.0				1.0	1.0							4.0	0.0	0.6393089246121235	4.0		0.0	7.0	6.0	8.0		part_1
297		3.0				1.0	0.0							3.0	69.0	0.5392297333455645	3.0		1.0	8.0	1.0	7.0		part_1
298		3.0				1.0	1.0							4.0	99.0	0.5630112302605994	4.0		2.0	7.0	6.0	8.0		part_1
299		3.0				1.0	1.0							3.0	393.0	0.4160362337715924	3.0		4.0	6.0	8.0	3.0		part_1
300		4.0				1.0	1.0							2.0	107.0	0.4981426751473919	2.0		2.0	7.0	6.0	8.0		part_1
301		4.0				2.0	0.0							4.0	50.0	0.464703774661757	4.0		1.0	8.0	1.0	7.0		part_1
302		4.0				1.0	0.0							1.0	386.0	0.5452914378256537	1.0		4.0	5.0	4.0	4.0		part_1
303		4.0				1.0	1.0							3.0	56.0	0.365406941564288	3.0		1.0	1.0	5.0	2.0		part_1
304		4.0				1.0	1.0							3.0	57.0	0.3884271656279452	3.0		1.0	1.0	5.0	2.0		part_1
305		4.0				1.0	0.0							1.0	95.0	0.32306301436619833	1.0		2.0	3.0	2.0	5.0		part_1
306		4.0				1.0	1.0							4.0	54.0	0.4573400921653956	4.0		1.0	1.0	5.0	2.0		part_1
307		4.0				1.0	0.0							3.0	0.0	0.3340717081446201	3.0		0.0	4.0	3.0	1.0		part_1
308		4.0				1.0	1.0							1.0	188.0	0.4802327581564896	1.0		3.0	2.0	7.0	6.0		part_1
309		4.0				1.0	1.0							4.0	0.0	0.3464088583714329	4.0		0.0	7.0	6.0	8.0		part_1
310		4.0				1.0	0.0							3.0	0.0	0.3459838227136061	3.0		0.0	5.0	4.0	4.0		part_1
311		4.0				1.0	0.0							1.0	86.0	0.44945122010540217	1.0		2.0	3.0	2.0	5.0		part_1
312		4.0				1.0	1.0							4.0	26.0	0.3137795825605281	4.0		1.0	1.0	5.0	2.0		part_1
313		4.0				1.0	0.0							4.0	26.0	0.3934462998295203	4.0		1.0	8.0	1.0	7.0		part_1
314		4.0				1.0	1.0							4.0	0.0	0.3952276158961467	4.0		0.0	6.0	8.0	3.0		part_1
315		4.0				1.0	1.0							3.0	111.0	0.3396232480881736	3.0		2.0	7.0	6.0	8.0		part_1
316		4.0				1.0	1.0							3.0	411.0	0.3161592280957848	3.0		4.0	6.0	8.0	3.0		part_1
317		4.0				1.0	1.0							2.0	200.0	0.3615967327496037	2.0		3.0	2.0	7.0	6.0		part_1
318		4.0				1.0	0.0							2.0	0.0	0.3186405460583046	2.0		0.0	5.0	4.0	4.0		part_1
319		4.0				1.0	0.0							2.0	215.0	0.4090494817937724	2.0		3.0	4.0	3.0	1.0		part_1
320		4.0				1.0	0.0							2.0	62.0	0.5885739212390035	2.0		1.0	8.0	1.0	7.0		part_1
321		4.0				1.0	0.0							2.0	89.0	0.35283838672330603	2.0		2.0	3.0	2.0	5.0		part_1
322		4.0				1.0	0.0							2.0	409.0	0.5217759376973845	2.0		4.0	5.0	4.0	4.0		part_1
323		4.0				1.0	0.0							4.0	415.0	0.4438868295401335	4.0		4.0	5.0	4.0	4.0		part_1
324		4.0				1.0	0.0							1.0	0.0	0.5018886140896939	1.0		0.0	5.0	4.0	4.0		part_1
325		4.0				1.0	0.0							2.0	421.0	0.3324208611738868	2.0		4.0	5.0	4.0	4.0		part_1
326		4.0				1.0	0.0							1.0	51.0	0.4001672841841355	1.0		1.0	8.0	1.0	7.0		part_1
327		4.0				1.0	0.0							4.0	89.0	0.4004809889011085	4.0		2.0	3.0	2.0	5.0		part_1
328		4.0				1.0	1.0							2.0	225.0	0.4595813061459921	2.0		3.0	2.0	7.0	6.0		part_1
329		4.0				1.0	1.0							1.0	386.0	0.36969143187161535	1.0		4.0	6.0	8.0	3.0		part_1
330		4.0				1.0	0.0							1.0	0.0	0.7516239682445303	1.0		0.0	8.0	1.0	7.0		part_1
331		4.0				1.0	1.0							1.0	52.0	0.3366512335487641	1.0		1.0	1.0	5.0	2.0		part_1
332		4.0				2.0	1.0							4.0	111.0	0.3945920741534792	4.0		2.0	7.0	6.0	8.0		part_1
333		4.0				1.0	0.0							2.0	87.0	0.5623242105939426	2.0		2.0	3.0	2.0	5.0		part_1
334		4.0				1.0	0.0							2.0	70.0	0.3718673157272861	2.0		1.0	8.0	1.0	7.0		part_1
335		4.0				1.0	1.0							4.0	0.0	0.4062190110562369	4.0		0.0	2.0	7.0	6.0		part_1
336		4.0				1.0	0.0							3.0	416.0	0.3722036587423645	3.0		4.0	5.0	4.0	4.0		part_1
337		4.0				1.0	1.0							2.0	83.0	0.3623148819897324	2.0		2.0	7.0	6.0	8.0		part_1
338		4.0				1.0	1.0							4.0	379.0	0.3970170641550794	4.0		4.0	6.0	8.0	3.0		part_1
339		4.0				1.0	1.0							4.0	0.0	0.4420347146806307	4.0		0.0	7.0	6.0	8.0		part_1
340		4.0				1.0	1.0							2.0	125.0	0.4654420448932797	2.0		2.0	7.0	6.0	8.0		part_1
341		4.0				1.0	0.0							3.0	113.0	0.5219018753268756	3.0		2.0	3.0	2.0	5.0		part_1
342		4.0				1.0	0.0							2.0	176.0	0.6007064375444315	2.0		3.0	4.0	3.0	1.0		part_1
343		4.0				1.0	1.0							2.0	74.0	0.6467910890933126	2.0		1.0	1.0	5.0	2.0		part_1
344		4.0				1.0	0.0							1.0	218.0	0.525285960000474	1.0		3.0	4.0	3.0	1.0		part_1
345		4.0				1.0	0.0							2.0	66.0	0.5463185550761409	2.0		1.0	8.0	1.0	7.0		part_1
346		4.0				1.0	1.0							3.0	80.0	0.3908956326195039	3.0		2.0	7.0	6.0	8.0		part_1
347		4.0				1.0	0.0							4.0	86.0	0.4250403100741096	4.0		2.0	3.0	2.0	5.0		part_1
348		4.0				1.0	1.0							1.0	25.0	0.5489380482467823	1.0		1.0	1.0	5.0	2.0		part_1
349		4.0				1.0	0.0							1.0	211.0	0.6498004981549457	1.0		3.0	4.0	3.0	1.0		part_1
350		4.0				1.0	0.0							2.0	407.0	0.6294305811170489	2.0		4.0	5.0	4.0	4.0		part_1
351		4.0				1.0	1.0							2.0	89.0	0.866474604641553	2.0		2.0	7.0	6.0	8.0		part_1
352		4.0				1.0	0.0							1.0	62.0	0.6514092413708568	1.0		1.0	8.0	1.0	7.0		part_1
353		4.0				1.0	1.0							4.0	0.0	0.4953114103409462	4.0		0.0	1.0	5.0	2.0		part_1
354		4.0				1.0	0.0							4.0	47.0	0.5073424570728093	4.0		1.0	8.0	1.0	7.0		part_1
355		4.0				1.0	1.0							2.0	184.0	0.44018045818666	2.0		3.0	2.0	7.0	6.0		part_1
356		4.0				1.0	0.0							1.0	0.0	0.37309561134316027	1.0		0.0	5.0	4.0	4.0		part_1
357		4.0				1.0	1.0							4.0	380.0	0.41939340956741933	4.0		4.0	6.0	8.0	3.0		part_1
358		4.0				1.0	1.0							3.0	36.0	0.5321887542377226	3.0		1.0	1.0	5.0	2.0		part_1
359		4.0				1.0	0.0							4.0	204.0	0.5310969307902269	4.0		3.0	4.0	3.0	1.0		part_1
360		4.0				1.0	1.0							4.0	0.0	0.4420100870775059	4.0		0.0	1.0	5.0	2.0		part_1
361		4.0				1.0	0.0							1.0	186.0	0.4318605857552029	1.0		3.0	4.0	3.0	1.0		part_1
362		4.0				1.0	0.0							1.0	80.0	0.4432223507319577	1.0		2.0	3.0	2.0	5.0		part_1
363		4.0				1.0	0.0							4.0	390.0	0.4332773889182136	4.0		4.0	5.0	4.0	4.0		part_1
364		4.0				1.0	0.0							2.0	393.0	0.4457065046299249	2.0		4.0	5.0	4.0	4.0		part_1
365		4.0				1.0	0.0							4.0	79.0	0.3665351455565542	4.0		2.0	3.0	2.0	5.0		part_1
366		4.0				1.0	0.0							1.0	379.0	0.2774128750897944	1.0		4.0	5.0	4.0	4.0		part_1
367		4.0				1.0	1.0							2.0	415.0	0.4245664682239294	2.0		4.0	6.0	8.0	3.0		part_1
368		4.0				1.0	1.0							2.0	0.0	0.390650745597668	2.0		0.0	6.0	8.0	3.0		part_1
369		4.0				1.0	0.0							3.0	0.0	0.4575546050909906	3.0		0.0	8.0	1.0	7.0		part_1
370		4.0				1.0	1.0							3.0	387.0	0.5491114181349985	3.0		4.0	6.0	8.0	3.0		part_1
371		4.0				1.0	0.0							4.0	189.0	0.5378570247557946	4.0		3.0	4.0	3.0	1.0		part_1
372		4.0				1.0	0.0							2.0	101.0	0.6307115938980132	2.0		2.0	3.0	2.0	5.0		part_1
373		4.0				1.0	1.0							1.0	60.0	0.7089905369793996	1.0		1.0	1.0	5.0	2.0		part_1
374		4.0				1.0	0.0							4.0	418.0	0.8099196557304822	4.0		4.0	5.0	4.0	4.0		part_1
375		4.0				1.0	1.0							4.0	0.0	0.42732690274715424	4.0		0.0	1.0	5.0	2.0		part_1
376		4.0				1.0	0.0							1.0	198.0	0.5091420210665092	1.0		3.0	4.0	3.0	1.0		part_1
377		4.0				1.0	0.0							3.0	411.0	0.4620668517309241	3.0		4.0	5.0	4.0	4.0		part_1
378		4.0				1.0	0.0							1.0	40.0	0.8135386566864327	1.0		1.0	8.0	1.0	7.0		part_1
379		4.0				1.0	0.0							3.0	225.0	0.4524111385690048	3.0		3.0	4.0	3.0	1.0		part_1
380		4.0				1.0	0.0							2.0	86.0	0.4310903670848347	2.0		2.0	3.0	2.0	5.0		part_1
381		4.0				1.0	1.0							3.0	107.0	0.3755886422586627	3.0		2.0	7.0	6.0	8.0		part_1
382		4.0				1.0	1.0							2.0	0.0	0.5896025218535215	2.0		0.0	2.0	7.0	6.0		part_1
383		4.0				1.0	1.0							2.0	182.0	0.4001453670789488	2.0		3.0	2.0	7.0	6.0		part_1
384		4.0				1.0	0.0							1.0	397.0	0.5126858292496763	1.0		4.0	5.0	4.0	4.0		part_1
385		4.0				1.0	0.0							2.0	196.0	0.467439926113002	2.0		3.0	4.0	3.0	1.0		part_1
386		4.0				1.0	1.0							3.0	180.0	0.3213700575870462	3.0		3.0	2.0	7.0	6.0		part_1
387		4.0				1.0	1.0							2.0	375.0	0.3782871691510081	2.0		4.0	6.0	8.0	3.0		part_1
388		4.0				1.0	1.0							4.0	102.0	0.8964006826863624	4.0		2.0	7.0	6.0	8.0		part_1
389		4.0				1.0	0.0							2.0	82.0	0.35850805282825604	2.0		2.0	3.0	2.0	5.0		part_1
390		4.0				1.0	1.0							2.0	215.0	0.3577128942706622	2.0		3.0	2.0	7.0	6.0		part_1
391		4.0				1.0	1.0							3.0	216.0	0.38064036675496027	3.0		3.0	2.0	7.0	6.0		part_1
392		4.0				1.0	1.0							1.0	0.0	0.4934550626785494	1.0		0.0	2.0	7.0	6.0		part_1
393		4.0				1.0	0.0							3.0	33.0	0.438410523114726	3.0		1.0	8.0	1.0	7.0		part_1
394		4.0				1.0	1.0							1.0	101.0	0.4964637730736285	1.0		2.0	7.0	6.0	8.0		part_1
395		4.0				1.0	0.0							1.0	398.0	0.4289547341759317	1.0		4.0	5.0	4.0	4.0		part_1
396		4.0				1.0	0.0							4.0	380.0	0.3714815401472151	4.0		4.0	5.0	4.0	4.0		part_1
397		4.0				1.0	1.0							1.0	409.0	0.3844656522269361	1.0		4.0	6.0	8.0	3.0		part_1
398		4.0				1.0	1.0							4.0	391.0	0.3402307219221257	4.0		4.0	6.0	8.0	3.0		part_1
399		4.0				1.0	1.0							4.0	69.0	0.4983777202432975	4.0		1.0	1.0	5.0	2.0		part_1
0	2.0	1.0			250.0	0.0	0.0							6.0	0.0	0.9443831979879178	2.0	250.0	3.0	4.0	3.0	1.0	0.0	part_2
1	1.0	1.0			250.0	0.0	0.0							5.0	0.0	1.3508784159785137	5.0	250.0	2.0	3.0	2.0	5.0	0.0	part_2
2	1.0	1.0			250.0	0.0	0.0							6.0	0.0	0.5653559169732034	6.0	250.0	1.0	8.0	1.0	7.0	0.0	part_2
3	1.0	1.0			250.0	0.0	0.0							6.0	0.0	0.4200625980156474	6.0	250.0	2.0	3.0	2.0	5.0	0.0	part_2
4	1.0	1.0			250.0	0.0	1.0							5.0	0.0	0.2748415716923773	5.0	250.0	1.0	1.0	5.0	2.0	0.0	part_2
5	4.0	1.0			250.0	0.0	1.0							6.0	0.0	0.0	0.0	250.0	2.0	7.0	6.0	8.0	1.0	part_2
6	3.0	1.0			250.0	0.0	1.0							5.0	0.0	0.33234674797859043	5.0	300.0	4.0	6.0	8.0	3.0	1.0	part_2
7	1.0	1.0			200.0	0.0	0.0							5.0	0.0	0.4563598333043046	5.0	300.0	2.0	3.0	2.0	5.0	0.0	part_2
8	4.0	1.0			200.0	0.0	1.0							5.0	0.0	0.0	0.0	300.0	1.0	1.0	5.0	2.0	1.0	part_2
9	4.0	1.0			250.0	0.0	1.0							5.0	0.0	0.0	0.0	300.0	1.0	1.0	5.0	2.0	1.0	part_2
10	1.0	1.0			300.0	0.0	0.0							6.0	0.0	0.3581791730248369	6.0	300.0	3.0	4.0	3.0	1.0	0.0	part_2
11	3.0	1.0			300.0	0.0	1.0							5.0	0.0	0.391292201296892	5.0	300.0	4.0	6.0	8.0	3.0	1.0	part_2
12	1.0	1.0			250.0	0.0	0.0							6.0	0.0	0.4725431342958473	6.0	300.0	1.0	8.0	1.0	7.0	0.0	part_2
13	1.0	1.0			250.0	0.0	0.0							5.0	0.0	0.4395648509962484	5.0	300.0	1.0	8.0	1.0	7.0	0.0	part_2
14	4.0	1.0			250.0	0.0	1.0							6.0	0.0	0.0	0.0	300.0	2.0	7.0	6.0	8.0	1.0	part_2
15	4.0	1.0			250.0	0.0	1.0							5.0	0.0	0.0	0.0	350.0	1.0	1.0	5.0	2.0	1.0	part_2
16	1.0	1.0			300.0	0.0	0.0							6.0	0.0	0.6440911429235712	6.0	350.0	4.0	5.0	4.0	4.0	0.0	part_2
17	1.0	1.0			300.0	0.0	0.0							5.0	0.0	0.5881976510281675	5.0	350.0	4.0	5.0	4.0	4.0	0.0	part_2
18	1.0	1.0			300.0	0.0	0.0							5.0	0.0	0.4758939926396124	5.0	350.0	3.0	4.0	3.0	1.0	0.0	part_2
19	1.0	1.0			300.0	0.0	0.0							6.0	0.0	0.5228017893387005	6.0	350.0	4.0	5.0	4.0	4.0	0.0	part_2
20	1.0	1.0			300.0	0.0	1.0							5.0	0.0	0.8954570716596209	5.0	350.0	4.0	6.0	8.0	3.0	0.0	part_2
21	1.0	1.0			300.0	0.0	1.0							6.0	0.0	0.4006853893515654	6.0	350.0	4.0	6.0	8.0	3.0	0.0	part_2
22	1.0	1.0			300.0	0.0	0.0							6.0	0.0	0.6264464253326878	6.0	350.0	3.0	4.0	3.0	1.0	0.0	part_2
23	3.0	1.0			300.0	0.0	1.0							6.0	0.0	0.4807221253286116	6.0	350.0	1.0	1.0	5.0	2.0	1.0	part_2
24	4.0	1.0			300.0	0.0	1.0							6.0	0.0	0.0	0.0	300.0	1.0	1.0	5.0	2.0	1.0	part_2
25	1.0	1.0			300.0	0.0	0.0							5.0	0.0	0.4715129242977128	5.0	350.0	3.0	4.0	3.0	1.0	0.0	part_2
26	1.0	1.0			300.0	0.0	0.0							5.0	0.0	0.8879706596489996	5.0	350.0	3.0	4.0	3.0	1.0	0.0	part_2
27	4.0	1.0			300.0	0.0	1.0							5.0	0.0	0.0	0.0	350.0	3.0	2.0	7.0	6.0	1.0	part_2
28	1.0	1.0			350.0	0.0	0.0							6.0	0.0	0.8440028183395043	6.0	350.0	4.0	5.0	4.0	4.0	0.0	part_2
29	1.0	1.0			350.0	0.0	0.0							5.0	0.0	1.2169554569991303	5.0	350.0	4.0	5.0	4.0	4.0	0.0	part_2
30	1.0	1.0			350.0	0.0	0.0							5.0	0.0	1.0607520139892586	5.0	350.0	3.0	4.0	3.0	1.0	0.0	part_2
31	1.0	1.0			350.0	0.0	1.0							6.0	0.0	0.8914435696788132	6.0	350.0	3.0	2.0	7.0	6.0	0.0	part_2
32	4.0	1.0			350.0	0.0	1.0							6.0	0.0	0.0	0.0	350.0	1.0	1.0	5.0	2.0	1.0	part_2
33	4.0	1.0			350.0	0.0	1.0							5.0	0.0	0.0	0.0	400.0	3.0	2.0	7.0	6.0	1.0	part_2
34	1.0	1.0			400.0	0.0	0.0							6.0	0.0	0.6261629083310254	6.0	400.0	1.0	8.0	1.0	7.0	0.0	part_2
35	1.0	1.0			400.0	0.0	0.0							6.0	0.0	0.4804768659523688	6.0	400.0	4.0	5.0	4.0	4.0	0.0	part_2
36	1.0	2.0			400.0	0.0	0.0							6.0	0.0	0.41494096867972985	6.0	400.0	4.0	5.0	4.0	4.0	0.0	part_2
37	1.0	2.0			400.0	0.0	1.0							5.0	0.0	0.5392482237075455	5.0	400.0	2.0	7.0	6.0	8.0	0.0	part_2
38	3.0	2.0			400.0	0.0	1.0							6.0	0.0	0.4384713816107251	6.0	400.0	4.0	6.0	8.0	3.0	1.0	part_2
39	1.0	2.0			400.0	0.0	0.0							6.0	0.0	0.5064472472877242	6.0	350.0	4.0	5.0	4.0	4.0	0.0	part_2
40	1.0	2.0			400.0	0.0	0.0							5.0	0.0	0.4516254906193353	5.0	350.0	1.0	8.0	1.0	7.0	0.0	part_2
41	1.0	2.0			400.0	0.0	0.0							5.0	0.0	0.4075826486223377	5.0	350.0	1.0	8.0	1.0	7.0	0.0	part_2
42	1.0	2.0			400.0	0.0	1.0							6.0	0.0	0.5205261009978129	6.0	350.0	3.0	2.0	7.0	6.0	0.0	part_2
43	4.0	2.0			400.0	0.0	1.0							5.0	0.0	0.0	0.0	350.0	3.0	2.0	7.0	6.0	1.0	part_2
44	1.0	2.0			450.0	0.0	0.0							6.0	0.0	0.5787292366730981	6.0	350.0	3.0	4.0	3.0	1.0	0.0	part_2
45	1.0	2.0			450.0	0.0	1.0							6.0	0.0	0.6811070456751622	6.0	350.0	1.0	1.0	5.0	2.0	0.0	part_2
46	4.0	2.0			450.0	0.0	1.0							5.0	0.0	0.0	0.0	350.0	1.0	1.0	5.0	2.0	1.0	part_2
47	4.0	2.0			500.0	0.0	1.0							5.0	0.0	0.0	0.0	350.0	4.0	6.0	8.0	3.0	1.0	part_2
48	1.0	2.0			550.0	0.0	1.0							5.0	0.0	0.9316194963175805	5.0	350.0	4.0	6.0	8.0	3.0	0.0	part_2
49	1.0	2.0			550.0	0.0	0.0							6.0	0.0	0.7515516279963776	6.0	350.0	3.0	4.0	3.0	1.0	0.0	part_2
50	4.0	2.0			550.0	0.0	1.0							5.0	0.0	0.0	0.0	350.0	1.0	1.0	5.0	2.0	1.0	part_2
51	1.0	2.0			600.0	0.0	1.0							5.0	0.0	0.7997921890346333	5.0	350.0	2.0	7.0	6.0	8.0	0.0	part_2
52	1.0	2.0			600.0	0.0	0.0							5.0	0.0	0.9691501827328466	5.0	350.0	3.0	4.0	3.0	1.0	0.0	part_2
53	1.0	2.0			600.0	0.0	0.0							5.0	0.0	0.4073129563475959	5.0	350.0	4.0	5.0	4.0	4.0	0.0	part_2
54	1.0	2.0			600.0	0.0	0.0							5.0	0.0	0.4512000886024907	5.0	350.0	2.0	3.0	2.0	5.0	0.0	part_2
55	1.0	2.0			600.0	0.0	0.0							6.0	0.0	0.4297583450097591	6.0	350.0	4.0	5.0	4.0	4.0	0.0	part_2
56	1.0	2.0			600.0	0.0	0.0							5.0	0.0	0.5548665382666513	5.0	350.0	3.0	4.0	3.0	1.0	0.0	part_2
57	1.0	2.0			600.0	0.0	0.0							6.0	0.0	0.4335183146758936	6.0	350.0	4.0	5.0	4.0	4.0	0.0	part_2
58	3.0	2.0			600.0	0.0	1.0							5.0	0.0	0.4907416166970506	5.0	350.0	2.0	7.0	6.0	8.0	1.0	part_2
59	1.0	2.0			550.0	0.0	0.0							6.0	0.0	0.3900492063257843	6.0	350.0	2.0	3.0	2.0	5.0	0.0	part_2
60	4.0	2.0			550.0	0.0	1.0							6.0	0.0	0.0	0.0	350.0	2.0	7.0	6.0	8.0	1.0	part_2
61	3.0	2.0			550.0	0.0	1.0							5.0	0.0	0.592629567021504	5.0	400.0	4.0	6.0	8.0	3.0	1.0	part_2
62	1.0	2.0			500.0	0.0	1.0							6.0	0.0	0.481382736354135	6.0	400.0	2.0	7.0	6.0	8.0	0.0	part_2
63	1.0	2.0			500.0	0.0	0.0							6.0	0.0	0.5599649783107452	6.0	400.0	3.0	4.0	3.0	1.0	0.0	part_2
64	1.0	2.0			500.0	0.0	0.0							5.0	0.0	0.3706602670135908	5.0	400.0	1.0	8.0	1.0	7.0	0.0	part_2
65	3.0	2.0			500.0	0.0	1.0							6.0	0.0	0.4835695432848297	6.0	400.0	1.0	1.0	5.0	2.0	1.0	part_2
66	1.0	2.0			500.0	0.0	1.0							6.0	0.0	0.866904798313044	6.0	350.0	2.0	7.0	6.0	8.0	0.0	part_2
67	4.0	2.0			500.0	0.0	1.0							5.0	0.0	0.0	0.0	350.0	4.0	6.0	8.0	3.0	1.0	part_2
68	4.0	2.0			550.0	0.0	1.0							5.0	0.0	0.0	0.0	350.0	2.0	7.0	6.0	8.0	1.0	part_2
69	1.0	2.0			600.0	0.0	0.0							5.0	0.0	0.9925760925980284	5.0	350.0	1.0	8.0	1.0	7.0	0.0	part_2
70	1.0	2.0			600.0	0.0	0.0							5.0	0.0	0.8133688109810464	5.0	350.0	4.0	5.0	4.0	4.0	0.0	part_2
71	4.0	2.0			600.0	0.0	1.0							6.0	0.0	0.0	0.0	350.0	2.0	7.0	6.0	8.0	1.0	part_2
72	1.0	3.0			600.0	0.0	0.0							6.0	0.0	0.5652073536184616	6.0	400.0	2.0	3.0	2.0	5.0	0.0	part_2
73	1.0	3.0			600.0	0.0	0.0							5.0	0.0	0.395661651273258	5.0	400.0	3.0	4.0	3.0	1.0	0.0	part_2
74	1.0	3.0			600.0	0.0	1.0							6.0	0.0	0.3643278296221979	6.0	400.0	1.0	1.0	5.0	2.0	0.0	part_2
75	3.0	3.0			600.0	0.0	1.0							5.0	0.0	0.3746377130155452	5.0	400.0	1.0	1.0	5.0	2.0	1.0	part_2
76	1.0	3.0			550.0	0.0	0.0							6.0	0.0	0.5109040873358026	6.0	400.0	1.0	8.0	1.0	7.0	0.0	part_2
77	3.0	3.0			550.0	0.0	1.0							5.0	0.0	0.3552385270013474	5.0	400.0	4.0	6.0	8.0	3.0	1.0	part_2
78	1.0	3.0			500.0	0.0	0.0							6.0	0.0	0.5924997403635643	6.0	400.0	2.0	3.0	2.0	5.0	0.0	part_2
79	3.0	3.0			500.0	0.0	1.0							5.0	0.0	0.4682265449664556	5.0	400.0	2.0	7.0	6.0	8.0	1.0	part_2
80	1.0	3.0			450.0	0.0	1.0							6.0	0.0	0.7297514493111521	6.0	400.0	4.0	6.0	8.0	3.0	0.0	part_2
81	1.0	3.0			450.0	0.0	0.0							5.0	0.0	0.5954531820025295	5.0	400.0	4.0	5.0	4.0	4.0	0.0	part_2
82	1.0	3.0			450.0	0.0	0.0							6.0	0.0	0.380976592306979	6.0	400.0	2.0	3.0	2.0	5.0	0.0	part_2
83	4.0	3.0			450.0	0.0	1.0							6.0	0.0	0.0	0.0	400.0	1.0	1.0	5.0	2.0	1.0	part_2
84	1.0	3.0			450.0	0.0	0.0							6.0	0.0	0.6093175022979267	6.0	450.0	1.0	8.0	1.0	7.0	0.0	part_2
85	1.0	3.0			450.0	0.0	1.0							6.0	0.0	1.0488326122867877	6.0	450.0	4.0	6.0	8.0	3.0	0.0	part_2
86	1.0	3.0			450.0	0.0	1.0							6.0	0.0	0.6991244580131024	6.0	450.0	1.0	1.0	5.0	2.0	0.0	part_2
87	1.0	3.0			450.0	0.0	0.0							6.0	0.0	0.4653451535850763	6.0	450.0	2.0	3.0	2.0	5.0	0.0	part_2
88	4.0	3.0			450.0	0.0	1.0							5.0	0.0	0.0	0.0	450.0	3.0	2.0	7.0	6.0	1.0	part_2
89	4.0	3.0			500.0	0.0	1.0							5.0	0.0	0.0	0.0	450.0	1.0	1.0	5.0	2.0	1.0	part_2
90	1.0	3.0			550.0	0.0	0.0							5.0	0.0	0.9161917779711076	5.0	450.0	3.0	4.0	3.0	1.0	0.0	part_2
91	3.0	3.0			550.0	0.0	1.0							6.0	0.0	0.3996795783168636	6.0	450.0	3.0	2.0	7.0	6.0	1.0	part_2
92	4.0	3.0			550.0	0.0	1.0							5.0	0.0	0.0	0.0	400.0	1.0	1.0	5.0	2.0	1.0	part_2
93	1.0	3.0			600.0	0.0	0.0							5.0	0.0	0.6841075692791492	5.0	400.0	1.0	8.0	1.0	7.0	0.0	part_2
94	4.0	3.0			600.0	0.0	1.0							5.0	0.0	0.0	0.0	400.0	3.0	2.0	7.0	6.0	1.0	part_2
95	1.0	3.0			650.0	0.0	0.0							5.0	0.0	0.8542883043410257	5.0	400.0	3.0	4.0	3.0	1.0	0.0	part_2
96	1.0	3.0			650.0	0.0	0.0							5.0	0.0	0.6399749793345109	5.0	400.0	1.0	8.0	1.0	7.0	0.0	part_2
97	1.0	3.0			650.0	0.0	1.0							5.0	0.0	0.6635536846588366	5.0	400.0	2.0	7.0	6.0	8.0	0.0	part_2
98	1.0	3.0			650.0	0.0	0.0							5.0	0.0	0.5184606366092339	5.0	400.0	1.0	8.0	1.0	7.0	0.0	part_2
99	1.0	3.0			650.0	0.0	0.0							5.0	0.0	0.6309290666249581	5.0	400.0	2.0	3.0	2.0	5.0	0.0	part_2
100	3.0	3.0			650.0	0.0	1.0							5.0	0.0	0.6102665366488509	5.0	400.0	4.0	6.0	8.0	3.0	1.0	part_2
101	4.0	3.0			600.0	0.0	1.0							6.0	0.0	0.0	0.0	400.0	3.0	2.0	7.0	6.0	1.0	part_2
102	4.0	3.0			600.0	0.0	1.0							6.0	0.0	0.0	0.0	450.0	1.0	1.0	5.0	2.0	1.0	part_2
103	1.0	3.0			600.0	0.0	0.0							6.0	0.0	0.951115484640468	6.0	500.0	4.0	5.0	4.0	4.0	0.0	part_2
104	1.0	3.0			600.0	0.0	0.0							6.0	0.0	0.6694646943360567	6.0	500.0	2.0	3.0	2.0	5.0	0.0	part_2
105	3.0	3.0			600.0	0.0	1.0							6.0	0.0	0.4234863042947836	6.0	500.0	2.0	7.0	6.0	8.0	1.0	part_2
106	4.0	3.0			600.0	0.0	1.0							5.0	0.0	0.0	0.0	450.0	4.0	6.0	8.0	3.0	1.0	part_2
107	1.0	3.0			650.0	0.0	0.0							6.0	0.0	0.9645285826991312	6.0	450.0	4.0	5.0	4.0	4.0	0.0	part_2
108	1.0	4.0			650.0	0.0	0.0							6.0	0.0	1.1349198389798405	6.0	450.0	3.0	4.0	3.0	1.0	0.0	part_2
109	1.0	4.0			650.0	0.0	0.0							5.0	0.0	0.4270170696545392	5.0	450.0	2.0	3.0	2.0	5.0	0.0	part_2
110	3.0	4.0			650.0	0.0	1.0							5.0	0.0	0.32662861433345824	5.0	450.0	4.0	6.0	8.0	3.0	1.0	part_2
111	1.0	4.0			600.0	0.0	0.0							6.0	0.0	0.4080873242928647	6.0	450.0	2.0	3.0	2.0	5.0	0.0	part_2
112	1.0	4.0			600.0	0.0	0.0							5.0	0.0	0.6672109109931625	5.0	450.0	2.0	3.0	2.0	5.0	0.0	part_2
113	1.0	4.0			600.0	0.0	0.0							6.0	0.0	0.3751975636696443	6.0	450.0	3.0	4.0	3.0	1.0	0.0	part_2
114	1.0	4.0			600.0	0.0	0.0							5.0	0.0	0.3425815665978007	5.0	450.0	3.0	4.0	3.0	1.0	0.0	part_2
115	1.0	4.0			600.0	0.0	0.0							6.0	0.0	0.5107318446389401	6.0	450.0	1.0	8.0	1.0	7.0	0.0	part_2
116	1.0	4.0			600.0	0.0	0.0							6.0	0.0	0.4346601599827409	6.0	450.0	1.0	8.0	1.0	7.0	0.0	part_2
117	1.0	4.0			600.0	0.0	0.0							5.0	0.0	0.4225124905933626	5.0	450.0	1.0	8.0	1.0	7.0	0.0	part_2
118	3.0	4.0			600.0	0.0	1.0							6.0	0.0	0.5484264683327638	6.0	450.0	1.0	1.0	5.0	2.0	1.0	part_2
119	1.0	4.0			600.0	0.0	1.0							6.0	0.0	0.5272200470208189	6.0	400.0	2.0	7.0	6.0	8.0	0.0	part_2
120	1.0	4.0			600.0	0.0	0.0							6.0	0.0	0.6049795945873484	6.0	400.0	2.0	3.0	2.0	5.0	0.0	part_2
121	1.0	4.0			600.0	0.0	0.0							6.0	0.0	0.4038004479953088	6.0	400.0	1.0	8.0	1.0	7.0	0.0	part_2
122	1.0	4.0			600.0	0.0	1.0							6.0	0.0	0.5498987589962779	6.0	400.0	1.0	1.0	5.0	2.0	0.0	part_2
123	1.0	4.0			600.0	0.0	0.0							6.0	0.0	0.5528870139969513	6.0	400.0	2.0	3.0	2.0	5.0	0.0	part_2
124	3.0	4.0			600.0	0.0	1.0							5.0	0.0	0.6995269015897065	5.0	400.0	1.0	1.0	5.0	2.0	1.0	part_2
125	1.0	4.0			550.0	0.0	0.0							6.0	0.0	0.6220371926901862	6.0	400.0	1.0	8.0	1.0	7.0	0.0	part_2
126	1.0	4.0			550.0	0.0	0.0							5.0	0.0	0.9470503847114742	5.0	400.0	3.0	4.0	3.0	1.0	0.0	part_2
127	1.0	4.0			550.0	0.0	0.0							5.0	0.0	0.4306513346964493	5.0	400.0	3.0	4.0	3.0	1.0	0.0	part_2
128	1.0	4.0			550.0	0.0	0.0							6.0	0.0	0.4555484596639872	6.0	400.0	1.0	8.0	1.0	7.0	0.0	part_2
129	1.0	4.0			550.0	0.0	0.0							6.0	0.0	0.4447994226356968	6.0	400.0	1.0	8.0	1.0	7.0	0.0	part_2
130	1.0	4.0			550.0	0.0	0.0							5.0	0.0	0.7028260013321415	5.0	400.0	2.0	3.0	2.0	5.0	0.0	part_2
131	1.0	4.0			550.0	0.0	0.0							5.0	0.0	0.3896737879840657	5.0	400.0	2.0	3.0	2.0	5.0	0.0	part_2
132	1.0	4.0			550.0	0.0	0.0							5.0	0.0	0.5594533522962593	5.0	400.0	1.0	8.0	1.0	7.0	0.0	part_2
133	4.0	4.0			550.0	0.0	1.0							6.0	0.0	0.0	0.0	400.0	2.0	7.0	6.0	8.0	1.0	part_2
134	1.0	4.0			550.0	0.0	0.0							6.0	0.0	0.5381307176430711	6.0	450.0	4.0	5.0	4.0	4.0	0.0	part_2
135	3.0	4.0			550.0	0.0	1.0							5.0	0.0	0.6528087476617657	5.0	450.0	2.0	7.0	6.0	8.0	1.0	part_2
136	3.0	4.0			500.0	0.0	1.0							6.0	0.0	0.36040149128530174	6.0	450.0	2.0	7.0	6.0	8.0	1.0	part_2
137	1.0	4.0			500.0	0.0	0.0							6.0	0.0	0.5405272343195975	6.0	400.0	2.0	3.0	2.0	5.0	0.0	part_2
138	4.0	4.0			500.0	0.0	1.0							6.0	0.0	0.0	0.0	400.0	1.0	1.0	5.0	2.0	1.0	part_2
139	4.0	4.0			500.0	0.0	1.0							6.0	0.0	0.0	0.0	450.0	3.0	2.0	7.0	6.0	1.0	part_2
140	1.0	4.0			500.0	0.0	0.0							6.0	0.0	0.6567217092961073	6.0	500.0	2.0	3.0	2.0	5.0	0.0	part_2
141	1.0	4.0			500.0	0.0	0.0							5.0	0.0	0.4763620849698782	5.0	500.0	4.0	5.0	4.0	4.0	0.0	part_2
142	3.0	4.0			500.0	0.0	1.0							6.0	0.0	0.3871769166435115	6.0	500.0	2.0	7.0	6.0	8.0	1.0	part_2
143	1.0	4.0			500.0	0.0	0.0							6.0	0.0	0.5011062700068578	6.0	450.0	2.0	3.0	2.0	5.0	0.0	part_2
144	3.0	5.0			500.0	0.0	1.0							5.0	0.0	0.3826496526598929	5.0	450.0	2.0	7.0	6.0	8.0	1.0	part_2
145	4.0	5.0			450.0	0.0	1.0							5.0	0.0	0.0	0.0	450.0	1.0	1.0	5.0	2.0	1.0	part_2
146	4.0	5.0			500.0	0.0	1.0							5.0	0.0	0.0	0.0	450.0	2.0	7.0	6.0	8.0	1.0	part_2
147	1.0	5.0			550.0	0.0	0.0							6.0	0.0	0.3977824742905796	6.0	450.0	2.0	3.0	2.0	5.0	0.0	part_2
148	1.0	5.0			550.0	0.0	0.0							5.0	0.0	0.4539714673301205	5.0	450.0	3.0	4.0	3.0	1.0	0.0	part_2
149	1.0	5.0			550.0	0.0	0.0							5.0	0.0	0.4654754970106296	5.0	450.0	4.0	5.0	4.0	4.0	0.0	part_2
150	1.0	5.0			550.0	0.0	0.0							6.0	0.0	0.30937381263356656	6.0	450.0	4.0	5.0	4.0	4.0	0.0	part_2
151	1.0	5.0			550.0	0.0	0.0							5.0	0.0	0.3560417842818424	5.0	450.0	1.0	8.0	1.0	7.0	0.0	part_2
152	1.0	5.0			550.0	0.0	0.0							5.0	0.0	0.3552919222856872	5.0	450.0	3.0	4.0	3.0	1.0	0.0	part_2
153	3.0	5.0			550.0	0.0	1.0							5.0	0.0	0.367597664706409	5.0	450.0	3.0	2.0	7.0	6.0	1.0	part_2
154	3.0	5.0			500.0	0.0	1.0							6.0	0.0	0.3136248115915805	6.0	450.0	2.0	7.0	6.0	8.0	1.0	part_2
155	3.0	5.0			500.0	0.0	1.0							5.0	0.0	0.392206170305144	5.0	400.0	4.0	6.0	8.0	3.0	1.0	part_2
156	1.0	5.0			450.0	0.0	0.0							5.0	0.0	0.685320413322188	5.0	400.0	1.0	8.0	1.0	7.0	0.0	part_2
157	3.0	5.0			450.0	0.0	1.0							6.0	0.0	0.3601938189822249	6.0	400.0	4.0	6.0	8.0	3.0	1.0	part_2
158	1.0	5.0			450.0	0.0	0.0							6.0	0.0	0.7995175720425323	6.0	350.0	2.0	3.0	2.0	5.0	0.0	part_2
159	1.0	5.0			450.0	0.0	1.0							6.0	0.0	0.8351264239754528	6.0	350.0	3.0	2.0	7.0	6.0	0.0	part_2
160	1.0	5.0			450.0	0.0	0.0							6.0	0.0	0.5423536407179199	6.0	350.0	3.0	4.0	3.0	1.0	0.0	part_2
161	4.0	5.0			450.0	0.0	1.0							5.0	0.0	0.0	0.0	350.0	2.0	7.0	6.0	8.0	1.0	part_2
162	4.0	5.0			500.0	0.0	1.0							6.0	0.0	0.0	0.0	350.0	3.0	2.0	7.0	6.0	1.0	part_2
163	1.0	5.0			500.0	0.0	0.0							6.0	0.0	0.9172121339361184	6.0	400.0	1.0	8.0	1.0	7.0	0.0	part_2
164	3.0	5.0			500.0	0.0	1.0							5.0	0.0	0.4666975950240158	5.0	400.0	4.0	6.0	8.0	3.0	1.0	part_2
165	4.0	5.0			450.0	0.0	1.0							5.0	0.0	0.0	0.0	400.0	2.0	7.0	6.0	8.0	1.0	part_2
166	1.0	5.0			500.0	0.0	0.0							6.0	0.0	0.6608371123438701	6.0	400.0	3.0	4.0	3.0	1.0	0.0	part_2
167	4.0	5.0			500.0	0.0	1.0							6.0	0.0	0.0	0.0	400.0	3.0	2.0	7.0	6.0	1.0	part_2
168	1.0	5.0			500.0	0.0	0.0							5.0	0.0	0.6383936523343436	5.0	450.0	2.0	3.0	2.0	5.0	0.0	part_2
169	4.0	5.0			500.0	0.0	1.0							6.0	0.0	0.0	0.0	450.0	2.0	7.0	6.0	8.0	1.0	part_2
170	1.0	5.0			500.0	0.0	0.0							5.0	0.0	0.4941786713316105	5.0	500.0	2.0	3.0	2.0	5.0	0.0	part_2
171	4.0	5.0			500.0	0.0	1.0							6.0	0.0	0.0	0.0	500.0	3.0	2.0	7.0	6.0	1.0	part_2
172	4.0	5.0			500.0	0.0	1.0							6.0	0.0	0.0	0.0	550.0	1.0	1.0	5.0	2.0	1.0	part_2
173	1.0	5.0			500.0	0.0	0.0							5.0	0.0	0.824631498020608	5.0	600.0	4.0	5.0	4.0	4.0	0.0	part_2
174	1.0	5.0			500.0	0.0	1.0							5.0	0.0	0.9383087446913124	5.0	600.0	3.0	2.0	7.0	6.0	0.0	part_2
175	4.0	5.0			500.0	0.0	1.0							5.0	0.0	0.0	0.0	600.0	1.0	1.0	5.0	2.0	1.0	part_2
176	1.0	5.0			550.0	0.0	1.0							5.0	0.0	0.9831936343107373	5.0	600.0	4.0	6.0	8.0	3.0	0.0	part_2
177	1.0	5.0			550.0	0.0	0.0							5.0	0.0	0.8263724247226492	5.0	600.0	4.0	5.0	4.0	4.0	0.0	part_2
178	1.0	5.0			550.0	0.0	0.0							6.0	0.0	0.5911285249749199	6.0	600.0	2.0	3.0	2.0	5.0	0.0	part_2
179	1.0	5.0			550.0	0.0	0.0							6.0	0.0	0.6271863986039534	6.0	600.0	3.0	4.0	3.0	1.0	0.0	part_2
180	1.0	6.0			550.0	0.0	0.0							5.0	0.0	0.3210646933293901	5.0	600.0	4.0	5.0	4.0	4.0	0.0	part_2
181	3.0	6.0			550.0	0.0	1.0							6.0	0.0	0.33425932726822793	6.0	600.0	4.0	6.0	8.0	3.0	1.0	part_2
182	1.0	6.0			550.0	0.0	1.0							5.0	0.0	0.367161545320414	5.0	550.0	1.0	1.0	5.0	2.0	0.0	part_2
183	3.0	6.0			550.0	0.0	1.0							6.0	0.0	0.6724307920085266	6.0	550.0	3.0	2.0	7.0	6.0	1.0	part_2
184	1.0	6.0			550.0	0.0	1.0							6.0	0.0	0.8428964693448506	6.0	500.0	1.0	1.0	5.0	2.0	0.0	part_2
185	1.0	6.0			550.0	0.0	0.0							6.0	0.0	0.7746600050013512	6.0	500.0	3.0	4.0	3.0	1.0	0.0	part_2
186	4.0	6.0			550.0	0.0	1.0							5.0	0.0	0.0	0.0	500.0	1.0	1.0	5.0	2.0	1.0	part_2
187	4.0	6.0			600.0	0.0	1.0							6.0	0.0	0.0	0.0	500.0	2.0	7.0	6.0	8.0	1.0	part_2
188	4.0	6.0			600.0	0.0	1.0							6.0	0.0	0.0	0.0	550.0	1.0	1.0	5.0	2.0	1.0	part_2
189	1.0	6.0			600.0	0.0	0.0							5.0	0.0	0.6319352386635728	5.0	600.0	1.0	8.0	1.0	7.0	0.0	part_2
190	1.0	6.0			600.0	0.0	1.0							6.0	0.0	0.5880077240290121	6.0	600.0	1.0	1.0	5.0	2.0	0.0	part_2
191	3.0	6.0			600.0	0.0	1.0							6.0	0.0	0.4439033226226457	6.0	600.0	3.0	2.0	7.0	6.0	1.0	part_2
192	1.0	6.0			600.0	0.0	0.0							6.0	0.0	0.4112052922719158	6.0	550.0	2.0	3.0	2.0	5.0	0.0	part_2
193	1.0	6.0			600.0	0.0	1.0							5.0	0.0	0.7372277302783914	5.0	550.0	2.0	7.0	6.0	8.0	0.0	part_2
194	1.0	6.0			600.0	0.0	0.0							6.0	0.0	0.4243532366817817	6.0	550.0	1.0	8.0	1.0	7.0	0.0	part_2
195	3.0	6.0			600.0	0.0	1.0							6.0	0.0	0.6607777419849299	6.0	550.0	2.0	7.0	6.0	8.0	1.0	part_2
196	4.0	6.0			600.0	0.0	1.0							5.0	0.0	0.0	0.0	500.0	4.0	6.0	8.0	3.0	1.0	part_2
197	4.0	6.0			650.0	0.0	1.0							6.0	0.0	0.0	0.0	500.0	2.0	7.0	6.0	8.0	1.0	part_2
198	1.0	6.0			650.0	0.0	1.0							5.0	0.0	0.5846278200042434	5.0	550.0	3.0	2.0	7.0	6.0	0.0	part_2
199	1.0	6.0			650.0	0.0	0.0							5.0	0.0	0.6624723929562606	5.0	550.0	3.0	4.0	3.0	1.0	0.0	part_2
200	1.0	6.0			650.0	0.0	1.0							6.0	0.0	0.6860779150156304	6.0	550.0	4.0	6.0	8.0	3.0	0.0	part_2
201	4.0	6.0			650.0	0.0	1.0							6.0	0.0	0.0	0.0	550.0	4.0	6.0	8.0	3.0	1.0	part_2
202	1.0	6.0			650.0	0.0	1.0							5.0	0.0	1.1054496156284586	5.0	600.0	3.0	2.0	7.0	6.0	0.0	part_2
203	1.0	6.0			650.0	0.0	0.0							5.0	0.0	0.7465212550014257	5.0	600.0	4.0	5.0	4.0	4.0	0.0	part_2
204	3.0	6.0			650.0	0.0	1.0							5.0	0.0	0.7471138856490143	5.0	600.0	3.0	2.0	7.0	6.0	1.0	part_2
205	2.0	6.0			600.0	0.0	0.0							5.0	0.0	0.7126367196906358	6.0	600.0	2.0	3.0	2.0	5.0	0.0	part_2
206	2.0	6.0			600.0	0.0	0.0							5.0	0.0	1.0514800852979531	6.0	600.0	4.0	5.0	4.0	4.0	0.0	part_2
207	1.0	6.0			600.0	0.0	0.0							6.0	0.0	1.3801578716957008	6.0	600.0	3.0	4.0	3.0	1.0	0.0	part_2
208	4.0	6.0			600.0	0.0	1.0							5.0	0.0	0.0	0.0	600.0	3.0	2.0	7.0	6.0	1.0	part_2
209	4.0	6.0			650.0	0.0	1.0							6.0	0.0	0.0	0.0	600.0	1.0	1.0	5.0	2.0	1.0	part_2
210	3.0	6.0			650.0	0.0	1.0							5.0	0.0	0.5835506360162981	5.0	650.0	1.0	1.0	5.0	2.0	1.0	part_2
211	1.0	6.0			600.0	0.0	0.0							6.0	0.0	0.8301206500036642	6.0	650.0	1.0	8.0	1.0	7.0	0.0	part_2
212	1.0	6.0			600.0	0.0	0.0							5.0	0.0	0.6299685163539834	5.0	650.0	4.0	5.0	4.0	4.0	0.0	part_2
213	1.0	6.0			600.0	0.0	0.0							5.0	0.0	0.7196049413178116	5.0	650.0	2.0	3.0	2.0	5.0	0.0	part_2
214	3.0	6.0			600.0	0.0	1.0							6.0	0.0	0.5633624003385194	6.0	650.0	4.0	6.0	8.0	3.0	1.0	part_2
215	4.0	6.0			600.0	0.0	1.0							6.0	0.0	0.0	0.0	600.0	4.0	6.0	8.0	3.0	1.0	part_2
216	2.0	7.0			600.0	0.0	0.0							6.0	0.0	1.2140825553215109	2.0	650.0	1.0	8.0	1.0	7.0	0.0	part_2
217	4.0	7.0			600.0	0.0	1.0							5.0	0.0	0.0	0.0	650.0	2.0	7.0	6.0	8.0	1.0	part_2
218	2.0	7.0			650.0	0.0	0.0							5.0	0.0	1.1827816047007218	1.0	650.0	3.0	4.0	3.0	1.0	0.0	part_2
219	4.0	7.0			650.0	0.0	1.0							6.0	0.0	0.0	0.0	650.0	3.0	2.0	7.0	6.0	1.0	part_2
220	1.0	7.0			650.0	0.0	0.0							6.0	0.0	0.9131175850052388	6.0	700.0	3.0	4.0	3.0	1.0	0.0	part_2
221	5.0	7.0			650.0	0.0	1.0							5.0	0.0	0.0	0.0	700.0	3.0	2.0	7.0	6.0	0.0	part_2
222	3.0	7.0			650.0	0.0	1.0							5.0	0.0	0.7687189716380091	1.0	700.0	3.0	2.0	7.0	6.0	1.0	part_2
223	3.0	7.0			600.0	0.0	1.0							5.0	0.0	0.8479416853515431	1.0	700.0	3.0	2.0	7.0	6.0	1.0	part_2
224	4.0	7.0			550.0	0.0	1.0							5.0	0.0	0.0	0.0	700.0	1.0	1.0	5.0	2.0	1.0	part_2
225	1.0	7.0			600.0	0.0	1.0							6.0	0.0	0.646246696007438	6.0	700.0	4.0	6.0	8.0	3.0	0.0	part_2
226	1.0	7.0			600.0	0.0	1.0							6.0	0.0	0.6368665455956943	6.0	700.0	3.0	2.0	7.0	6.0	0.0	part_2
227	1.0	7.0			600.0	0.0	0.0							6.0	0.0	0.7717373616760597	6.0	700.0	1.0	8.0	1.0	7.0	0.0	part_2
228	3.0	7.0			600.0	0.0	1.0							6.0	0.0	0.6952053349814378	6.0	700.0	2.0	7.0	6.0	8.0	1.0	part_2
229	3.0	7.0			600.0	0.0	1.0							6.0	0.0	0.6950052453321405	6.0	650.0	4.0	6.0	8.0	3.0	1.0	part_2
230	1.0	7.0			600.0	0.0	0.0							5.0	0.0	0.9432731525739656	5.0	600.0	2.0	3.0	2.0	5.0	0.0	part_2
231	1.0	7.0			600.0	0.0	0.0							5.0	0.0	0.6082595873158425	5.0	600.0	1.0	8.0	1.0	7.0	0.0	part_2
232	1.0	7.0			600.0	0.0	0.0							5.0	0.0	0.4960008429479785	5.0	600.0	1.0	8.0	1.0	7.0	0.0	part_2
233	1.0	7.0			600.0	0.0	0.0							5.0	0.0	0.7767878192826174	5.0	600.0	4.0	5.0	4.0	4.0	0.0	part_2
234	1.0	7.0			600.0	0.0	0.0							6.0	0.0	0.6650711097172461	6.0	600.0	3.0	4.0	3.0	1.0	0.0	part_2
235	1.0	7.0			600.0	0.0	0.0							5.0	0.0	0.5195094002992846	5.0	600.0	4.0	5.0	4.0	4.0	0.0	part_2
236	1.0	7.0			600.0	0.0	0.0							6.0	0.0	0.3859408313292079	6.0	600.0	4.0	5.0	4.0	4.0	0.0	part_2
237	1.0	7.0			600.0	0.0	0.0							6.0	0.0	0.5330336320330389	6.0	600.0	2.0	3.0	2.0	5.0	0.0	part_2
238	3.0	7.0			600.0	0.0	1.0							5.0	0.0	0.4676118816714734	5.0	600.0	4.0	6.0	8.0	3.0	1.0	part_2
239	1.0	7.0			550.0	0.0	1.0							5.0	0.0	0.7708182369824499	5.0	600.0	2.0	7.0	6.0	8.0	0.0	part_2
240	1.0	7.0			550.0	0.0	0.0							6.0	0.0	0.5123575252946466	6.0	600.0	4.0	5.0	4.0	4.0	0.0	part_2
241	1.0	7.0			550.0	0.0	0.0							5.0	0.0	0.6031823387020268	5.0	600.0	4.0	5.0	4.0	4.0	0.0	part_2
242	4.0	7.0			550.0	0.0	1.0							6.0	0.0	0.0	0.0	600.0	4.0	6.0	8.0	3.0	1.0	part_2
243	1.0	7.0			550.0	0.0	1.0							6.0	0.0	0.5719088823534548	6.0	650.0	3.0	2.0	7.0	6.0	0.0	part_2
244	1.0	7.0			550.0	0.0	0.0							6.0	0.0	0.6844098172732629	6.0	650.0	1.0	8.0	1.0	7.0	0.0	part_2
245	1.0	7.0			550.0	0.0	0.0							5.0	0.0	0.4167162746889517	5.0	650.0	4.0	5.0	4.0	4.0	0.0	part_2
246	1.0	7.0			550.0	0.0	0.0							6.0	0.0	0.4048981833620928	6.0	650.0	4.0	5.0	4.0	4.0	0.0	part_2
247	3.0	7.0			550.0	0.0	1.0							6.0	0.0	0.5759014112991281	6.0	650.0	1.0	1.0	5.0	2.0	1.0	part_2
248	1.0	7.0			550.0	0.0	1.0							5.0	0.0	0.5983549940283411	5.0	600.0	2.0	7.0	6.0	8.0	0.0	part_2
249	1.0	7.0			550.0	0.0	0.0							5.0	0.0	0.7808466983260587	5.0	600.0	4.0	5.0	4.0	4.0	0.0	part_2
250	1.0	7.0			550.0	0.0	1.0							5.0	0.0	0.6125574599718675	5.0	600.0	4.0	6.0	8.0	3.0	0.0	part_2
251	3.0	7.0			550.0	0.0	1.0							6.0	0.0	0.6794619982829317	6.0	600.0	3.0	2.0	7.0	6.0	1.0	part_2
252	3.0	8.0			550.0	0.0	1.0							6.0	0.0	0.4396058613201603	6.0	550.0	4.0	6.0	8.0	3.0	1.0	part_2
253	1.0	8.0			550.0	0.0	0.0							5.0	0.0	0.5550396266626194	5.0	500.0	1.0	8.0	1.0	7.0	0.0	part_2
254	1.0	8.0			550.0	0.0	0.0							5.0	0.0	0.6334953482728451	5.0	500.0	3.0	4.0	3.0	1.0	0.0	part_2
255	3.0	8.0			550.0	0.0	1.0							6.0	0.0	0.3409656960284337	6.0	500.0	4.0	6.0	8.0	3.0	1.0	part_2
256	1.0	8.0			550.0	0.0	0.0							5.0	0.0	0.4325902386335656	5.0	450.0	1.0	8.0	1.0	7.0	0.0	part_2
257	4.0	8.0			550.0	0.0	1.0							6.0	0.0	0.0	0.0	450.0	4.0	6.0	8.0	3.0	1.0	part_2
258	1.0	8.0			550.0	0.0	0.0							6.0	0.0	1.2098303549573757	6.0	500.0	3.0	4.0	3.0	1.0	0.0	part_2
259	1.0	8.0			550.0	0.0	1.0							5.0	0.0	0.9744905416155234	5.0	500.0	1.0	1.0	5.0	2.0	0.0	part_2
260	4.0	8.0			550.0	0.0	1.0							5.0	0.0	0.0	0.0	500.0	2.0	7.0	6.0	8.0	1.0	part_2
261	1.0	8.0			600.0	0.0	0.0							6.0	0.0	0.7641625250107609	6.0	500.0	4.0	5.0	4.0	4.0	0.0	part_2
262	4.0	8.0			600.0	0.0	1.0							6.0	0.0	0.0	0.0	500.0	3.0	2.0	7.0	6.0	1.0	part_2
263	4.0	8.0			600.0	0.0	1.0							6.0	0.0	0.0	0.0	550.0	4.0	6.0	8.0	3.0	1.0	part_2
264	4.0	8.0			600.0	0.0	1.0							5.0	0.0	0.0	0.0	600.0	2.0	7.0	6.0	8.0	1.0	part_2
265	1.0	8.0			650.0	0.0	0.0							6.0	0.0	1.0132457963190973	6.0	600.0	4.0	5.0	4.0	4.0	0.0	part_2
266	4.0	8.0			650.0	0.0	1.0							5.0	0.0	0.0	0.0	600.0	3.0	2.0	7.0	6.0	1.0	part_2
267	1.0	8.0			700.0	0.0	0.0							6.0	0.0	0.6791994203231297	6.0	600.0	3.0	4.0	3.0	1.0	0.0	part_2
268	3.0	8.0			700.0	0.0	1.0							6.0	0.0	0.6109901739982888	6.0	600.0	3.0	2.0	7.0	6.0	1.0	part_2
269	4.0	8.0			700.0	0.0	1.0							6.0	0.0	0.0	0.0	550.0	3.0	2.0	7.0	6.0	1.0	part_2
270	1.0	8.0			700.0	0.0	0.0							5.0	0.0	1.187756110681221	5.0	600.0	3.0	4.0	3.0	1.0	0.0	part_2
271	1.0	8.0			700.0	0.0	0.0							5.0	0.0	0.9054062209906988	5.0	600.0	2.0	3.0	2.0	5.0	0.0	part_2
272	1.0	8.0			700.0	0.0	0.0							5.0	0.0	0.69325240701437	5.0	600.0	1.0	8.0	1.0	7.0	0.0	part_2
273	1.0	8.0			700.0	0.0	0.0							5.0	0.0	0.7504436370218173	5.0	600.0	2.0	3.0	2.0	5.0	0.0	part_2
274	3.0	8.0			700.0	0.0	1.0							6.0	0.0	0.7282361556426622	6.0	600.0	4.0	6.0	8.0	3.0	1.0	part_2
275	4.0	8.0			700.0	0.0	1.0							5.0	0.0	0.0	0.0	550.0	3.0	2.0	7.0	6.0	1.0	part_2
276	4.0	8.0			750.0	0.0	1.0							5.0	0.0	0.0	0.0	550.0	3.0	2.0	7.0	6.0	1.0	part_2
277	1.0	8.0			800.0	0.0	0.0							6.0	0.0	0.9339599376544356	6.0	550.0	1.0	8.0	1.0	7.0	0.0	part_2
278	1.0	8.0			800.0	0.0	0.0							6.0	0.0	0.945576329017058	6.0	550.0	4.0	5.0	4.0	4.0	0.0	part_2
279	3.0	8.0			800.0	0.0	1.0							5.0	0.0	0.7667269282974303	5.0	550.0	2.0	7.0	6.0	8.0	1.0	part_2
280	1.0	8.0			750.0	0.0	0.0							5.0	0.0	1.1050681100459772	5.0	550.0	2.0	3.0	2.0	5.0	0.0	part_2
281	1.0	8.0			750.0	0.0	0.0							5.0	0.0	0.9935138263390401	5.0	550.0	2.0	3.0	2.0	5.0	0.0	part_2
282	3.0	8.0			750.0	0.0	1.0							5.0	0.0	0.8698371353093535	5.0	550.0	4.0	6.0	8.0	3.0	1.0	part_2
283	4.0	8.0			700.0	0.0	1.0							6.0	0.0	0.0	0.0	550.0	2.0	7.0	6.0	8.0	1.0	part_2
284	1.0	8.0			700.0	0.0	0.0							5.0	0.0	0.9613931216299534	5.0	600.0	2.0	3.0	2.0	5.0	0.0	part_2
285	4.0	8.0			700.0	0.0	1.0							5.0	0.0	0.0	0.0	600.0	3.0	2.0	7.0	6.0	1.0	part_2
286	4.0	8.0			750.0	0.0	1.0							5.0	0.0	0.0	0.0	600.0	1.0	1.0	5.0	2.0	1.0	part_2
287	1.0	8.0			800.0	0.0	0.0							6.0	0.0	1.0322188822901808	6.0	600.0	3.0	4.0	3.0	1.0	0.0	part_2
0	0.0	1.0	54.0	1.0	0.0	1.0	0.0	108.0	216.0	54.0	162.0	270.0	324.0	7.0	0.0	2.596671928593423	3.0	0.0	3.0	4.0	3.0	1.0	0.0	part_3
1	0.0	1.0	156.0	4.0	0.0	1.0	0.0	117.0	39.0	78.0	234.0	156.0	195.0	7.0	0.0	4.4930161907104775	5.0	0.0	3.0	4.0	3.0	1.0	0.0	part_3
2	0.0	1.0	102.0	3.0	0.0	1.0	1.0	68.0	136.0	102.0	34.0	170.0	204.0	7.0	0.0	3.056573685666081	3.0	0.0	1.0	1.0	5.0	2.0	0.0	part_3
3	0.0	1.0	264.0	6.0	0.0	1.0	1.0	220.0	132.0	264.0	88.0	44.0	176.0	7.0	0.0	4.430221082002389	3.0	0.0	4.0	6.0	8.0	3.0	0.0	part_3
4	0.0	1.0	204.0	6.0	0.0	1.0	0.0	204.0	102.0	136.0	34.0	68.0	170.0	7.0	0.0	3.0012391260243017	1.0	0.0	1.0	8.0	1.0	7.0	0.0	part_3
5	0.0	1.0	196.0	4.0	0.0	1.0	0.0	98.0	196.0	294.0	147.0	49.0	245.0	7.0	0.0	2.8903753033373505	2.0	0.0	1.0	8.0	1.0	7.0	0.0	part_3
6	0.0	1.0	147.0	3.0	0.0	1.0	1.0	98.0	147.0	196.0	245.0	49.0	294.0	7.0	0.0	3.992753625672776	2.0	0.0	2.0	7.0	6.0	8.0	0.0	part_3
7	0.0	1.0	98.0	2.0	0.0	1.0	0.0	147.0	49.0	196.0	294.0	98.0	245.0	7.0	0.0	3.427759161684662	5.0	0.0	4.0	5.0	4.0	4.0	0.0	part_3
8	0.0	1.0	204.0	6.0	0.0	1.0	1.0	136.0	204.0	170.0	34.0	102.0	68.0	7.0	0.0	3.2943031143513513	2.0	0.0	3.0	2.0	7.0	6.0	0.0	part_3
9	0.0	1.0	156.0	4.0	0.0	1.0	1.0	156.0	78.0	117.0	195.0	234.0	39.0	7.0	0.0	3.058682812668849	1.0	0.0	1.0	1.0	5.0	2.0	0.0	part_3
10	0.0	1.0	195.0	5.0	0.0	1.0	0.0	78.0	195.0	156.0	234.0	39.0	117.0	7.0	0.0	3.8464460039976975	2.0	0.0	2.0	3.0	2.0	5.0	0.0	part_3
11	0.0	1.0	147.0	3.0	0.0	1.0	1.0	49.0	147.0	196.0	98.0	294.0	245.0	7.0	0.0	3.0374898133450188	2.0	0.0	1.0	1.0	5.0	2.0	0.0	part_3
12	0.0	1.0	162.0	3.0	0.0	1.0	0.0	270.0	216.0	162.0	108.0	324.0	54.0	7.0	0.0	2.3527833963744342	3.0	0.0	2.0	3.0	2.0	5.0	0.0	part_3
13	0.0	1.0	195.0	5.0	0.0	1.0	1.0	117.0	156.0	195.0	78.0	234.0	39.0	7.0	0.0	3.378698071290273	3.0	0.0	2.0	7.0	6.0	8.0	0.0	part_3
14	0.0	1.0	147.0	3.0	0.0	1.0	1.0	294.0	49.0	245.0	98.0	147.0	196.0	7.0	0.0	1.6697230060235595	5.0	0.0	3.0	2.0	7.0	6.0	0.0	part_3
15	0.0	1.0	176.0	4.0	0.0	1.0	1.0	176.0	220.0	88.0	132.0	44.0	264.0	7.0	0.0	2.7728539906675	1.0	0.0	3.0	2.0	7.0	6.0	0.0	part_3
16	0.0	1.0	324.0	6.0	0.0	1.0	1.0	270.0	108.0	162.0	54.0	324.0	216.0	7.0	0.0	3.414383429684676	5.0	0.0	4.0	6.0	8.0	3.0	0.0	part_3
17	0.0	1.0	147.0	3.0	0.0	1.0	1.0	245.0	147.0	196.0	98.0	294.0	49.0	7.0	0.0	1.5600708280107938	2.0	0.0	1.0	1.0	5.0	2.0	0.0	part_3
18	0.0	1.0	216.0	4.0	0.0	1.0	1.0	270.0	162.0	324.0	216.0	108.0	54.0	7.0	0.0	3.888606628635898	4.0	0.0	3.0	2.0	7.0	6.0	0.0	part_3
19	0.0	1.0	108.0	2.0	0.0	1.0	0.0	270.0	162.0	216.0	324.0	54.0	108.0	7.0	0.0	3.969776837679092	6.0	0.0	1.0	8.0	1.0	7.0	0.0	part_3
20	0.0	2.0	196.0	4.0	0.0	1.0	0.0	98.0	294.0	49.0	147.0	196.0	245.0	7.0	0.0	2.6932029713061643	5.0	0.0	1.0	8.0	1.0	7.0	0.0	part_3
21	0.0	2.0	39.0	1.0	0.0	1.0	0.0	78.0	234.0	195.0	39.0	117.0	156.0	7.0	0.0	2.290483769669663	4.0	0.0	4.0	5.0	4.0	4.0	0.0	part_3
22	0.0	2.0	34.0	1.0	0.0	1.0	0.0	204.0	34.0	68.0	170.0	136.0	102.0	7.0	0.0	1.1876091053127311	2.0	0.0	4.0	5.0	4.0	4.0	0.0	part_3
23	0.0	2.0	195.0	5.0	0.0	1.0	0.0	78.0	117.0	234.0	39.0	156.0	195.0	7.0	0.0	1.4141008727019653	6.0	0.0	1.0	8.0	1.0	7.0	0.0	part_3
24	0.0	2.0	294.0	6.0	0.0	1.0	0.0	196.0	49.0	98.0	294.0	245.0	147.0	7.0	0.0	1.8988733057049103	4.0	0.0	3.0	4.0	3.0	1.0	0.0	part_3
25	0.0	2.0	176.0	4.0	0.0	1.0	0.0	220.0	44.0	132.0	88.0	264.0	176.0	7.0	0.0	2.373656682379078	6.0	0.0	1.0	8.0	1.0	7.0	0.0	part_3
26	0.0	2.0	88.0	2.0	0.0	1.0	0.0	88.0	264.0	176.0	44.0	132.0	220.0	7.0	0.0	1.8690691452939063	1.0	0.0	4.0	5.0	4.0	4.0	0.0	part_3
27	0.0	2.0	147.0	3.0	0.0	1.0	1.0	294.0	147.0	98.0	196.0	49.0	245.0	7.0	0.0	1.2605282396543769	2.0	0.0	4.0	6.0	8.0	3.0	0.0	part_3
28	0.0	2.0	88.0	2.0	0.0	1.0	1.0	176.0	88.0	44.0	264.0	132.0	220.0	7.0	0.0	1.2736952873528935	2.0	0.0	4.0	6.0	8.0	3.0	0.0	part_3
29	0.0	2.0	204.0	6.0	0.0	1.0	1.0	136.0	34.0	68.0	102.0	204.0	170.0	7.0	0.0	2.5465091363294046	5.0	0.0	3.0	2.0	7.0	6.0	0.0	part_3
30	0.0	2.0	234.0	6.0	0.0	1.0	1.0	78.0	234.0	195.0	156.0	39.0	117.0	7.0	0.0	1.7608774553518742	2.0	0.0	3.0	2.0	7.0	6.0	0.0	part_3
31	0.0	2.0	170.0	5.0	0.0	1.0	1.0	34.0	136.0	68.0	170.0	102.0	204.0	7.0	0.0	3.189271519659087	4.0	0.0	4.0	6.0	8.0	3.0	0.0	part_3
32	0.0	2.0	176.0	4.0	0.0	1.0	1.0	176.0	264.0	132.0	88.0	220.0	44.0	7.0	0.0	1.7161707670311444	1.0	0.0	1.0	1.0	5.0	2.0	0.0	part_3
33	0.0	2.0	34.0	1.0	0.0	1.0	0.0	136.0	170.0	204.0	102.0	68.0	34.0	7.0	0.0	1.6173111283569597	6.0	0.0	2.0	3.0	2.0	5.0	0.0	part_3
34	0.0	2.0	44.0	1.0	0.0	1.0	0.0	264.0	220.0	176.0	132.0	88.0	44.0	7.0	0.0	0.9539568280451932	6.0	0.0	2.0	3.0	2.0	5.0	0.0	part_3
35	0.0	2.0	170.0	5.0	0.0	1.0	1.0	136.0	170.0	68.0	204.0	102.0	34.0	7.0	0.0	2.1813218063907702	2.0	0.0	1.0	1.0	5.0	2.0	0.0	part_3
36	0.0	2.0	44.0	1.0	0.0	1.0	1.0	88.0	132.0	44.0	176.0	220.0	264.0	7.0	0.0	1.6315130503498951	3.0	0.0	2.0	7.0	6.0	8.0	0.0	part_3
37	0.0	2.0	195.0	5.0	0.0	1.0	0.0	234.0	78.0	156.0	39.0	117.0	195.0	7.0	0.0	1.8694207557127809	6.0	0.0	1.0	8.0	1.0	7.0	0.0	part_3
38	0.0	2.0	132.0	3.0	0.0	1.0	1.0	176.0	132.0	44.0	220.0	88.0	264.0	7.0	0.0	2.0956438166904263	2.0	0.0	1.0	1.0	5.0	2.0	0.0	part_3
39	0.0	2.0	204.0	6.0	0.0	1.0	0.0	136.0	102.0	34.0	170.0	204.0	68.0	7.0	0.0	1.173033078026492	5.0	0.0	1.0	8.0	1.0	7.0	0.0	part_3
40	0.0	3.0	78.0	2.0	0.0	1.0	1.0	234.0	117.0	78.0	195.0	39.0	156.0	7.0	0.0	1.5709453313611448	3.0	0.0	1.0	1.0	5.0	2.0	0.0	part_3
41	0.0	3.0	49.0	1.0	0.0	1.0	1.0	245.0	294.0	49.0	147.0	98.0	196.0	7.0	0.0	1.820649768400472	3.0	0.0	3.0	2.0	7.0	6.0	0.0	part_3
42	0.0	3.0	98.0	2.0	0.0	1.0	1.0	294.0	196.0	147.0	98.0	245.0	49.0	7.0	0.0	1.3261470663710495	4.0	0.0	4.0	6.0	8.0	3.0	0.0	part_3
43	0.0	3.0	136.0	4.0	0.0	1.0	0.0	136.0	34.0	102.0	68.0	170.0	204.0	7.0	0.0	2.8361933719716035	1.0	0.0	3.0	4.0	3.0	1.0	0.0	part_3
44	0.0	3.0	204.0	6.0	0.0	1.0	1.0	136.0	34.0	170.0	204.0	68.0	102.0	7.0	0.0	1.4875501776696185	4.0	0.0	2.0	7.0	6.0	8.0	0.0	part_3
45	0.0	3.0	216.0	4.0	0.0	1.0	1.0	162.0	108.0	216.0	270.0	324.0	54.0	7.0	0.0	2.105404036701657	3.0	0.0	2.0	7.0	6.0	8.0	0.0	part_3
46	0.0	3.0	264.0	6.0	0.0	1.0	1.0	264.0	88.0	132.0	44.0	220.0	176.0	7.0	0.0	2.0966413167188875	1.0	0.0	3.0	2.0	7.0	6.0	0.0	part_3
47	0.0	3.0	147.0	3.0	0.0	1.0	0.0	245.0	98.0	147.0	49.0	294.0	196.0	7.0	0.0	1.8844673000276089	3.0	0.0	3.0	4.0	3.0	1.0	0.0	part_3
48	0.0	3.0	234.0	6.0	0.0	1.0	1.0	78.0	234.0	39.0	195.0	156.0	117.0	7.0	0.0	1.6819220336619765	2.0	0.0	4.0	6.0	8.0	3.0	0.0	part_3
49	0.0	3.0	108.0	2.0	0.0	1.0	1.0	162.0	270.0	54.0	216.0	108.0	324.0	7.0	0.0	1.8077030536951495	5.0	0.0	1.0	1.0	5.0	2.0	0.0	part_3
50	0.0	3.0	264.0	6.0	0.0	1.0	1.0	176.0	220.0	132.0	44.0	88.0	264.0	7.0	0.0	2.3814501736778766	6.0	0.0	2.0	7.0	6.0	8.0	0.0	part_3
51	0.0	3.0	196.0	4.0	0.0	1.0	1.0	294.0	49.0	245.0	147.0	196.0	98.0	7.0	0.0	1.9555523649905808	5.0	0.0	2.0	7.0	6.0	8.0	0.0	part_3
52	0.0	3.0	34.0	1.0	0.0	1.0	0.0	34.0	204.0	170.0	68.0	102.0	136.0	7.0	0.0	2.0454643900156952	1.0	0.0	2.0	3.0	2.0	5.0	0.0	part_3
53	0.0	3.0	44.0	1.0	0.0	1.0	0.0	264.0	176.0	44.0	220.0	132.0	88.0	7.0	0.0	2.2607814517105003	3.0	0.0	2.0	3.0	2.0	5.0	0.0	part_3
54	0.0	3.0	39.0	1.0	0.0	1.0	1.0	39.0	195.0	234.0	156.0	117.0	78.0	7.0	0.0	2.689379988005385	1.0	0.0	4.0	6.0	8.0	3.0	0.0	part_3
55	0.0	3.0	49.0	1.0	0.0	1.0	0.0	196.0	49.0	294.0	98.0	245.0	147.0	7.0	0.0	1.8019901656662116	2.0	0.0	2.0	3.0	2.0	5.0	0.0	part_3
56	0.0	3.0	195.0	5.0	0.0	1.0	1.0	234.0	156.0	39.0	117.0	195.0	78.0	7.0	0.0	1.7687161003705114	5.0	0.0	3.0	2.0	7.0	6.0	0.0	part_3
57	0.0	3.0	68.0	2.0	0.0	1.0	1.0	68.0	34.0	170.0	102.0	136.0	204.0	7.0	0.0	1.4096365493605845	1.0	0.0	4.0	6.0	8.0	3.0	0.0	part_3
58	0.0	3.0	324.0	6.0	0.0	1.0	0.0	270.0	324.0	54.0	108.0	216.0	162.0	7.0	0.0	1.4691029043751769	2.0	0.0	4.0	5.0	4.0	4.0	0.0	part_3
59	0.0	3.0	204.0	6.0	0.0	1.0	0.0	68.0	102.0	204.0	34.0	170.0	136.0	7.0	0.0	2.8643848790088664	3.0	0.0	3.0	4.0	3.0	1.0	0.0	part_3
60	0.0	4.0	44.0	1.0	0.0	1.0	0.0	88.0	220.0	44.0	264.0	132.0	176.0	7.0	0.0	2.179321654723026	3.0	0.0	3.0	4.0	3.0	1.0	0.0	part_3
61	0.0	4.0	88.0	2.0	0.0	1.0	0.0	132.0	88.0	220.0	176.0	44.0	264.0	7.0	0.0	1.1789742059772834	2.0	0.0	1.0	8.0	1.0	7.0	0.0	part_3
62	0.0	4.0	196.0	4.0	0.0	1.0	0.0	294.0	147.0	245.0	196.0	49.0	98.0	7.0	0.0	3.0601588530116715	4.0	0.0	4.0	5.0	4.0	4.0	0.0	part_3
63	0.0	4.0	216.0	4.0	0.0	1.0	0.0	270.0	216.0	108.0	162.0	54.0	324.0	7.0	0.0	3.2070799007196915	2.0	0.0	2.0	3.0	2.0	5.0	0.0	part_3
64	0.0	4.0	204.0	6.0	0.0	1.0	1.0	34.0	102.0	68.0	204.0	136.0	170.0	7.0	0.0	2.5788582597160707	4.0	0.0	2.0	7.0	6.0	8.0	0.0	part_3
65	0.0	4.0	270.0	5.0	0.0	1.0	1.0	54.0	216.0	162.0	270.0	108.0	324.0	7.0	0.0	4.5353653766796915	4.0	0.0	3.0	2.0	7.0	6.0	0.0	part_3
66	0.0	4.0	324.0	6.0	0.0	1.0	1.0	162.0	54.0	216.0	270.0	108.0	324.0	7.0	0.0	1.585420869640075	6.0	0.0	4.0	6.0	8.0	3.0	0.0	part_3
67	0.0	4.0	162.0	3.0	0.0	1.0	1.0	54.0	108.0	270.0	216.0	324.0	162.0	7.0	0.0	2.4200371646438725	6.0	0.0	2.0	7.0	6.0	8.0	0.0	part_3
68	0.0	4.0	49.0	1.0	0.0	1.0	0.0	98.0	245.0	49.0	294.0	147.0	196.0	7.0	0.0	2.172555971366819	3.0	0.0	2.0	3.0	2.0	5.0	0.0	part_3
69	0.0	4.0	44.0	1.0	0.0	1.0	0.0	220.0	44.0	264.0	176.0	88.0	132.0	7.0	0.0	1.1507127456134183	2.0	0.0	3.0	4.0	3.0	1.0	0.0	part_3
70	0.0	4.0	117.0	3.0	0.0	1.0	0.0	117.0	156.0	78.0	39.0	234.0	195.0	7.0	0.0	1.4552125966874885	1.0	0.0	2.0	3.0	2.0	5.0	0.0	part_3
71	0.0	4.0	54.0	1.0	0.0	1.0	0.0	108.0	54.0	162.0	324.0	270.0	216.0	7.0	0.0	1.5340598037000746	2.0	0.0	3.0	4.0	3.0	1.0	0.0	part_3
72	0.0	4.0	102.0	3.0	0.0	1.0	0.0	170.0	68.0	102.0	136.0	34.0	204.0	7.0	0.0	1.4222797929542141	3.0	0.0	4.0	5.0	4.0	4.0	0.0	part_3
73	0.0	4.0	162.0	3.0	0.0	1.0	1.0	324.0	162.0	216.0	270.0	54.0	108.0	7.0	0.0	1.6370223123230971	2.0	0.0	1.0	1.0	5.0	2.0	0.0	part_3
74	0.0	4.0	108.0	2.0	0.0	1.0	0.0	270.0	54.0	162.0	216.0	324.0	108.0	7.0	0.0	2.6844110853271554	6.0	0.0	4.0	5.0	4.0	4.0	0.0	part_3
75	0.0	4.0	195.0	5.0	0.0	1.0	1.0	78.0	39.0	234.0	156.0	195.0	117.0	7.0	0.0	1.4370428080437705	5.0	0.0	2.0	7.0	6.0	8.0	0.0	part_3
76	0.0	4.0	78.0	2.0	0.0	1.0	0.0	117.0	156.0	234.0	39.0	78.0	195.0	7.0	0.0	2.3164813153562136	5.0	0.0	4.0	5.0	4.0	4.0	0.0	part_3
77	0.0	4.0	39.0	1.0	0.0	1.0	0.0	117.0	78.0	195.0	156.0	234.0	39.0	7.0	0.0	2.5197298250277527	6.0	0.0	3.0	4.0	3.0	1.0	0.0	part_3
78	0.0	4.0	108.0	2.0	0.0	1.0	0.0	54.0	108.0	216.0	270.0	162.0	324.0	7.0	0.0	1.1379296309896745	2.0	0.0	1.0	8.0	1.0	7.0	0.0	part_3
79	0.0	4.0	88.0	2.0	0.0	1.0	0.0	176.0	132.0	44.0	264.0	220.0	88.0	7.0	0.0	1.6101157953380607	6.0	0.0	4.0	5.0	4.0	4.0	0.0	part_3
