	accuracy	block	chosen_bidding_amount	chosen_bidding_level	left_SSD	num_trial_presentations	paired_with_stopping	possible_bid_1	possible_bid_2	possible_bid_3	possible_bid_4	possible_bid_5	possible_bid_6	quadrant	raw_reward_magnitude	reaction_time	response	right_SSD	stepwise_reward_magnitude	stim_color	stim_reward	stim_shape	stop_signal_trial_type	which_part
0		1.0				1.0	1.0							2.0	63.0	0.5710048663895577	2.0		1.0	7.0	5.0	7.0		part_1
1		1.0				1.0	1.0							2.0	0.0	0.38150566950207576	2.0		0.0	7.0	5.0	7.0		part_1
2		1.0				1.0	0.0							3.0	0.0	0.3682581319590099	3.0		0.0	5.0	3.0	3.0		part_1
3		1.0				1.0	0.0							2.0	0.0	0.3250885992893018	2.0		0.0	1.0	2.0	1.0		part_1
4		1.0				1.0	1.0							4.0	111.0	0.3702861772035249	4.0		2.0	4.0	6.0	5.0		part_1
5		1.0				1.0	0.0							3.0	177.0	0.3489217867609113	3.0		3.0	5.0	3.0	3.0		part_1
6		1.0				1.0	0.0							3.0	33.0	0.3840072904131375	3.0		1.0	3.0	1.0	4.0		part_1
7		1.0				1.0	0.0							4.0	180.0	0.29304936330299824	4.0		3.0	5.0	3.0	3.0		part_1
8		1.0				1.0	1.0							2.0	177.0	0.3167696091695689	2.0		3.0	6.0	7.0	8.0		part_1
9		1.0				1.0	1.0							2.0	0.0	0.4518145975307562	2.0		0.0	4.0	6.0	5.0		part_1
10		1.0				1.0	0.0							1.0	109.0	0.34050305478740484	1.0		2.0	1.0	2.0	1.0		part_1
11		1.0				1.0	1.0							3.0	0.0	0.3182816719636321	3.0		0.0	2.0	8.0	6.0		part_1
12		1.0				1.0	1.0							3.0	37.0	0.3516345259267837	3.0		1.0	7.0	5.0	7.0		part_1
13		1.0				1.0	0.0							2.0	378.0	0.3415222714538686	2.0		4.0	8.0	4.0	2.0		part_1
14		1.0				1.0	0.0							3.0	390.0	0.3209871262661181	3.0		4.0	8.0	4.0	2.0		part_1
15		1.0				1.0	0.0							2.0	49.0	0.26408265897771344	2.0		1.0	3.0	1.0	4.0		part_1
16		1.0				1.0	1.0							2.0	47.0	0.3561632962082513	2.0		1.0	7.0	5.0	7.0		part_1
17		1.0				2.0	0.0							1.0	68.0	0.3330188296386041	1.0		1.0	3.0	1.0	4.0		part_1
18		1.0				1.0	1.0							4.0	0.0	0.3687662169104442	4.0		0.0	2.0	8.0	6.0		part_1
19		1.0				1.0	1.0							3.0	49.0	0.3453498329035938	3.0		1.0	7.0	5.0	7.0		part_1
20		1.0				2.0	1.0							3.0	399.0	0.3469734319369309	3.0		4.0	2.0	8.0	6.0		part_1
21		1.0				1.0	0.0							3.0	420.0	0.3041310312692076	3.0		4.0	8.0	4.0	2.0		part_1
22		1.0				1.0	1.0							4.0	223.0	0.3364835297106765	4.0		3.0	6.0	7.0	8.0		part_1
23		1.0				1.0	1.0							2.0	0.0	0.3032920115510933	2.0		0.0	4.0	6.0	5.0		part_1
24		1.0				1.0	0.0							1.0	421.0	0.36189467302756384	1.0		4.0	8.0	4.0	2.0		part_1
25		1.0				2.0	1.0							3.0	380.0	0.3376390439225361	3.0		4.0	2.0	8.0	6.0		part_1
26		1.0				1.0	0.0							2.0	91.0	0.32935105764772743	2.0		2.0	1.0	2.0	1.0		part_1
27		1.0				1.0	1.0							1.0	41.0	0.3185870132874697	1.0		1.0	7.0	5.0	7.0		part_1
28		1.0				1.0	0.0							4.0	378.0	0.3174364787410013	4.0		4.0	8.0	4.0	2.0		part_1
29		1.0				1.0	0.0							2.0	190.0	0.3854345787549392	2.0		3.0	5.0	3.0	3.0		part_1
30		1.0				1.0	1.0							3.0	0.0	0.3293867249158211	3.0		0.0	6.0	7.0	8.0		part_1
31		1.0				1.0	0.0							1.0	52.0	0.3086272301734425	1.0		1.0	3.0	1.0	4.0		part_1
32		1.0				1.0	0.0							1.0	25.0	0.3316357954754494	1.0		1.0	3.0	1.0	4.0		part_1
33		1.0				1.0	0.0							4.0	124.0	0.34343555016675964	4.0		2.0	1.0	2.0	1.0		part_1
34		1.0				1.0	0.0							2.0	206.0	0.3207151816459373	2.0		3.0	5.0	3.0	3.0		part_1
35		1.0				1.0	1.0							3.0	36.0	0.4218143674661405	3.0		1.0	7.0	5.0	7.0		part_1
36		1.0				1.0	1.0							4.0	33.0	0.3105298068840057	4.0		1.0	7.0	5.0	7.0		part_1
37		1.0				1.0	1.0							2.0	0.0	0.3672221339656971	2.0		0.0	7.0	5.0	7.0		part_1
38		1.0				1.0	1.0							2.0	52.0	0.30030739592621103	2.0		1.0	7.0	5.0	7.0		part_1
39		1.0				1.0	0.0							3.0	41.0	0.3347335458965972	3.0		1.0	3.0	1.0	4.0		part_1
40		1.0				1.0	1.0							1.0	399.0	0.4817552629392594	1.0		4.0	2.0	8.0	6.0		part_1
41		1.0				1.0	1.0							2.0	413.0	0.369646982755512	2.0		4.0	2.0	8.0	6.0		part_1
42		1.0				1.0	0.0							2.0	398.0	0.3813483029371128	2.0		4.0	8.0	4.0	2.0		part_1
43		1.0				1.0	1.0							3.0	106.0	0.3031232936773449	3.0		2.0	4.0	6.0	5.0		part_1
44		1.0				1.0	1.0							1.0	199.0	0.3170277402969077	1.0		3.0	6.0	7.0	8.0		part_1
45		1.0				1.0	0.0							3.0	0.0	0.31637560832314193	3.0		0.0	1.0	2.0	1.0		part_1
46		1.0				1.0	1.0							1.0	183.0	0.31607096624793485	1.0		3.0	6.0	7.0	8.0		part_1
47		1.0				1.0	1.0							1.0	107.0	0.2831040839082561	1.0		2.0	4.0	6.0	5.0		part_1
48		1.0				1.0	0.0							4.0	0.0	0.30646505451295525	4.0		0.0	8.0	4.0	2.0		part_1
49		1.0				1.0	0.0							3.0	89.0	0.2840254759648815	3.0		2.0	1.0	2.0	1.0		part_1
50		1.0				1.0	0.0							4.0	376.0	0.2958033066242933	4.0		4.0	8.0	4.0	2.0		part_1
51		1.0				1.0	0.0							1.0	0.0	0.2976453402079642	1.0		0.0	3.0	1.0	4.0		part_1
52		1.0				1.0	0.0							3.0	55.0	0.285348805016838	3.0		1.0	3.0	1.0	4.0		part_1
53		1.0				1.0	0.0							2.0	397.0	0.3213134192628786	2.0		4.0	8.0	4.0	2.0		part_1
54		1.0				1.0	1.0							1.0	121.0	0.26487017003819346	1.0		2.0	4.0	6.0	5.0		part_1
55		1.0				2.0	1.0							4.0	107.0	0.2541813885327429	4.0		2.0	4.0	6.0	5.0		part_1
56		1.0				1.0	0.0							2.0	99.0	0.3223868762142956	2.0		2.0	1.0	2.0	1.0		part_1
57		1.0				1.0	1.0							2.0	185.0	0.3923426972469315	2.0		3.0	6.0	7.0	8.0		part_1
58		1.0				1.0	1.0							4.0	200.0	0.32346960954600945	4.0		3.0	6.0	7.0	8.0		part_1
59		1.0				1.0	1.0							1.0	208.0	0.3012505774386227	1.0		3.0	6.0	7.0	8.0		part_1
60		1.0				1.0	1.0							3.0	0.0	0.2787878719973378	3.0		0.0	7.0	5.0	7.0		part_1
61		1.0				1.0	1.0							3.0	25.0	0.3368129121954553	3.0		1.0	7.0	5.0	7.0		part_1
62		1.0				1.0	1.0							3.0	74.0	0.34856345877051353	3.0		1.0	7.0	5.0	7.0		part_1
63		1.0				1.0	0.0							3.0	28.0	0.3036996579030529	3.0		1.0	3.0	1.0	4.0		part_1
64		1.0				1.0	1.0							2.0	400.0	0.30401943216566	2.0		4.0	2.0	8.0	6.0		part_1
65		1.0				1.0	0.0							1.0	60.0	0.2952361520146951	1.0		1.0	3.0	1.0	4.0		part_1
66		1.0				1.0	0.0							3.0	97.0	0.2609322179341689	3.0		2.0	1.0	2.0	1.0		part_1
67		1.0				1.0	1.0							4.0	378.0	0.2846072762040421	4.0		4.0	2.0	8.0	6.0		part_1
68		1.0				1.0	1.0							2.0	65.0	0.29527368856361136	2.0		1.0	7.0	5.0	7.0		part_1
69		1.0				1.0	0.0							4.0	55.0	0.3067111304262653	4.0		1.0	3.0	1.0	4.0		part_1
70		1.0				1.0	0.0							4.0	389.0	0.31891708727926016	4.0		4.0	8.0	4.0	2.0		part_1
71		1.0				1.0	1.0							2.0	0.0	0.3077626250451431	2.0		0.0	2.0	8.0	6.0		part_1
72		1.0				1.0	1.0							3.0	125.0	0.28655984898796305	3.0		2.0	4.0	6.0	5.0		part_1
73		1.0				1.0	0.0							2.0	0.0	0.3097231477149762	2.0		0.0	8.0	4.0	2.0		part_1
74		1.0				1.0	0.0							3.0	405.0	0.34406902018236	3.0		4.0	8.0	4.0	2.0		part_1
75		1.0				1.0	0.0							2.0	185.0	0.3325111622107215	2.0		3.0	5.0	3.0	3.0		part_1
76		1.0				1.0	1.0							4.0	0.0	0.3232761267572641	4.0		0.0	6.0	7.0	8.0		part_1
77		1.0				1.0	1.0							2.0	0.0	0.31246907252352685	2.0		0.0	2.0	8.0	6.0		part_1
78		1.0				1.0	1.0							1.0	381.0	0.27839668263914064	1.0		4.0	2.0	8.0	6.0		part_1
79		1.0				1.0	0.0							1.0	378.0	0.3477412175270729	1.0		4.0	8.0	4.0	2.0		part_1
80		1.0				1.0	0.0							1.0	98.0	0.3351590322563425	1.0		2.0	1.0	2.0	1.0		part_1
81		1.0				1.0	0.0							3.0	216.0	0.381661135063041	3.0		3.0	5.0	3.0	3.0		part_1
82		1.0				1.0	1.0							1.0	104.0	0.2931555372197181	1.0		2.0	4.0	6.0	5.0		part_1
83		1.0				2.0	1.0							4.0	0.0	0.3939149979851209	4.0		0.0	4.0	6.0	5.0		part_1
84		1.0				1.0	0.0							3.0	47.0	0.3270283227902837	3.0		1.0	3.0	1.0	4.0		part_1
85		1.0				1.0	1.0							2.0	223.0	0.32882501726271585	2.0		3.0	6.0	7.0	8.0		part_1
86		1.0				1.0	1.0							3.0	42.0	0.3399240529979579	3.0		1.0	7.0	5.0	7.0		part_1
87		1.0				1.0	1.0							4.0	68.0	0.3639364784467034	4.0		1.0	7.0	5.0	7.0		part_1
88		1.0				1.0	1.0							2.0	402.0	0.27470021753106266	2.0		4.0	2.0	8.0	6.0		part_1
89		1.0				1.0	0.0							1.0	216.0	0.3180300787789747	1.0		3.0	5.0	3.0	3.0		part_1
90		1.0				1.0	1.0							1.0	398.0	0.4089259926695377	1.0		4.0	2.0	8.0	6.0		part_1
91		1.0				1.0	1.0							1.0	405.0	0.00015198491746559742	1.0		4.0	2.0	8.0	6.0		part_1
92		1.0				1.0	1.0							1.0	61.0	0.4445514064282179	1.0		1.0	7.0	5.0	7.0		part_1
93		1.0				1.0	0.0							2.0	63.0	0.3450723160640337	2.0		1.0	3.0	1.0	4.0		part_1
94		1.0				1.0	1.0							4.0	62.0	0.2981379659031518	4.0		1.0	7.0	5.0	7.0		part_1
95		1.0				1.0	0.0							4.0	0.0	0.3444605491822585	4.0		0.0	3.0	1.0	4.0		part_1
96		1.0				1.0	1.0							1.0	376.0	0.33352310972986743	1.0		4.0	2.0	8.0	6.0		part_1
97		1.0				1.0	1.0							2.0	386.0	0.3225518656545319	2.0		4.0	2.0	8.0	6.0		part_1
98		1.0				1.0	1.0							4.0	217.0	0.34615842328639695	4.0		3.0	6.0	7.0	8.0		part_1
99		1.0				2.0	1.0							3.0	0.0	0.29096368892351165	3.0		0.0	2.0	8.0	6.0		part_1
100		2.0				1.0	1.0							3.0	98.0	0.3377843158086762	3.0		2.0	4.0	6.0	5.0		part_1
101		2.0				1.0	1.0							4.0	402.0	0.3739528596634045	4.0		4.0	2.0	8.0	6.0		part_1
102		2.0				1.0	0.0							4.0	27.0	0.3630725138937123	4.0		1.0	3.0	1.0	4.0		part_1
103		2.0				1.0	0.0							2.0	77.0	0.2846877782139927	2.0		2.0	1.0	2.0	1.0		part_1
104		2.0				1.0	1.0							4.0	396.0	0.2641634694300592	4.0		4.0	2.0	8.0	6.0		part_1
105		2.0				1.0	0.0							1.0	103.0	0.2966671114554629	1.0		2.0	1.0	2.0	1.0		part_1
106		2.0				1.0	1.0							3.0	0.0	0.28639954066602513	3.0		0.0	4.0	6.0	5.0		part_1
107		2.0				1.0	0.0							2.0	113.0	0.2880015530390665	2.0		2.0	1.0	2.0	1.0		part_1
108		2.0				1.0	0.0							4.0	178.0	0.2983836576458998	4.0		3.0	5.0	3.0	3.0		part_1
109		2.0				1.0	0.0							3.0	185.0	0.28818809654330835	3.0		3.0	5.0	3.0	3.0		part_1
110		2.0				1.0	1.0							2.0	212.0	0.2778793578036129	2.0		3.0	6.0	7.0	8.0		part_1
111		2.0				1.0	1.0							4.0	97.0	0.3009005911881104	4.0		2.0	4.0	6.0	5.0		part_1
112		2.0				1.0	0.0							1.0	97.0	0.2902388153015636	1.0		2.0	1.0	2.0	1.0		part_1
113		2.0				1.0	0.0							4.0	195.0	0.3133428454748355	4.0		3.0	5.0	3.0	3.0		part_1
114		2.0				1.0	1.0							3.0	87.0	0.2895811618072912	3.0		2.0	4.0	6.0	5.0		part_1
115		2.0				1.0	1.0							3.0	93.0	0.3017913624062203	3.0		2.0	4.0	6.0	5.0		part_1
116		2.0				1.0	0.0							4.0	0.0	0.2913088622735813	4.0		0.0	1.0	2.0	1.0		part_1
117		2.0				1.0	1.0							2.0	0.0	0.3252630645292811	2.0		0.0	6.0	7.0	8.0		part_1
118		2.0				1.0	0.0							2.0	0.0	0.3164798710495233	2.0		0.0	5.0	3.0	3.0		part_1
119		2.0				1.0	1.0							2.0	116.0	0.30390528816496953	2.0		2.0	4.0	6.0	5.0		part_1
120		2.0				1.0	0.0							4.0	60.0	0.2822941687772982	4.0		1.0	3.0	1.0	4.0		part_1
121		2.0				1.0	1.0							4.0	27.0	0.29450191691285	4.0		1.0	7.0	5.0	7.0		part_1
122		2.0				1.0	0.0							4.0	386.0	0.2945499694906175	4.0		4.0	8.0	4.0	2.0		part_1
123		2.0				1.0	1.0							2.0	181.0	0.2842305134399794	2.0		3.0	6.0	7.0	8.0		part_1
124		2.0				2.0	0.0							3.0	219.0	0.33103046397445723	3.0		3.0	5.0	3.0	3.0		part_1
125		2.0				1.0	0.0							2.0	0.0	0.3419570202822797	2.0		0.0	3.0	1.0	4.0		part_1
126		2.0				2.0	1.0							1.0	0.0	0.3762527267099358	1.0		0.0	7.0	5.0	7.0		part_1
127		2.0				1.0	0.0							2.0	181.0	0.4119803117355332	2.0		3.0	5.0	3.0	3.0		part_1
128		2.0				1.0	0.0							4.0	208.0	0.30960598087403923	4.0		3.0	5.0	3.0	3.0		part_1
129		2.0				1.0	1.0							1.0	62.0	0.3337053927243687	1.0		1.0	7.0	5.0	7.0		part_1
130		2.0				1.0	0.0							2.0	91.0	0.27766539790900424	2.0		2.0	1.0	2.0	1.0		part_1
131		2.0				1.0	1.0							2.0	47.0	0.3246774162398651	2.0		1.0	7.0	5.0	7.0		part_1
132		2.0				1.0	0.0							4.0	117.0	0.3123700522701256	4.0		2.0	1.0	2.0	1.0		part_1
133		2.0				1.0	1.0							1.0	60.0	0.3256232361891307	1.0		1.0	7.0	5.0	7.0		part_1
134		2.0				1.0	0.0							4.0	116.0	0.31473122199531645	4.0		2.0	1.0	2.0	1.0		part_1
135		2.0				1.0	0.0							4.0	0.0	0.35857489140471444	4.0		0.0	1.0	2.0	1.0		part_1
136		2.0				1.0	0.0							4.0	402.0	0.34963186574168503	4.0		4.0	8.0	4.0	2.0		part_1
137		2.0				1.0	0.0							3.0	87.0	0.33666732924757525	3.0		2.0	1.0	2.0	1.0		part_1
138		2.0				1.0	0.0							1.0	0.0	0.2712859562016092	1.0		0.0	1.0	2.0	1.0		part_1
139		2.0				1.0	0.0							1.0	52.0	0.3282586808782071	1.0		1.0	3.0	1.0	4.0		part_1
140		2.0				1.0	1.0							3.0	0.0	0.3503970157471485	3.0		0.0	7.0	5.0	7.0		part_1
141		2.0				1.0	0.0							4.0	400.0	0.3170122856972739	4.0		4.0	8.0	4.0	2.0		part_1
142		2.0				1.0	1.0							3.0	415.0	0.3628696833038703	3.0		4.0	2.0	8.0	6.0		part_1
143		2.0				1.0	0.0							2.0	36.0	0.3186092541436665	2.0		1.0	3.0	1.0	4.0		part_1
144		2.0				1.0	0.0							3.0	205.0	0.2972228839644231	3.0		3.0	5.0	3.0	3.0		part_1
145		2.0				1.0	0.0							4.0	0.0	0.28587692551082	4.0		0.0	5.0	3.0	3.0		part_1
146		2.0				1.0	0.0							3.0	47.0	0.28716078167781234	3.0		1.0	3.0	1.0	4.0		part_1
147		2.0				1.0	1.0							1.0	97.0	0.3210179274319671	1.0		2.0	4.0	6.0	5.0		part_1
148		2.0				1.0	0.0							2.0	212.0	0.3096343236393295	2.0		3.0	5.0	3.0	3.0		part_1
149		2.0				1.0	1.0							3.0	52.0	0.30036663479404524	3.0		1.0	7.0	5.0	7.0		part_1
150		2.0				1.0	0.0							3.0	92.0	0.34538791328668594	3.0		2.0	1.0	2.0	1.0		part_1
151		2.0				1.0	0.0							2.0	80.0	0.28847994486568496	2.0		2.0	1.0	2.0	1.0		part_1
152		2.0				1.0	1.0							4.0	0.0	0.2787058665417135	4.0		0.0	7.0	5.0	7.0		part_1
153		2.0				1.0	1.0							2.0	0.0	0.2793630438973196	2.0		0.0	6.0	7.0	8.0		part_1
154		2.0				1.0	0.0							4.0	0.0	0.2921422227518633	4.0		0.0	3.0	1.0	4.0		part_1
155		2.0				1.0	0.0							2.0	47.0	0.2915434042806737	2.0		1.0	3.0	1.0	4.0		part_1
156		2.0				1.0	1.0							1.0	36.0	0.29314981994684786	1.0		1.0	7.0	5.0	7.0		part_1
157		2.0				1.0	1.0							2.0	109.0	0.32697901548817754	2.0		2.0	4.0	6.0	5.0		part_1
158		2.0				1.0	1.0							4.0	205.0	0.3939448070013896	4.0		3.0	6.0	7.0	8.0		part_1
159		2.0				1.0	1.0							2.0	0.0	0.2707623139140196	2.0		0.0	6.0	7.0	8.0		part_1
160		2.0				1.0	0.0							4.0	408.0	0.3173701630439609	4.0		4.0	8.0	4.0	2.0		part_1
161		2.0				1.0	0.0							1.0	183.0	0.2723023977596313	1.0		3.0	5.0	3.0	3.0		part_1
162		2.0				1.0	1.0							2.0	92.0	0.3171438812278211	2.0		2.0	4.0	6.0	5.0		part_1
163		2.0				1.0	1.0							2.0	216.0	0.3298891615122557	2.0		3.0	6.0	7.0	8.0		part_1
164		2.0				1.0	0.0							2.0	402.0	0.29637325467774644	2.0		4.0	8.0	4.0	2.0		part_1
165		2.0				1.0	0.0							2.0	30.0	0.2963605962577276	2.0		1.0	3.0	1.0	4.0		part_1
166		2.0				1.0	0.0							4.0	107.0	0.3079308575252071	4.0		2.0	1.0	2.0	1.0		part_1
167		2.0				1.0	1.0							1.0	70.0	0.3092586589627899	1.0		1.0	7.0	5.0	7.0		part_1
168		2.0				1.0	0.0							3.0	0.0	0.3213777018827386	3.0		0.0	5.0	3.0	3.0		part_1
169		2.0				1.0	1.0							3.0	0.0	0.320847574796062	3.0		0.0	2.0	8.0	6.0		part_1
170		2.0				1.0	1.0							4.0	422.0	0.2765989665058441	4.0		4.0	2.0	8.0	6.0		part_1
171		2.0				1.0	0.0							3.0	405.0	0.3218633984797634	3.0		4.0	8.0	4.0	2.0		part_1
172		2.0				2.0	1.0							1.0	420.0	0.289937513647601	1.0		4.0	2.0	8.0	6.0		part_1
173		2.0				1.0	1.0							4.0	121.0	0.39358495391206816	4.0		2.0	4.0	6.0	5.0		part_1
174		2.0				1.0	1.0							2.0	0.0	0.3814595717121847	2.0		0.0	7.0	5.0	7.0		part_1
175		2.0				1.0	1.0							4.0	194.0	0.2593841216294095	4.0		3.0	6.0	7.0	8.0		part_1
176		2.0				1.0	0.0							4.0	415.0	0.34937168791657314	4.0		4.0	8.0	4.0	2.0		part_1
177		2.0				1.0	0.0							4.0	0.0	0.3602024916908704	4.0		0.0	5.0	3.0	3.0		part_1
178		2.0				1.0	1.0							3.0	397.0	0.3378005170379765	3.0		4.0	2.0	8.0	6.0		part_1
179		2.0				1.0	0.0							4.0	0.0	0.5765172344399616	4.0		0.0	3.0	1.0	4.0		part_1
180		2.0				2.0	1.0							4.0	424.0	0.4068240709020756	4.0		4.0	2.0	8.0	6.0		part_1
181		2.0				1.0	0.0							1.0	398.0	0.3646600568899885	1.0		4.0	8.0	4.0	2.0		part_1
182		2.0				1.0	1.0							2.0	107.0	0.4765563554828986	2.0		2.0	4.0	6.0	5.0		part_1
183		2.0				1.0	0.0							2.0	214.0	0.3542445572675206	2.0		3.0	5.0	3.0	3.0		part_1
184		2.0				1.0	0.0							4.0	31.0	0.3539891412947327	4.0		1.0	3.0	1.0	4.0		part_1
185		2.0				1.0	1.0							2.0	124.0	0.3646489447564818	2.0		2.0	4.0	6.0	5.0		part_1
186		2.0				1.0	1.0							2.0	0.0	0.3995178807526827	2.0		0.0	4.0	6.0	5.0		part_1
187		2.0				2.0	0.0							1.0	409.0	0.33460564009146765	1.0		4.0	8.0	4.0	2.0		part_1
188		2.0				1.0	1.0							3.0	185.0	0.3559198090224527	3.0		3.0	6.0	7.0	8.0		part_1
189		2.0				1.0	1.0							4.0	410.0	0.3897665169206448	4.0		4.0	2.0	8.0	6.0		part_1
190		2.0				1.0	0.0							2.0	381.0	0.35718880366766825	2.0		4.0	8.0	4.0	2.0		part_1
191		2.0				1.0	1.0							1.0	206.0	0.3578949859365821	1.0		3.0	6.0	7.0	8.0		part_1
192		2.0				1.0	0.0							4.0	422.0	0.29096455773105845	4.0		4.0	8.0	4.0	2.0		part_1
193		2.0				1.0	0.0							1.0	380.0	0.2914282777928747	1.0		4.0	8.0	4.0	2.0		part_1
194		2.0				1.0	1.0							1.0	0.0	0.3035933167557232	1.0		0.0	2.0	8.0	6.0		part_1
195		2.0				1.0	1.0							2.0	419.0	0.3708396746660583	2.0		4.0	2.0	8.0	6.0		part_1
196		2.0				1.0	1.0							2.0	0.0	0.31561153940856457	2.0		0.0	6.0	7.0	8.0		part_1
197		2.0				1.0	1.0							1.0	187.0	0.2604889004142024	1.0		3.0	6.0	7.0	8.0		part_1
198		2.0				1.0	0.0							1.0	0.0	0.29581684595905244	1.0		0.0	8.0	4.0	2.0		part_1
199		2.0				1.0	1.0							1.0	78.0	0.2830913766520098	1.0		2.0	4.0	6.0	5.0		part_1
200		3.0				1.0	1.0							4.0	117.0	0.3763053031871095	4.0		2.0	4.0	6.0	5.0		part_1
201		3.0				1.0	0.0							1.0	69.0	0.2760360059328377	1.0		1.0	3.0	1.0	4.0		part_1
202		3.0				1.0	1.0							1.0	390.0	0.3211068089003675	1.0		4.0	2.0	8.0	6.0		part_1
203		3.0				1.0	1.0							4.0	378.0	0.3234320536721498	4.0		4.0	2.0	8.0	6.0		part_1
204		3.0				1.0	0.0							3.0	0.0	0.345069000555668	3.0		0.0	3.0	1.0	4.0		part_1
205		3.0				1.0	0.0							4.0	121.0	0.3693446972756647	4.0		2.0	1.0	2.0	1.0		part_1
206		3.0				1.0	1.0							1.0	44.0	0.34791096905246377	1.0		1.0	7.0	5.0	7.0		part_1
207		3.0				1.0	0.0							4.0	0.0	0.34702769154682755	4.0		0.0	5.0	3.0	3.0		part_1
208		3.0				1.0	1.0							2.0	418.0	0.29272666637552897	2.0		4.0	2.0	8.0	6.0		part_1
209		3.0				1.0	0.0							2.0	66.0	0.30350360175361857	2.0		1.0	3.0	1.0	4.0		part_1
210		3.0				1.0	1.0							4.0	189.0	0.37210615730145946	4.0		3.0	6.0	7.0	8.0		part_1
211		3.0				1.0	1.0							2.0	90.0	0.3495729514979757	2.0		2.0	4.0	6.0	5.0		part_1
212		3.0				1.0	1.0							3.0	379.0	0.33877684792969376	3.0		4.0	2.0	8.0	6.0		part_1
213		3.0				1.0	0.0							1.0	44.0	0.2955512892222032	1.0		1.0	3.0	1.0	4.0		part_1
214		3.0				1.0	1.0							3.0	75.0	0.3386590941809118	3.0		2.0	4.0	6.0	5.0		part_1
215		3.0				1.0	1.0							3.0	204.0	0.384367122547701	3.0		3.0	6.0	7.0	8.0		part_1
216		3.0				1.0	0.0							3.0	421.0	0.4308898206218146	3.0		4.0	8.0	4.0	2.0		part_1
217		3.0				1.0	1.0							1.0	91.0	0.39906348346266896	1.0		2.0	4.0	6.0	5.0		part_1
218		3.0				1.0	0.0							2.0	0.0	0.3770535091753118	2.0		0.0	3.0	1.0	4.0		part_1
219		3.0				1.0	0.0							2.0	175.0	0.3775020576431416	2.0		3.0	5.0	3.0	3.0		part_1
220		3.0				1.0	0.0							2.0	0.0	0.3552294652326964	2.0		0.0	5.0	3.0	3.0		part_1
221		3.0				1.0	1.0							2.0	36.0	0.4005529336864129	2.0		1.0	7.0	5.0	7.0		part_1
222		3.0				1.0	0.0							3.0	193.0	0.4350522850872949	3.0		3.0	5.0	3.0	3.0		part_1
223		3.0				1.0	1.0							2.0	0.0	0.3334723017178476	2.0		0.0	6.0	7.0	8.0		part_1
224		3.0				1.0	0.0							3.0	413.0	0.5134705886011943	3.0		4.0	8.0	4.0	2.0		part_1
225		3.0				1.0	1.0							2.0	66.0	0.4238239073893055	2.0		1.0	7.0	5.0	7.0		part_1
226		3.0				1.0	0.0							2.0	61.0	0.3796365386224352	2.0		1.0	3.0	1.0	4.0		part_1
227		3.0				1.0	0.0							4.0	61.0	0.3121376726776361	4.0		1.0	3.0	1.0	4.0		part_1
228		3.0				1.0	0.0							3.0	410.0	0.3012743904837407	3.0		4.0	8.0	4.0	2.0		part_1
229		3.0				1.0	1.0							1.0	85.0	0.2915514380438253	1.0		2.0	4.0	6.0	5.0		part_1
230		3.0				1.0	1.0							4.0	405.0	0.3039630290586501	4.0		4.0	2.0	8.0	6.0		part_1
231		3.0				1.0	0.0							2.0	107.0	0.3150134434690699	2.0		2.0	1.0	2.0	1.0		part_1
232		3.0				1.0	1.0							3.0	0.0	0.3055271627963521	3.0		0.0	4.0	6.0	5.0		part_1
233		3.0				1.0	0.0							2.0	380.0	0.3157740096794441	2.0		4.0	8.0	4.0	2.0		part_1
234		3.0				1.0	0.0							2.0	62.0	0.30640259565552697	2.0		1.0	3.0	1.0	4.0		part_1
235		3.0				1.0	0.0							2.0	0.0	0.33021490287501365	2.0		0.0	8.0	4.0	2.0		part_1
236		3.0				1.0	1.0							3.0	380.0	0.4315854848828167	3.0		4.0	2.0	8.0	6.0		part_1
237		3.0				1.0	1.0							1.0	113.0	0.30814194900449365	1.0		2.0	4.0	6.0	5.0		part_1
238		3.0				1.0	0.0							2.0	410.0	0.29644421307602903	2.0		4.0	8.0	4.0	2.0		part_1
239		3.0				1.0	0.0							4.0	36.0	0.3196718480321579	4.0		1.0	3.0	1.0	4.0		part_1
240		3.0				1.0	0.0							3.0	85.0	0.3422230249852873	3.0		2.0	1.0	2.0	1.0		part_1
241		3.0				1.0	1.0							2.0	103.0	0.3313082120148465	2.0		2.0	4.0	6.0	5.0		part_1
242		3.0				1.0	0.0							1.0	121.0	0.28763309528585523	1.0		2.0	1.0	2.0	1.0		part_1
243		3.0				1.0	0.0							3.0	85.0	0.29859579826006666	3.0		2.0	1.0	2.0	1.0		part_1
244		3.0				1.0	0.0							1.0	0.0	0.2332740824786015	1.0		0.0	8.0	4.0	2.0		part_1
245		3.0				1.0	1.0							1.0	0.0	0.2795521101797931	1.0		0.0	7.0	5.0	7.0		part_1
246		3.0				1.0	1.0							3.0	0.0	0.3803922897786833	3.0		0.0	2.0	8.0	6.0		part_1
247		3.0				1.0	1.0							3.0	0.0	0.3917121642734856	3.0		0.0	6.0	7.0	8.0		part_1
248		3.0				1.0	0.0							4.0	0.0	0.32540312176570296	4.0		0.0	5.0	3.0	3.0		part_1
249		3.0				1.0	1.0							1.0	197.0	0.2812947372440249	1.0		3.0	6.0	7.0	8.0		part_1
250		3.0				1.0	0.0							3.0	52.0	0.3139883687254041	3.0		1.0	3.0	1.0	4.0		part_1
251		3.0				1.0	1.0							3.0	203.0	0.3146867298637517	3.0		3.0	6.0	7.0	8.0		part_1
252		3.0				1.0	0.0							4.0	188.0	0.2808264597551897	4.0		3.0	5.0	3.0	3.0		part_1
253		3.0				1.0	1.0							4.0	114.0	0.2700380407040939	4.0		2.0	4.0	6.0	5.0		part_1
254		3.0				2.0	1.0							2.0	77.0	0.2962064719176851	2.0		2.0	4.0	6.0	5.0		part_1
255		3.0				1.0	1.0							2.0	28.0	0.31763476855121553	2.0		1.0	7.0	5.0	7.0		part_1
256		3.0				1.0	0.0							3.0	0.0	0.3185021852841601	3.0		0.0	8.0	4.0	2.0		part_1
257		3.0				1.0	0.0							2.0	212.0	0.29646284523187205	2.0		3.0	5.0	3.0	3.0		part_1
258		3.0				1.0	0.0							2.0	30.0	0.253002503013704	2.0		1.0	3.0	1.0	4.0		part_1
259		3.0				1.0	1.0							3.0	421.0	0.286915555014275	3.0		4.0	2.0	8.0	6.0		part_1
260		3.0				1.0	0.0							1.0	413.0	0.3319951944286004	1.0		4.0	8.0	4.0	2.0		part_1
261		3.0				1.0	1.0							3.0	91.0	0.2986699279281311	3.0		2.0	4.0	6.0	5.0		part_1
262		3.0				1.0	0.0							3.0	37.0	0.3092705523013137	3.0		1.0	3.0	1.0	4.0		part_1
263		3.0				1.0	1.0							2.0	223.0	0.3337727436446585	2.0		3.0	6.0	7.0	8.0		part_1
264		3.0				2.0	1.0							4.0	195.0	0.3245082772918977	4.0		3.0	6.0	7.0	8.0		part_1
265		3.0				1.0	1.0							4.0	77.0	0.2677989855292253	4.0		2.0	4.0	6.0	5.0		part_1
266		3.0				1.0	1.0							3.0	398.0	0.4145545422798023	3.0		4.0	2.0	8.0	6.0		part_1
267		3.0				1.0	0.0							3.0	203.0	0.3359670332865789	3.0		3.0	5.0	3.0	3.0		part_1
268		3.0				1.0	0.0							4.0	199.0	0.348898527037818	4.0		3.0	5.0	3.0	3.0		part_1
269		3.0				2.0	1.0							4.0	113.0	0.31464076397242025	4.0		2.0	4.0	6.0	5.0		part_1
270		3.0				1.0	0.0							3.0	72.0	0.3385119989397936	3.0		1.0	3.0	1.0	4.0		part_1
271		3.0				2.0	0.0							1.0	189.0	0.36169763474026695	1.0		3.0	5.0	3.0	3.0		part_1
272		3.0				1.0	0.0							4.0	0.0	0.3284697001799941	4.0		0.0	1.0	2.0	1.0		part_1
273		3.0				1.0	0.0							2.0	0.0	0.32996878400444984	2.0		0.0	3.0	1.0	4.0		part_1
274		3.0				1.0	1.0							1.0	190.0	0.34053779987152666	1.0		3.0	6.0	7.0	8.0		part_1
275		3.0				1.0	1.0							2.0	0.0	0.4091570629389025	2.0		0.0	4.0	6.0	5.0		part_1
276		3.0				1.0	1.0							4.0	30.0	0.3074069742579013	4.0		1.0	7.0	5.0	7.0		part_1
277		3.0				1.0	1.0							1.0	99.0	0.34217000572243705	1.0		2.0	4.0	6.0	5.0		part_1
278		3.0				1.0	1.0							1.0	0.0	0.34335330419708043	1.0		0.0	4.0	6.0	5.0		part_1
279		3.0				1.0	0.0							3.0	65.0	0.35453362489352	3.0		1.0	3.0	1.0	4.0		part_1
280		3.0				1.0	1.0							3.0	222.0	0.366937707643956	3.0		3.0	6.0	7.0	8.0		part_1
281		3.0				1.0	1.0							2.0	421.0	0.3223996473825537	2.0		4.0	2.0	8.0	6.0		part_1
282		3.0				1.0	0.0							1.0	125.0	0.3689215741469525	1.0		2.0	1.0	2.0	1.0		part_1
283		3.0				1.0	1.0							2.0	0.0	0.33638918172800913	2.0		0.0	7.0	5.0	7.0		part_1
284		3.0				1.0	1.0							2.0	207.0	0.3027813758817501	2.0		3.0	6.0	7.0	8.0		part_1
285		3.0				1.0	0.0							3.0	114.0	0.3136138545232825	3.0		2.0	1.0	2.0	1.0		part_1
286		3.0				1.0	1.0							1.0	75.0	0.3700612877146341	1.0		2.0	4.0	6.0	5.0		part_1
287		3.0				1.0	0.0							4.0	189.0	0.3138295001699589	4.0		3.0	5.0	3.0	3.0		part_1
288		3.0				1.0	0.0							1.0	75.0	0.3038375789183192	1.0		2.0	1.0	2.0	1.0		part_1
289		3.0				1.0	0.0							2.0	0.0	0.28243856952758506	2.0		0.0	5.0	3.0	3.0		part_1
290		3.0				1.0	0.0							4.0	113.0	0.2941111900145188	4.0		2.0	1.0	2.0	1.0		part_1
291		3.0				1.0	1.0							3.0	193.0	0.4519806177122518	3.0		3.0	6.0	7.0	8.0		part_1
292		3.0				1.0	0.0							1.0	398.0	0.4406673354678787	1.0		4.0	8.0	4.0	2.0		part_1
293		3.0				1.0	1.0							4.0	69.0	0.3289753766730428	4.0		1.0	7.0	5.0	7.0		part_1
294		3.0				1.0	1.0							4.0	408.0	0.3297728885081597	4.0		4.0	2.0	8.0	6.0		part_1
295		3.0				1.0	0.0							2.0	418.0	0.37624239170691	2.0		4.0	8.0	4.0	2.0		part_1
296		3.0				1.0	0.0							3.0	104.0	0.3302505472674966	3.0		2.0	1.0	2.0	1.0		part_1
297		3.0				1.0	0.0							3.0	0.0	0.3078743824153207	3.0		0.0	1.0	2.0	1.0		part_1
298		3.0				1.0	0.0							1.0	0.0	0.35413368878653273	1.0		0.0	5.0	3.0	3.0		part_1
299		3.0				1.0	1.0							2.0	0.0	0.3090217646677047	2.0		0.0	6.0	7.0	8.0		part_1
300		4.0				1.0	0.0							2.0	63.0	0.39937443553935736	2.0		1.0	3.0	1.0	4.0		part_1
301		4.0				1.0	0.0							4.0	222.0	0.3442560108378529	4.0		3.0	5.0	3.0	3.0		part_1
302		4.0				1.0	0.0							3.0	0.0	0.3338548467145301	3.0		0.0	3.0	1.0	4.0		part_1
303		4.0				1.0	0.0							4.0	74.0	0.3570437324233353	4.0		1.0	3.0	1.0	4.0		part_1
304		4.0				1.0	0.0							1.0	190.0	0.35807877843035385	1.0		3.0	5.0	3.0	3.0		part_1
305		4.0				1.0	1.0							3.0	118.0	0.31184626172762364	3.0		2.0	4.0	6.0	5.0		part_1
306		4.0				1.0	1.0							2.0	386.0	0.3587625796790235	2.0		4.0	2.0	8.0	6.0		part_1
307		4.0				1.0	1.0							1.0	0.0	0.3369473782950081	1.0		0.0	4.0	6.0	5.0		part_1
308		4.0				1.0	1.0							3.0	193.0	0.3712937009404413	3.0		3.0	6.0	7.0	8.0		part_1
309		4.0				1.0	0.0							2.0	0.0	0.3272932794643566	2.0		0.0	1.0	2.0	1.0		part_1
310		4.0				1.0	1.0							1.0	0.0	0.3720333390519954	1.0		0.0	2.0	8.0	6.0		part_1
311		4.0				1.0	1.0							4.0	175.0	0.3829232142888941	4.0		3.0	6.0	7.0	8.0		part_1
312		4.0				1.0	1.0							1.0	0.0	0.3494903337559663	1.0		0.0	6.0	7.0	8.0		part_1
313		4.0				1.0	1.0							4.0	55.0	0.3848232922609896	4.0		1.0	7.0	5.0	7.0		part_1
314		4.0				1.0	0.0							1.0	223.0	0.3503536150092259	1.0		3.0	5.0	3.0	3.0		part_1
315		4.0				1.0	0.0							2.0	107.0	0.3406033107894473	2.0		2.0	1.0	2.0	1.0		part_1
316		4.0				1.0	0.0							2.0	223.0	0.3516444716369733	2.0		3.0	5.0	3.0	3.0		part_1
317		4.0				1.0	1.0							3.0	196.0	0.5110655319876969	3.0		3.0	6.0	7.0	8.0		part_1
318		4.0				1.0	0.0							1.0	70.0	0.26407291716896	1.0		1.0	3.0	1.0	4.0		part_1
319		4.0				1.0	0.0							4.0	96.0	0.3091344221611507	4.0		2.0	1.0	2.0	1.0		part_1
320		4.0				1.0	1.0							3.0	85.0	0.32042749639367685	3.0		2.0	4.0	6.0	5.0		part_1
321		4.0				1.0	0.0							2.0	0.0	0.3321512059192173	2.0		0.0	8.0	4.0	2.0		part_1
322		4.0				1.0	0.0							3.0	396.0	0.32263696647714823	3.0		4.0	8.0	4.0	2.0		part_1
323		4.0				1.0	0.0							4.0	62.0	0.2993918057763949	4.0		1.0	3.0	1.0	4.0		part_1
324		4.0				1.0	1.0							2.0	96.0	0.3468203003867529	2.0		2.0	4.0	6.0	5.0		part_1
325		4.0				1.0	1.0							1.0	378.0	0.3025027854018845	1.0		4.0	2.0	8.0	6.0		part_1
326		4.0				1.0	1.0							2.0	180.0	0.31291852152207866	2.0		3.0	6.0	7.0	8.0		part_1
327		4.0				1.0	0.0							3.0	90.0	0.3253925680764951	3.0		2.0	1.0	2.0	1.0		part_1
328		4.0				1.0	1.0							1.0	188.0	0.30276698543457314	1.0		3.0	6.0	7.0	8.0		part_1
329		4.0				1.0	0.0							1.0	207.0	0.3822312646661885	1.0		3.0	5.0	3.0	3.0		part_1
330		4.0				1.0	0.0							4.0	0.0	0.3250436660018749	4.0		0.0	8.0	4.0	2.0		part_1
331		4.0				1.0	0.0							1.0	417.0	0.3261213205405511	1.0		4.0	8.0	4.0	2.0		part_1
332		4.0				1.0	0.0							3.0	399.0	0.35989927215268835	3.0		4.0	8.0	4.0	2.0		part_1
333		4.0				1.0	1.0							4.0	43.0	0.3725741888047196	4.0		1.0	7.0	5.0	7.0		part_1
334		4.0				1.0	1.0							4.0	417.0	0.31609504914376885	4.0		4.0	2.0	8.0	6.0		part_1
335		4.0				1.0	0.0							1.0	204.0	0.3633494005189277	1.0		3.0	5.0	3.0	3.0		part_1
336		4.0				1.0	1.0							1.0	216.0	0.3304155346704647	1.0		3.0	6.0	7.0	8.0		part_1
337		4.0				1.0	0.0							1.0	55.0	0.3185927824815735	1.0		1.0	3.0	1.0	4.0		part_1
338		4.0				1.0	0.0							2.0	106.0	0.3186844017473049	2.0		2.0	1.0	2.0	1.0		part_1
339		4.0				1.0	1.0							4.0	89.0	0.3197964456630871	4.0		2.0	4.0	6.0	5.0		part_1
340		4.0				1.0	1.0							3.0	52.0	0.33177607151446864	3.0		1.0	7.0	5.0	7.0		part_1
341		4.0				1.0	0.0							4.0	124.0	0.332223117002286	4.0		2.0	1.0	2.0	1.0		part_1
342		4.0				1.0	1.0							3.0	398.0	0.2874015767592937	3.0		4.0	2.0	8.0	6.0		part_1
343		4.0				1.0	0.0							3.0	193.0	0.31148116872645915	3.0		3.0	5.0	3.0	3.0		part_1
344		4.0				1.0	1.0							3.0	189.0	0.3439584611915052	3.0		3.0	6.0	7.0	8.0		part_1
345		4.0				1.0	1.0							2.0	97.0	0.5253418407519348	2.0		2.0	4.0	6.0	5.0		part_1
346		4.0				1.0	0.0							1.0	223.0	0.3018205479020253	1.0		3.0	5.0	3.0	3.0		part_1
347		4.0				1.0	1.0							4.0	212.0	0.3805653199087829	4.0		3.0	6.0	7.0	8.0		part_1
348		4.0				1.0	1.0							1.0	389.0	0.3580750559340231	1.0		4.0	2.0	8.0	6.0		part_1
349		4.0				1.0	0.0							3.0	0.0	0.33614106330787763	3.0		0.0	3.0	1.0	4.0		part_1
350		4.0				1.0	1.0							1.0	30.0	0.3271320000640117	1.0		1.0	7.0	5.0	7.0		part_1
351		4.0				1.0	0.0							4.0	392.0	0.3838504240848124	4.0		4.0	8.0	4.0	2.0		part_1
352		4.0				1.0	1.0							3.0	80.0	0.3713960752938874	3.0		2.0	4.0	6.0	5.0		part_1
353		4.0				1.0	0.0							4.0	0.0	0.4177499827346765	4.0		0.0	1.0	2.0	1.0		part_1
354		4.0				2.0	1.0							1.0	219.0	0.3631322933943011	1.0		3.0	6.0	7.0	8.0		part_1
355		4.0				1.0	0.0							3.0	379.0	0.3404034510022029	3.0		4.0	8.0	4.0	2.0		part_1
356		4.0				1.0	1.0							3.0	63.0	0.3739348527160473	3.0		1.0	7.0	5.0	7.0		part_1
357		4.0				1.0	1.0							2.0	392.0	0.363610076950863	2.0		4.0	2.0	8.0	6.0		part_1
358		4.0				1.0	1.0							4.0	47.0	0.3658748635207303	4.0		1.0	7.0	5.0	7.0		part_1
359		4.0				1.0	1.0							3.0	0.0	0.29778048442676663	3.0		0.0	4.0	6.0	5.0		part_1
360		4.0				1.0	0.0							4.0	187.0	0.3439555176883005	4.0		3.0	5.0	3.0	3.0		part_1
361		4.0				1.0	0.0							2.0	386.0	0.3902786308899522	2.0		4.0	8.0	4.0	2.0		part_1
362		4.0				1.0	0.0							2.0	196.0	0.2984410206554457	2.0		3.0	5.0	3.0	3.0		part_1
363		4.0				1.0	1.0							4.0	61.0	0.33417116274358705	4.0		1.0	7.0	5.0	7.0		part_1
364		4.0				1.0	0.0							4.0	43.0	0.3230700136628002	4.0		1.0	3.0	1.0	4.0		part_1
365		4.0				1.0	0.0							1.0	42.0	0.4473758253152482	1.0		1.0	3.0	1.0	4.0		part_1
366		4.0				1.0	1.0							3.0	190.0	0.3128910711966455	3.0		3.0	6.0	7.0	8.0		part_1
367		4.0				1.0	1.0							1.0	31.0	0.3703899412648752	1.0		1.0	7.0	5.0	7.0		part_1
368		4.0				1.0	1.0							2.0	55.0	0.43721397075569257	2.0		1.0	7.0	5.0	7.0		part_1
369		4.0				1.0	0.0							3.0	197.0	0.483314914861694	3.0		3.0	5.0	3.0	3.0		part_1
370		4.0				1.0	0.0							4.0	36.0	0.382959354785271	4.0		1.0	3.0	1.0	4.0		part_1
371		4.0				1.0	0.0							4.0	194.0	0.3707385357702151	4.0		3.0	5.0	3.0	3.0		part_1
372		4.0				1.0	0.0							2.0	77.0	0.33836578630143777	2.0		2.0	1.0	2.0	1.0		part_1
373		4.0				1.0	1.0							4.0	0.0	0.3381255359272473	4.0		0.0	7.0	5.0	7.0		part_1
374		4.0				1.0	1.0							3.0	410.0	0.39550150604918605	3.0		4.0	2.0	8.0	6.0		part_1
375		4.0				1.0	0.0							1.0	75.0	0.3737417234224267	1.0		2.0	1.0	2.0	1.0		part_1
376		4.0				1.0	1.0							1.0	55.0	0.3407225866685621	1.0		1.0	7.0	5.0	7.0		part_1
377		4.0				1.0	0.0							4.0	0.0	0.3514034420950338	4.0		0.0	8.0	4.0	2.0		part_1
378		4.0				1.0	0.0							1.0	424.0	0.3983065006905235	1.0		4.0	8.0	4.0	2.0		part_1
379		4.0				1.0	1.0							2.0	223.0	0.3762639581691474	2.0		3.0	6.0	7.0	8.0		part_1
380		4.0				1.0	1.0							4.0	124.0	0.3867793009849265	4.0		2.0	4.0	6.0	5.0		part_1
381		4.0				1.0	0.0							2.0	399.0	0.4004658798803575	2.0		4.0	8.0	4.0	2.0		part_1
382		4.0				1.0	0.0							1.0	111.0	0.3779459139332175	1.0		2.0	1.0	2.0	1.0		part_1
383		4.0				1.0	1.0							2.0	413.0	0.344082604162395	2.0		4.0	2.0	8.0	6.0		part_1
384		4.0				1.0	1.0							1.0	409.0	0.3686129857669585	1.0		4.0	2.0	8.0	6.0		part_1
385		4.0				1.0	0.0							3.0	78.0	0.3800202279235236	3.0		2.0	1.0	2.0	1.0		part_1
386		4.0				1.0	1.0							3.0	214.0	0.4357953543076292	3.0		3.0	6.0	7.0	8.0		part_1
387		4.0				1.0	1.0							2.0	72.0	0.39320972928544506	2.0		1.0	7.0	5.0	7.0		part_1
388		4.0				1.0	0.0							1.0	419.0	0.459628835262265	1.0		4.0	8.0	4.0	2.0		part_1
389		4.0				1.0	0.0							4.0	0.0	0.37024193443357933	4.0		0.0	8.0	4.0	2.0		part_1
390		4.0				1.0	0.0							3.0	223.0	0.3595839587505907	3.0		3.0	5.0	3.0	3.0		part_1
391		4.0				1.0	0.0							1.0	93.0	0.3492106149205938	1.0		2.0	1.0	2.0	1.0		part_1
392		4.0				1.0	0.0							4.0	97.0	0.30549195694038644	4.0		2.0	1.0	2.0	1.0		part_1
393		4.0				1.0	0.0							1.0	217.0	0.33875213842839	1.0		3.0	5.0	3.0	3.0		part_1
394		4.0				1.0	0.0							1.0	200.0	0.2829595875227824	1.0		3.0	5.0	3.0	3.0		part_1
395		4.0				1.0	0.0							1.0	0.0	0.30760670005111024	1.0		0.0	1.0	2.0	1.0		part_1
396		4.0				1.0	1.0							4.0	178.0	0.3630978566943668	4.0		3.0	6.0	7.0	8.0		part_1
397		4.0				1.0	0.0							4.0	118.0	0.3857901602750644	4.0		2.0	1.0	2.0	1.0		part_1
398		4.0				1.0	1.0							3.0	60.0	0.3740332580637187	3.0		1.0	7.0	5.0	7.0		part_1
399		4.0				1.0	1.0							3.0	0.0	0.3765055320109241	3.0		0.0	2.0	8.0	6.0		part_1
0	3.0	1.0			250.0	0.0	1.0							5.0	0.0	0.5762018659734167	5.0	250.0	3.0	6.0	7.0	8.0	1.0	part_2
1	1.0	1.0			200.0	0.0	0.0							5.0	0.0	0.8056268360815011	5.0	250.0	2.0	1.0	2.0	1.0	0.0	part_2
2	1.0	1.0			200.0	0.0	1.0							6.0	0.0	0.6389864159282297	6.0	250.0	1.0	7.0	5.0	7.0	0.0	part_2
3	4.0	1.0			200.0	0.0	1.0							6.0	0.0	0.0	0.0	250.0	4.0	2.0	8.0	6.0	1.0	part_2
4	1.0	1.0			200.0	0.0	0.0							5.0	0.0	0.8200442049419507	5.0	300.0	2.0	1.0	2.0	1.0	0.0	part_2
5	4.0	1.0			200.0	0.0	1.0							6.0	0.0	0.0	0.0	300.0	3.0	6.0	7.0	8.0	1.0	part_2
6	4.0	1.0			200.0	0.0	1.0							5.0	0.0	0.0	0.0	350.0	2.0	4.0	6.0	5.0	1.0	part_2
7	1.0	1.0			250.0	0.0	0.0							5.0	0.0	0.4058045238489285	5.0	350.0	4.0	8.0	4.0	2.0	0.0	part_2
8	1.0	1.0			250.0	0.0	1.0							5.0	0.0	0.9577299038646744	5.0	350.0	2.0	4.0	6.0	5.0	0.0	part_2
9	4.0	1.0			250.0	0.0	1.0							6.0	0.0	0.0	0.0	350.0	4.0	2.0	8.0	6.0	1.0	part_2
10	4.0	1.0			250.0	0.0	1.0							5.0	0.0	0.0	0.0	400.0	4.0	2.0	8.0	6.0	1.0	part_2
11	3.0	1.0			300.0	0.0	1.0							6.0	0.0	0.43278051156084985	6.0	400.0	2.0	4.0	6.0	5.0	1.0	part_2
12	1.0	1.0			300.0	0.0	1.0							6.0	0.0	0.6456313749658875	6.0	350.0	1.0	7.0	5.0	7.0	0.0	part_2
13	1.0	1.0			300.0	0.0	0.0							6.0	0.0	0.6246109599014744	6.0	350.0	1.0	3.0	1.0	4.0	0.0	part_2
14	4.0	1.0			300.0	0.0	1.0							5.0	0.0	0.0	0.0	350.0	1.0	7.0	5.0	7.0	1.0	part_2
15	4.0	1.0			350.0	0.0	1.0							5.0	0.0	0.0	0.0	350.0	3.0	6.0	7.0	8.0	1.0	part_2
16	4.0	1.0			400.0	0.0	1.0							5.0	0.0	0.0	0.0	350.0	1.0	7.0	5.0	7.0	1.0	part_2
17	1.0	1.0			450.0	0.0	0.0							5.0	0.0	0.7075950750731863	5.0	350.0	4.0	8.0	4.0	2.0	0.0	part_2
18	1.0	1.0			450.0	0.0	1.0							5.0	0.0	0.6401735339313745	5.0	350.0	4.0	2.0	8.0	6.0	0.0	part_2
19	1.0	1.0			450.0	0.0	1.0							6.0	0.0	0.7317269769264385	6.0	350.0	1.0	7.0	5.0	7.0	0.0	part_2
20	4.0	1.0			450.0	0.0	1.0							5.0	0.0	0.0	0.0	350.0	2.0	4.0	6.0	5.0	1.0	part_2
21	1.0	1.0			500.0	0.0	1.0							5.0	0.0	0.6986473448923789	5.0	350.0	2.0	4.0	6.0	5.0	0.0	part_2
22	1.0	1.0			500.0	0.0	0.0							5.0	0.0	0.7664246289641596	5.0	350.0	1.0	3.0	1.0	4.0	0.0	part_2
23	4.0	1.0			500.0	0.0	1.0							6.0	0.0	0.0	0.0	350.0	4.0	2.0	8.0	6.0	1.0	part_2
24	3.0	1.0			500.0	0.0	1.0							5.0	0.0	0.5228227858315222	5.0	400.0	2.0	4.0	6.0	5.0	1.0	part_2
25	1.0	1.0			450.0	0.0	0.0							6.0	0.0	0.7818914269446395	6.0	400.0	1.0	3.0	1.0	4.0	0.0	part_2
26	1.0	1.0			450.0	0.0	0.0							5.0	0.0	0.6804052618099377	5.0	400.0	3.0	5.0	3.0	3.0	0.0	part_2
27	1.0	1.0			450.0	0.0	0.0							5.0	0.0	0.7499284468358383	5.0	400.0	2.0	1.0	2.0	1.0	0.0	part_2
28	1.0	1.0			450.0	0.0	0.0							5.0	0.0	0.7167041810462251	5.0	400.0	3.0	5.0	3.0	3.0	0.0	part_2
29	3.0	1.0			450.0	0.0	1.0							5.0	0.0	0.5825250509078614	5.0	400.0	3.0	6.0	7.0	8.0	1.0	part_2
30	1.0	1.0			400.0	0.0	0.0							5.0	0.0	0.6620267750695348	5.0	400.0	3.0	5.0	3.0	3.0	0.0	part_2
31	1.0	1.0			400.0	0.0	1.0							6.0	0.0	0.6967726509901695	6.0	400.0	4.0	2.0	8.0	6.0	0.0	part_2
32	1.0	1.0			400.0	0.0	0.0							6.0	0.0	0.9097871370031498	6.0	400.0	4.0	8.0	4.0	2.0	0.0	part_2
33	1.0	1.0			400.0	0.0	0.0							5.0	0.0	0.7535758868907578	5.0	400.0	4.0	8.0	4.0	2.0	0.0	part_2
34	1.0	1.0			400.0	0.0	0.0							6.0	0.0	0.7317886689561419	6.0	400.0	4.0	8.0	4.0	2.0	0.0	part_2
35	1.0	1.0			400.0	0.0	1.0							5.0	0.0	0.7114978338941	5.0	400.0	3.0	6.0	7.0	8.0	0.0	part_2
36	4.0	2.0			400.0	0.0	1.0							6.0	0.0	0.0	0.0	400.0	2.0	4.0	6.0	5.0	1.0	part_2
37	3.0	2.0			400.0	0.0	1.0							6.0	0.0	0.3744457279681228	6.0	450.0	2.0	4.0	6.0	5.0	1.0	part_2
38	1.0	2.0			400.0	0.0	0.0							6.0	0.0	0.3633281009388156	6.0	400.0	3.0	5.0	3.0	3.0	0.0	part_2
39	1.0	2.0			400.0	0.0	1.0							6.0	0.0	0.4436897409614176	6.0	400.0	4.0	2.0	8.0	6.0	0.0	part_2
40	3.0	2.0			400.0	0.0	1.0							5.0	0.0	0.5217107739299536	5.0	400.0	2.0	4.0	6.0	5.0	1.0	part_2
41	4.0	2.0			350.0	0.0	1.0							5.0	0.0	0.0	0.0	400.0	2.0	4.0	6.0	5.0	1.0	part_2
42	1.0	2.0			400.0	0.0	0.0							6.0	0.0	0.6367135278997011	6.0	400.0	3.0	5.0	3.0	3.0	0.0	part_2
43	4.0	2.0			400.0	0.0	1.0							5.0	0.0	0.0	0.0	400.0	1.0	7.0	5.0	7.0	1.0	part_2
44	4.0	2.0			450.0	0.0	1.0							5.0	0.0	0.0	0.0	400.0	4.0	2.0	8.0	6.0	1.0	part_2
45	1.0	2.0			500.0	0.0	0.0							6.0	0.0	0.6278941617929377	6.0	400.0	1.0	3.0	1.0	4.0	0.0	part_2
46	1.0	2.0			500.0	0.0	0.0							5.0	0.0	0.6183860148885287	5.0	400.0	4.0	8.0	4.0	2.0	0.0	part_2
47	4.0	2.0			500.0	0.0	1.0							5.0	0.0	0.0	0.0	400.0	3.0	6.0	7.0	8.0	1.0	part_2
48	1.0	2.0			550.0	0.0	0.0							6.0	0.0	0.7105555209564045	6.0	400.0	2.0	1.0	2.0	1.0	0.0	part_2
49	1.0	2.0			550.0	0.0	0.0							5.0	0.0	0.7315147878834978	5.0	400.0	4.0	8.0	4.0	2.0	0.0	part_2
50	1.0	2.0			550.0	0.0	0.0							5.0	0.0	0.6445878908853047	5.0	400.0	1.0	3.0	1.0	4.0	0.0	part_2
51	3.0	2.0			550.0	0.0	1.0							5.0	0.0	0.5098545530345291	5.0	400.0	4.0	2.0	8.0	6.0	1.0	part_2
52	1.0	2.0			500.0	0.0	1.0							6.0	0.0	0.7003887698519975	6.0	400.0	4.0	2.0	8.0	6.0	0.0	part_2
53	3.0	2.0			500.0	0.0	1.0							6.0	0.0	0.4888718828442506	6.0	400.0	4.0	2.0	8.0	6.0	1.0	part_2
54	3.0	2.0			500.0	0.0	1.0							5.0	0.0	0.6587199498899281	5.0	350.0	2.0	4.0	6.0	5.0	1.0	part_2
55	1.0	2.0			450.0	0.0	0.0							5.0	0.0	0.6813671248382889	5.0	350.0	3.0	5.0	3.0	3.0	0.0	part_2
56	1.0	2.0			450.0	0.0	0.0							5.0	0.0	0.964159132912755	5.0	350.0	1.0	3.0	1.0	4.0	0.0	part_2
57	4.0	2.0			450.0	0.0	1.0							6.0	0.0	0.0	0.0	350.0	3.0	6.0	7.0	8.0	1.0	part_2
58	1.0	2.0			450.0	0.0	0.0							5.0	0.0	0.36831084691220894	5.0	400.0	3.0	5.0	3.0	3.0	0.0	part_2
59	1.0	2.0			450.0	0.0	0.0							6.0	0.0	0.865853541821707	6.0	400.0	1.0	3.0	1.0	4.0	0.0	part_2
60	1.0	2.0			450.0	0.0	0.0							6.0	0.0	0.5742989368736744	6.0	400.0	2.0	1.0	2.0	1.0	0.0	part_2
61	1.0	2.0			450.0	0.0	0.0							5.0	0.0	0.5058854229864664	5.0	400.0	1.0	3.0	1.0	4.0	0.0	part_2
62	1.0	2.0			450.0	0.0	0.0							6.0	0.0	0.4167701770202257	6.0	400.0	3.0	5.0	3.0	3.0	0.0	part_2
63	3.0	2.0			450.0	0.0	1.0							5.0	0.0	0.4294281789334491	5.0	400.0	4.0	2.0	8.0	6.0	1.0	part_2
64	4.0	2.0			400.0	0.0	1.0							6.0	0.0	0.0	0.0	400.0	1.0	7.0	5.0	7.0	1.0	part_2
65	1.0	2.0			400.0	0.0	0.0							6.0	0.0	0.4305155139300041	6.0	450.0	1.0	3.0	1.0	4.0	0.0	part_2
66	3.0	2.0			400.0	0.0	1.0							6.0	0.0	0.6124808249878697	6.0	450.0	3.0	6.0	7.0	8.0	1.0	part_2
67	1.0	2.0			400.0	0.0	0.0							6.0	0.0	0.4887611158192158	6.0	400.0	2.0	1.0	2.0	1.0	0.0	part_2
68	4.0	2.0			400.0	0.0	1.0							6.0	0.0	0.0	0.0	400.0	1.0	7.0	5.0	7.0	1.0	part_2
69	3.0	2.0			400.0	0.0	1.0							6.0	0.0	0.3551601698854938	6.0	450.0	1.0	7.0	5.0	7.0	1.0	part_2
70	1.0	2.0			400.0	0.0	0.0							5.0	0.0	0.7049485829193145	5.0	400.0	3.0	5.0	3.0	3.0	0.0	part_2
71	1.0	2.0			400.0	0.0	0.0							5.0	0.0	0.4921225818688981	5.0	400.0	2.0	1.0	2.0	1.0	0.0	part_2
72	4.0	3.0			400.0	0.0	1.0							6.0	0.0	0.0	0.0	400.0	2.0	4.0	6.0	5.0	1.0	part_2
73	1.0	3.0			400.0	0.0	1.0							5.0	0.0	0.3674569959985092	5.0	450.0	4.0	2.0	8.0	6.0	0.0	part_2
74	3.0	3.0			400.0	0.0	1.0							6.0	0.0	0.6391125529771671	6.0	450.0	4.0	2.0	8.0	6.0	1.0	part_2
75	1.0	3.0			400.0	0.0	0.0							6.0	0.0	0.5719617909635417	6.0	400.0	1.0	3.0	1.0	4.0	0.0	part_2
76	3.0	3.0			400.0	0.0	1.0							5.0	0.0	0.5842782679828815	5.0	400.0	3.0	6.0	7.0	8.0	1.0	part_2
77	1.0	3.0			350.0	0.0	0.0							5.0	0.0	0.5958435868960805	5.0	400.0	3.0	5.0	3.0	3.0	0.0	part_2
78	4.0	3.0			350.0	0.0	1.0							6.0	0.0	0.0	0.0	400.0	2.0	4.0	6.0	5.0	1.0	part_2
79	4.0	3.0			350.0	0.0	1.0							5.0	0.0	0.0	0.0	450.0	3.0	6.0	7.0	8.0	1.0	part_2
80	1.0	3.0			400.0	0.0	1.0							5.0	0.0	0.3971321269636974	5.0	450.0	2.0	4.0	6.0	5.0	0.0	part_2
81	1.0	3.0			400.0	0.0	1.0							5.0	0.0	0.9604147849604489	5.0	450.0	3.0	6.0	7.0	8.0	0.0	part_2
82	1.0	3.0			400.0	0.0	0.0							5.0	0.0	0.7689809058210813	5.0	450.0	1.0	3.0	1.0	4.0	0.0	part_2
83	4.0	3.0			400.0	0.0	1.0							5.0	0.0	0.0	0.0	450.0	4.0	2.0	8.0	6.0	1.0	part_2
84	1.0	3.0			450.0	0.0	0.0							6.0	0.0	0.6246342900558375	6.0	450.0	4.0	8.0	4.0	2.0	0.0	part_2
85	1.0	3.0			450.0	0.0	0.0							5.0	0.0	0.39034122094744816	5.0	450.0	1.0	3.0	1.0	4.0	0.0	part_2
86	1.0	3.0			450.0	0.0	0.0							5.0	0.0	0.3784883258631453	5.0	450.0	2.0	1.0	2.0	1.0	0.0	part_2
87	1.0	3.0			450.0	0.0	1.0							5.0	0.0	0.4362547419732437	5.0	450.0	4.0	2.0	8.0	6.0	0.0	part_2
88	1.0	3.0			450.0	0.0	0.0							5.0	0.0	0.31358533189632004	5.0	450.0	4.0	8.0	4.0	2.0	0.0	part_2
89	1.0	3.0			450.0	0.0	0.0							5.0	0.0	0.3597984519437887	5.0	450.0	1.0	3.0	1.0	4.0	0.0	part_2
90	1.0	3.0			450.0	0.0	0.0							6.0	0.0	0.3928445078199729	6.0	450.0	3.0	5.0	3.0	3.0	0.0	part_2
91	1.0	3.0			450.0	0.0	0.0							5.0	0.0	0.5522937850328162	5.0	450.0	4.0	8.0	4.0	2.0	0.0	part_2
92	1.0	3.0			450.0	0.0	1.0							5.0	0.0	0.6207449110224843	5.0	450.0	2.0	4.0	6.0	5.0	0.0	part_2
93	4.0	3.0			450.0	0.0	1.0							5.0	0.0	0.0	0.0	450.0	4.0	2.0	8.0	6.0	1.0	part_2
94	1.0	3.0			500.0	0.0	0.0							6.0	0.0	0.5314912449684925	6.0	450.0	4.0	8.0	4.0	2.0	0.0	part_2
95	1.0	3.0			500.0	0.0	0.0							5.0	0.0	0.36439368996070703	5.0	450.0	1.0	3.0	1.0	4.0	0.0	part_2
96	1.0	3.0			500.0	0.0	0.0							6.0	0.0	0.3412467919406481	6.0	450.0	1.0	3.0	1.0	4.0	0.0	part_2
97	1.0	3.0			500.0	0.0	1.0							5.0	0.0	0.30887583596631885	5.0	450.0	1.0	7.0	5.0	7.0	0.0	part_2
98	1.0	3.0			500.0	0.0	1.0							6.0	0.0	0.3223615369643085	6.0	450.0	2.0	4.0	6.0	5.0	0.0	part_2
99	1.0	3.0			500.0	0.0	1.0							6.0	0.0	0.3791895938338712	6.0	450.0	4.0	2.0	8.0	6.0	0.0	part_2
100	1.0	3.0			500.0	0.0	0.0							5.0	0.0	0.4462420730269514	5.0	450.0	3.0	5.0	3.0	3.0	0.0	part_2
101	3.0	3.0			500.0	0.0	1.0							5.0	0.0	0.4029887298238464	5.0	450.0	1.0	7.0	5.0	7.0	1.0	part_2
102	1.0	3.0			450.0	0.0	0.0							5.0	0.0	0.3685661808704026	5.0	450.0	3.0	5.0	3.0	3.0	0.0	part_2
103	1.0	3.0			450.0	0.0	0.0							6.0	0.0	0.493603371840436	6.0	450.0	3.0	5.0	3.0	3.0	0.0	part_2
104	1.0	3.0			450.0	0.0	0.0							6.0	0.0	0.3821159467916005	6.0	450.0	4.0	8.0	4.0	2.0	0.0	part_2
105	3.0	3.0			450.0	0.0	1.0							5.0	0.0	0.4054826978244819	5.0	450.0	3.0	6.0	7.0	8.0	1.0	part_2
106	1.0	3.0			400.0	0.0	1.0							6.0	0.0	0.34998576884390786	6.0	450.0	1.0	7.0	5.0	7.0	0.0	part_2
107	1.0	3.0			400.0	0.0	0.0							6.0	0.0	0.4641845069127157	6.0	450.0	4.0	8.0	4.0	2.0	0.0	part_2
108	1.0	4.0			400.0	0.0	0.0							6.0	0.0	0.7360398368909955	6.0	450.0	3.0	5.0	3.0	3.0	0.0	part_2
109	4.0	4.0			400.0	0.0	1.0							6.0	0.0	0.0	0.0	450.0	1.0	7.0	5.0	7.0	1.0	part_2
110	1.0	4.0			400.0	0.0	0.0							6.0	0.0	0.7027577969129197	6.0	500.0	4.0	8.0	4.0	2.0	0.0	part_2
111	1.0	4.0			400.0	0.0	0.0							6.0	0.0	0.5684152249014005	6.0	500.0	1.0	3.0	1.0	4.0	0.0	part_2
112	1.0	4.0			400.0	0.0	0.0							6.0	0.0	0.4127852329984307	6.0	500.0	2.0	1.0	2.0	1.0	0.0	part_2
113	1.0	4.0			400.0	0.0	0.0							6.0	0.0	0.3447381188743748	6.0	500.0	3.0	5.0	3.0	3.0	0.0	part_2
114	1.0	4.0			400.0	0.0	0.0							6.0	0.0	0.5260141719481908	6.0	500.0	4.0	8.0	4.0	2.0	0.0	part_2
115	1.0	4.0			400.0	0.0	0.0							6.0	0.0	0.3589375428855419	6.0	500.0	2.0	1.0	2.0	1.0	0.0	part_2
116	3.0	4.0			400.0	0.0	1.0							6.0	0.0	0.5097479809192009	6.0	500.0	4.0	2.0	8.0	6.0	1.0	part_2
117	1.0	4.0			400.0	0.0	0.0							5.0	0.0	0.5290632258402184	5.0	450.0	2.0	1.0	2.0	1.0	0.0	part_2
118	3.0	4.0			400.0	0.0	1.0							5.0	0.0	0.3946476199780591	5.0	450.0	1.0	7.0	5.0	7.0	1.0	part_2
119	1.0	4.0			350.0	0.0	0.0							6.0	0.0	0.3728640069602989	6.0	450.0	2.0	1.0	2.0	1.0	0.0	part_2
120	1.0	4.0			350.0	0.0	1.0							6.0	0.0	0.3858923468505964	6.0	450.0	4.0	2.0	8.0	6.0	0.0	part_2
121	1.0	4.0			350.0	0.0	0.0							6.0	0.0	0.6099971329676919	6.0	450.0	4.0	8.0	4.0	2.0	0.0	part_2
122	3.0	4.0			350.0	0.0	1.0							6.0	0.0	0.5094459049869329	6.0	450.0	4.0	2.0	8.0	6.0	1.0	part_2
123	1.0	4.0			350.0	0.0	0.0							6.0	0.0	0.6791563398437575	6.0	400.0	2.0	1.0	2.0	1.0	0.0	part_2
124	3.0	4.0			350.0	0.0	1.0							6.0	0.0	0.4675758389639668	6.0	400.0	3.0	6.0	7.0	8.0	1.0	part_2
125	1.0	4.0			350.0	0.0	0.0							5.0	0.0	0.6598334899754263	5.0	350.0	1.0	3.0	1.0	4.0	0.0	part_2
126	4.0	4.0			350.0	0.0	1.0							6.0	0.0	0.0	0.0	350.0	2.0	4.0	6.0	5.0	1.0	part_2
127	4.0	4.0			350.0	0.0	1.0							6.0	0.0	0.0	0.0	400.0	2.0	4.0	6.0	5.0	1.0	part_2
128	1.0	4.0			350.0	0.0	0.0							5.0	0.0	0.6504129719105549	5.0	450.0	2.0	1.0	2.0	1.0	0.0	part_2
129	1.0	4.0			350.0	0.0	0.0							5.0	0.0	0.8985089919879101	5.0	450.0	4.0	8.0	4.0	2.0	0.0	part_2
130	4.0	4.0			350.0	0.0	1.0							5.0	0.0	0.0	0.0	450.0	3.0	6.0	7.0	8.0	1.0	part_2
131	1.0	4.0			400.0	0.0	0.0							5.0	0.0	0.7531144569511525	5.0	450.0	2.0	1.0	2.0	1.0	0.0	part_2
132	1.0	4.0			400.0	0.0	0.0							6.0	0.0	0.4053567229420878	6.0	450.0	2.0	1.0	2.0	1.0	0.0	part_2
133	1.0	4.0			400.0	0.0	1.0							6.0	0.0	0.3620217797579244	6.0	450.0	1.0	7.0	5.0	7.0	0.0	part_2
134	5.0	4.0			400.0	0.0	0.0							6.0	0.0	0.0	0.0	450.0	3.0	5.0	3.0	3.0	0.0	part_2
135	1.0	4.0			400.0	0.0	0.0							6.0	0.0	0.6113452599383891	6.0	450.0	4.0	8.0	4.0	2.0	0.0	part_2
136	1.0	4.0			400.0	0.0	0.0							5.0	0.0	0.701604934874922	5.0	450.0	3.0	5.0	3.0	3.0	0.0	part_2
137	1.0	4.0			400.0	0.0	0.0							5.0	0.0	0.3427724858047441	5.0	450.0	4.0	8.0	4.0	2.0	0.0	part_2
138	4.0	4.0			400.0	0.0	1.0							5.0	0.0	0.0	0.0	450.0	2.0	4.0	6.0	5.0	1.0	part_2
139	1.0	4.0			450.0	0.0	0.0							5.0	0.0	0.4004300009110011	5.0	450.0	1.0	3.0	1.0	4.0	0.0	part_2
140	3.0	4.0			450.0	0.0	1.0							6.0	0.0	0.5589193577761762	6.0	450.0	4.0	2.0	8.0	6.0	1.0	part_2
141	1.0	4.0			450.0	0.0	0.0							5.0	0.0	0.3114591077901423	5.0	400.0	1.0	3.0	1.0	4.0	0.0	part_2
142	4.0	4.0			450.0	0.0	1.0							6.0	0.0	0.0	0.0	400.0	3.0	6.0	7.0	8.0	1.0	part_2
143	1.0	4.0			450.0	0.0	1.0							5.0	0.0	1.057066248904448	5.0	450.0	1.0	7.0	5.0	7.0	0.0	part_2
144	3.0	5.0			450.0	0.0	1.0							6.0	0.0	0.4059423819417134	6.0	450.0	3.0	6.0	7.0	8.0	1.0	part_2
145	1.0	5.0			450.0	0.0	1.0							6.0	0.0	0.5748434039414859	6.0	400.0	1.0	7.0	5.0	7.0	0.0	part_2
146	1.0	5.0			450.0	0.0	0.0							5.0	0.0	0.5970199189032428	5.0	400.0	2.0	1.0	2.0	1.0	0.0	part_2
147	3.0	5.0			450.0	0.0	1.0							5.0	0.0	0.3628715270315297	5.0	400.0	3.0	6.0	7.0	8.0	1.0	part_2
148	4.0	5.0			400.0	0.0	1.0							6.0	0.0	0.0	0.0	400.0	2.0	4.0	6.0	5.0	1.0	part_2
149	3.0	5.0			400.0	0.0	1.0							5.0	0.0	0.3987770979292691	5.0	450.0	2.0	4.0	6.0	5.0	1.0	part_2
150	1.0	5.0			350.0	0.0	0.0							6.0	0.0	0.3531155428499915	6.0	450.0	1.0	3.0	1.0	4.0	0.0	part_2
151	1.0	5.0			350.0	0.0	0.0							5.0	0.0	0.6130573279806413	5.0	450.0	4.0	8.0	4.0	2.0	0.0	part_2
152	1.0	5.0			350.0	0.0	0.0							6.0	0.0	0.4007780699757859	6.0	450.0	4.0	8.0	4.0	2.0	0.0	part_2
153	1.0	5.0			350.0	0.0	1.0							5.0	0.0	0.6813958928687498	5.0	450.0	3.0	6.0	7.0	8.0	0.0	part_2
154	4.0	5.0			350.0	0.0	1.0							6.0	0.0	0.0	0.0	450.0	2.0	4.0	6.0	5.0	1.0	part_2
155	1.0	5.0			350.0	0.0	0.0							6.0	0.0	0.5719347448321059	6.0	500.0	3.0	5.0	3.0	3.0	0.0	part_2
156	1.0	5.0			350.0	0.0	0.0							6.0	0.0	0.5279522528871894	6.0	500.0	1.0	3.0	1.0	4.0	0.0	part_2
157	3.0	5.0			350.0	0.0	1.0							6.0	0.0	0.3481920249760151	6.0	500.0	1.0	7.0	5.0	7.0	1.0	part_2
158	1.0	5.0			350.0	0.0	0.0							5.0	0.0	0.395093718834687	5.0	450.0	3.0	5.0	3.0	3.0	0.0	part_2
159	1.0	5.0			350.0	0.0	0.0							5.0	0.0	0.5856506609707139	5.0	450.0	4.0	8.0	4.0	2.0	0.0	part_2
160	4.0	5.0			350.0	0.0	1.0							5.0	0.0	0.0	0.0	450.0	1.0	7.0	5.0	7.0	1.0	part_2
161	1.0	5.0			400.0	0.0	1.0							6.0	0.0	0.6220120618236251	6.0	450.0	3.0	6.0	7.0	8.0	0.0	part_2
162	3.0	5.0			400.0	0.0	1.0							6.0	0.0	0.5552004079218023	6.0	450.0	4.0	2.0	8.0	6.0	1.0	part_2
163	1.0	5.0			400.0	0.0	0.0							6.0	0.0	0.3644089220324531	6.0	400.0	1.0	3.0	1.0	4.0	0.0	part_2
164	3.0	5.0			400.0	0.0	1.0							5.0	0.0	0.3984199829865247	5.0	400.0	1.0	7.0	5.0	7.0	1.0	part_2
165	4.0	5.0			350.0	0.0	1.0							5.0	0.0	0.0	0.0	400.0	1.0	7.0	5.0	7.0	1.0	part_2
166	3.0	5.0			400.0	0.0	1.0							6.0	0.0	0.34369333292124793	6.0	400.0	1.0	7.0	5.0	7.0	1.0	part_2
167	1.0	5.0			400.0	0.0	0.0							6.0	0.0	0.7063264679163694	6.0	350.0	3.0	5.0	3.0	3.0	0.0	part_2
168	1.0	5.0			400.0	0.0	0.0							6.0	0.0	0.6618509308318608	6.0	350.0	3.0	5.0	3.0	3.0	0.0	part_2
169	1.0	5.0			400.0	0.0	0.0							5.0	0.0	0.6497138475533575	5.0	350.0	2.0	1.0	2.0	1.0	0.0	part_2
170	1.0	5.0			400.0	0.0	0.0							6.0	0.0	0.3026800638763234	6.0	350.0	3.0	5.0	3.0	3.0	0.0	part_2
171	4.0	5.0			400.0	0.0	1.0							5.0	0.0	0.0	0.0	350.0	4.0	2.0	8.0	6.0	1.0	part_2
172	1.0	5.0			450.0	0.0	0.0							5.0	0.0	0.6316039008670487	5.0	350.0	4.0	8.0	4.0	2.0	0.0	part_2
173	1.0	5.0			450.0	0.0	0.0							6.0	0.0	0.3831876238691621	6.0	350.0	1.0	3.0	1.0	4.0	0.0	part_2
174	4.0	5.0			450.0	0.0	1.0							6.0	0.0	0.0	0.0	350.0	3.0	6.0	7.0	8.0	1.0	part_2
175	1.0	5.0			450.0	0.0	0.0							6.0	0.0	0.4410121099790558	6.0	400.0	4.0	8.0	4.0	2.0	0.0	part_2
176	1.0	5.0			450.0	0.0	1.0							5.0	0.0	0.3860185379744507	5.0	400.0	3.0	6.0	7.0	8.0	0.0	part_2
177	1.0	5.0			450.0	0.0	1.0							5.0	0.0	0.6573132958728821	5.0	400.0	2.0	4.0	6.0	5.0	0.0	part_2
178	3.0	5.0			450.0	0.0	1.0							5.0	0.0	0.39838097494794056	5.0	400.0	2.0	4.0	6.0	5.0	1.0	part_2
179	1.0	5.0			400.0	0.0	0.0							5.0	0.0	0.6478179310215637	5.0	400.0	2.0	1.0	2.0	1.0	0.0	part_2
180	1.0	6.0			400.0	0.0	0.0							5.0	0.0	0.4500472730724141	5.0	400.0	1.0	3.0	1.0	4.0	0.0	part_2
181	1.0	6.0			400.0	0.0	0.0							6.0	0.0	0.711064496950712	6.0	400.0	2.0	1.0	2.0	1.0	0.0	part_2
182	1.0	6.0			400.0	0.0	0.0							5.0	0.0	0.5978799649747089	5.0	400.0	1.0	3.0	1.0	4.0	0.0	part_2
183	1.0	6.0			400.0	0.0	0.0							5.0	0.0	0.4414582108147441	5.0	400.0	2.0	1.0	2.0	1.0	0.0	part_2
184	1.0	6.0			400.0	0.0	1.0							6.0	0.0	0.43241644493537024	6.0	400.0	2.0	4.0	6.0	5.0	0.0	part_2
185	4.0	6.0			400.0	0.0	1.0							6.0	0.0	0.0	0.0	400.0	3.0	6.0	7.0	8.0	1.0	part_2
186	1.0	6.0			400.0	0.0	0.0							5.0	0.0	0.5565401598578319	5.0	450.0	1.0	3.0	1.0	4.0	0.0	part_2
187	1.0	6.0			400.0	0.0	0.0							5.0	0.0	0.5688067119917832	5.0	450.0	4.0	8.0	4.0	2.0	0.0	part_2
188	1.0	6.0			400.0	0.0	1.0							6.0	0.0	0.6487517639179714	6.0	450.0	2.0	4.0	6.0	5.0	0.0	part_2
189	1.0	6.0			400.0	0.0	0.0							5.0	0.0	0.4800341398804449	5.0	450.0	4.0	8.0	4.0	2.0	0.0	part_2
190	3.0	6.0			400.0	0.0	1.0							6.0	0.0	0.4019488819176331	6.0	450.0	4.0	2.0	8.0	6.0	1.0	part_2
191	1.0	6.0			400.0	0.0	0.0							5.0	0.0	0.4704802419873886	5.0	400.0	1.0	3.0	1.0	4.0	0.0	part_2
192	1.0	6.0			400.0	0.0	0.0							6.0	0.0	0.5399931559804827	6.0	400.0	2.0	1.0	2.0	1.0	0.0	part_2
193	1.0	6.0			400.0	0.0	0.0							6.0	0.0	0.437801330932416	6.0	400.0	1.0	3.0	1.0	4.0	0.0	part_2
194	3.0	6.0			400.0	0.0	1.0							6.0	0.0	0.3622896249289624	6.0	400.0	1.0	7.0	5.0	7.0	1.0	part_2
195	1.0	6.0			400.0	0.0	0.0							5.0	0.0	0.3280020549427718	5.0	350.0	3.0	5.0	3.0	3.0	0.0	part_2
196	1.0	6.0			400.0	0.0	0.0							6.0	0.0	0.7330100850085728	6.0	350.0	1.0	3.0	1.0	4.0	0.0	part_2
197	1.0	6.0			400.0	0.0	0.0							6.0	0.0	0.4863920468487777	6.0	350.0	2.0	1.0	2.0	1.0	0.0	part_2
198	1.0	6.0			400.0	0.0	1.0							5.0	0.0	0.43175464298110455	5.0	350.0	3.0	6.0	7.0	8.0	0.0	part_2
199	1.0	6.0			400.0	0.0	0.0							5.0	0.0	0.4657021668390371	5.0	350.0	1.0	3.0	1.0	4.0	0.0	part_2
200	1.0	6.0			400.0	0.0	0.0							6.0	0.0	0.5917014249134809	6.0	350.0	4.0	8.0	4.0	2.0	0.0	part_2
201	4.0	6.0			400.0	0.0	1.0							6.0	0.0	0.0	0.0	350.0	1.0	7.0	5.0	7.0	1.0	part_2
202	1.0	6.0			400.0	0.0	1.0							5.0	0.0	0.43408899207133794	5.0	400.0	3.0	6.0	7.0	8.0	0.0	part_2
203	3.0	6.0			400.0	0.0	1.0							5.0	0.0	0.458921535871923	5.0	400.0	1.0	7.0	5.0	7.0	1.0	part_2
204	1.0	6.0			350.0	0.0	0.0							5.0	0.0	0.6736283780192025	5.0	400.0	4.0	8.0	4.0	2.0	0.0	part_2
205	4.0	6.0			350.0	0.0	1.0							5.0	0.0	0.0	0.0	400.0	4.0	2.0	8.0	6.0	1.0	part_2
206	1.0	6.0			400.0	0.0	0.0							6.0	0.0	0.40400903893169016	6.0	400.0	4.0	8.0	4.0	2.0	0.0	part_2
207	1.0	6.0			400.0	0.0	0.0							6.0	0.0	0.5412326160003431	6.0	400.0	2.0	1.0	2.0	1.0	0.0	part_2
208	1.0	6.0			400.0	0.0	1.0							5.0	0.0	0.6306978838983923	5.0	400.0	4.0	2.0	8.0	6.0	0.0	part_2
209	3.0	6.0			400.0	0.0	1.0							5.0	0.0	0.3967808460001834	5.0	400.0	1.0	7.0	5.0	7.0	1.0	part_2
210	1.0	6.0			350.0	0.0	0.0							6.0	0.0	0.4529745508916676	6.0	400.0	1.0	3.0	1.0	4.0	0.0	part_2
211	1.0	6.0			350.0	0.0	0.0							6.0	0.0	0.5546461758785881	6.0	400.0	4.0	8.0	4.0	2.0	0.0	part_2
212	4.0	6.0			350.0	0.0	1.0							5.0	0.0	0.0	0.0	400.0	1.0	7.0	5.0	7.0	1.0	part_2
213	3.0	6.0			400.0	0.0	1.0							6.0	0.0	0.5579464389011264	6.0	400.0	3.0	6.0	7.0	8.0	1.0	part_2
214	3.0	6.0			400.0	0.0	1.0							6.0	0.0	0.4783372119418346	6.0	350.0	3.0	6.0	7.0	8.0	1.0	part_2
215	1.0	6.0			400.0	0.0	0.0							5.0	0.0	0.7395571258384734	5.0	300.0	3.0	5.0	3.0	3.0	0.0	part_2
216	3.0	7.0			400.0	0.0	1.0							5.0	0.0	1.3877545928698964	5.0	300.0	1.0	7.0	5.0	7.0	1.0	part_2
217	1.0	7.0			350.0	0.0	0.0							5.0	0.0	0.7131973979412578	5.0	300.0	3.0	5.0	3.0	3.0	0.0	part_2
218	1.0	7.0			350.0	0.0	0.0							6.0	0.0	0.6583023848361336	6.0	300.0	3.0	5.0	3.0	3.0	0.0	part_2
219	4.0	7.0			350.0	0.0	1.0							5.0	0.0	0.0	0.0	300.0	2.0	4.0	6.0	5.0	1.0	part_2
220	4.0	7.0			400.0	0.0	1.0							6.0	0.0	0.0	0.0	300.0	2.0	4.0	6.0	5.0	1.0	part_2
221	1.0	7.0			400.0	0.0	0.0							5.0	0.0	0.5823807768174447	5.0	350.0	4.0	8.0	4.0	2.0	0.0	part_2
222	4.0	7.0			400.0	0.0	1.0							5.0	0.0	0.0	0.0	350.0	2.0	4.0	6.0	5.0	1.0	part_2
223	3.0	7.0			450.0	0.0	1.0							5.0	0.0	0.5155956667731516	5.0	350.0	3.0	6.0	7.0	8.0	1.0	part_2
224	1.0	7.0			400.0	0.0	0.0							6.0	0.0	0.4841094638104551	6.0	350.0	1.0	3.0	1.0	4.0	0.0	part_2
225	4.0	7.0			400.0	0.0	1.0							5.0	0.0	0.0	0.0	350.0	4.0	2.0	8.0	6.0	1.0	part_2
226	1.0	7.0			450.0	0.0	0.0							6.0	0.0	0.6881213570595719	6.0	350.0	4.0	8.0	4.0	2.0	0.0	part_2
227	4.0	7.0			450.0	0.0	1.0							6.0	0.0	0.0	0.0	350.0	1.0	7.0	5.0	7.0	1.0	part_2
228	4.0	7.0			450.0	0.0	1.0							6.0	0.0	0.0	0.0	400.0	2.0	4.0	6.0	5.0	1.0	part_2
229	3.0	7.0			450.0	0.0	1.0							6.0	0.0	0.5110143678612076	6.0	450.0	4.0	2.0	8.0	6.0	1.0	part_2
230	1.0	7.0			450.0	0.0	0.0							6.0	0.0	0.7241907819989137	6.0	400.0	2.0	1.0	2.0	1.0	0.0	part_2
231	4.0	7.0			450.0	0.0	1.0							5.0	0.0	0.0	0.0	400.0	4.0	2.0	8.0	6.0	1.0	part_2
232	1.0	7.0			500.0	0.0	0.0							6.0	0.0	0.6128973858430982	6.0	400.0	4.0	8.0	4.0	2.0	0.0	part_2
233	1.0	7.0			500.0	0.0	0.0							6.0	0.0	0.6717871759319678	6.0	400.0	2.0	1.0	2.0	1.0	0.0	part_2
234	1.0	7.0			500.0	0.0	1.0							6.0	0.0	0.5822070328867994	6.0	400.0	3.0	6.0	7.0	8.0	0.0	part_2
235	3.0	7.0			500.0	0.0	1.0							5.0	0.0	0.37892150395782653	5.0	400.0	2.0	4.0	6.0	5.0	1.0	part_2
236	1.0	7.0			450.0	0.0	0.0							5.0	0.0	0.4360249468008988	5.0	400.0	1.0	3.0	1.0	4.0	0.0	part_2
237	1.0	7.0			450.0	0.0	0.0							5.0	0.0	0.4483749418868683	5.0	400.0	3.0	5.0	3.0	3.0	0.0	part_2
238	3.0	7.0			450.0	0.0	1.0							6.0	0.0	0.4951995357987471	6.0	400.0	2.0	4.0	6.0	5.0	1.0	part_2
239	1.0	7.0			450.0	0.0	0.0							5.0	0.0	0.6075936309644021	5.0	350.0	3.0	5.0	3.0	3.0	0.0	part_2
240	1.0	7.0			450.0	0.0	0.0							6.0	0.0	0.3955989629612304	6.0	350.0	3.0	5.0	3.0	3.0	0.0	part_2
241	4.0	7.0			450.0	0.0	1.0							5.0	0.0	0.0	0.0	350.0	4.0	2.0	8.0	6.0	1.0	part_2
242	3.0	7.0			500.0	0.0	1.0							5.0	0.0	0.6905998938600533	5.0	350.0	2.0	4.0	6.0	5.0	1.0	part_2
243	4.0	7.0			450.0	0.0	1.0							6.0	0.0	0.0	0.0	350.0	3.0	6.0	7.0	8.0	1.0	part_2
244	1.0	7.0			450.0	0.0	0.0							5.0	0.0	0.6918872489477508	5.0	400.0	2.0	1.0	2.0	1.0	0.0	part_2
245	4.0	7.0			450.0	0.0	1.0							5.0	0.0	0.0	0.0	400.0	1.0	7.0	5.0	7.0	1.0	part_2
246	4.0	7.0			500.0	0.0	1.0							6.0	0.0	0.0	0.0	400.0	3.0	6.0	7.0	8.0	1.0	part_2
247	1.0	7.0			500.0	0.0	0.0							5.0	0.0	0.9625475278589876	5.0	450.0	2.0	1.0	2.0	1.0	0.0	part_2
248	1.0	7.0			500.0	0.0	1.0							6.0	0.0	0.4467497218865901	6.0	450.0	2.0	4.0	6.0	5.0	0.0	part_2
249	4.0	7.0			500.0	0.0	1.0							6.0	0.0	0.0	0.0	450.0	3.0	6.0	7.0	8.0	1.0	part_2
250	1.0	7.0			500.0	0.0	0.0							6.0	0.0	0.764684569905512	6.0	500.0	4.0	8.0	4.0	2.0	0.0	part_2
251	4.0	7.0			500.0	0.0	1.0							6.0	0.0	0.0	0.0	500.0	2.0	4.0	6.0	5.0	1.0	part_2
252	1.0	8.0			500.0	0.0	0.0							5.0	0.0	0.4728584918775596	5.0	550.0	4.0	8.0	4.0	2.0	0.0	part_2
253	3.0	8.0			500.0	0.0	1.0							6.0	0.0	0.5314981729607098	6.0	550.0	3.0	6.0	7.0	8.0	1.0	part_2
254	3.0	8.0			500.0	0.0	1.0							6.0	0.0	0.6098730328958482	6.0	500.0	1.0	7.0	5.0	7.0	1.0	part_2
255	1.0	8.0			500.0	0.0	0.0							5.0	0.0	0.5539465618785471	5.0	450.0	2.0	1.0	2.0	1.0	0.0	part_2
256	1.0	8.0			500.0	0.0	0.0							5.0	0.0	0.657556356920395	5.0	450.0	4.0	8.0	4.0	2.0	0.0	part_2
257	1.0	8.0			500.0	0.0	0.0							5.0	0.0	0.7018806839478202	5.0	450.0	2.0	1.0	2.0	1.0	0.0	part_2
258	4.0	8.0			500.0	0.0	1.0							6.0	0.0	0.0	0.0	450.0	3.0	6.0	7.0	8.0	1.0	part_2
259	1.0	8.0			500.0	0.0	0.0							6.0	0.0	0.6713650348829105	6.0	500.0	1.0	3.0	1.0	4.0	0.0	part_2
260	3.0	8.0			500.0	0.0	1.0							5.0	0.0	0.6722605449031107	5.0	500.0	1.0	7.0	5.0	7.0	1.0	part_2
261	1.0	8.0			450.0	0.0	0.0							5.0	0.0	0.5933931519975886	5.0	500.0	3.0	5.0	3.0	3.0	0.0	part_2
262	3.0	8.0			450.0	0.0	1.0							5.0	0.0	0.4478943049325608	5.0	500.0	4.0	2.0	8.0	6.0	1.0	part_2
263	4.0	8.0			400.0	0.0	1.0							5.0	0.0	0.0	0.0	500.0	4.0	2.0	8.0	6.0	1.0	part_2
264	1.0	8.0			450.0	0.0	0.0							6.0	0.0	0.5629864518996328	6.0	500.0	3.0	5.0	3.0	3.0	0.0	part_2
265	1.0	8.0			450.0	0.0	0.0							6.0	0.0	0.6535659679211676	6.0	500.0	1.0	3.0	1.0	4.0	0.0	part_2
266	4.0	8.0			450.0	0.0	1.0							6.0	0.0	0.0	0.0	500.0	3.0	6.0	7.0	8.0	1.0	part_2
267	1.0	8.0			450.0	0.0	0.0							5.0	0.0	0.6211750319343992	5.0	550.0	2.0	1.0	2.0	1.0	0.0	part_2
268	1.0	8.0			450.0	0.0	0.0							6.0	0.0	0.6891301778960042	6.0	550.0	3.0	5.0	3.0	3.0	0.0	part_2
269	1.0	8.0			450.0	0.0	0.0							6.0	0.0	0.6566012487746775	6.0	550.0	2.0	1.0	2.0	1.0	0.0	part_2
270	1.0	8.0			450.0	0.0	0.0							5.0	0.0	0.5786994269001298	5.0	550.0	3.0	5.0	3.0	3.0	0.0	part_2
271	1.0	8.0			450.0	0.0	0.0							6.0	0.0	0.4105102019384504	6.0	550.0	2.0	1.0	2.0	1.0	0.0	part_2
272	1.0	8.0			450.0	0.0	0.0							5.0	0.0	0.5577463057707064	5.0	550.0	1.0	3.0	1.0	4.0	0.0	part_2
273	4.0	8.0			450.0	0.0	1.0							5.0	0.0	0.0	0.0	550.0	1.0	7.0	5.0	7.0	1.0	part_2
274	3.0	8.0			500.0	0.0	1.0							6.0	0.0	0.6384058658732101	6.0	550.0	1.0	7.0	5.0	7.0	1.0	part_2
275	3.0	8.0			500.0	0.0	1.0							5.0	0.0	0.6163352148723789	5.0	500.0	3.0	6.0	7.0	8.0	1.0	part_2
276	1.0	8.0			450.0	0.0	0.0							6.0	0.0	0.4939216339844279	6.0	500.0	2.0	1.0	2.0	1.0	0.0	part_2
277	3.0	8.0			450.0	0.0	1.0							6.0	0.0	0.6847193919238634	6.0	500.0	2.0	4.0	6.0	5.0	1.0	part_2
278	1.0	8.0			450.0	0.0	0.0							6.0	0.0	0.7418836786528118	6.0	450.0	2.0	1.0	2.0	1.0	0.0	part_2
279	4.0	8.0			450.0	0.0	1.0							5.0	0.0	0.0	0.0	450.0	4.0	2.0	8.0	6.0	1.0	part_2
280	1.0	8.0			500.0	0.0	0.0							6.0	0.0	0.9033495549228974	6.0	450.0	3.0	5.0	3.0	3.0	0.0	part_2
281	1.0	8.0			500.0	0.0	0.0							6.0	0.0	0.6337165088625625	6.0	450.0	3.0	5.0	3.0	3.0	0.0	part_2
282	4.0	8.0			500.0	0.0	1.0							6.0	0.0	0.0	0.0	450.0	4.0	2.0	8.0	6.0	1.0	part_2
283	1.0	8.0			500.0	0.0	0.0							5.0	0.0	0.6003444609814323	5.0	500.0	2.0	1.0	2.0	1.0	0.0	part_2
284	4.0	8.0			500.0	0.0	1.0							5.0	0.0	0.0	0.0	500.0	1.0	7.0	5.0	7.0	1.0	part_2
285	1.0	8.0			550.0	0.0	1.0							6.0	0.0	1.0745724820299074	6.0	500.0	1.0	7.0	5.0	7.0	0.0	part_2
286	1.0	8.0			550.0	0.0	1.0							5.0	0.0	0.9179497419390829	5.0	500.0	3.0	6.0	7.0	8.0	0.0	part_2
287	3.0	8.0			550.0	0.0	1.0							6.0	0.0	0.6608554979320616	6.0	500.0	4.0	2.0	8.0	6.0	1.0	part_2
0	0.0	1.0	136.0	4.0	0.0	2.0	1.0	34.0	68.0	136.0	102.0	170.0	204.0	7.0	0.0	2.114560565911233	3.0	0.0	1.0	7.0	5.0	7.0	0.0	part_3
1	0.0	1.0	162.0	3.0	0.0	1.0	0.0	108.0	54.0	270.0	216.0	162.0	324.0	7.0	0.0	3.6247177317854953	5.0	0.0	4.0	8.0	4.0	2.0	0.0	part_3
2	0.0	1.0	324.0	6.0	0.0	1.0	0.0	54.0	108.0	324.0	216.0	162.0	270.0	7.0	0.0	3.9070183235453437	3.0	0.0	1.0	3.0	1.0	4.0	0.0	part_3
3	0.0	1.0	98.0	2.0	0.0	1.0	1.0	98.0	49.0	196.0	294.0	245.0	147.0	7.0	0.0	3.81796043086797	1.0	0.0	4.0	2.0	8.0	6.0	0.0	part_3
4	0.0	1.0	220.0	5.0	0.0	1.0	0.0	176.0	88.0	220.0	132.0	264.0	44.0	7.0	0.0	3.0205112271942203	3.0	0.0	3.0	5.0	3.0	3.0	0.0	part_3
5	0.0	1.0	216.0	4.0	0.0	1.0	1.0	54.0	108.0	324.0	162.0	216.0	270.0	7.0	0.0	2.9756295367842536	5.0	0.0	2.0	4.0	6.0	5.0	0.0	part_3
6	0.0	1.0	156.0	4.0	0.0	1.0	0.0	39.0	156.0	195.0	78.0	117.0	234.0	7.0	0.0	3.3256711799185723	2.0	0.0	1.0	3.0	1.0	4.0	0.0	part_3
7	0.0	1.0	294.0	6.0	0.0	1.0	0.0	245.0	294.0	147.0	196.0	49.0	98.0	7.0	0.0	2.6399271706468426	2.0	0.0	2.0	1.0	2.0	1.0	0.0	part_3
8	0.0	1.0	204.0	6.0	0.0	1.0	0.0	136.0	34.0	102.0	68.0	204.0	170.0	7.0	0.0	1.7969288155436516	5.0	0.0	2.0	1.0	2.0	1.0	0.0	part_3
9	0.0	1.0	162.0	3.0	0.0	1.0	1.0	324.0	108.0	270.0	162.0	216.0	54.0	7.0	0.0	1.5498138417606242	4.0	0.0	3.0	6.0	7.0	8.0	0.0	part_3
10	0.0	1.0	245.0	5.0	0.0	1.0	0.0	49.0	98.0	294.0	147.0	196.0	245.0	7.0	0.0	2.407000628707465	6.0	0.0	3.0	5.0	3.0	3.0	0.0	part_3
11	0.0	1.0	39.0	1.0	0.0	1.0	0.0	156.0	39.0	234.0	117.0	195.0	78.0	7.0	0.0	2.6789176197489724	2.0	0.0	3.0	5.0	3.0	3.0	0.0	part_3
12	0.0	1.0	108.0	2.0	0.0	1.0	1.0	324.0	54.0	216.0	108.0	270.0	162.0	7.0	0.0	1.902549934515264	4.0	0.0	2.0	4.0	6.0	5.0	0.0	part_3
13	0.0	1.0	294.0	6.0	0.0	1.0	1.0	245.0	147.0	294.0	196.0	49.0	98.0	7.0	0.0	1.5654914408223704	3.0	0.0	2.0	4.0	6.0	5.0	0.0	part_3
14	0.0	1.0	170.0	5.0	0.0	1.0	0.0	102.0	136.0	34.0	170.0	204.0	68.0	7.0	0.0	2.0302315608714707	4.0	0.0	1.0	3.0	1.0	4.0	0.0	part_3
15	0.0	1.0	156.0	4.0	0.0	1.0	0.0	234.0	117.0	195.0	39.0	78.0	156.0	7.0	0.0	0.9490798845072276	6.0	0.0	2.0	1.0	2.0	1.0	0.0	part_3
16	0.0	1.0	44.0	1.0	0.0	1.0	1.0	44.0	176.0	264.0	132.0	220.0	88.0	7.0	0.0	1.4460256066522559	1.0	0.0	1.0	7.0	5.0	7.0	0.0	part_3
17	0.0	1.0	44.0	1.0	0.0	1.0	0.0	176.0	88.0	44.0	220.0	132.0	264.0	7.0	0.0	2.313906742376276	3.0	0.0	1.0	3.0	1.0	4.0	0.0	part_3
18	0.0	1.0	294.0	6.0	0.0	1.0	1.0	98.0	196.0	147.0	245.0	49.0	294.0	7.0	0.0	2.1111052877968177	6.0	0.0	4.0	2.0	8.0	6.0	0.0	part_3
19	0.0	1.0	78.0	2.0	0.0	1.0	1.0	78.0	234.0	195.0	39.0	156.0	117.0	7.0	0.0	1.9903224366134964	1.0	0.0	2.0	4.0	6.0	5.0	0.0	part_3
20	0.0	2.0	245.0	5.0	0.0	1.0	0.0	98.0	196.0	245.0	49.0	147.0	294.0	7.0	0.0	1.465491343755275	3.0	0.0	1.0	3.0	1.0	4.0	0.0	part_3
21	0.0	2.0	324.0	6.0	0.0	1.0	1.0	54.0	216.0	162.0	324.0	270.0	108.0	7.0	0.0	1.1078012378420679	4.0	0.0	1.0	7.0	5.0	7.0	0.0	part_3
22	0.0	2.0	88.0	2.0	0.0	1.0	1.0	88.0	220.0	176.0	44.0	132.0	264.0	7.0	0.0	1.8292672617826609	1.0	0.0	3.0	6.0	7.0	8.0	0.0	part_3
23	0.0	2.0	98.0	2.0	0.0	1.0	0.0	49.0	98.0	245.0	196.0	147.0	294.0	7.0	0.0	2.573261401674245	2.0	0.0	3.0	5.0	3.0	3.0	0.0	part_3
24	0.0	2.0	147.0	3.0	0.0	1.0	0.0	196.0	245.0	147.0	98.0	294.0	49.0	7.0	0.0	2.8422005007741973	3.0	0.0	1.0	3.0	1.0	4.0	0.0	part_3
25	0.0	2.0	176.0	4.0	0.0	1.0	0.0	88.0	44.0	176.0	220.0	264.0	132.0	7.0	0.0	1.7071935697458684	3.0	0.0	4.0	8.0	4.0	2.0	0.0	part_3
26	0.0	2.0	234.0	6.0	0.0	1.0	0.0	78.0	156.0	195.0	117.0	234.0	39.0	7.0	0.0	1.5289026457467116	5.0	0.0	4.0	8.0	4.0	2.0	0.0	part_3
27	0.0	2.0	162.0	3.0	0.0	1.0	1.0	216.0	108.0	270.0	324.0	162.0	54.0	7.0	0.0	2.18370158248581	5.0	0.0	3.0	6.0	7.0	8.0	0.0	part_3
28	0.0	2.0	108.0	2.0	0.0	1.0	1.0	162.0	108.0	54.0	216.0	324.0	270.0	7.0	0.0	1.3399275186820887	2.0	0.0	4.0	2.0	8.0	6.0	0.0	part_3
29	0.0	2.0	234.0	6.0	0.0	1.0	1.0	117.0	78.0	156.0	39.0	195.0	234.0	7.0	0.0	1.6900295126251876	6.0	0.0	2.0	4.0	6.0	5.0	0.0	part_3
30	0.0	2.0	136.0	4.0	0.0	1.0	1.0	170.0	68.0	136.0	102.0	204.0	34.0	7.0	0.0	1.6898290134849958	3.0	0.0	4.0	2.0	8.0	6.0	0.0	part_3
31	0.0	2.0	88.0	2.0	0.0	1.0	1.0	88.0	176.0	220.0	132.0	264.0	44.0	7.0	0.0	1.9727662835503	1.0	0.0	2.0	4.0	6.0	5.0	0.0	part_3
32	0.0	2.0	147.0	3.0	0.0	1.0	0.0	98.0	147.0	49.0	245.0	294.0	196.0	7.0	0.0	1.2891508439206518	2.0	0.0	4.0	8.0	4.0	2.0	0.0	part_3
33	0.0	2.0	270.0	5.0	0.0	1.0	1.0	54.0	162.0	216.0	324.0	108.0	270.0	7.0	0.0	1.9754132644156923	6.0	0.0	1.0	7.0	5.0	7.0	0.0	part_3
34	0.0	2.0	117.0	3.0	0.0	1.0	1.0	39.0	117.0	234.0	195.0	156.0	78.0	7.0	0.0	1.4366143148508854	2.0	0.0	4.0	2.0	8.0	6.0	0.0	part_3
35	0.0	2.0	44.0	1.0	0.0	1.0	0.0	264.0	88.0	132.0	220.0	176.0	44.0	7.0	0.0	1.7188079866464252	6.0	0.0	1.0	3.0	1.0	4.0	0.0	part_3
36	0.0	2.0	132.0	3.0	0.0	1.0	0.0	132.0	220.0	264.0	88.0	176.0	44.0	7.0	0.0	1.247926227748394	1.0	0.0	3.0	5.0	3.0	3.0	0.0	part_3
37	0.0	2.0	54.0	1.0	0.0	1.0	0.0	216.0	162.0	108.0	324.0	270.0	54.0	7.0	0.0	1.349224014673382	6.0	0.0	3.0	5.0	3.0	3.0	0.0	part_3
38	0.0	2.0	195.0	5.0	0.0	1.0	0.0	234.0	39.0	195.0	117.0	78.0	156.0	7.0	0.0	1.8796729827881788	3.0	0.0	4.0	8.0	4.0	2.0	0.0	part_3
39	0.0	2.0	204.0	6.0	0.0	1.0	0.0	136.0	102.0	68.0	34.0	204.0	170.0	7.0	0.0	1.6789932888932526	5.0	0.0	4.0	8.0	4.0	2.0	0.0	part_3
40	0.0	3.0	102.0	3.0	0.0	1.0	1.0	34.0	68.0	136.0	204.0	170.0	102.0	7.0	0.0	1.6098731707315892	6.0	0.0	3.0	6.0	7.0	8.0	0.0	part_3
41	0.0	3.0	270.0	5.0	0.0	1.0	0.0	162.0	216.0	54.0	324.0	270.0	108.0	7.0	0.0	0.09166724473470822	5.0	0.0	2.0	1.0	2.0	1.0	0.0	part_3
42	0.0	3.0	170.0	5.0	0.0	1.0	0.0	204.0	170.0	34.0	136.0	68.0	102.0	7.0	0.0	1.4087343478458934	2.0	0.0	1.0	3.0	1.0	4.0	0.0	part_3
43	0.0	3.0	68.0	2.0	0.0	1.0	1.0	68.0	136.0	34.0	170.0	102.0	204.0	7.0	0.0	0.9275022615329362	1.0	0.0	1.0	7.0	5.0	7.0	0.0	part_3
44	0.0	3.0	44.0	1.0	0.0	1.0	0.0	264.0	176.0	132.0	220.0	44.0	88.0	7.0	0.0	0.9852520735003054	5.0	0.0	2.0	1.0	2.0	1.0	0.0	part_3
45	0.0	3.0	220.0	5.0	0.0	1.0	1.0	132.0	44.0	176.0	220.0	88.0	264.0	7.0	0.0	1.0296213066321798	4.0	0.0	1.0	7.0	5.0	7.0	0.0	part_3
46	0.0	3.0	68.0	2.0	0.0	1.0	0.0	170.0	68.0	136.0	204.0	34.0	102.0	7.0	0.0	1.3122243662946858	2.0	0.0	3.0	5.0	3.0	3.0	0.0	part_3
47	0.0	3.0	234.0	6.0	0.0	1.0	0.0	195.0	39.0	117.0	78.0	234.0	156.0	7.0	0.0	1.168585494859144	5.0	0.0	2.0	1.0	2.0	1.0	0.0	part_3
48	0.0	3.0	98.0	2.0	0.0	1.0	1.0	147.0	98.0	294.0	49.0	196.0	245.0	7.0	0.0	1.1020380055415444	2.0	0.0	3.0	6.0	7.0	8.0	0.0	part_3
49	0.0	3.0	98.0	2.0	0.0	1.0	0.0	49.0	98.0	294.0	196.0	147.0	245.0	7.0	0.0	1.8331201124819927	2.0	0.0	2.0	1.0	2.0	1.0	0.0	part_3
50	0.0	3.0	98.0	2.0	0.0	1.0	1.0	98.0	49.0	245.0	294.0	196.0	147.0	7.0	0.0	1.925029803882353	1.0	0.0	2.0	4.0	6.0	5.0	0.0	part_3
51	0.0	3.0	78.0	2.0	0.0	1.0	0.0	117.0	234.0	195.0	39.0	156.0	78.0	7.0	0.0	2.6122990949079394	6.0	0.0	3.0	5.0	3.0	3.0	0.0	part_3
52	0.0	3.0	132.0	3.0	0.0	1.0	1.0	220.0	264.0	44.0	88.0	132.0	176.0	7.0	0.0	2.398825749522075	5.0	0.0	2.0	4.0	6.0	5.0	0.0	part_3
53	0.0	3.0	196.0	4.0	0.0	1.0	0.0	245.0	49.0	196.0	147.0	294.0	98.0	7.0	0.0	2.7727355695096776	3.0	0.0	4.0	8.0	4.0	2.0	0.0	part_3
54	0.0	3.0	234.0	6.0	0.0	1.0	1.0	195.0	78.0	39.0	234.0	117.0	156.0	7.0	0.0	3.0199224037351087	4.0	0.0	1.0	7.0	5.0	7.0	0.0	part_3
55	0.0	3.0	34.0	1.0	0.0	1.0	0.0	68.0	204.0	170.0	102.0	34.0	136.0	7.0	0.0	1.4348650555475615	5.0	0.0	4.0	8.0	4.0	2.0	0.0	part_3
56	0.0	3.0	147.0	3.0	0.0	1.0	1.0	49.0	147.0	294.0	196.0	98.0	245.0	7.0	0.0	1.514649081742391	2.0	0.0	3.0	6.0	7.0	8.0	0.0	part_3
57	0.0	3.0	195.0	5.0	0.0	1.0	0.0	234.0	117.0	78.0	39.0	195.0	156.0	7.0	0.0	1.380723472626414	5.0	0.0	1.0	3.0	1.0	4.0	0.0	part_3
58	0.0	3.0	102.0	3.0	0.0	1.0	0.0	102.0	204.0	136.0	34.0	170.0	68.0	7.0	0.0	1.4163056308752855	1.0	0.0	3.0	5.0	3.0	3.0	0.0	part_3
59	0.0	3.0	264.0	6.0	0.0	1.0	1.0	88.0	132.0	44.0	264.0	220.0	176.0	7.0	0.0	1.900248481775634	4.0	0.0	3.0	6.0	7.0	8.0	0.0	part_3
60	0.0	4.0	270.0	5.0	0.0	1.0	0.0	54.0	108.0	324.0	270.0	162.0	216.0	7.0	0.0	1.1807346665300429	4.0	0.0	4.0	8.0	4.0	2.0	0.0	part_3
61	0.0	4.0	204.0	6.0	0.0	1.0	0.0	102.0	170.0	34.0	204.0	136.0	68.0	7.0	0.0	1.149070269719232	4.0	0.0	2.0	1.0	2.0	1.0	0.0	part_3
62	0.0	4.0	176.0	4.0	0.0	1.0	1.0	132.0	220.0	88.0	264.0	176.0	44.0	7.0	0.0	1.385811579879373	5.0	0.0	4.0	2.0	8.0	6.0	0.0	part_3
63	0.0	4.0	117.0	3.0	0.0	1.0	1.0	39.0	117.0	78.0	234.0	156.0	195.0	7.0	0.0	0.9703916168655268	2.0	0.0	3.0	6.0	7.0	8.0	0.0	part_3
64	0.0	4.0	162.0	3.0	0.0	1.0	0.0	324.0	108.0	162.0	216.0	54.0	270.0	7.0	0.0	1.0609730777796358	3.0	0.0	3.0	5.0	3.0	3.0	0.0	part_3
65	0.0	4.0	156.0	4.0	0.0	1.0	1.0	195.0	78.0	117.0	156.0	39.0	234.0	7.0	0.0	0.9050615687738172	4.0	0.0	3.0	6.0	7.0	8.0	0.0	part_3
66	0.0	4.0	132.0	3.0	0.0	1.0	0.0	264.0	132.0	88.0	220.0	176.0	44.0	7.0	0.0	1.5468580957385711	2.0	0.0	2.0	1.0	2.0	1.0	0.0	part_3
67	0.0	4.0	264.0	6.0	0.0	1.0	1.0	176.0	264.0	220.0	132.0	88.0	44.0	7.0	0.0	1.829217435908504	2.0	0.0	4.0	2.0	8.0	6.0	0.0	part_3
68	0.0	4.0	245.0	5.0	0.0	1.0	1.0	196.0	147.0	98.0	245.0	49.0	294.0	7.0	0.0	1.3473828097921796	4.0	0.0	1.0	7.0	5.0	7.0	0.0	part_3
69	0.0	4.0	324.0	6.0	0.0	1.0	0.0	54.0	162.0	270.0	324.0	216.0	108.0	7.0	0.0	1.4503560845041648	4.0	0.0	1.0	3.0	1.0	4.0	0.0	part_3
70	0.0	4.0	195.0	5.0	0.0	1.0	1.0	234.0	156.0	78.0	195.0	117.0	39.0	7.0	0.0	0.9102301448583604	4.0	0.0	1.0	7.0	5.0	7.0	0.0	part_3
71	0.0	4.0	264.0	6.0	0.0	1.0	0.0	176.0	88.0	44.0	132.0	264.0	220.0	7.0	0.0	2.1832128385431133	5.0	0.0	4.0	8.0	4.0	2.0	0.0	part_3
72	0.0	4.0	204.0	6.0	0.0	1.0	1.0	68.0	34.0	136.0	102.0	170.0	204.0	7.0	0.0	1.1043407345423475	6.0	0.0	4.0	2.0	8.0	6.0	0.0	part_3
73	0.0	4.0	98.0	2.0	0.0	1.0	1.0	147.0	98.0	245.0	49.0	196.0	294.0	7.0	0.0	2.399315624788869	2.0	0.0	1.0	7.0	5.0	7.0	0.0	part_3
74	0.0	4.0	54.0	1.0	0.0	1.0	0.0	270.0	54.0	108.0	216.0	162.0	324.0	7.0	0.0	1.038366589928046	2.0	0.0	2.0	1.0	2.0	1.0	0.0	part_3
75	0.0	4.0	270.0	5.0	0.0	1.0	1.0	324.0	162.0	270.0	54.0	216.0	108.0	7.0	0.0	1.4569313084357418	3.0	0.0	4.0	2.0	8.0	6.0	0.0	part_3
76	0.0	4.0	170.0	5.0	0.0	1.0	1.0	204.0	136.0	170.0	34.0	102.0	68.0	7.0	0.0	0.8279825637000613	3.0	0.0	2.0	4.0	6.0	5.0	0.0	part_3
77	0.0	4.0	195.0	5.0	0.0	1.0	1.0	78.0	234.0	195.0	39.0	156.0	117.0	7.0	0.0	0.9291872705798596	3.0	0.0	4.0	2.0	8.0	6.0	0.0	part_3
78	0.0	4.0	102.0	3.0	0.0	1.0	1.0	170.0	204.0	68.0	102.0	34.0	136.0	7.0	0.0	1.83071467874106	4.0	0.0	3.0	6.0	7.0	8.0	0.0	part_3
79	0.0	4.0	136.0	4.0	0.0	1.0	1.0	204.0	102.0	136.0	170.0	68.0	34.0	7.0	0.0	1.6526447648648173	3.0	0.0	2.0	4.0	6.0	5.0	0.0	part_3
