	accuracy	block	chosen_bidding_amount	chosen_bidding_level	left_SSD	num_trial_presentations	paired_with_stopping	possible_bid_1	possible_bid_2	possible_bid_3	possible_bid_4	possible_bid_5	possible_bid_6	quadrant	raw_reward_magnitude	reaction_time	response	right_SSD	stepwise_reward_magnitude	stim_color	stim_reward	stim_shape	stop_signal_trial_type	which_part
0		1.0				1.0	1.0							3.0	382.0	0.5091590117281157	3.0		4.0	3.0	8.0	6.0		part_1
1		1.0				1.0	1.0							2.0	201.0	0.5659843216417357	2.0		3.0	8.0	7.0	3.0		part_1
2		1.0				1.0	0.0							1.0	180.0	0.4759768126423296	1.0		3.0	2.0	3.0	8.0		part_1
3		1.0				1.0	1.0							2.0	185.0	0.4446025659999577	2.0		3.0	8.0	7.0	3.0		part_1
4		1.0				1.0	0.0							3.0	179.0	0.3644255554572737	3.0		3.0	2.0	3.0	8.0		part_1
5		1.0				1.0	1.0							2.0	31.0	0.4681765301847918	2.0		1.0	7.0	5.0	7.0		part_1
6		1.0				1.0	0.0							1.0	0.0	0.4105287328293343	1.0		0.0	6.0	1.0	5.0		part_1
7		1.0				1.0	1.0							3.0	75.0	0.3659610560007423	3.0		2.0	1.0	6.0	2.0		part_1
8		1.0				1.0	1.0							3.0	0.0	0.2984110559136752	3.0		0.0	3.0	8.0	6.0		part_1
9		1.0				1.0	0.0							4.0	388.0	0.3570842797289515	4.0		4.0	5.0	4.0	4.0		part_1
10		1.0				1.0	0.0							3.0	69.0	0.3337753466403228	3.0		1.0	6.0	1.0	5.0		part_1
11		1.0				1.0	0.0							3.0	44.0	0.3117442936418229	3.0		1.0	6.0	1.0	5.0		part_1
12		1.0				1.0	0.0							3.0	120.0	0.35690193718437513	3.0		2.0	4.0	2.0	1.0		part_1
13		1.0				1.0	1.0							2.0	81.0	0.2688999439124018	2.0		2.0	1.0	6.0	2.0		part_1
14		1.0				1.0	0.0							4.0	195.0	0.32475829072791385	4.0		3.0	2.0	3.0	8.0		part_1
15		1.0				1.0	0.0							3.0	105.0	0.3370258629129239	3.0		2.0	4.0	2.0	1.0		part_1
16		1.0				1.0	1.0							2.0	103.0	0.31685273299990513	2.0		2.0	1.0	6.0	2.0		part_1
17		1.0				1.0	0.0							3.0	418.0	0.3258064663714322	3.0		4.0	5.0	4.0	4.0		part_1
18		1.0				1.0	1.0							1.0	43.0	0.3515818759133253	1.0		1.0	7.0	5.0	7.0		part_1
19		1.0				1.0	0.0							3.0	0.0	0.3401859263685765	3.0		0.0	6.0	1.0	5.0		part_1
20		1.0				1.0	1.0							1.0	187.0	0.454062910641369	1.0		3.0	8.0	7.0	3.0		part_1
21		1.0				1.0	1.0							1.0	108.0	0.3984889260991622	1.0		2.0	1.0	6.0	2.0		part_1
22		1.0				1.0	0.0							4.0	31.0	0.3737939114580513	4.0		1.0	6.0	1.0	5.0		part_1
23		1.0				1.0	0.0							3.0	63.0	0.31935854318544443	3.0		1.0	6.0	1.0	5.0		part_1
24		1.0				1.0	1.0							1.0	215.0	0.34321387872842024	1.0		3.0	8.0	7.0	3.0		part_1
25		1.0				1.0	0.0							1.0	123.0	0.3329041121851333	1.0		2.0	4.0	2.0	1.0		part_1
26		1.0				1.0	0.0							1.0	62.0	0.30990597445634194	1.0		1.0	6.0	1.0	5.0		part_1
27		1.0				1.0	0.0							1.0	417.0	0.29878941472816223	1.0		4.0	5.0	4.0	4.0		part_1
28		1.0				1.0	1.0							1.0	27.0	0.35669330372911645	1.0		1.0	7.0	5.0	7.0		part_1
29		1.0				1.0	0.0							4.0	81.0	0.4013013453713937	4.0		2.0	4.0	2.0	1.0		part_1
30		1.0				1.0	1.0							2.0	394.0	0.3120145099146612	2.0		4.0	3.0	8.0	6.0		part_1
31		1.0				1.0	0.0							1.0	383.0	0.4240085031851777	1.0		4.0	5.0	4.0	4.0		part_1
32		1.0				1.0	1.0							4.0	0.0	0.3910106671009999	4.0		0.0	3.0	8.0	6.0		part_1
33		1.0				1.0	0.0							4.0	414.0	0.4934537859135162	4.0		4.0	5.0	4.0	4.0		part_1
34		1.0				1.0	0.0							4.0	72.0	0.4040458439121721	4.0		1.0	6.0	1.0	5.0		part_1
35		1.0				1.0	1.0							4.0	36.0	0.35945629645721056	4.0		1.0	7.0	5.0	7.0		part_1
36		1.0				1.0	1.0							1.0	42.0	0.2809866740990401	1.0		1.0	7.0	5.0	7.0		part_1
37		1.0				1.0	0.0							4.0	420.0	0.32789374745698296	4.0		4.0	5.0	4.0	4.0		part_1
38		1.0				1.0	0.0							2.0	377.0	0.3610659903697524	2.0		4.0	5.0	4.0	4.0		part_1
39		1.0				1.0	0.0							3.0	392.0	0.4071849928277516	3.0		4.0	5.0	4.0	4.0		part_1
40		1.0				1.0	1.0							4.0	210.0	0.33991753491318377	4.0		3.0	8.0	7.0	3.0		part_1
41		1.0				1.0	0.0							2.0	103.0	0.32983345618595195	2.0		2.0	4.0	2.0	1.0		part_1
42		1.0				1.0	0.0							1.0	192.0	0.3177471804556262	1.0		3.0	2.0	3.0	8.0		part_1
43		1.0				1.0	1.0							1.0	388.0	0.34233025491266744	1.0		4.0	3.0	8.0	6.0		part_1
44		1.0				1.0	0.0							2.0	0.0	0.35444767291301105	2.0		0.0	2.0	3.0	8.0		part_1
45		1.0				1.0	0.0							2.0	0.0	0.29722019872860983	2.0		0.0	4.0	2.0	1.0		part_1
46		1.0				1.0	1.0							3.0	0.0	0.3313911565564922	3.0		0.0	7.0	5.0	7.0		part_1
47		1.0				1.0	1.0							1.0	388.0	0.3429685681840056	1.0		4.0	3.0	8.0	6.0		part_1
48		1.0				1.0	1.0							3.0	30.0	0.32159756745568296	3.0		1.0	7.0	5.0	7.0		part_1
49		1.0				1.0	1.0							2.0	414.0	0.3004603530989698	2.0		4.0	3.0	8.0	6.0		part_1
50		1.0				1.0	1.0							2.0	0.0	0.4587523698155565	2.0		0.0	8.0	7.0	3.0		part_1
51		1.0				1.0	0.0							2.0	425.0	0.3235634531847609	2.0		4.0	5.0	4.0	4.0		part_1
52		1.0				1.0	0.0							3.0	0.0	0.3339829126416589	3.0		0.0	2.0	3.0	8.0		part_1
53		1.0				1.0	0.0							3.0	57.0	0.31355214845643786	3.0		1.0	6.0	1.0	5.0		part_1
54		1.0				1.0	1.0							3.0	414.0	0.36884711891252653	3.0		4.0	3.0	8.0	6.0		part_1
55		1.0				1.0	1.0							2.0	391.0	0.4153875108277134	2.0		4.0	3.0	8.0	6.0		part_1
56		1.0				1.0	0.0							1.0	73.0	0.3833560131006379	1.0		1.0	6.0	1.0	5.0		part_1
57		1.0				1.0	1.0							2.0	0.0	0.4161474847278441	2.0		0.0	1.0	6.0	2.0		part_1
58		1.0				1.0	1.0							4.0	73.0	0.38412337336922064	4.0		1.0	7.0	5.0	7.0		part_1
59		1.0				1.0	0.0							4.0	94.0	0.32824073372830753	4.0		2.0	4.0	2.0	1.0		part_1
60		1.0				1.0	0.0							2.0	42.0	0.4530641001838376	2.0		1.0	6.0	1.0	5.0		part_1
61		1.0				1.0	1.0							1.0	62.0	0.2729342768288916	1.0		1.0	7.0	5.0	7.0		part_1
62		1.0				1.0	0.0							4.0	104.0	0.29528403191216057	4.0		2.0	4.0	2.0	1.0		part_1
63		1.0				1.0	1.0							2.0	391.0	0.2960110937274294	2.0		4.0	3.0	8.0	6.0		part_1
64		1.0				1.0	0.0							1.0	183.0	0.3190496335555508	1.0		3.0	2.0	3.0	8.0		part_1
65		1.0				1.0	1.0							2.0	387.0	0.3083316151842155	2.0		4.0	3.0	8.0	6.0		part_1
66		1.0				1.0	0.0							2.0	97.0	0.2993351201002952	2.0		2.0	4.0	2.0	1.0		part_1
67		1.0				1.0	0.0							4.0	0.0	0.3216782700001204	4.0		0.0	6.0	1.0	5.0		part_1
68		1.0				1.0	1.0							4.0	60.0	0.3670912053712527	4.0		1.0	7.0	5.0	7.0		part_1
69		1.0				1.0	1.0							2.0	93.0	0.2997083478276181	2.0		2.0	1.0	6.0	2.0		part_1
70		1.0				1.0	0.0							1.0	403.0	0.29947662909944484	1.0		4.0	5.0	4.0	4.0		part_1
71		1.0				1.0	0.0							3.0	120.0	0.38970862837049935	3.0		2.0	4.0	2.0	1.0		part_1
72		1.0				1.0	0.0							4.0	0.0	0.33460311564158474	4.0		0.0	2.0	3.0	8.0		part_1
73		1.0				1.0	1.0							3.0	0.0	0.3244635380997352	3.0		0.0	3.0	8.0	6.0		part_1
74		1.0				1.0	0.0							2.0	30.0	0.2807661321839987	2.0		1.0	6.0	1.0	5.0		part_1
75		1.0				1.0	1.0							2.0	51.0	0.29148785309916997	2.0		1.0	7.0	5.0	7.0		part_1
76		1.0				1.0	0.0							2.0	81.0	0.3031142279123742	2.0		2.0	4.0	2.0	1.0		part_1
77		1.0				1.0	0.0							1.0	0.0	0.3487396137279575	1.0		0.0	4.0	2.0	1.0		part_1
78		1.0				1.0	1.0							1.0	97.0	0.33938065482834645	1.0		2.0	1.0	6.0	2.0		part_1
79		1.0				1.0	1.0							4.0	188.0	0.3281381301840156	4.0		3.0	8.0	7.0	3.0		part_1
80		1.0				1.0	0.0							4.0	48.0	0.29428486364122364	4.0		1.0	6.0	1.0	5.0		part_1
81		1.0				1.0	1.0							2.0	105.0	0.3186561857291963	2.0		2.0	1.0	6.0	2.0		part_1
82		1.0				1.0	1.0							2.0	198.0	0.29557338037011505	2.0		3.0	8.0	7.0	3.0		part_1
83		1.0				1.0	0.0							4.0	0.0	0.2629215181841573	4.0		0.0	5.0	4.0	4.0		part_1
84		1.0				1.0	1.0							3.0	111.0	0.33071288218525297	3.0		2.0	1.0	6.0	2.0		part_1
85		1.0				1.0	0.0							1.0	401.0	0.3191549184557516	1.0		4.0	5.0	4.0	4.0		part_1
86		1.0				1.0	0.0							2.0	44.0	0.2876564586422319	2.0		1.0	6.0	1.0	5.0		part_1
87		1.0				2.0	1.0							1.0	220.0	0.30930381091275194	1.0		3.0	8.0	7.0	3.0		part_1
88		1.0				1.0	0.0							4.0	0.0	0.3781831043706916	4.0		0.0	4.0	2.0	1.0		part_1
89		1.0				1.0	1.0							2.0	0.0	0.2556905496421677	2.0		0.0	7.0	5.0	7.0		part_1
90		1.0				1.0	1.0							4.0	219.0	0.34650295336905396	4.0		3.0	8.0	7.0	3.0		part_1
91		1.0				1.0	0.0							3.0	85.0	0.33353730018643546	3.0		2.0	4.0	2.0	1.0		part_1
92		1.0				1.0	1.0							4.0	72.0	0.3123228709137038	4.0		1.0	7.0	5.0	7.0		part_1
93		1.0				1.0	0.0							3.0	108.0	0.38164189745657495	3.0		2.0	4.0	2.0	1.0		part_1
94		1.0				1.0	1.0							1.0	420.0	0.3489132893701026	1.0		4.0	3.0	8.0	6.0		part_1
95		1.0				1.0	1.0							1.0	111.0	0.3718023348283168	1.0		2.0	1.0	6.0	2.0		part_1
96		1.0				1.0	1.0							4.0	58.0	0.3715428397281357	4.0		1.0	7.0	5.0	7.0		part_1
97		1.0				1.0	1.0							4.0	418.0	0.32640555837133434	4.0		4.0	3.0	8.0	6.0		part_1
98		1.0				1.0	1.0							2.0	188.0	0.4063489863710856	2.0		3.0	8.0	7.0	3.0		part_1
99		1.0				1.0	1.0							4.0	71.0	0.4286824999126111	4.0		1.0	7.0	5.0	7.0		part_1
100		2.0				1.0	0.0							3.0	0.0	0.4087920449128433	3.0		0.0	5.0	4.0	4.0		part_1
101		2.0				1.0	1.0							2.0	115.0	0.3882743581852992	2.0		2.0	1.0	6.0	2.0		part_1
102		2.0				1.0	1.0							1.0	77.0	0.29837791199861385	1.0		2.0	1.0	6.0	2.0		part_1
103		2.0				1.0	1.0							3.0	58.0	0.3769184316406609	3.0		1.0	7.0	5.0	7.0		part_1
104		2.0				1.0	0.0							3.0	210.0	0.34490247964095033	3.0		3.0	2.0	3.0	8.0		part_1
105		2.0				1.0	1.0							2.0	122.0	0.39115524864246254	2.0		2.0	1.0	6.0	2.0		part_1
106		2.0				1.0	1.0							1.0	180.0	0.36947658018470975	1.0		3.0	8.0	7.0	3.0		part_1
107		2.0				1.0	0.0							2.0	408.0	0.4143500899135688	2.0		4.0	5.0	4.0	4.0		part_1
108		2.0				1.0	0.0							4.0	376.0	0.2683345724562969	4.0		4.0	5.0	4.0	4.0		part_1
109		2.0				1.0	1.0							3.0	104.0	0.35749796191157657	3.0		2.0	1.0	6.0	2.0		part_1
110		2.0				1.0	0.0							1.0	51.0	0.3590578194580303	1.0		1.0	6.0	1.0	5.0		part_1
111		2.0				1.0	1.0							3.0	377.0	0.3262173067287222	3.0		4.0	3.0	8.0	6.0		part_1
112		2.0				1.0	0.0							4.0	88.0	0.3273679027279286	4.0		2.0	4.0	2.0	1.0		part_1
113		2.0				1.0	1.0							3.0	0.0	0.3263829871011694	3.0		0.0	8.0	7.0	3.0		part_1
114		2.0				1.0	0.0							2.0	67.0	0.30667852845544985	2.0		1.0	6.0	1.0	5.0		part_1
115		2.0				1.0	0.0							1.0	185.0	0.33872424772744125	1.0		3.0	2.0	3.0	8.0		part_1
116		2.0				1.0	1.0							3.0	177.0	0.32967029564133554	3.0		3.0	8.0	7.0	3.0		part_1
117		2.0				1.0	0.0							2.0	79.0	0.2842088664565381	2.0		2.0	4.0	2.0	1.0		part_1
118		2.0				1.0	1.0							2.0	48.0	0.3183301214558014	2.0		1.0	7.0	5.0	7.0		part_1
119		2.0				1.0	0.0							2.0	423.0	0.2961621021004248	2.0		4.0	5.0	4.0	4.0		part_1
120		2.0				1.0	1.0							3.0	191.0	0.3304033497279306	3.0		3.0	8.0	7.0	3.0		part_1
121		2.0				1.0	1.0							4.0	102.0	0.3313500819986075	4.0		2.0	1.0	6.0	2.0		part_1
122		2.0				1.0	1.0							1.0	383.0	0.3091276831837604	1.0		4.0	3.0	8.0	6.0		part_1
123		2.0				1.0	0.0							4.0	0.0	0.31049170591359143	4.0		0.0	4.0	2.0	1.0		part_1
124		2.0				1.0	0.0							2.0	205.0	0.3123385727285495	2.0		3.0	2.0	3.0	8.0		part_1
125		2.0				1.0	0.0							1.0	0.0	0.3225744271858275	1.0		0.0	2.0	3.0	8.0		part_1
126		2.0				1.0	1.0							2.0	0.0	0.3126519574580016	2.0		0.0	3.0	8.0	6.0		part_1
127		2.0				1.0	1.0							3.0	27.0	0.3686433858274541	3.0		1.0	7.0	5.0	7.0		part_1
128		2.0				1.0	0.0							4.0	205.0	0.3022140733701235	4.0		3.0	2.0	3.0	8.0		part_1
129		2.0				1.0	0.0							3.0	387.0	0.4026574261006317	3.0		4.0	5.0	4.0	4.0		part_1
130		2.0				1.0	1.0							2.0	222.0	0.3138290249135025	2.0		3.0	8.0	7.0	3.0		part_1
131		2.0				1.0	0.0							2.0	177.0	0.3033815860999312	2.0		3.0	2.0	3.0	8.0		part_1
132		2.0				1.0	1.0							3.0	211.0	0.3363339688294218	3.0		3.0	8.0	7.0	3.0		part_1
133		2.0				1.0	1.0							3.0	67.0	0.325787437186591	3.0		1.0	7.0	5.0	7.0		part_1
134		2.0				1.0	0.0							1.0	388.0	0.2838484389139921	1.0		4.0	5.0	4.0	4.0		part_1
135		2.0				1.0	0.0							2.0	219.0	0.3056849464555853	2.0		3.0	2.0	3.0	8.0		part_1
136		2.0				1.0	0.0							2.0	0.0	0.30703930918389233	2.0		0.0	5.0	4.0	4.0		part_1
137		2.0				1.0	1.0							2.0	179.0	0.3975108493687003	2.0		3.0	8.0	7.0	3.0		part_1
138		2.0				1.0	0.0							4.0	0.0	0.32912240137011395	4.0		0.0	2.0	3.0	8.0		part_1
139		2.0				1.0	1.0							4.0	424.0	0.3750141407290357	4.0		4.0	3.0	8.0	6.0		part_1
140		2.0				1.0	1.0							3.0	213.0	0.3651086798272445	3.0		3.0	8.0	7.0	3.0		part_1
141		2.0				1.0	0.0							3.0	0.0	0.3654556671845057	3.0		0.0	5.0	4.0	4.0		part_1
142		2.0				1.0	1.0							1.0	0.0	0.32080471309927816	1.0		0.0	3.0	8.0	6.0		part_1
143		2.0				1.0	1.0							4.0	382.0	0.32201011037068383	4.0		4.0	3.0	8.0	6.0		part_1
144		2.0				1.0	0.0							1.0	30.0	0.525285663368777	1.0		1.0	6.0	1.0	5.0		part_1
145		2.0				1.0	1.0							2.0	180.0	0.34414083218507585	2.0		3.0	8.0	7.0	3.0		part_1
146		2.0				1.0	1.0							4.0	91.0	0.358206234728641	4.0		2.0	1.0	6.0	2.0		part_1
147		2.0				1.0	1.0							1.0	33.0	0.3341882077293121	1.0		1.0	7.0	5.0	7.0		part_1
148		2.0				1.0	0.0							4.0	97.0	0.31192338118489715	4.0		2.0	4.0	2.0	1.0		part_1
149		2.0				1.0	0.0							3.0	215.0	0.35715261191217	3.0		3.0	2.0	3.0	8.0		part_1
150		2.0				1.0	1.0							1.0	57.0	0.4047010129143018	1.0		1.0	7.0	5.0	7.0		part_1
151		2.0				1.0	0.0							1.0	41.0	0.3376910083698021	1.0		1.0	6.0	1.0	5.0		part_1
152		2.0				1.0	0.0							3.0	72.0	0.3496950966418808	3.0		1.0	6.0	1.0	5.0		part_1
153		2.0				1.0	0.0							1.0	208.0	0.2927835723694443	1.0		3.0	2.0	3.0	8.0		part_1
154		2.0				1.0	0.0							2.0	198.0	0.3388137989131792	2.0		3.0	2.0	3.0	8.0		part_1
155		2.0				1.0	0.0							3.0	394.0	0.3395967194574041	3.0		4.0	5.0	4.0	4.0		part_1
156		2.0				1.0	1.0							2.0	88.0	0.2827395255571901	2.0		2.0	1.0	6.0	2.0		part_1
157		2.0				1.0	1.0							3.0	192.0	0.3399404189985944	3.0		3.0	8.0	7.0	3.0		part_1
158		2.0				1.0	0.0							1.0	81.0	0.31845247882847616	1.0		2.0	4.0	2.0	1.0		part_1
159		2.0				1.0	0.0							2.0	33.0	0.31831818291357195	2.0		1.0	6.0	1.0	5.0		part_1
160		2.0				1.0	1.0							2.0	216.0	0.3420328231859457	2.0		3.0	8.0	7.0	3.0		part_1
161		2.0				1.0	0.0							3.0	203.0	0.3766235281000263	3.0		3.0	2.0	3.0	8.0		part_1
162		2.0				1.0	0.0							2.0	99.0	0.3093855504557723	2.0		2.0	4.0	2.0	1.0		part_1
163		2.0				1.0	0.0							3.0	56.0	0.2863985349140421	3.0		1.0	6.0	1.0	5.0		part_1
164		2.0				1.0	0.0							3.0	211.0	0.3900150996414595	3.0		3.0	2.0	3.0	8.0		part_1
165		2.0				1.0	0.0							3.0	382.0	0.3330684957290941	3.0		4.0	5.0	4.0	4.0		part_1
166		2.0				1.0	0.0							2.0	397.0	0.3235124766415538	2.0		4.0	5.0	4.0	4.0		part_1
167		2.0				1.0	1.0							1.0	211.0	0.4801316521861736	1.0		3.0	8.0	7.0	3.0		part_1
168		2.0				1.0	1.0							1.0	85.0	0.4024628411007143	1.0		2.0	1.0	6.0	2.0		part_1
169		2.0				1.0	1.0							1.0	120.0	0.3349809141000151	1.0		2.0	1.0	6.0	2.0		part_1
170		2.0				1.0	1.0							4.0	381.0	0.33539535882846394	4.0		4.0	3.0	8.0	6.0		part_1
171		2.0				1.0	0.0							1.0	202.0	0.551707819557123	1.0		3.0	2.0	3.0	8.0		part_1
172		2.0				1.0	1.0							3.0	48.0	0.4041110187281447	3.0		1.0	7.0	5.0	7.0		part_1
173		2.0				1.0	0.0							1.0	114.0	0.39350303582796187	1.0		2.0	4.0	2.0	1.0		part_1
174		2.0				1.0	1.0							2.0	26.0	0.3946474974563898	2.0		1.0	7.0	5.0	7.0		part_1
175		2.0				1.0	1.0							2.0	186.0	0.3167072077285411	2.0		3.0	8.0	7.0	3.0		part_1
176		2.0				1.0	0.0							2.0	382.0	0.3053740041850688	2.0		4.0	5.0	4.0	4.0		part_1
177		2.0				1.0	1.0							3.0	0.0	0.5982990711836464	3.0		0.0	1.0	6.0	2.0		part_1
178		2.0				1.0	1.0							4.0	206.0	0.39768892791289545	4.0		3.0	8.0	7.0	3.0		part_1
179		2.0				1.0	1.0							3.0	0.0	0.4091247786418535	3.0		0.0	8.0	7.0	3.0		part_1
180		2.0				1.0	0.0							2.0	180.0	0.38743834618617257	2.0		3.0	2.0	3.0	8.0		part_1
181		2.0				1.0	1.0							3.0	400.0	0.3426024531854637	3.0		4.0	3.0	8.0	6.0		part_1
182		2.0				1.0	1.0							4.0	224.0	0.4091958591852745	4.0		3.0	8.0	7.0	3.0		part_1
183		2.0				1.0	0.0							4.0	36.0	0.7382205540307041	4.0		1.0	6.0	1.0	5.0		part_1
184		2.0				1.0	1.0							1.0	399.0	0.3434544471838308	1.0		4.0	3.0	8.0	6.0		part_1
185		2.0				1.0	0.0							2.0	0.0	0.37832971445641306	2.0		0.0	4.0	2.0	1.0		part_1
186		2.0				1.0	0.0							1.0	0.0	0.3677937000993552	1.0		0.0	6.0	1.0	5.0		part_1
187		2.0				1.0	1.0							1.0	190.0	0.3334967914579465	1.0		3.0	8.0	7.0	3.0		part_1
188		2.0				1.0	1.0							4.0	0.0	0.34563198836985976	4.0		0.0	3.0	8.0	6.0		part_1
189		2.0				1.0	1.0							4.0	420.0	0.3471594987295248	4.0		4.0	3.0	8.0	6.0		part_1
190		2.0				1.0	1.0							2.0	57.0	0.3807849098284351	2.0		1.0	7.0	5.0	7.0		part_1
191		2.0				1.0	1.0							1.0	194.0	0.4501950920985109	1.0		3.0	8.0	7.0	3.0		part_1
192		2.0				1.0	0.0							2.0	190.0	0.4057604199133493	2.0		3.0	2.0	3.0	8.0		part_1
193		2.0				1.0	0.0							1.0	0.0	0.3150106956418313	1.0		0.0	4.0	2.0	1.0		part_1
194		2.0				1.0	1.0							3.0	0.0	0.3381122389127995	3.0		0.0	7.0	5.0	7.0		part_1
195		2.0				1.0	0.0							4.0	420.0	0.3385778831852804	4.0		4.0	5.0	4.0	4.0		part_1
196		2.0				1.0	0.0							2.0	0.0	0.35192353091406403	2.0		0.0	5.0	4.0	4.0		part_1
197		2.0				1.0	1.0							3.0	44.0	0.3847347061837354	3.0		1.0	7.0	5.0	7.0		part_1
198		2.0				1.0	0.0							2.0	186.0	0.3966759298273246	2.0		3.0	2.0	3.0	8.0		part_1
199		2.0				1.0	0.0							4.0	0.0	0.3866772011842841	4.0		0.0	2.0	3.0	8.0		part_1
200		3.0				1.0	0.0							2.0	191.0	0.3439402828280436	2.0		3.0	2.0	3.0	8.0		part_1
201		3.0				1.0	0.0							2.0	387.0	0.3115802655556763	2.0		4.0	5.0	4.0	4.0		part_1
202		3.0				1.0	0.0							2.0	418.0	0.3003361147293617	2.0		4.0	5.0	4.0	4.0		part_1
203		3.0				1.0	0.0							1.0	67.0	0.3792833444567805	1.0		1.0	6.0	1.0	5.0		part_1
204		3.0				1.0	0.0							2.0	57.0	0.30240271445654804	2.0		1.0	6.0	1.0	5.0		part_1
205		3.0				1.0	0.0							4.0	60.0	0.3125015017285477	4.0		1.0	6.0	1.0	5.0		part_1
206		3.0				1.0	0.0							3.0	211.0	0.3574581382727047	3.0		3.0	2.0	3.0	8.0		part_1
207		3.0				1.0	1.0							2.0	0.0	0.29143526136977016	2.0		0.0	1.0	6.0	2.0		part_1
208		3.0				1.0	0.0							4.0	39.0	0.3141940248278843	4.0		1.0	6.0	1.0	5.0		part_1
209		3.0				1.0	0.0							3.0	106.0	0.30307137645650073	3.0		2.0	4.0	2.0	1.0		part_1
210		3.0				1.0	0.0							4.0	26.0	0.32707039609886124	4.0		1.0	6.0	1.0	5.0		part_1
211		3.0				1.0	0.0							1.0	49.0	0.3499211008274869	1.0		1.0	6.0	1.0	5.0		part_1
212		3.0				1.0	0.0							2.0	69.0	0.32789940591283084	2.0		1.0	6.0	1.0	5.0		part_1
213		3.0				1.0	0.0							3.0	115.0	0.3518676717285416	3.0		2.0	4.0	2.0	1.0		part_1
214		3.0				1.0	0.0							4.0	188.0	0.3177339543690323	4.0		3.0	2.0	3.0	8.0		part_1
215		3.0				1.0	0.0							2.0	43.0	0.2957040586406947	2.0		1.0	6.0	1.0	5.0		part_1
216		3.0				1.0	1.0							3.0	202.0	0.3073030991854466	3.0		3.0	8.0	7.0	3.0		part_1
217		3.0				1.0	0.0							1.0	36.0	0.29781917718537443	1.0		1.0	6.0	1.0	5.0		part_1
218		3.0				1.0	1.0							1.0	0.0	0.3100258480008051	1.0		0.0	7.0	5.0	7.0		part_1
219		3.0				1.0	1.0							4.0	0.0	0.3321515007282869	4.0		0.0	8.0	7.0	3.0		part_1
220		3.0				1.0	0.0							1.0	414.0	0.3668114724569023	1.0		4.0	5.0	4.0	4.0		part_1
221		3.0				1.0	1.0							4.0	410.0	0.36687182937021134	4.0		4.0	3.0	8.0	6.0		part_1
222		3.0				1.0	1.0							4.0	99.0	0.3557000098135177	4.0		2.0	1.0	6.0	2.0		part_1
223		3.0				1.0	0.0							3.0	71.0	0.333844441556721	3.0		1.0	6.0	1.0	5.0		part_1
224		3.0				1.0	1.0							1.0	425.0	0.3244066785555333	1.0		4.0	3.0	8.0	6.0		part_1
225		3.0				1.0	0.0							1.0	79.0	0.40238149355536734	1.0		2.0	4.0	2.0	1.0		part_1
226		3.0				1.0	0.0							4.0	64.0	0.3359100401848991	4.0		1.0	6.0	1.0	5.0		part_1
227		3.0				1.0	0.0							3.0	117.0	0.4940769706408901	3.0		2.0	4.0	2.0	1.0		part_1
228		3.0				1.0	0.0							2.0	0.0	0.4388289268281369	2.0		0.0	6.0	1.0	5.0		part_1
229		3.0				1.0	1.0							2.0	0.0	0.3838710481850285	2.0		0.0	8.0	7.0	3.0		part_1
230		3.0				1.0	1.0							1.0	57.0	0.4175571022842632	1.0		1.0	7.0	5.0	7.0		part_1
231		3.0				1.0	1.0							4.0	0.0	0.4056787451845594	4.0		0.0	8.0	7.0	3.0		part_1
232		3.0				1.0	0.0							3.0	0.0	0.33925979510058824	3.0		0.0	5.0	4.0	4.0		part_1
233		3.0				1.0	1.0							2.0	394.0	0.2943514216403855	2.0		4.0	3.0	8.0	6.0		part_1
234		3.0				1.0	1.0							3.0	97.0	0.34025983664105297	3.0		2.0	1.0	6.0	2.0		part_1
235		3.0				1.0	1.0							2.0	0.0	0.3192296767283551	2.0		0.0	1.0	6.0	2.0		part_1
236		3.0				1.0	1.0							4.0	192.0	0.33003868245577905	4.0		3.0	8.0	7.0	3.0		part_1
237		3.0				1.0	0.0							1.0	201.0	0.2851641637280409	1.0		3.0	2.0	3.0	8.0		part_1
238		3.0				1.0	1.0							4.0	0.0	0.3092753624569013	4.0		0.0	1.0	6.0	2.0		part_1
239		3.0				1.0	0.0							3.0	115.0	0.3649551838298066	3.0		2.0	4.0	2.0	1.0		part_1
240		3.0				1.0	0.0							2.0	222.0	0.3431318889124668	2.0		3.0	2.0	3.0	8.0		part_1
241		3.0				1.0	0.0							4.0	77.0	0.34319710882846266	4.0		2.0	4.0	2.0	1.0		part_1
242		3.0				1.0	0.0							1.0	0.0	0.3233721484575653	1.0		0.0	6.0	1.0	5.0		part_1
243		3.0				1.0	0.0							2.0	93.0	0.2893326055564103	2.0		2.0	4.0	2.0	1.0		part_1
244		3.0				1.0	0.0							2.0	207.0	0.3570138249997399	2.0		3.0	2.0	3.0	8.0		part_1
245		3.0				1.0	1.0							1.0	117.0	0.3462010151833965	1.0		2.0	1.0	6.0	2.0		part_1
246		3.0				1.0	0.0							3.0	117.0	0.3344408728280541	3.0		2.0	4.0	2.0	1.0		part_1
247		3.0				1.0	1.0							3.0	0.0	0.3596168901840429	3.0		0.0	3.0	8.0	6.0		part_1
248		3.0				1.0	0.0							4.0	410.0	0.3250447620994237	4.0		4.0	5.0	4.0	4.0		part_1
249		3.0				1.0	0.0							4.0	75.0	0.3370762907288736	4.0		2.0	4.0	2.0	1.0		part_1
250		3.0				1.0	0.0							3.0	27.0	0.326383655099562	3.0		1.0	6.0	1.0	5.0		part_1
251		3.0				1.0	0.0							3.0	0.0	0.3843413109134417	3.0		0.0	4.0	2.0	1.0		part_1
252		3.0				1.0	0.0							3.0	420.0	0.3397353811014909	3.0		4.0	5.0	4.0	4.0		part_1
253		3.0				1.0	0.0							4.0	404.0	0.37255450745578855	4.0		4.0	5.0	4.0	4.0		part_1
254		3.0				1.0	0.0							1.0	0.0	0.34009031136884005	1.0		0.0	5.0	4.0	4.0		part_1
255		3.0				1.0	0.0							4.0	400.0	0.318044306099182	4.0		4.0	5.0	4.0	4.0		part_1
256		3.0				1.0	0.0							1.0	403.0	0.3073126189992763	1.0		4.0	5.0	4.0	4.0		part_1
257		3.0				1.0	1.0							1.0	35.0	0.3861418684573437	1.0		1.0	7.0	5.0	7.0		part_1
258		3.0				1.0	1.0							4.0	179.0	0.3321236041847442	4.0		3.0	8.0	7.0	3.0		part_1
259		3.0				1.0	0.0							3.0	0.0	0.3324594313708076	3.0		0.0	4.0	2.0	1.0		part_1
260		3.0				1.0	0.0							1.0	381.0	0.3655489663706248	1.0		4.0	5.0	4.0	4.0		part_1
261		3.0				1.0	1.0							3.0	0.0	0.37688746345702384	3.0		0.0	1.0	6.0	2.0		part_1
262		3.0				1.0	1.0							3.0	0.0	0.2990151248286565	3.0		0.0	3.0	8.0	6.0		part_1
263		3.0				1.0	1.0							3.0	110.0	0.3111859525724867	3.0		2.0	1.0	6.0	2.0		part_1
264		3.0				1.0	1.0							1.0	397.0	0.29022917664042325	1.0		4.0	3.0	8.0	6.0		part_1
265		3.0				1.0	1.0							4.0	81.0	0.2999633738290868	4.0		2.0	1.0	6.0	2.0		part_1
266		3.0				1.0	1.0							4.0	387.0	0.3584364171856578	4.0		4.0	3.0	8.0	6.0		part_1
267		3.0				1.0	0.0							4.0	75.0	0.31448449737035844	4.0		2.0	4.0	2.0	1.0		part_1
268		3.0				1.0	0.0							4.0	0.0	0.3022730340017006	4.0		0.0	5.0	4.0	4.0		part_1
269		3.0				1.0	1.0							1.0	417.0	0.3025773427289096	1.0		4.0	3.0	8.0	6.0		part_1
270		3.0				1.0	0.0							2.0	120.0	0.3823748954564508	2.0		2.0	4.0	2.0	1.0		part_1
271		3.0				1.0	0.0							4.0	192.0	0.3150185481845256	4.0		3.0	2.0	3.0	8.0		part_1
272		3.0				1.0	1.0							4.0	403.0	0.3376021109143039	4.0		4.0	3.0	8.0	6.0		part_1
273		3.0				1.0	0.0							3.0	417.0	0.3955552634561173	3.0		4.0	5.0	4.0	4.0		part_1
274		3.0				1.0	1.0							3.0	106.0	0.3403805346406443	3.0		2.0	1.0	6.0	2.0		part_1
275		3.0				1.0	1.0							4.0	0.0	0.42039038891380187	4.0		0.0	8.0	7.0	3.0		part_1
276		3.0				1.0	0.0							3.0	224.0	0.3631454545575252	3.0		3.0	2.0	3.0	8.0		part_1
277		3.0				1.0	1.0							4.0	0.0	0.33033689491276164	4.0		0.0	7.0	5.0	7.0		part_1
278		3.0				1.0	0.0							4.0	27.0	0.33171790718552074	4.0		1.0	6.0	1.0	5.0		part_1
279		3.0				1.0	0.0							4.0	110.0	0.3085948993702914	4.0		2.0	4.0	2.0	1.0		part_1
280		3.0				1.0	1.0							2.0	190.0	0.30895131991383096	2.0		3.0	8.0	7.0	3.0		part_1
281		3.0				1.0	1.0							1.0	392.0	0.3891426509126177	1.0		4.0	3.0	8.0	6.0		part_1
282		3.0				1.0	1.0							1.0	205.0	0.3554711419310479	1.0		3.0	8.0	7.0	3.0		part_1
283		3.0				1.0	0.0							2.0	57.0	0.3445454488282849	2.0		1.0	6.0	1.0	5.0		part_1
284		3.0				1.0	1.0							4.0	37.0	0.3465669201832497	4.0		1.0	7.0	5.0	7.0		part_1
285		3.0				1.0	1.0							3.0	208.0	0.33545707145640336	3.0		3.0	8.0	7.0	3.0		part_1
286		3.0				1.0	1.0							3.0	117.0	0.3576407537293562	3.0		2.0	1.0	6.0	2.0		part_1
287		3.0				1.0	1.0							3.0	0.0	0.3456945926427579	3.0		0.0	8.0	7.0	3.0		part_1
288		3.0				1.0	0.0							1.0	117.0	0.3242785344573349	1.0		2.0	4.0	2.0	1.0		part_1
289		3.0				1.0	0.0							4.0	213.0	0.3714546487281041	4.0		3.0	2.0	3.0	8.0		part_1
290		3.0				1.0	1.0							1.0	0.0	0.3377019273684709	1.0		0.0	7.0	5.0	7.0		part_1
291		3.0				1.0	1.0							2.0	0.0	0.28152193464120506	2.0		0.0	3.0	8.0	6.0		part_1
292		3.0				1.0	1.0							1.0	69.0	0.36073273791225796	1.0		1.0	7.0	5.0	7.0		part_1
293		3.0				1.0	0.0							1.0	122.0	0.2731454957283859	1.0		2.0	4.0	2.0	1.0		part_1
294		3.0				1.0	1.0							2.0	418.0	0.3517484190997493	2.0		4.0	3.0	8.0	6.0		part_1
295		3.0				1.0	1.0							4.0	95.0	0.3400268821860664	4.0		2.0	1.0	6.0	2.0		part_1
296		3.0				1.0	1.0							1.0	114.0	0.3181815845437086	1.0		2.0	1.0	6.0	2.0		part_1
297		3.0				1.0	1.0							2.0	0.0	0.3299794882586866	2.0		0.0	7.0	5.0	7.0		part_1
298		3.0				1.0	1.0							3.0	49.0	0.3530160396403517	3.0		1.0	7.0	5.0	7.0		part_1
299		3.0				1.0	1.0							3.0	403.0	0.3770044358279847	3.0		4.0	3.0	8.0	6.0		part_1
300		4.0				1.0	1.0							4.0	67.0	0.3810155291012052	4.0		1.0	7.0	5.0	7.0		part_1
301		4.0				1.0	0.0							3.0	0.0	0.31567014418396866	3.0		0.0	5.0	4.0	4.0		part_1
302		4.0				1.0	1.0							3.0	376.0	0.3146390479141701	3.0		4.0	3.0	8.0	6.0		part_1
303		4.0				1.0	1.0							2.0	64.0	0.40583774618426105	2.0		1.0	7.0	5.0	7.0		part_1
304		4.0				1.0	1.0							2.0	408.0	0.3712500679121149	2.0		4.0	3.0	8.0	6.0		part_1
305		4.0				1.0	0.0							2.0	414.0	0.3496371081837424	2.0		4.0	5.0	4.0	4.0		part_1
306		4.0				1.0	0.0							4.0	190.0	0.4169783368288336	4.0		3.0	2.0	3.0	8.0		part_1
307		4.0				1.0	0.0							2.0	391.0	0.31773627736947674	2.0		4.0	5.0	4.0	4.0		part_1
308		4.0				1.0	0.0							1.0	102.0	0.4302676385559607	1.0		2.0	4.0	2.0	1.0		part_1
309		4.0				1.0	0.0							1.0	394.0	0.3635308359134797	1.0		4.0	5.0	4.0	4.0		part_1
310		4.0				1.0	0.0							1.0	49.0	0.3653446597290895	1.0		1.0	6.0	1.0	5.0		part_1
311		4.0				1.0	0.0							1.0	91.0	0.3200924366410618	1.0		2.0	4.0	2.0	1.0		part_1
312		4.0				1.0	1.0							1.0	0.0	0.3099965797282493	1.0		0.0	7.0	5.0	7.0		part_1
313		4.0				1.0	1.0							1.0	0.0	0.2753195349996531	1.0		0.0	1.0	6.0	2.0		part_1
314		4.0				1.0	1.0							4.0	117.0	0.422030817000632	4.0		2.0	1.0	6.0	2.0		part_1
315		4.0				1.0	0.0							4.0	35.0	0.3093098996414483	4.0		1.0	6.0	1.0	5.0		part_1
316		4.0				1.0	0.0							1.0	424.0	0.3667815767275897	1.0		4.0	5.0	4.0	4.0		part_1
317		4.0				1.0	1.0							2.0	30.0	0.3560991551858024	2.0		1.0	7.0	5.0	7.0		part_1
318		4.0				1.0	0.0							1.0	95.0	0.3226806601851422	1.0		2.0	4.0	2.0	1.0		part_1
319		4.0				1.0	1.0							4.0	376.0	0.4137535611862404	4.0		4.0	3.0	8.0	6.0		part_1
320		4.0				1.0	0.0							3.0	391.0	0.38015515391452936	3.0		4.0	5.0	4.0	4.0		part_1
321		4.0				1.0	0.0							4.0	206.0	0.3128107284555881	4.0		3.0	2.0	3.0	8.0		part_1
322		4.0				1.0	1.0							1.0	120.0	0.2910761493694736	1.0		2.0	1.0	6.0	2.0		part_1
323		4.0				1.0	1.0							2.0	41.0	0.2804260394568701	2.0		1.0	7.0	5.0	7.0		part_1
324		4.0				1.0	1.0							2.0	81.0	0.292614642827175	2.0		2.0	1.0	6.0	2.0		part_1
325		4.0				1.0	1.0							2.0	36.0	0.32644285736932943	2.0		1.0	7.0	5.0	7.0		part_1
326		4.0				1.0	0.0							1.0	114.0	0.3500618786420091	1.0		2.0	4.0	2.0	1.0		part_1
327		4.0				1.0	1.0							4.0	120.0	0.4080245968270901	4.0		2.0	1.0	6.0	2.0		part_1
328		4.0				1.0	1.0							4.0	75.0	0.3400526037275995	4.0		2.0	1.0	6.0	2.0		part_1
329		4.0				1.0	0.0							2.0	0.0	0.3192517161842261	2.0		0.0	6.0	1.0	5.0		part_1
330		4.0				1.0	1.0							3.0	203.0	0.3639637349133409	3.0		3.0	8.0	7.0	3.0		part_1
331		4.0				1.0	1.0							3.0	222.0	0.3533190186426509	3.0		3.0	8.0	7.0	3.0		part_1
332		4.0				1.0	1.0							1.0	56.0	0.47821776400087396	1.0		1.0	7.0	5.0	7.0		part_1
333		4.0				1.0	1.0							4.0	75.0	0.34296745718529564	4.0		2.0	1.0	6.0	2.0		part_1
334		4.0				1.0	1.0							3.0	401.0	0.5899893226414861	3.0		4.0	3.0	8.0	6.0		part_1
335		4.0				1.0	1.0							3.0	114.0	0.3215920718284906	3.0		2.0	1.0	6.0	2.0		part_1
336		4.0				1.0	0.0							3.0	194.0	0.3335113099128648	3.0		3.0	2.0	3.0	8.0		part_1
337		4.0				1.0	0.0							4.0	376.0	0.3438125376414973	4.0		4.0	5.0	4.0	4.0		part_1
338		4.0				1.0	0.0							4.0	81.0	0.3229755668271537	4.0		2.0	4.0	2.0	1.0		part_1
339		4.0				1.0	0.0							4.0	388.0	0.2894977799987828	4.0		4.0	5.0	4.0	4.0		part_1
340		4.0				1.0	0.0							2.0	48.0	0.3131356391859299	2.0		1.0	6.0	1.0	5.0		part_1
341		4.0				1.0	0.0							4.0	188.0	0.3348610421853664	4.0		3.0	2.0	3.0	8.0		part_1
342		4.0				1.0	0.0							2.0	0.0	0.3024230344562966	2.0		0.0	2.0	3.0	8.0		part_1
343		4.0				1.0	1.0							4.0	423.0	0.3030951374566939	4.0		4.0	3.0	8.0	6.0		part_1
344		4.0				1.0	1.0							1.0	194.0	0.3147890754571563	1.0		3.0	8.0	7.0	3.0		part_1
345		4.0				1.0	0.0							3.0	399.0	0.3499739231847343	3.0		4.0	5.0	4.0	4.0		part_1
346		4.0				1.0	1.0							3.0	404.0	0.3936110851864214	3.0		4.0	3.0	8.0	6.0		part_1
347		4.0				1.0	1.0							3.0	79.0	0.3163885203703103	3.0		2.0	1.0	6.0	2.0		part_1
348		4.0				1.0	0.0							2.0	111.0	0.3964482874562236	2.0		2.0	4.0	2.0	1.0		part_1
349		4.0				1.0	0.0							3.0	37.0	0.31848098664158897	3.0		1.0	6.0	1.0	5.0		part_1
350		4.0				1.0	1.0							1.0	414.0	0.3073502081842889	1.0		4.0	3.0	8.0	6.0		part_1
351		4.0				1.0	1.0							4.0	0.0	0.3087453015577921	4.0		0.0	1.0	6.0	2.0		part_1
352		4.0				1.0	1.0							2.0	94.0	0.2743193791848171	2.0		2.0	1.0	6.0	2.0		part_1
353		4.0				1.0	0.0							2.0	0.0	0.2975833038290148	2.0		0.0	2.0	3.0	8.0		part_1
354		4.0				1.0	1.0							4.0	205.0	0.3324419991840841	4.0		3.0	8.0	7.0	3.0		part_1
355		4.0				1.0	1.0							3.0	417.0	0.3539987009116885	3.0		4.0	3.0	8.0	6.0		part_1
356		4.0				1.0	0.0							2.0	0.0	0.3221019441843964	2.0		0.0	6.0	1.0	5.0		part_1
357		4.0				1.0	0.0							1.0	0.0	0.3451604845577094	1.0		0.0	2.0	3.0	8.0		part_1
358		4.0				1.0	0.0							3.0	388.0	0.3115753729998687	3.0		4.0	5.0	4.0	4.0		part_1
359		4.0				1.0	1.0							4.0	214.0	0.3339448641854688	4.0		3.0	8.0	7.0	3.0		part_1
360		4.0				1.0	0.0							2.0	111.0	0.32429688172851456	2.0		2.0	4.0	2.0	1.0		part_1
361		4.0				1.0	1.0							2.0	388.0	0.3254575193695928	2.0		4.0	3.0	8.0	6.0		part_1
362		4.0				1.0	0.0							3.0	0.0	0.29006397718512744	3.0		0.0	5.0	4.0	4.0		part_1
363		4.0				1.0	0.0							4.0	0.0	0.4484484507283923	4.0		0.0	6.0	1.0	5.0		part_1
364		4.0				1.0	1.0							4.0	115.0	0.33699914409953635	4.0		2.0	1.0	6.0	2.0		part_1
365		4.0				1.0	1.0							3.0	195.0	0.3596572144579113	3.0		3.0	8.0	7.0	3.0		part_1
366		4.0				1.0	1.0							2.0	0.0	0.4171347296414751	2.0		0.0	7.0	5.0	7.0		part_1
367		4.0				1.0	0.0							4.0	0.0	0.36241853310093575	4.0		0.0	2.0	3.0	8.0		part_1
368		4.0				1.0	1.0							3.0	388.0	0.28268450518589816	3.0		4.0	3.0	8.0	6.0		part_1
369		4.0				1.0	0.0							2.0	75.0	0.28353575445544266	2.0		2.0	4.0	2.0	1.0		part_1
370		4.0				1.0	0.0							3.0	214.0	0.30748099264019396	3.0		3.0	2.0	3.0	8.0		part_1
371		4.0				1.0	0.0							1.0	216.0	0.4315690563707904	1.0		3.0	2.0	3.0	8.0		part_1
372		4.0				1.0	0.0							3.0	0.0	0.4418167449130124	3.0		0.0	6.0	1.0	5.0		part_1
373		4.0				1.0	0.0							4.0	187.0	0.3320127160004631	4.0		3.0	2.0	3.0	8.0		part_1
374		4.0				1.0	1.0							1.0	0.0	0.3326987546424789	1.0		0.0	7.0	5.0	7.0		part_1
375		4.0				1.0	1.0							4.0	0.0	0.3207052079997084	4.0		0.0	3.0	8.0	6.0		part_1
376		4.0				1.0	1.0							1.0	123.0	0.3779816113692505	1.0		2.0	1.0	6.0	2.0		part_1
377		4.0				1.0	1.0							2.0	420.0	0.3900095371009229	2.0		4.0	3.0	8.0	6.0		part_1
378		4.0				1.0	0.0							1.0	194.0	0.3017228404569323	1.0		3.0	2.0	3.0	8.0		part_1
379		4.0				1.0	1.0							1.0	0.0	0.5480348486416915	1.0		0.0	8.0	7.0	3.0		part_1
380		4.0				1.0	0.0							1.0	222.0	0.3234794434556534	1.0		3.0	2.0	3.0	8.0		part_1
381		4.0				1.0	1.0							2.0	81.0	0.3257439557273756	2.0		2.0	1.0	6.0	2.0		part_1
382		4.0				1.0	0.0							1.0	58.0	0.3134777961859072	1.0		1.0	6.0	1.0	5.0		part_1
383		4.0				1.0	1.0							4.0	183.0	0.32449723891295434	4.0		3.0	8.0	7.0	3.0		part_1
384		4.0				1.0	0.0							3.0	58.0	0.3596697457287519	3.0		1.0	6.0	1.0	5.0		part_1
385		4.0				1.0	0.0							4.0	179.0	0.3257037631847197	4.0		3.0	2.0	3.0	8.0		part_1
386		4.0				1.0	1.0							1.0	0.0	0.31627501910043065	1.0		0.0	1.0	6.0	2.0		part_1
387		4.0				1.0	1.0							1.0	0.0	0.3499170141858485	1.0		0.0	8.0	7.0	3.0		part_1
388		4.0				1.0	1.0							4.0	72.0	0.36146881664171815	4.0		1.0	7.0	5.0	7.0		part_1
389		4.0				1.0	1.0							4.0	44.0	0.3062403534549958	4.0		1.0	7.0	5.0	7.0		part_1
390		4.0				1.0	1.0							2.0	69.0	0.4193628951852588	2.0		1.0	7.0	5.0	7.0		part_1
391		4.0				1.0	0.0							2.0	0.0	0.5548424381013319	2.0		0.0	4.0	2.0	1.0		part_1
392		4.0				1.0	1.0							4.0	0.0	0.2962428500995884	4.0		0.0	1.0	6.0	2.0		part_1
393		4.0				1.0	1.0							3.0	79.0	0.3420063063695125	3.0		2.0	1.0	6.0	2.0		part_1
394		4.0				1.0	0.0							3.0	220.0	0.3211943131846056	3.0		3.0	2.0	3.0	8.0		part_1
395		4.0				1.0	0.0							1.0	0.0	0.34282379164142185	1.0		0.0	4.0	2.0	1.0		part_1
396		4.0				1.0	1.0							3.0	39.0	0.3658760360995075	3.0		1.0	7.0	5.0	7.0		part_1
397		4.0				1.0	1.0							1.0	207.0	0.3555421640994609	1.0		3.0	8.0	7.0	3.0		part_1
398		4.0				1.0	1.0							3.0	63.0	0.3671677847287356	3.0		1.0	7.0	5.0	7.0		part_1
399		4.0				1.0	1.0							3.0	49.0	0.3331406279121438	3.0		1.0	7.0	5.0	7.0		part_1
0	1.0	1.0			250.0	0.0	1.0							5.0	0.0	0.8013585122916993	5.0	250.0	1.0	7.0	5.0	7.0	0.0	part_2
1	1.0	1.0			250.0	0.0	0.0							5.0	0.0	0.5991186522915086	5.0	250.0	3.0	2.0	3.0	8.0	0.0	part_2
2	1.0	1.0			250.0	0.0	0.0							6.0	0.0	0.5892899670143379	6.0	250.0	4.0	5.0	4.0	4.0	0.0	part_2
3	1.0	1.0			250.0	0.0	0.0							6.0	0.0	0.5438557681445673	6.0	250.0	1.0	6.0	1.0	5.0	0.0	part_2
4	4.0	1.0			250.0	0.0	1.0							6.0	0.0	0.0	0.0	250.0	4.0	3.0	8.0	6.0	1.0	part_2
5	1.0	1.0			250.0	0.0	0.0							5.0	0.0	0.4333486214345612	5.0	300.0	3.0	2.0	3.0	8.0	0.0	part_2
6	1.0	1.0			250.0	0.0	0.0							6.0	0.0	0.726670625159386	6.0	300.0	1.0	6.0	1.0	5.0	0.0	part_2
7	1.0	1.0			250.0	0.0	0.0							6.0	0.0	0.7734964251594647	6.0	300.0	1.0	6.0	1.0	5.0	0.0	part_2
8	1.0	1.0			250.0	0.0	0.0							5.0	0.0	0.9091952500148182	5.0	300.0	2.0	4.0	2.0	1.0	0.0	part_2
9	4.0	1.0			250.0	0.0	1.0							5.0	0.0	0.0	0.0	300.0	2.0	1.0	6.0	2.0	1.0	part_2
10	1.0	1.0			300.0	0.0	0.0							5.0	0.0	0.61772885686878	5.0	300.0	2.0	4.0	2.0	1.0	0.0	part_2
11	4.0	1.0			300.0	0.0	1.0							6.0	0.0	0.0	0.0	300.0	4.0	3.0	8.0	6.0	1.0	part_2
12	3.0	1.0			300.0	0.0	1.0							5.0	0.0	0.33779350343684195	5.0	350.0	4.0	3.0	8.0	6.0	1.0	part_2
13	1.0	1.0			250.0	0.0	0.0							5.0	0.0	0.6884489891453995	5.0	350.0	4.0	5.0	4.0	4.0	0.0	part_2
14	4.0	1.0			250.0	0.0	1.0							5.0	0.0	0.0	0.0	350.0	2.0	1.0	6.0	2.0	1.0	part_2
15	1.0	1.0			300.0	0.0	0.0							5.0	0.0	0.8349274040010641	5.0	350.0	4.0	5.0	4.0	4.0	0.0	part_2
16	1.0	1.0			300.0	0.0	0.0							6.0	0.0	0.5774050364343566	6.0	350.0	3.0	2.0	3.0	8.0	0.0	part_2
17	1.0	1.0			300.0	0.0	0.0							5.0	0.0	0.6234135877239169	5.0	350.0	2.0	4.0	2.0	1.0	0.0	part_2
18	1.0	1.0			300.0	0.0	1.0							5.0	0.0	0.6926779901586997	5.0	350.0	3.0	8.0	7.0	3.0	0.0	part_2
19	4.0	1.0			300.0	0.0	1.0							6.0	0.0	0.0	0.0	350.0	3.0	8.0	7.0	3.0	1.0	part_2
20	4.0	1.0			300.0	0.0	1.0							5.0	0.0	0.0	0.0	400.0	4.0	3.0	8.0	6.0	1.0	part_2
21	1.0	1.0			350.0	0.0	0.0							6.0	0.0	0.5382771062904794	6.0	400.0	2.0	4.0	2.0	1.0	0.0	part_2
22	1.0	1.0			350.0	0.0	0.0							5.0	0.0	0.6394970438705059	5.0	400.0	1.0	6.0	1.0	5.0	0.0	part_2
23	4.0	1.0			350.0	0.0	1.0							6.0	0.0	0.0	0.0	400.0	1.0	7.0	5.0	7.0	1.0	part_2
24	1.0	1.0			350.0	0.0	0.0							5.0	0.0	0.6637950802905834	5.0	450.0	1.0	6.0	1.0	5.0	0.0	part_2
25	1.0	1.0			350.0	0.0	0.0							6.0	0.0	0.7644514485800755	6.0	450.0	1.0	6.0	1.0	5.0	0.0	part_2
26	1.0	1.0			350.0	0.0	0.0							5.0	0.0	0.6542870104349277	5.0	450.0	4.0	5.0	4.0	4.0	0.0	part_2
27	1.0	1.0			350.0	0.0	0.0							6.0	0.0	0.6771334931581805	6.0	450.0	2.0	4.0	2.0	1.0	0.0	part_2
28	1.0	1.0			350.0	0.0	0.0							6.0	0.0	0.7001103965794755	6.0	450.0	2.0	4.0	2.0	1.0	0.0	part_2
29	1.0	1.0			350.0	0.0	0.0							5.0	0.0	0.6684362251453422	5.0	450.0	1.0	6.0	1.0	5.0	0.0	part_2
30	1.0	1.0			350.0	0.0	0.0							5.0	0.0	0.7016027841436879	5.0	450.0	4.0	5.0	4.0	4.0	0.0	part_2
31	4.0	1.0			350.0	0.0	1.0							5.0	0.0	0.0	0.0	450.0	1.0	7.0	5.0	7.0	1.0	part_2
32	1.0	1.0			400.0	0.0	0.0							6.0	0.0	0.5900897138690198	6.0	450.0	4.0	5.0	4.0	4.0	0.0	part_2
33	1.0	1.0			400.0	0.0	0.0							6.0	0.0	0.5691327985787211	6.0	450.0	3.0	2.0	3.0	8.0	0.0	part_2
34	4.0	1.0			400.0	0.0	1.0							5.0	0.0	0.0	0.0	450.0	4.0	3.0	8.0	6.0	1.0	part_2
35	4.0	1.0			450.0	0.0	1.0							5.0	0.0	0.0	0.0	450.0	1.0	7.0	5.0	7.0	1.0	part_2
36	1.0	2.0			500.0	0.0	0.0							5.0	0.0	0.4626338115795079	5.0	450.0	1.0	6.0	1.0	5.0	0.0	part_2
37	1.0	2.0			500.0	0.0	0.0							6.0	0.0	0.4070248351454211	6.0	450.0	3.0	2.0	3.0	8.0	0.0	part_2
38	1.0	2.0			500.0	0.0	0.0							5.0	0.0	0.4202270500136365	5.0	450.0	4.0	5.0	4.0	4.0	0.0	part_2
39	3.0	2.0			500.0	0.0	1.0							6.0	0.0	0.3406355217230157	6.0	450.0	2.0	1.0	6.0	2.0	1.0	part_2
40	1.0	2.0			500.0	0.0	0.0							5.0	0.0	0.4770637080146116	5.0	400.0	2.0	4.0	2.0	1.0	0.0	part_2
41	1.0	2.0			500.0	0.0	0.0							6.0	0.0	0.4778022847240209	6.0	400.0	1.0	6.0	1.0	5.0	0.0	part_2
42	3.0	2.0			500.0	0.0	1.0							5.0	0.0	0.6023579392913234	5.0	400.0	1.0	7.0	5.0	7.0	1.0	part_2
43	1.0	2.0			450.0	0.0	0.0							5.0	0.0	0.658912461145519	5.0	400.0	4.0	5.0	4.0	4.0	0.0	part_2
44	1.0	2.0			450.0	0.0	0.0							5.0	0.0	0.7175734764350636	5.0	400.0	3.0	2.0	3.0	8.0	0.0	part_2
45	4.0	2.0			450.0	0.0	1.0							5.0	0.0	0.0	0.0	400.0	3.0	8.0	7.0	3.0	1.0	part_2
46	3.0	2.0			500.0	0.0	1.0							5.0	0.0	0.5721593148700777	5.0	400.0	2.0	1.0	6.0	2.0	1.0	part_2
47	1.0	2.0			450.0	0.0	0.0							6.0	0.0	0.6298275662902597	6.0	400.0	3.0	2.0	3.0	8.0	0.0	part_2
48	4.0	2.0			450.0	0.0	1.0							6.0	0.0	0.0	0.0	400.0	4.0	3.0	8.0	6.0	1.0	part_2
49	4.0	2.0			450.0	0.0	1.0							6.0	0.0	0.0	0.0	450.0	4.0	3.0	8.0	6.0	1.0	part_2
50	1.0	2.0			450.0	0.0	0.0							5.0	0.0	0.7790563692906289	5.0	500.0	2.0	4.0	2.0	1.0	0.0	part_2
51	4.0	2.0			450.0	0.0	1.0							6.0	0.0	0.0	0.0	500.0	1.0	7.0	5.0	7.0	1.0	part_2
52	4.0	2.0			450.0	0.0	1.0							5.0	0.0	0.0	0.0	550.0	3.0	8.0	7.0	3.0	1.0	part_2
53	1.0	2.0			500.0	0.0	0.0							6.0	0.0	0.5674010991442628	6.0	550.0	4.0	5.0	4.0	4.0	0.0	part_2
54	4.0	2.0			500.0	0.0	1.0							6.0	0.0	0.0	0.0	550.0	2.0	1.0	6.0	2.0	1.0	part_2
55	1.0	2.0			500.0	0.0	0.0							5.0	0.0	0.7146265514347759	5.0	600.0	3.0	2.0	3.0	8.0	0.0	part_2
56	1.0	2.0			500.0	0.0	1.0							5.0	0.0	0.7716628328707884	5.0	600.0	3.0	8.0	7.0	3.0	0.0	part_2
57	4.0	2.0			500.0	0.0	1.0							5.0	0.0	0.0	0.0	600.0	3.0	8.0	7.0	3.0	1.0	part_2
58	1.0	2.0			550.0	0.0	1.0							6.0	0.0	0.7054810707104481	6.0	600.0	3.0	8.0	7.0	3.0	0.0	part_2
59	1.0	2.0			550.0	0.0	0.0							6.0	0.0	0.6506117164335592	6.0	600.0	1.0	6.0	1.0	5.0	0.0	part_2
60	3.0	2.0			550.0	0.0	1.0							5.0	0.0	0.6523522357092588	5.0	600.0	3.0	8.0	7.0	3.0	1.0	part_2
61	3.0	2.0			500.0	0.0	1.0							5.0	0.0	0.5730325698568777	5.0	600.0	4.0	3.0	8.0	6.0	1.0	part_2
62	1.0	2.0			450.0	0.0	0.0							5.0	0.0	0.6086592404353723	5.0	600.0	3.0	2.0	3.0	8.0	0.0	part_2
63	1.0	2.0			450.0	0.0	0.0							6.0	0.0	0.9816283027248572	6.0	600.0	2.0	4.0	2.0	1.0	0.0	part_2
64	4.0	2.0			450.0	0.0	1.0							5.0	0.0	0.0	0.0	600.0	1.0	7.0	5.0	7.0	1.0	part_2
65	3.0	2.0			500.0	0.0	1.0							6.0	0.0	0.36280917214389774	6.0	600.0	4.0	3.0	8.0	6.0	1.0	part_2
66	1.0	2.0			500.0	0.0	0.0							6.0	0.0	0.7924067994335928	6.0	550.0	1.0	6.0	1.0	5.0	0.0	part_2
67	4.0	2.0			500.0	0.0	1.0							5.0	0.0	0.0	0.0	550.0	4.0	3.0	8.0	6.0	1.0	part_2
68	1.0	2.0			550.0	0.0	0.0							6.0	0.0	0.6478400207088271	6.0	550.0	1.0	6.0	1.0	5.0	0.0	part_2
69	1.0	2.0			550.0	0.0	0.0							6.0	0.0	0.8290327668546524	6.0	550.0	4.0	5.0	4.0	4.0	0.0	part_2
70	1.0	2.0			550.0	0.0	0.0							5.0	0.0	0.591625130000466	5.0	550.0	1.0	6.0	1.0	5.0	0.0	part_2
71	4.0	2.0			550.0	0.0	1.0							6.0	0.0	0.0	0.0	550.0	4.0	3.0	8.0	6.0	1.0	part_2
72	3.0	3.0			550.0	0.0	1.0							6.0	0.0	0.5845521714345523	6.0	600.0	3.0	8.0	7.0	3.0	1.0	part_2
73	3.0	3.0			550.0	0.0	1.0							6.0	0.0	0.529746604290267	6.0	550.0	4.0	3.0	8.0	6.0	1.0	part_2
74	1.0	3.0			550.0	0.0	0.0							5.0	0.0	0.6880245800148259	5.0	500.0	2.0	4.0	2.0	1.0	0.0	part_2
75	1.0	3.0			550.0	0.0	0.0							5.0	0.0	0.6215996662922407	5.0	500.0	1.0	6.0	1.0	5.0	0.0	part_2
76	3.0	3.0			550.0	0.0	1.0							6.0	0.0	0.5991716388707573	6.0	500.0	2.0	1.0	6.0	2.0	1.0	part_2
77	4.0	3.0			550.0	0.0	1.0							5.0	0.0	0.0	0.0	450.0	4.0	3.0	8.0	6.0	1.0	part_2
78	1.0	3.0			600.0	0.0	0.0							6.0	0.0	0.7259612935795303	6.0	450.0	2.0	4.0	2.0	1.0	0.0	part_2
79	4.0	3.0			600.0	0.0	1.0							5.0	0.0	0.0	0.0	450.0	2.0	1.0	6.0	2.0	1.0	part_2
80	1.0	3.0			650.0	0.0	1.0							6.0	0.0	0.7720927262907935	6.0	450.0	4.0	3.0	8.0	6.0	0.0	part_2
81	1.0	3.0			650.0	0.0	0.0							6.0	0.0	0.7277470667249872	6.0	450.0	4.0	5.0	4.0	4.0	0.0	part_2
82	1.0	3.0			650.0	0.0	1.0							5.0	0.0	0.6838389434342389	5.0	450.0	4.0	3.0	8.0	6.0	0.0	part_2
83	1.0	3.0			650.0	0.0	0.0							5.0	0.0	0.7624048854340799	5.0	450.0	4.0	5.0	4.0	4.0	0.0	part_2
84	1.0	3.0			650.0	0.0	0.0							5.0	0.0	0.6619305790009093	5.0	450.0	1.0	6.0	1.0	5.0	0.0	part_2
85	3.0	3.0			650.0	0.0	1.0							5.0	0.0	0.7528342767254799	5.0	450.0	3.0	8.0	7.0	3.0	1.0	part_2
86	4.0	3.0			600.0	0.0	1.0							5.0	0.0	0.0	0.0	450.0	2.0	1.0	6.0	2.0	1.0	part_2
87	1.0	3.0			650.0	0.0	0.0							6.0	0.0	0.879853129870753	6.0	450.0	4.0	5.0	4.0	4.0	0.0	part_2
88	4.0	3.0			650.0	0.0	1.0							6.0	0.0	0.0	0.0	450.0	1.0	7.0	5.0	7.0	1.0	part_2
89	3.0	3.0			650.0	0.0	1.0							5.0	0.0	0.609522336289956	5.0	500.0	2.0	1.0	6.0	2.0	1.0	part_2
90	1.0	3.0			600.0	0.0	0.0							6.0	0.0	0.7789539991445054	6.0	500.0	2.0	4.0	2.0	1.0	0.0	part_2
91	4.0	3.0			600.0	0.0	1.0							6.0	0.0	0.0	0.0	500.0	3.0	8.0	7.0	3.0	1.0	part_2
92	1.0	3.0			600.0	0.0	0.0							6.0	0.0	0.8264691168697027	6.0	550.0	4.0	5.0	4.0	4.0	0.0	part_2
93	4.0	3.0			600.0	0.0	1.0							5.0	0.0	0.0	0.0	550.0	1.0	7.0	5.0	7.0	1.0	part_2
94	1.0	3.0			650.0	0.0	0.0							5.0	0.0	0.6946372845795848	5.0	550.0	3.0	2.0	3.0	8.0	0.0	part_2
95	1.0	3.0			650.0	0.0	1.0							5.0	0.0	0.8849757778698404	5.0	550.0	2.0	1.0	6.0	2.0	0.0	part_2
96	3.0	3.0			650.0	0.0	1.0							5.0	0.0	0.7617781517237745	5.0	550.0	3.0	8.0	7.0	3.0	1.0	part_2
97	1.0	3.0			600.0	0.0	1.0							5.0	0.0	0.7065526160004083	5.0	550.0	4.0	3.0	8.0	6.0	0.0	part_2
98	1.0	3.0			600.0	0.0	0.0							5.0	0.0	0.38136892872353206	5.0	550.0	3.0	2.0	3.0	8.0	0.0	part_2
99	4.0	3.0			600.0	0.0	1.0							6.0	0.0	0.0	0.0	550.0	4.0	3.0	8.0	6.0	1.0	part_2
100	1.0	3.0			600.0	0.0	0.0							6.0	0.0	0.8325496914349059	6.0	600.0	4.0	5.0	4.0	4.0	0.0	part_2
101	1.0	3.0			600.0	0.0	1.0							5.0	0.0	0.8903458401437092	5.0	600.0	3.0	8.0	7.0	3.0	0.0	part_2
102	1.0	3.0			600.0	0.0	0.0							6.0	0.0	0.7784683631452936	6.0	600.0	3.0	2.0	3.0	8.0	0.0	part_2
103	4.0	3.0			600.0	0.0	1.0							6.0	0.0	0.0	0.0	600.0	3.0	8.0	7.0	3.0	1.0	part_2
104	1.0	3.0			600.0	0.0	0.0							5.0	0.0	0.6912625995810231	5.0	650.0	3.0	2.0	3.0	8.0	0.0	part_2
105	3.0	3.0			600.0	0.0	1.0							5.0	0.0	0.7129247860139003	5.0	650.0	2.0	1.0	6.0	2.0	1.0	part_2
106	4.0	3.0			550.0	0.0	1.0							6.0	0.0	0.0	0.0	650.0	3.0	8.0	7.0	3.0	1.0	part_2
107	1.0	3.0			550.0	0.0	1.0							5.0	0.0	1.1215370231584527	5.0	700.0	2.0	1.0	6.0	2.0	0.0	part_2
108	1.0	4.0			550.0	0.0	1.0							6.0	0.0	0.4013087933944917	6.0	700.0	4.0	3.0	8.0	6.0	0.0	part_2
109	1.0	4.0			550.0	0.0	0.0							6.0	0.0	0.3221805812918319	6.0	700.0	1.0	6.0	1.0	5.0	0.0	part_2
110	1.0	4.0			550.0	0.0	0.0							5.0	0.0	0.6276277801589458	5.0	700.0	3.0	2.0	3.0	8.0	0.0	part_2
111	1.0	4.0			550.0	0.0	0.0							5.0	0.0	0.7285152088716131	5.0	700.0	2.0	4.0	2.0	1.0	0.0	part_2
112	3.0	4.0			550.0	0.0	1.0							6.0	0.0	0.4827501094350737	6.0	700.0	2.0	1.0	6.0	2.0	1.0	part_2
113	1.0	4.0			550.0	0.0	0.0							6.0	0.0	0.4820089671447931	6.0	650.0	3.0	2.0	3.0	8.0	0.0	part_2
114	4.0	4.0			550.0	0.0	1.0							6.0	0.0	0.0	0.0	650.0	3.0	8.0	7.0	3.0	1.0	part_2
115	1.0	4.0			550.0	0.0	0.0							5.0	0.0	0.7203536844353948	5.0	700.0	3.0	2.0	3.0	8.0	0.0	part_2
116	1.0	4.0			550.0	0.0	0.0							6.0	0.0	0.654186899870183	6.0	700.0	1.0	6.0	1.0	5.0	0.0	part_2
117	1.0	4.0			550.0	0.0	0.0							6.0	0.0	0.5997242967241618	6.0	700.0	2.0	4.0	2.0	1.0	0.0	part_2
118	1.0	4.0			550.0	0.0	0.0							5.0	0.0	0.510523747145271	5.0	700.0	3.0	2.0	3.0	8.0	0.0	part_2
119	3.0	4.0			550.0	0.0	1.0							5.0	0.0	0.4991209700001491	5.0	700.0	4.0	3.0	8.0	6.0	1.0	part_2
120	4.0	4.0			500.0	0.0	1.0							5.0	0.0	0.0	0.0	700.0	1.0	7.0	5.0	7.0	1.0	part_2
121	4.0	4.0			550.0	0.0	1.0							5.0	0.0	0.0	0.0	700.0	1.0	7.0	5.0	7.0	1.0	part_2
122	1.0	4.0			600.0	0.0	0.0							6.0	0.0	0.6710362888698	6.0	700.0	4.0	5.0	4.0	4.0	0.0	part_2
123	1.0	4.0			600.0	0.0	0.0							5.0	0.0	0.5251724850149913	5.0	700.0	3.0	2.0	3.0	8.0	0.0	part_2
124	1.0	4.0			600.0	0.0	0.0							6.0	0.0	0.6383092808700894	6.0	700.0	2.0	4.0	2.0	1.0	0.0	part_2
125	1.0	4.0			600.0	0.0	0.0							6.0	0.0	0.3805292531596933	6.0	700.0	2.0	4.0	2.0	1.0	0.0	part_2
126	1.0	4.0			600.0	0.0	0.0							6.0	0.0	0.4143591074353026	6.0	700.0	2.0	4.0	2.0	1.0	0.0	part_2
127	4.0	4.0			600.0	0.0	1.0							6.0	0.0	0.0	0.0	700.0	1.0	7.0	5.0	7.0	1.0	part_2
128	1.0	4.0			600.0	0.0	0.0							6.0	0.0	0.5408923454342585	6.0	750.0	1.0	6.0	1.0	5.0	0.0	part_2
129	4.0	4.0			600.0	0.0	1.0							6.0	0.0	0.0	0.0	750.0	1.0	7.0	5.0	7.0	1.0	part_2
130	1.0	4.0			600.0	0.0	1.0							5.0	0.0	0.9240005838710204	5.0	800.0	2.0	1.0	6.0	2.0	0.0	part_2
131	1.0	4.0			600.0	0.0	0.0							5.0	0.0	0.5877073331448628	5.0	800.0	1.0	6.0	1.0	5.0	0.0	part_2
132	1.0	4.0			600.0	0.0	0.0							6.0	0.0	0.5219657221441594	6.0	800.0	2.0	4.0	2.0	1.0	0.0	part_2
133	1.0	4.0			600.0	0.0	0.0							5.0	0.0	0.4765351678688603	5.0	800.0	3.0	2.0	3.0	8.0	0.0	part_2
134	3.0	4.0			600.0	0.0	1.0							6.0	0.0	0.9274995131454488	6.0	800.0	2.0	1.0	6.0	2.0	1.0	part_2
135	4.0	4.0			600.0	0.0	1.0							5.0	0.0	0.0	0.0	750.0	1.0	7.0	5.0	7.0	1.0	part_2
136	1.0	4.0			650.0	0.0	0.0							5.0	0.0	0.5463051384358549	5.0	750.0	1.0	6.0	1.0	5.0	0.0	part_2
137	4.0	4.0			650.0	0.0	1.0							5.0	0.0	0.0	0.0	750.0	2.0	1.0	6.0	2.0	1.0	part_2
138	1.0	4.0			700.0	0.0	0.0							5.0	0.0	0.6157778764336399	5.0	750.0	4.0	5.0	4.0	4.0	0.0	part_2
139	1.0	4.0			700.0	0.0	1.0							6.0	0.0	1.1020485667231696	6.0	750.0	2.0	1.0	6.0	2.0	0.0	part_2
140	1.0	4.0			700.0	0.0	0.0							5.0	0.0	0.6622964748694358	5.0	750.0	1.0	6.0	1.0	5.0	0.0	part_2
141	3.0	4.0			700.0	0.0	1.0							5.0	0.0	0.5623807764350204	5.0	750.0	4.0	3.0	8.0	6.0	1.0	part_2
142	1.0	4.0			650.0	0.0	0.0							6.0	0.0	0.5406060165787494	6.0	750.0	2.0	4.0	2.0	1.0	0.0	part_2
143	1.0	4.0			650.0	0.0	0.0							5.0	0.0	0.4963838784351538	5.0	750.0	4.0	5.0	4.0	4.0	0.0	part_2
144	4.0	5.0			650.0	0.0	1.0							5.0	0.0	0.0	0.0	750.0	3.0	8.0	7.0	3.0	1.0	part_2
145	1.0	5.0			700.0	0.0	0.0							6.0	0.0	0.5083061064342473	6.0	750.0	3.0	2.0	3.0	8.0	0.0	part_2
146	4.0	5.0			700.0	0.0	1.0							5.0	0.0	0.0	0.0	750.0	2.0	1.0	6.0	2.0	1.0	part_2
147	1.0	5.0			750.0	0.0	0.0							5.0	0.0	0.4981797424352408	5.0	750.0	4.0	5.0	4.0	4.0	0.0	part_2
148	1.0	5.0			750.0	0.0	0.0							6.0	0.0	0.5226036021595064	6.0	750.0	4.0	5.0	4.0	4.0	0.0	part_2
149	1.0	5.0			750.0	0.0	0.0							5.0	0.0	0.5106897737241525	5.0	750.0	2.0	4.0	2.0	1.0	0.0	part_2
150	1.0	5.0			750.0	0.0	0.0							6.0	0.0	0.4778248165785044	6.0	750.0	4.0	5.0	4.0	4.0	0.0	part_2
151	1.0	5.0			750.0	0.0	0.0							5.0	0.0	0.5127799127239996	5.0	750.0	2.0	4.0	2.0	1.0	0.0	part_2
152	4.0	5.0			750.0	0.0	1.0							6.0	0.0	0.0	0.0	750.0	2.0	1.0	6.0	2.0	1.0	part_2
153	1.0	5.0			750.0	0.0	0.0							5.0	0.0	0.4924164803032909	5.0	800.0	4.0	5.0	4.0	4.0	0.0	part_2
154	1.0	5.0			750.0	0.0	1.0							5.0	0.0	1.0564716999997472	5.0	800.0	1.0	7.0	5.0	7.0	0.0	part_2
155	4.0	5.0			750.0	0.0	1.0							5.0	0.0	0.0	0.0	800.0	4.0	3.0	8.0	6.0	1.0	part_2
156	1.0	5.0			800.0	0.0	0.0							5.0	0.0	0.472676245157345	5.0	800.0	2.0	4.0	2.0	1.0	0.0	part_2
157	1.0	5.0			800.0	0.0	0.0							6.0	0.0	0.4846316391594882	6.0	800.0	4.0	5.0	4.0	4.0	0.0	part_2
158	1.0	5.0			800.0	0.0	1.0							6.0	0.0	1.0265095593022124	6.0	800.0	3.0	8.0	7.0	3.0	0.0	part_2
159	4.0	5.0			800.0	0.0	1.0							5.0	0.0	0.0	0.0	800.0	2.0	1.0	6.0	2.0	1.0	part_2
160	1.0	5.0			850.0	0.0	0.0							6.0	0.0	0.5203851124351786	6.0	800.0	3.0	2.0	3.0	8.0	0.0	part_2
161	1.0	5.0			850.0	0.0	1.0							5.0	0.0	1.083861429580793	5.0	800.0	1.0	7.0	5.0	7.0	0.0	part_2
162	3.0	5.0			850.0	0.0	1.0							6.0	0.0	0.92716189701423	6.0	800.0	2.0	1.0	6.0	2.0	1.0	part_2
163	1.0	5.0			850.0	0.0	0.0							5.0	0.0	0.5130630470157485	5.0	750.0	3.0	2.0	3.0	8.0	0.0	part_2
164	1.0	5.0			850.0	0.0	0.0							5.0	0.0	0.5137449955782358	5.0	750.0	1.0	6.0	1.0	5.0	0.0	part_2
165	4.0	5.0			850.0	0.0	1.0							6.0	0.0	0.0	0.0	750.0	1.0	7.0	5.0	7.0	1.0	part_2
166	1.0	5.0			850.0	0.0	0.0							6.0	0.0	0.5814365395799541	6.0	800.0	1.0	6.0	1.0	5.0	0.0	part_2
167	1.0	5.0			850.0	0.0	1.0							5.0	0.0	1.1337911101454663	5.0	800.0	3.0	8.0	7.0	3.0	0.0	part_2
168	4.0	5.0			850.0	0.0	1.0							6.0	0.0	0.0	0.0	800.0	2.0	1.0	6.0	2.0	1.0	part_2
169	4.0	5.0			850.0	0.0	1.0							5.0	0.0	0.0	0.0	850.0	3.0	8.0	7.0	3.0	1.0	part_2
170	1.0	5.0			900.0	0.0	0.0							6.0	0.0	0.5623603107251256	6.0	850.0	1.0	6.0	1.0	5.0	0.0	part_2
171	1.0	5.0			900.0	0.0	0.0							5.0	0.0	0.5409828397241654	5.0	850.0	1.0	6.0	1.0	5.0	0.0	part_2
172	1.0	5.0			900.0	0.0	1.0							5.0	0.0	1.1375277741590253	5.0	850.0	1.0	7.0	5.0	7.0	0.0	part_2
173	4.0	5.0			900.0	0.0	1.0							6.0	0.0	0.0	0.0	850.0	1.0	7.0	5.0	7.0	1.0	part_2
174	1.0	5.0			900.0	0.0	1.0							6.0	0.0	1.3423329477536754	6.0	900.0	1.0	7.0	5.0	7.0	0.0	part_2
175	4.0	5.0			900.0	0.0	1.0							6.0	0.0	0.0	0.0	900.0	3.0	8.0	7.0	3.0	1.0	part_2
176	1.0	5.0			900.0	0.0	1.0							5.0	0.0	1.041493413000353	5.0	950.0	3.0	8.0	7.0	3.0	0.0	part_2
177	1.0	5.0			900.0	0.0	0.0							5.0	0.0	0.557583125144447	5.0	950.0	3.0	2.0	3.0	8.0	0.0	part_2
178	1.0	5.0			900.0	0.0	1.0							6.0	0.0	1.0655441745802818	6.0	950.0	1.0	7.0	5.0	7.0	0.0	part_2
179	4.0	5.0			900.0	0.0	1.0							6.0	0.0	0.0	0.0	950.0	1.0	7.0	5.0	7.0	1.0	part_2
180	1.0	6.0			900.0	0.0	0.0							5.0	0.0	0.5043911601442232	5.0	1000.0	2.0	4.0	2.0	1.0	0.0	part_2
181	1.0	6.0			900.0	0.0	0.0							5.0	0.0	0.3262019512894767	5.0	1000.0	2.0	4.0	2.0	1.0	0.0	part_2
182	1.0	6.0			900.0	0.0	0.0							6.0	0.0	0.4382362328706222	6.0	1000.0	3.0	2.0	3.0	8.0	0.0	part_2
183	3.0	6.0			900.0	0.0	1.0							5.0	0.0	0.9458572021449072	5.0	1000.0	3.0	8.0	7.0	3.0	1.0	part_2
184	1.0	6.0			850.0	0.0	0.0							6.0	0.0	0.4736617781436507	6.0	1000.0	4.0	5.0	4.0	4.0	0.0	part_2
185	1.0	6.0			850.0	0.0	0.0							6.0	0.0	0.3165924312907009	6.0	1000.0	4.0	5.0	4.0	4.0	0.0	part_2
186	3.0	6.0			850.0	0.0	1.0							6.0	0.0	1.0273752463035637	6.0	1000.0	3.0	8.0	7.0	3.0	1.0	part_2
187	1.0	6.0			850.0	0.0	0.0							6.0	0.0	0.7567623300001287	6.0	950.0	2.0	4.0	2.0	1.0	0.0	part_2
188	4.0	6.0			850.0	0.0	1.0							5.0	0.0	0.0	0.0	950.0	2.0	1.0	6.0	2.0	1.0	part_2
189	5.0	6.0			900.0	0.0	1.0							5.0	0.0	0.0	0.0	950.0	2.0	1.0	6.0	2.0	0.0	part_2
190	1.0	6.0			900.0	0.0	0.0							5.0	0.0	0.5345471545806504	5.0	950.0	4.0	5.0	4.0	4.0	0.0	part_2
191	1.0	6.0			900.0	0.0	0.0							6.0	0.0	0.4902880101599294	6.0	950.0	4.0	5.0	4.0	4.0	0.0	part_2
192	1.0	6.0			900.0	0.0	0.0							6.0	0.0	0.4686447682906874	6.0	950.0	3.0	2.0	3.0	8.0	0.0	part_2
193	4.0	6.0			900.0	0.0	1.0							5.0	0.0	0.0	0.0	950.0	1.0	7.0	5.0	7.0	1.0	part_2
194	3.0	6.0			950.0	0.0	1.0							5.0	0.0	0.6053242978705384	5.0	950.0	4.0	3.0	8.0	6.0	1.0	part_2
195	3.0	6.0			900.0	0.0	1.0							6.0	0.0	0.963139245290222	6.0	950.0	3.0	8.0	7.0	3.0	1.0	part_2
196	1.0	6.0			900.0	0.0	1.0							5.0	0.0	1.068237842158851	5.0	900.0	4.0	3.0	8.0	6.0	0.0	part_2
197	1.0	6.0			900.0	0.0	0.0							6.0	0.0	0.5292015371451271	6.0	900.0	1.0	6.0	1.0	5.0	0.0	part_2
198	4.0	6.0			900.0	0.0	1.0							6.0	0.0	0.0	0.0	900.0	1.0	7.0	5.0	7.0	1.0	part_2
199	1.0	6.0			900.0	0.0	0.0							6.0	0.0	0.6999119331449037	6.0	950.0	1.0	6.0	1.0	5.0	0.0	part_2
200	4.0	6.0			900.0	0.0	1.0							6.0	0.0	0.0	0.0	950.0	1.0	7.0	5.0	7.0	1.0	part_2
201	4.0	6.0			900.0	0.0	1.0							6.0	0.0	0.0	0.0	1000.0	2.0	1.0	6.0	2.0	1.0	part_2
202	3.0	6.0			900.0	0.0	1.0							6.0	0.0	1.0605166955792809	6.0	1050.0	3.0	8.0	7.0	3.0	1.0	part_2
203	1.0	6.0			900.0	0.0	0.0							5.0	0.0	0.6357700702901639	5.0	1000.0	2.0	4.0	2.0	1.0	0.0	part_2
204	4.0	6.0			900.0	0.0	1.0							6.0	0.0	0.0	0.0	1000.0	1.0	7.0	5.0	7.0	1.0	part_2
205	4.0	6.0			900.0	0.0	1.0							6.0	0.0	0.0	0.0	1050.0	2.0	1.0	6.0	2.0	1.0	part_2
206	3.0	6.0			900.0	0.0	1.0							5.0	0.0	0.9760398282905952	5.0	1100.0	1.0	7.0	5.0	7.0	1.0	part_2
207	1.0	6.0			850.0	0.0	0.0							6.0	0.0	0.5383517153022694	6.0	1100.0	4.0	5.0	4.0	4.0	0.0	part_2
208	1.0	6.0			850.0	0.0	0.0							6.0	0.0	0.4590124229998764	6.0	1100.0	3.0	2.0	3.0	8.0	0.0	part_2
209	1.0	6.0			850.0	0.0	0.0							6.0	0.0	0.4489322261579218	6.0	1100.0	3.0	2.0	3.0	8.0	0.0	part_2
210	1.0	6.0			850.0	0.0	0.0							5.0	0.0	0.4628825264353509	5.0	1100.0	4.0	5.0	4.0	4.0	0.0	part_2
211	1.0	6.0			850.0	0.0	1.0							5.0	0.0	1.1384157995798887	5.0	1100.0	1.0	7.0	5.0	7.0	0.0	part_2
212	1.0	6.0			850.0	0.0	0.0							6.0	0.0	0.44009964372344257	6.0	1100.0	4.0	5.0	4.0	4.0	0.0	part_2
213	1.0	6.0			850.0	0.0	1.0							6.0	0.0	1.0376038354352204	6.0	1100.0	4.0	3.0	8.0	6.0	0.0	part_2
214	1.0	6.0			850.0	0.0	0.0							5.0	0.0	0.4428229355798976	5.0	1100.0	1.0	6.0	1.0	5.0	0.0	part_2
215	3.0	6.0			850.0	0.0	1.0							6.0	0.0	1.1298978261438606	6.0	1100.0	1.0	7.0	5.0	7.0	1.0	part_2
216	1.0	7.0			850.0	0.0	0.0							6.0	0.0	0.40994279257938615	6.0	1050.0	1.0	6.0	1.0	5.0	0.0	part_2
217	3.0	7.0			850.0	0.0	1.0							6.0	0.0	0.34382032214489305	6.0	1050.0	4.0	3.0	8.0	6.0	1.0	part_2
218	1.0	7.0			850.0	0.0	0.0							5.0	0.0	0.4693082062894973	5.0	1000.0	4.0	5.0	4.0	4.0	0.0	part_2
219	3.0	7.0			850.0	0.0	1.0							6.0	0.0	1.0770933211442753	6.0	1000.0	3.0	8.0	7.0	3.0	1.0	part_2
220	4.0	7.0			850.0	0.0	1.0							5.0	0.0	0.0	0.0	950.0	4.0	3.0	8.0	6.0	1.0	part_2
221	1.0	7.0			900.0	0.0	0.0							6.0	0.0	0.5958470488694729	6.0	950.0	2.0	4.0	2.0	1.0	0.0	part_2
222	1.0	7.0			900.0	0.0	0.0							6.0	0.0	0.3815763755792432	6.0	950.0	2.0	4.0	2.0	1.0	0.0	part_2
223	4.0	7.0			900.0	0.0	1.0							6.0	0.0	0.0	0.0	950.0	3.0	8.0	7.0	3.0	1.0	part_2
224	3.0	7.0			900.0	0.0	1.0							6.0	0.0	1.1030353920141351	6.0	1000.0	4.0	3.0	8.0	6.0	1.0	part_2
225	1.0	7.0			900.0	0.0	0.0							6.0	0.0	0.5882855102918256	6.0	950.0	2.0	4.0	2.0	1.0	0.0	part_2
226	1.0	7.0			900.0	0.0	1.0							6.0	0.0	1.185598831723837	6.0	950.0	3.0	8.0	7.0	3.0	0.0	part_2
227	3.0	7.0			900.0	0.0	1.0							5.0	0.0	0.6446264000005613	5.0	950.0	2.0	1.0	6.0	2.0	1.0	part_2
228	1.0	7.0			850.0	0.0	0.0							5.0	0.0	0.4883622857232695	5.0	950.0	2.0	4.0	2.0	1.0	0.0	part_2
229	4.0	7.0			850.0	0.0	1.0							5.0	0.0	0.0	0.0	950.0	3.0	8.0	7.0	3.0	1.0	part_2
230	1.0	7.0			900.0	0.0	0.0							6.0	0.0	0.5801930141442426	6.0	950.0	2.0	4.0	2.0	1.0	0.0	part_2
231	1.0	7.0			900.0	0.0	1.0							6.0	0.0	1.2439547109988778	6.0	950.0	2.0	1.0	6.0	2.0	0.0	part_2
232	1.0	7.0			900.0	0.0	0.0							6.0	0.0	0.4912031687090348	6.0	950.0	4.0	5.0	4.0	4.0	0.0	part_2
233	1.0	7.0			900.0	0.0	0.0							6.0	0.0	0.4817409291445074	6.0	950.0	1.0	6.0	1.0	5.0	0.0	part_2
234	3.0	7.0			900.0	0.0	1.0							6.0	0.0	1.0901580665795336	6.0	950.0	2.0	1.0	6.0	2.0	1.0	part_2
235	1.0	7.0			900.0	0.0	0.0							5.0	0.0	0.5620891175785799	5.0	900.0	1.0	6.0	1.0	5.0	0.0	part_2
236	4.0	7.0			900.0	0.0	1.0							5.0	0.0	0.0	0.0	900.0	3.0	8.0	7.0	3.0	1.0	part_2
237	1.0	7.0			950.0	0.0	0.0							6.0	0.0	0.5072287501589017	6.0	900.0	2.0	4.0	2.0	1.0	0.0	part_2
238	1.0	7.0			950.0	0.0	0.0							6.0	0.0	0.440125809303936	6.0	900.0	3.0	2.0	3.0	8.0	0.0	part_2
239	1.0	7.0			950.0	0.0	0.0							6.0	0.0	0.3294909827236552	6.0	900.0	3.0	2.0	3.0	8.0	0.0	part_2
240	4.0	7.0			950.0	0.0	1.0							5.0	0.0	0.0	0.0	900.0	1.0	7.0	5.0	7.0	1.0	part_2
241	1.0	7.0			1000.0	0.0	1.0							6.0	0.0	1.4001879057232145	6.0	900.0	4.0	3.0	8.0	6.0	0.0	part_2
242	1.0	7.0			1000.0	0.0	1.0							5.0	0.0	1.096736874724229	5.0	900.0	4.0	3.0	8.0	6.0	0.0	part_2
243	4.0	7.0			1000.0	0.0	1.0							5.0	0.0	0.0	0.0	900.0	1.0	7.0	5.0	7.0	1.0	part_2
244	1.0	7.0			1050.0	0.0	0.0							5.0	0.0	0.5128347077243234	5.0	900.0	3.0	2.0	3.0	8.0	0.0	part_2
245	1.0	7.0			1050.0	0.0	1.0							6.0	0.0	1.1451617430157055	6.0	900.0	2.0	1.0	6.0	2.0	0.0	part_2
246	1.0	7.0			1050.0	0.0	1.0							6.0	0.0	1.1216927360146656	6.0	900.0	2.0	1.0	6.0	2.0	0.0	part_2
247	1.0	7.0			1050.0	0.0	0.0							5.0	0.0	0.5277963435801212	5.0	900.0	2.0	4.0	2.0	1.0	0.0	part_2
248	1.0	7.0			1050.0	0.0	0.0							5.0	0.0	0.4929302631444443	5.0	900.0	1.0	6.0	1.0	5.0	0.0	part_2
249	1.0	7.0			1050.0	0.0	1.0							5.0	0.0	1.0244327964355762	5.0	900.0	4.0	3.0	8.0	6.0	0.0	part_2
250	3.0	7.0			1050.0	0.0	1.0							6.0	0.0	0.9466548135787888	6.0	900.0	4.0	3.0	8.0	6.0	1.0	part_2
251	4.0	7.0			1050.0	0.0	1.0							6.0	0.0	0.0	0.0	850.0	1.0	7.0	5.0	7.0	1.0	part_2
252	1.0	8.0			1050.0	0.0	1.0							6.0	0.0	0.9916430649991526	6.0	900.0	1.0	7.0	5.0	7.0	0.0	part_2
253	1.0	8.0			1050.0	0.0	0.0							5.0	0.0	0.4639802292913373	5.0	900.0	3.0	2.0	3.0	8.0	0.0	part_2
254	4.0	8.0			1050.0	0.0	1.0							6.0	0.0	0.0	0.0	900.0	3.0	8.0	7.0	3.0	1.0	part_2
255	3.0	8.0			1050.0	0.0	1.0							6.0	0.0	1.028597329999684	6.0	950.0	4.0	3.0	8.0	6.0	1.0	part_2
256	1.0	8.0			1050.0	0.0	0.0							6.0	0.0	0.4897791118710302	6.0	900.0	1.0	6.0	1.0	5.0	0.0	part_2
257	4.0	8.0			1050.0	0.0	1.0							5.0	0.0	0.0	0.0	900.0	2.0	1.0	6.0	2.0	1.0	part_2
258	1.0	8.0			1100.0	0.0	0.0							5.0	0.0	0.5460500375793345	5.0	900.0	4.0	5.0	4.0	4.0	0.0	part_2
259	1.0	8.0			1100.0	0.0	0.0							5.0	0.0	0.401025785578895	5.0	900.0	4.0	5.0	4.0	4.0	0.0	part_2
260	4.0	8.0			1100.0	0.0	1.0							6.0	0.0	0.0	0.0	900.0	3.0	8.0	7.0	3.0	1.0	part_2
261	3.0	8.0			1100.0	0.0	1.0							5.0	0.0	1.1557676811444253	5.0	950.0	4.0	3.0	8.0	6.0	1.0	part_2
262	1.0	8.0			1050.0	0.0	0.0							5.0	0.0	0.4479163830146717	5.0	950.0	4.0	5.0	4.0	4.0	0.0	part_2
263	1.0	8.0			1050.0	0.0	0.0							6.0	0.0	0.5508732697235246	6.0	950.0	3.0	2.0	3.0	8.0	0.0	part_2
264	4.0	8.0			1050.0	0.0	1.0							6.0	0.0	0.0	0.0	950.0	4.0	3.0	8.0	6.0	1.0	part_2
265	1.0	8.0			1050.0	0.0	0.0							5.0	0.0	0.5292262692910299	5.0	1000.0	3.0	2.0	3.0	8.0	0.0	part_2
266	1.0	8.0			1050.0	0.0	0.0							5.0	0.0	0.3503730914344487	5.0	1000.0	2.0	4.0	2.0	1.0	0.0	part_2
267	4.0	8.0			1050.0	0.0	1.0							5.0	0.0	0.0	0.0	1000.0	3.0	8.0	7.0	3.0	1.0	part_2
268	4.0	8.0			1100.0	0.0	1.0							5.0	0.0	0.0	0.0	1000.0	4.0	3.0	8.0	6.0	1.0	part_2
269	1.0	8.0			1150.0	0.0	0.0							5.0	0.0	0.5104481655798736	5.0	1000.0	1.0	6.0	1.0	5.0	0.0	part_2
270	1.0	8.0			1150.0	0.0	0.0							5.0	0.0	0.4438926690145309	5.0	1000.0	1.0	6.0	1.0	5.0	0.0	part_2
271	4.0	8.0			1150.0	0.0	1.0							5.0	0.0	0.0	0.0	1000.0	1.0	7.0	5.0	7.0	1.0	part_2
272	4.0	8.0			1200.0	0.0	1.0							6.0	0.0	0.0	0.0	1000.0	2.0	1.0	6.0	2.0	1.0	part_2
273	1.0	8.0			1200.0	0.0	0.0							6.0	0.0	0.4582808371578722	6.0	1050.0	3.0	2.0	3.0	8.0	0.0	part_2
274	1.0	8.0			1200.0	0.0	1.0							5.0	0.0	1.437936772723333	5.0	1050.0	3.0	8.0	7.0	3.0	0.0	part_2
275	1.0	8.0			1200.0	0.0	0.0							5.0	0.0	0.4586959431453579	5.0	1050.0	2.0	4.0	2.0	1.0	0.0	part_2
276	3.0	8.0			1200.0	0.0	1.0							6.0	0.0	1.1817514871599997	6.0	1050.0	2.0	1.0	6.0	2.0	1.0	part_2
277	1.0	8.0			1200.0	0.0	1.0							6.0	0.0	1.3844430950157405	6.0	1000.0	1.0	7.0	5.0	7.0	0.0	part_2
278	4.0	8.0			1200.0	0.0	1.0							6.0	0.0	0.0	0.0	1000.0	3.0	8.0	7.0	3.0	1.0	part_2
279	1.0	8.0			1200.0	0.0	0.0							5.0	0.0	0.4642451748695749	5.0	1050.0	2.0	4.0	2.0	1.0	0.0	part_2
280	4.0	8.0			1200.0	0.0	1.0							6.0	0.0	0.0	0.0	1050.0	4.0	3.0	8.0	6.0	1.0	part_2
281	1.0	8.0			1200.0	0.0	1.0							5.0	0.0	1.2182386547101487	5.0	1100.0	2.0	1.0	6.0	2.0	0.0	part_2
282	1.0	8.0			1200.0	0.0	0.0							6.0	0.0	0.4892410720149201	6.0	1100.0	3.0	2.0	3.0	8.0	0.0	part_2
283	3.0	8.0			1200.0	0.0	1.0							6.0	0.0	1.1201804630145489	6.0	1100.0	1.0	7.0	5.0	7.0	1.0	part_2
284	1.0	8.0			1200.0	0.0	0.0							5.0	0.0	0.4666469974345091	5.0	1050.0	4.0	5.0	4.0	4.0	0.0	part_2
285	3.0	8.0			1200.0	0.0	1.0							6.0	0.0	1.063211130869604	6.0	1050.0	2.0	1.0	6.0	2.0	1.0	part_2
286	1.0	8.0			1200.0	0.0	0.0							5.0	0.0	0.4569087191575818	5.0	1000.0	1.0	6.0	1.0	5.0	0.0	part_2
287	1.0	8.0			1200.0	0.0	0.0							6.0	0.0	0.4481305264343973	6.0	1000.0	3.0	2.0	3.0	8.0	0.0	part_2
0	0.0	1.0	117.0	3.0	0.0	1.0	1.0	195.0	234.0	117.0	78.0	39.0	156.0	7.0	0.0	2.3169674198052235	3.0	0.0	2.0	1.0	6.0	2.0	0.0	part_3
1	0.0	1.0	39.0	1.0	0.0	1.0	1.0	195.0	39.0	117.0	78.0	234.0	156.0	7.0	0.0	2.5587775854146457	2.0	0.0	3.0	8.0	7.0	3.0	0.0	part_3
2	0.0	1.0	117.0	3.0	0.0	1.0	1.0	39.0	195.0	156.0	117.0	78.0	234.0	7.0	0.0	3.2236984644077893	4.0	0.0	4.0	3.0	8.0	6.0	0.0	part_3
3	0.0	1.0	98.0	2.0	0.0	1.0	1.0	98.0	245.0	294.0	147.0	49.0	196.0	7.0	0.0	2.4373462082039623	1.0	0.0	2.0	1.0	6.0	2.0	0.0	part_3
4	0.0	1.0	49.0	1.0	0.0	1.0	1.0	49.0	294.0	147.0	98.0	196.0	245.0	7.0	0.0	2.2150079078055565	1.0	0.0	3.0	8.0	7.0	3.0	0.0	part_3
5	0.0	1.0	102.0	3.0	0.0	1.0	1.0	204.0	102.0	136.0	170.0	68.0	34.0	7.0	0.0	1.8993299192025008	2.0	0.0	2.0	1.0	6.0	2.0	0.0	part_3
6	0.0	1.0	88.0	2.0	0.0	1.0	1.0	176.0	264.0	132.0	88.0	44.0	220.0	7.0	0.0	4.173213965603281	4.0	0.0	1.0	7.0	5.0	7.0	0.0	part_3
7	0.0	1.0	117.0	3.0	0.0	1.0	1.0	117.0	156.0	39.0	78.0	234.0	195.0	7.0	0.0	2.3432947046112527	1.0	0.0	1.0	7.0	5.0	7.0	0.0	part_3
8	0.0	1.0	78.0	2.0	0.0	1.0	1.0	117.0	78.0	234.0	156.0	195.0	39.0	7.0	0.0	2.514002790407176	2.0	0.0	3.0	8.0	7.0	3.0	0.0	part_3
9	0.0	1.0	88.0	2.0	0.0	1.0	1.0	132.0	88.0	176.0	44.0	264.0	220.0	7.0	0.0	2.097354723007811	2.0	0.0	2.0	1.0	6.0	2.0	0.0	part_3
10	0.0	1.0	170.0	5.0	0.0	1.0	1.0	170.0	102.0	204.0	34.0	136.0	68.0	7.0	0.0	2.9992671700165374	1.0	0.0	4.0	3.0	8.0	6.0	0.0	part_3
11	0.0	1.0	270.0	5.0	0.0	1.0	0.0	162.0	108.0	324.0	54.0	270.0	216.0	7.0	0.0	3.540733255204032	5.0	0.0	4.0	5.0	4.0	4.0	0.0	part_3
12	0.0	1.0	88.0	2.0	0.0	1.0	1.0	132.0	220.0	264.0	44.0	176.0	88.0	7.0	0.0	3.8909489382022	6.0	0.0	3.0	8.0	7.0	3.0	0.0	part_3
13	0.0	1.0	88.0	2.0	0.0	1.0	1.0	88.0	264.0	44.0	132.0	176.0	220.0	7.0	0.0	4.577170381609903	1.0	0.0	1.0	7.0	5.0	7.0	0.0	part_3
14	0.0	1.0	162.0	3.0	0.0	2.0	1.0	324.0	108.0	54.0	270.0	162.0	216.0	7.0	0.0	1.3528632610068598	5.0	0.0	4.0	3.0	8.0	6.0	0.0	part_3
15	0.0	1.0	54.0	1.0	0.0	1.0	1.0	54.0	108.0	216.0	270.0	162.0	324.0	7.0	0.0	1.8056866136030292	1.0	0.0	3.0	8.0	7.0	3.0	0.0	part_3
16	0.0	1.0	170.0	5.0	0.0	1.0	0.0	68.0	102.0	34.0	170.0	204.0	136.0	7.0	0.0	1.7057213422031057	4.0	0.0	4.0	5.0	4.0	4.0	0.0	part_3
17	0.0	1.0	294.0	6.0	0.0	1.0	1.0	294.0	245.0	196.0	147.0	98.0	49.0	7.0	0.0	1.8963419416104443	1.0	0.0	1.0	7.0	5.0	7.0	0.0	part_3
18	0.0	1.0	204.0	6.0	0.0	1.0	0.0	102.0	204.0	170.0	68.0	34.0	136.0	7.0	0.0	2.1011313302115013	2.0	0.0	3.0	2.0	3.0	8.0	0.0	part_3
19	0.0	1.0	270.0	5.0	0.0	1.0	0.0	108.0	216.0	270.0	162.0	324.0	54.0	7.0	0.0	1.4949033424072695	3.0	0.0	2.0	4.0	2.0	1.0	0.0	part_3
20	0.0	2.0	147.0	3.0	0.0	1.0	1.0	147.0	294.0	245.0	49.0	196.0	98.0	7.0	0.0	1.5494946812032142	1.0	0.0	2.0	1.0	6.0	2.0	0.0	part_3
21	0.0	2.0	324.0	6.0	0.0	1.0	0.0	162.0	270.0	54.0	108.0	216.0	324.0	7.0	0.0	1.5266617956021946	6.0	0.0	1.0	6.0	1.0	5.0	0.0	part_3
22	0.0	2.0	117.0	3.0	0.0	1.0	0.0	78.0	156.0	195.0	117.0	39.0	234.0	7.0	0.0	2.9568528019990485	4.0	0.0	1.0	6.0	1.0	5.0	0.0	part_3
23	0.0	2.0	176.0	4.0	0.0	1.0	0.0	220.0	264.0	132.0	176.0	44.0	88.0	7.0	0.0	1.8564017226108265	4.0	0.0	1.0	6.0	1.0	5.0	0.0	part_3
24	0.0	2.0	88.0	2.0	0.0	1.0	1.0	88.0	176.0	44.0	132.0	220.0	264.0	7.0	0.0	1.3294571676105988	1.0	0.0	3.0	8.0	7.0	3.0	0.0	part_3
25	0.0	2.0	39.0	1.0	0.0	1.0	0.0	156.0	39.0	195.0	117.0	234.0	78.0	7.0	0.0	1.6214083948052576	2.0	0.0	1.0	6.0	1.0	5.0	0.0	part_3
26	0.0	2.0	220.0	5.0	0.0	1.0	1.0	176.0	264.0	132.0	44.0	220.0	88.0	7.0	0.0	1.3531040464076796	5.0	0.0	4.0	3.0	8.0	6.0	0.0	part_3
27	0.0	2.0	216.0	4.0	0.0	1.0	0.0	108.0	324.0	270.0	54.0	216.0	162.0	7.0	0.0	1.3427214292041754	5.0	0.0	1.0	6.0	1.0	5.0	0.0	part_3
28	0.0	2.0	78.0	2.0	0.0	1.0	1.0	234.0	78.0	39.0	117.0	156.0	195.0	7.0	0.0	1.2081941466112769	2.0	0.0	2.0	1.0	6.0	2.0	0.0	part_3
29	0.0	2.0	204.0	6.0	0.0	1.0	1.0	204.0	170.0	34.0	136.0	68.0	102.0	7.0	0.0	1.0081907416115428	1.0	0.0	4.0	3.0	8.0	6.0	0.0	part_3
30	0.0	2.0	270.0	5.0	0.0	1.0	0.0	216.0	162.0	324.0	54.0	108.0	270.0	7.0	0.0	1.9550537932136651	6.0	0.0	3.0	2.0	3.0	8.0	0.0	part_3
31	0.0	2.0	108.0	2.0	0.0	1.0	1.0	54.0	108.0	162.0	324.0	216.0	270.0	7.0	0.0	1.3709386908140004	2.0	0.0	3.0	8.0	7.0	3.0	0.0	part_3
32	0.0	2.0	156.0	4.0	0.0	1.0	1.0	78.0	234.0	117.0	195.0	156.0	39.0	7.0	0.0	1.2468851560079202	5.0	0.0	1.0	7.0	5.0	7.0	0.0	part_3
33	0.0	2.0	294.0	6.0	0.0	1.0	0.0	98.0	294.0	49.0	245.0	196.0	147.0	7.0	0.0	1.0787874778143305	2.0	0.0	4.0	5.0	4.0	4.0	0.0	part_3
34	0.0	2.0	156.0	4.0	0.0	1.0	0.0	234.0	195.0	78.0	39.0	156.0	117.0	7.0	0.0	1.1141473036113894	5.0	0.0	4.0	5.0	4.0	4.0	0.0	part_3
35	0.0	2.0	68.0	2.0	0.0	1.0	0.0	170.0	102.0	34.0	136.0	204.0	68.0	7.0	0.0	1.4861319334067955	6.0	0.0	2.0	4.0	2.0	1.0	0.0	part_3
36	0.0	2.0	136.0	4.0	0.0	1.0	1.0	170.0	136.0	204.0	34.0	102.0	68.0	7.0	0.0	1.3862430008121007	2.0	0.0	2.0	1.0	6.0	2.0	0.0	part_3
37	0.0	2.0	245.0	5.0	0.0	1.0	0.0	245.0	147.0	98.0	294.0	49.0	196.0	7.0	0.0	1.1736528990077204	1.0	0.0	2.0	4.0	2.0	1.0	0.0	part_3
38	0.0	2.0	98.0	2.0	0.0	1.0	1.0	49.0	196.0	147.0	294.0	245.0	98.0	7.0	0.0	1.2424917226035177	6.0	0.0	3.0	8.0	7.0	3.0	0.0	part_3
39	0.0	2.0	195.0	5.0	0.0	1.0	0.0	195.0	39.0	234.0	156.0	78.0	117.0	7.0	0.0	1.7496350958062976	1.0	0.0	3.0	2.0	3.0	8.0	0.0	part_3
40	0.0	3.0	204.0	6.0	0.0	1.0	0.0	102.0	34.0	170.0	68.0	136.0	204.0	7.0	0.0	1.4842691224075681	6.0	0.0	3.0	2.0	3.0	8.0	0.0	part_3
41	0.0	3.0	170.0	5.0	0.0	1.0	1.0	204.0	170.0	68.0	34.0	136.0	102.0	7.0	0.0	1.1813729407695064	2.0	0.0	1.0	7.0	5.0	7.0	0.0	part_3
42	0.0	3.0	162.0	3.0	0.0	1.0	0.0	162.0	270.0	216.0	324.0	108.0	54.0	7.0	0.0	1.363560307008811	1.0	0.0	3.0	2.0	3.0	8.0	0.0	part_3
43	0.0	3.0	132.0	3.0	0.0	1.0	0.0	220.0	88.0	176.0	264.0	132.0	44.0	7.0	0.0	1.2172506164079095	5.0	0.0	1.0	6.0	1.0	5.0	0.0	part_3
44	0.0	3.0	102.0	3.0	0.0	1.0	0.0	136.0	102.0	170.0	204.0	68.0	34.0	7.0	0.0	1.2864169378135557	2.0	0.0	1.0	6.0	1.0	5.0	0.0	part_3
45	0.0	3.0	204.0	6.0	0.0	1.0	0.0	136.0	204.0	170.0	68.0	34.0	102.0	7.0	0.0	1.2421257948044513	2.0	0.0	2.0	4.0	2.0	1.0	0.0	part_3
46	0.0	3.0	147.0	3.0	0.0	1.0	0.0	294.0	49.0	196.0	98.0	147.0	245.0	7.0	0.0	1.1753474064080365	5.0	0.0	2.0	4.0	2.0	1.0	0.0	part_3
47	0.0	3.0	216.0	4.0	0.0	1.0	0.0	162.0	216.0	270.0	54.0	108.0	324.0	7.0	0.0	1.34581032681308	2.0	0.0	2.0	4.0	2.0	1.0	0.0	part_3
48	0.0	3.0	34.0	1.0	0.0	1.0	1.0	204.0	136.0	34.0	102.0	68.0	170.0	7.0	0.0	1.1897129648132252	3.0	0.0	1.0	7.0	5.0	7.0	0.0	part_3
49	0.0	3.0	196.0	4.0	0.0	1.0	0.0	98.0	196.0	294.0	245.0	147.0	49.0	7.0	0.0	1.0445704014073272	2.0	0.0	3.0	2.0	3.0	8.0	0.0	part_3
50	0.0	3.0	132.0	3.0	0.0	1.0	0.0	220.0	264.0	88.0	132.0	44.0	176.0	7.0	0.0	1.1587764305932071	4.0	0.0	4.0	5.0	4.0	4.0	0.0	part_3
51	0.0	3.0	117.0	3.0	0.0	1.0	1.0	195.0	78.0	156.0	39.0	117.0	234.0	7.0	0.0	1.5080013988135759	5.0	0.0	4.0	3.0	8.0	6.0	0.0	part_3
52	0.0	3.0	117.0	3.0	0.0	1.0	0.0	39.0	195.0	78.0	234.0	156.0	117.0	7.0	0.0	1.3068722716016057	6.0	0.0	4.0	5.0	4.0	4.0	0.0	part_3
53	0.0	3.0	162.0	3.0	0.0	1.0	1.0	270.0	54.0	108.0	324.0	162.0	216.0	7.0	0.0	1.330581501211782	5.0	0.0	1.0	7.0	5.0	7.0	0.0	part_3
54	0.0	3.0	102.0	3.0	0.0	1.0	0.0	170.0	34.0	136.0	102.0	68.0	204.0	7.0	0.0	1.6339983252019008	4.0	0.0	4.0	5.0	4.0	4.0	0.0	part_3
55	0.0	3.0	245.0	5.0	0.0	1.0	0.0	147.0	196.0	98.0	49.0	294.0	245.0	7.0	0.0	1.4564266944071278	6.0	0.0	1.0	6.0	1.0	5.0	0.0	part_3
56	0.0	3.0	162.0	3.0	0.0	1.0	1.0	162.0	216.0	270.0	324.0	54.0	108.0	7.0	0.0	1.2552183214156685	1.0	0.0	2.0	1.0	6.0	2.0	0.0	part_3
57	0.0	3.0	220.0	5.0	0.0	1.0	0.0	44.0	132.0	176.0	88.0	264.0	220.0	7.0	0.0	1.345224727201639	6.0	0.0	3.0	2.0	3.0	8.0	0.0	part_3
58	0.0	3.0	196.0	4.0	0.0	1.0	1.0	147.0	294.0	196.0	49.0	98.0	245.0	7.0	0.0	1.4268283850069563	3.0	0.0	4.0	3.0	8.0	6.0	0.0	part_3
59	0.0	3.0	44.0	1.0	0.0	1.0	1.0	44.0	88.0	220.0	264.0	176.0	132.0	7.0	0.0	0.8975058930009254	1.0	0.0	2.0	1.0	6.0	2.0	0.0	part_3
60	0.0	4.0	156.0	4.0	0.0	1.0	0.0	156.0	117.0	234.0	78.0	39.0	195.0	7.0	0.0	1.426192584407545	1.0	0.0	3.0	2.0	3.0	8.0	0.0	part_3
61	0.0	4.0	117.0	3.0	0.0	1.0	0.0	117.0	78.0	195.0	39.0	156.0	234.0	7.0	0.0	1.4492732766029803	1.0	0.0	2.0	4.0	2.0	1.0	0.0	part_3
62	0.0	4.0	220.0	5.0	0.0	1.0	1.0	44.0	132.0	88.0	264.0	176.0	220.0	7.0	0.0	0.8765884116019151	6.0	0.0	4.0	3.0	8.0	6.0	0.0	part_3
63	0.0	4.0	54.0	1.0	0.0	1.0	1.0	216.0	324.0	54.0	270.0	162.0	108.0	7.0	0.0	1.068893046007361	3.0	0.0	2.0	1.0	6.0	2.0	0.0	part_3
64	0.0	4.0	264.0	6.0	0.0	1.0	0.0	220.0	44.0	132.0	264.0	176.0	88.0	7.0	0.0	0.5979905552030687	4.0	0.0	2.0	4.0	2.0	1.0	0.0	part_3
65	0.0	4.0	98.0	2.0	0.0	1.0	1.0	245.0	98.0	49.0	294.0	147.0	196.0	7.0	0.0	0.9807366772129172	2.0	0.0	1.0	7.0	5.0	7.0	0.0	part_3
66	0.0	4.0	196.0	4.0	0.0	1.0	0.0	98.0	49.0	294.0	196.0	147.0	245.0	7.0	0.0	1.3890521390021604	4.0	0.0	3.0	2.0	3.0	8.0	0.0	part_3
67	0.0	4.0	44.0	1.0	0.0	1.0	0.0	176.0	220.0	88.0	44.0	132.0	264.0	7.0	0.0	0.9726494856004138	4.0	0.0	4.0	5.0	4.0	4.0	0.0	part_3
68	0.0	4.0	136.0	4.0	0.0	1.0	0.0	204.0	68.0	34.0	102.0	136.0	170.0	7.0	0.0	1.2883110846123602	5.0	0.0	1.0	6.0	1.0	5.0	0.0	part_3
69	0.0	4.0	34.0	1.0	0.0	1.0	1.0	68.0	204.0	136.0	102.0	170.0	34.0	7.0	0.0	1.4703636962040036	6.0	0.0	3.0	8.0	7.0	3.0	0.0	part_3
70	0.0	4.0	220.0	5.0	0.0	1.0	0.0	44.0	88.0	220.0	176.0	132.0	264.0	7.0	0.0	1.1782078414071293	3.0	0.0	2.0	4.0	2.0	1.0	0.0	part_3
71	0.0	4.0	324.0	6.0	0.0	1.0	1.0	216.0	270.0	54.0	162.0	324.0	108.0	7.0	0.0	1.4387101440006518	5.0	0.0	4.0	3.0	8.0	6.0	0.0	part_3
72	0.0	4.0	102.0	3.0	0.0	1.0	1.0	170.0	102.0	136.0	68.0	204.0	34.0	7.0	0.0	1.0351257084148529	2.0	0.0	3.0	8.0	7.0	3.0	0.0	part_3
73	0.0	4.0	117.0	3.0	0.0	1.0	0.0	78.0	195.0	234.0	39.0	117.0	156.0	7.0	0.0	1.2947834169572159	5.0	0.0	2.0	4.0	2.0	1.0	0.0	part_3
74	0.0	4.0	98.0	2.0	0.0	1.0	0.0	98.0	147.0	49.0	294.0	196.0	245.0	7.0	0.0	1.1035148672053765	1.0	0.0	1.0	6.0	1.0	5.0	0.0	part_3
75	0.0	4.0	294.0	6.0	0.0	1.0	0.0	245.0	147.0	49.0	196.0	294.0	98.0	7.0	0.0	1.093073364609154	5.0	0.0	4.0	5.0	4.0	4.0	0.0	part_3
76	0.0	4.0	270.0	5.0	0.0	1.0	1.0	216.0	270.0	324.0	54.0	108.0	162.0	7.0	0.0	1.1617964358047177	2.0	0.0	1.0	7.0	5.0	7.0	0.0	part_3
77	0.0	4.0	220.0	5.0	0.0	1.0	0.0	176.0	264.0	44.0	132.0	220.0	88.0	7.0	0.0	1.4444860502117078	5.0	0.0	3.0	2.0	3.0	8.0	0.0	part_3
78	0.0	4.0	162.0	3.0	0.0	1.0	0.0	270.0	162.0	324.0	216.0	54.0	108.0	7.0	0.0	1.2764635192033893	2.0	0.0	4.0	5.0	4.0	4.0	0.0	part_3
79	0.0	4.0	147.0	3.0	0.0	1.0	1.0	196.0	98.0	245.0	294.0	49.0	147.0	7.0	0.0	0.9287882542048465	6.0	0.0	4.0	3.0	8.0	6.0	0.0	part_3
