	accuracy	block	chosen_bidding_amount	chosen_bidding_level	left_SSD	num_trial_presentations	paired_with_stopping	possible_bid_1	possible_bid_2	possible_bid_3	possible_bid_4	possible_bid_5	possible_bid_6	quadrant	raw_reward_magnitude	reaction_time	response	right_SSD	stepwise_reward_magnitude	stim_color	stim_reward	stim_shape	stop_signal_trial_type	which_part
0		1.0				1.0	1.0							1.0	122.0	0.33103869698243216	1.0		2.0	4.0	6.0	3.0		part_1
1		1.0				1.0	1.0							2.0	383.0	0.4226340583409183	2.0		4.0	8.0	8.0	6.0		part_1
2		1.0				1.0	0.0							3.0	74.0	0.4104350664420053	3.0		1.0	5.0	1.0	2.0		part_1
3		1.0				1.0	1.0							2.0	51.0	0.378315643989481	2.0		1.0	2.0	5.0	1.0		part_1
4		1.0				1.0	0.0							4.0	86.0	0.2763170204125345	4.0		2.0	3.0	2.0	4.0		part_1
5		1.0				1.0	1.0							1.0	219.0	0.4686951318290085	1.0		3.0	1.0	7.0	7.0		part_1
6		1.0				2.0	0.0							3.0	40.0	0.36883015133207664	3.0		1.0	5.0	1.0	2.0		part_1
7		1.0				1.0	1.0							1.0	0.0	0.3123041559592821	1.0		0.0	2.0	5.0	1.0		part_1
8		1.0				1.0	0.0							3.0	36.0	0.403613769391086	3.0		1.0	5.0	1.0	2.0		part_1
9		1.0				1.0	1.0							2.0	108.0	0.3488987109740265	2.0		2.0	4.0	6.0	3.0		part_1
10		1.0				1.0	1.0							2.0	37.0	0.3490231654723175	2.0		1.0	2.0	5.0	1.0		part_1
11		1.0				1.0	0.0							4.0	51.0	0.3595186149468645	4.0		1.0	5.0	1.0	2.0		part_1
12		1.0				1.0	0.0							3.0	375.0	0.4394747497863136	3.0		4.0	6.0	4.0	5.0		part_1
13		1.0				1.0	1.0							1.0	199.0	0.34971559094265103	1.0		3.0	1.0	7.0	7.0		part_1
14		1.0				1.0	1.0							1.0	385.0	0.4292255743639544	1.0		4.0	8.0	8.0	6.0		part_1
15		1.0				1.0	1.0							1.0	392.0	0.3840712528326549	1.0		4.0	8.0	8.0	6.0		part_1
16		1.0				1.0	1.0							3.0	80.0	0.3742481554509141	3.0		2.0	4.0	6.0	3.0		part_1
17		1.0				1.0	0.0							4.0	396.0	0.37551622034516186	4.0		4.0	6.0	4.0	5.0		part_1
18		1.0				1.0	0.0							2.0	201.0	0.4308750504278578	2.0		3.0	7.0	3.0	8.0		part_1
19		1.0				1.0	1.0							1.0	396.0	0.3305711550056003	1.0		4.0	8.0	8.0	6.0		part_1
20		1.0				1.0	1.0							1.0	58.0	0.3549430879065767	1.0		1.0	2.0	5.0	1.0		part_1
21		1.0				1.0	0.0							4.0	122.0	0.3207662719069049	4.0		2.0	3.0	2.0	4.0		part_1
22		1.0				1.0	1.0							1.0	48.0	0.2760014703962952	1.0		1.0	2.0	5.0	1.0		part_1
23		1.0				1.0	0.0							4.0	423.0	0.32169125630753115	4.0		4.0	6.0	4.0	5.0		part_1
24		1.0				1.0	1.0							3.0	124.0	0.3450088139506988	3.0		2.0	4.0	6.0	3.0		part_1
25		1.0				1.0	1.0							4.0	400.0	0.3232762604020536	4.0		4.0	8.0	8.0	6.0		part_1
26		1.0				1.0	0.0							4.0	0.0	0.3455530937644653	4.0		0.0	5.0	1.0	2.0		part_1
27		1.0				1.0	1.0							3.0	423.0	0.3577679168083705	3.0		4.0	8.0	8.0	6.0		part_1
28		1.0				1.0	0.0							3.0	0.0	0.3911867924616672	3.0		0.0	7.0	3.0	8.0		part_1
29		1.0				1.0	1.0							3.0	94.0	0.4487386394175701	3.0		2.0	4.0	6.0	3.0		part_1
30		1.0				1.0	0.0							4.0	110.0	0.33751130843302235	4.0		2.0	3.0	2.0	4.0		part_1
31		1.0				1.0	0.0							4.0	192.0	0.3933603444020264	4.0		3.0	7.0	3.0	8.0		part_1
32		1.0				1.0	1.0							4.0	105.0	0.3498121163574979	4.0		2.0	4.0	6.0	3.0		part_1
33		1.0				1.0	1.0							1.0	394.0	0.3731470034690574	1.0		4.0	8.0	8.0	6.0		part_1
34		1.0				1.0	0.0							4.0	81.0	0.3493117273319513	4.0		2.0	3.0	2.0	4.0		part_1
35		1.0				1.0	0.0							3.0	124.0	0.3849513488239609	3.0		2.0	3.0	2.0	4.0		part_1
36		1.0				1.0	0.0							3.0	38.0	0.3955770059255883	3.0		1.0	5.0	1.0	2.0		part_1
37		1.0				1.0	1.0							1.0	215.0	0.35232640034519136	1.0		3.0	1.0	7.0	7.0		part_1
38		1.0				1.0	1.0							4.0	177.0	0.3737559543806128	4.0		3.0	1.0	7.0	7.0		part_1
39		1.0				1.0	0.0							1.0	0.0	0.342228150984738	1.0		0.0	5.0	1.0	2.0		part_1
40		1.0				1.0	1.0							1.0	121.0	0.39777091739233583	1.0		2.0	4.0	6.0	3.0		part_1
41		1.0				1.0	1.0							3.0	192.0	0.4881602204404771	3.0		3.0	1.0	7.0	7.0		part_1
42		1.0				1.0	1.0							3.0	400.0	0.465806708438322	3.0		4.0	8.0	8.0	6.0		part_1
43		1.0				1.0	0.0							1.0	29.0	0.5696906754164957	1.0		1.0	5.0	1.0	2.0		part_1
44		1.0				1.0	1.0							4.0	191.0	0.5687390940147452	4.0		3.0	1.0	7.0	7.0		part_1
45		1.0				1.0	0.0							1.0	396.0	0.5479170323815197	1.0		4.0	6.0	4.0	5.0		part_1
46		1.0				1.0	1.0							3.0	418.0	0.42304506234359	3.0		4.0	8.0	8.0	6.0		part_1
47		1.0				1.0	1.0							4.0	56.0	0.4706939884345047	4.0		1.0	2.0	5.0	1.0		part_1
48		1.0				1.0	1.0							4.0	50.0	0.4589938559802249	4.0		1.0	2.0	5.0	1.0		part_1
49		1.0				1.0	1.0							4.0	114.0	0.3914398679626174	4.0		2.0	4.0	6.0	3.0		part_1
50		1.0				1.0	1.0							4.0	92.0	0.34890297148376703	4.0		2.0	4.0	6.0	3.0		part_1
51		1.0				1.0	1.0							3.0	0.0	0.4838876258581877	3.0		0.0	1.0	7.0	7.0		part_1
52		1.0				1.0	1.0							2.0	69.0	0.5068485509254971	2.0		1.0	2.0	5.0	1.0		part_1
53		1.0				1.0	1.0							2.0	31.0	0.3715098839602433	2.0		1.0	2.0	5.0	1.0		part_1
54		1.0				1.0	1.0							1.0	215.0	0.4505752574186772	1.0		3.0	1.0	7.0	7.0		part_1
55		1.0				1.0	0.0							1.0	208.0	0.4849861663533375	1.0		3.0	7.0	3.0	8.0		part_1
56		1.0				1.0	1.0							2.0	201.0	0.3394027487956919	2.0		3.0	1.0	7.0	7.0		part_1
57		1.0				1.0	0.0							2.0	37.0	0.40921749582048506	2.0		1.0	5.0	1.0	2.0		part_1
58		1.0				1.0	0.0							2.0	59.0	0.36452627781545743	2.0		1.0	5.0	1.0	2.0		part_1
59		1.0				1.0	1.0							2.0	0.0	0.3763320584548637	2.0		0.0	8.0	8.0	6.0		part_1
60		1.0				1.0	0.0							4.0	31.0	0.4207073174184188	4.0		1.0	5.0	1.0	2.0		part_1
61		1.0				1.0	0.0							3.0	399.0	0.3652322373818606	3.0		4.0	6.0	4.0	5.0		part_1
62		1.0				1.0	0.0							2.0	400.0	0.3781715930090286	2.0		4.0	6.0	4.0	5.0		part_1
63		1.0				1.0	0.0							2.0	54.0	0.3774977134889923	2.0		1.0	5.0	1.0	2.0		part_1
64		1.0				1.0	0.0							1.0	0.0	0.3343677084194496	1.0		0.0	3.0	2.0	4.0		part_1
65		1.0				1.0	0.0							3.0	205.0	0.4684274923638441	3.0		3.0	7.0	3.0	8.0		part_1
66		1.0				1.0	1.0							1.0	224.0	0.5368668533628806	1.0		3.0	1.0	7.0	7.0		part_1
67		1.0				1.0	0.0							1.0	180.0	0.38020785042317584	1.0		3.0	7.0	3.0	8.0		part_1
68		1.0				1.0	1.0							1.0	189.0	0.3473249804228544	1.0		3.0	1.0	7.0	7.0		part_1
69		1.0				1.0	0.0							1.0	94.0	0.3931120274355635	1.0		2.0	3.0	2.0	4.0		part_1
70		1.0				1.0	0.0							2.0	81.0	0.4599436124553904	2.0		2.0	3.0	2.0	4.0		part_1
71		1.0				1.0	0.0							3.0	215.0	0.6067847904050723	3.0		3.0	7.0	3.0	8.0		part_1
72		1.0				1.0	1.0							1.0	31.0	0.584502654208336	1.0		1.0	2.0	5.0	1.0		part_1
73		1.0				1.0	1.0							1.0	98.0	0.4056564288912341	1.0		2.0	4.0	6.0	3.0		part_1
74		1.0				1.0	1.0							2.0	81.0	0.4503046110039577	2.0		2.0	4.0	6.0	3.0		part_1
75		1.0				1.0	1.0							1.0	43.0	0.4851215748349205	1.0		1.0	2.0	5.0	1.0		part_1
76		1.0				1.0	1.0							4.0	185.0	0.42920729983598	4.0		3.0	1.0	7.0	7.0		part_1
77		1.0				1.0	1.0							2.0	220.0	0.3844579449505545	2.0		3.0	1.0	7.0	7.0		part_1
78		1.0				1.0	0.0							3.0	200.0	0.6339277713559568	3.0		3.0	7.0	3.0	8.0		part_1
79		1.0				1.0	0.0							1.0	220.0	0.3872408567694947	1.0		3.0	7.0	3.0	8.0		part_1
80		1.0				1.0	0.0							3.0	65.0	0.4207868158118799	3.0		1.0	5.0	1.0	2.0		part_1
81		1.0				1.0	0.0							1.0	114.0	0.6697499459260143	1.0		2.0	3.0	2.0	4.0		part_1
82		1.0				1.0	0.0							2.0	409.0	0.4552912713843398	2.0		4.0	6.0	4.0	5.0		part_1
83		1.0				1.0	0.0							2.0	0.0	0.4447849703137763	2.0		0.0	3.0	2.0	4.0		part_1
84		1.0				1.0	1.0							1.0	0.0	0.3780096029513516	1.0		0.0	1.0	7.0	7.0		part_1
85		1.0				1.0	0.0							4.0	27.0	0.37716311641270295	4.0		1.0	5.0	1.0	2.0		part_1
86		1.0				1.0	1.0							3.0	200.0	0.4469108129269444	3.0		3.0	1.0	7.0	7.0		part_1
87		1.0				1.0	0.0							2.0	0.0	0.35610289697069675	2.0		0.0	6.0	4.0	5.0		part_1
88		1.0				1.0	0.0							4.0	43.0	0.4589039409183897	4.0		1.0	5.0	1.0	2.0		part_1
89		1.0				1.0	1.0							3.0	417.0	0.4479146657977253	3.0		4.0	8.0	8.0	6.0		part_1
90		1.0				1.0	0.0							2.0	408.0	0.30207798338960856	2.0		4.0	6.0	4.0	5.0		part_1
91		1.0				1.0	0.0							4.0	210.0	0.4930295139783994	4.0		3.0	7.0	3.0	8.0		part_1
92		1.0				1.0	0.0							3.0	0.0	0.449546518328134	3.0		0.0	3.0	2.0	4.0		part_1
93		1.0				1.0	1.0							2.0	0.0	0.4066970804124139	2.0		0.0	8.0	8.0	6.0		part_1
94		1.0				1.0	1.0							4.0	399.0	0.4506306604016572	4.0		4.0	8.0	8.0	6.0		part_1
95		1.0				1.0	0.0							1.0	51.0	0.327185635920614	1.0		1.0	5.0	1.0	2.0		part_1
96		1.0				1.0	1.0							3.0	0.0	0.29459435475291684	3.0		0.0	1.0	7.0	7.0		part_1
97		1.0				2.0	0.0							1.0	418.0	0.4306992393103428	1.0		4.0	6.0	4.0	5.0		part_1
98		1.0				1.0	1.0							1.0	186.0	0.3988510763738304	1.0		3.0	1.0	7.0	7.0		part_1
99		1.0				1.0	1.0							4.0	97.0	0.374816064897459	4.0		2.0	4.0	6.0	3.0		part_1
100		2.0				1.0	0.0							2.0	123.0	0.3394641288323328	2.0		2.0	3.0	2.0	4.0		part_1
101		2.0				1.0	1.0							4.0	0.0	0.4289790969341993	4.0		0.0	4.0	6.0	3.0		part_1
102		2.0				1.0	0.0							1.0	0.0	0.3953877393505536	1.0		0.0	3.0	2.0	4.0		part_1
103		2.0				1.0	1.0							3.0	175.0	0.3621109124505893	3.0		3.0	1.0	7.0	7.0		part_1
104		2.0				1.0	0.0							4.0	73.0	0.4403941203490831	4.0		1.0	5.0	1.0	2.0		part_1
105		2.0				1.0	0.0							4.0	58.0	0.5762488609761931	4.0		1.0	5.0	1.0	2.0		part_1
106		2.0				1.0	1.0							3.0	180.0	0.5430464958189987	3.0		3.0	1.0	7.0	7.0		part_1
107		2.0				1.0	0.0							3.0	404.0	0.3646944639622234	3.0		4.0	6.0	4.0	5.0		part_1
108		2.0				1.0	1.0							1.0	111.0	0.4666807044413872	1.0		2.0	4.0	6.0	3.0		part_1
109		2.0				1.0	0.0							3.0	0.0	0.3649603863595985	3.0		0.0	7.0	3.0	8.0		part_1
110		2.0				1.0	1.0							3.0	46.0	0.3877477559144609	3.0		1.0	2.0	5.0	1.0		part_1
111		2.0				1.0	0.0							1.0	0.0	0.4570401202654466	1.0		0.0	5.0	1.0	2.0		part_1
112		2.0				1.0	0.0							3.0	0.0	0.4911016369005665	3.0		0.0	5.0	1.0	2.0		part_1
113		2.0				1.0	1.0							3.0	59.0	0.390579842380248	3.0		1.0	2.0	5.0	1.0		part_1
114		2.0				1.0	0.0							1.0	0.0	0.4355031483573839	1.0		0.0	7.0	3.0	8.0		part_1
115		2.0				1.0	0.0							3.0	34.0	0.3241738424403593	3.0		1.0	5.0	1.0	2.0		part_1
116		2.0				1.0	0.0							3.0	77.0	0.33457187697058544	3.0		2.0	3.0	2.0	4.0		part_1
117		2.0				1.0	1.0							4.0	214.0	0.4026884519844316	4.0		3.0	1.0	7.0	7.0		part_1
118		2.0				1.0	0.0							1.0	50.0	0.3706636703573167	1.0		1.0	5.0	1.0	2.0		part_1
119		2.0				1.0	0.0							4.0	105.0	0.3711841338081285	4.0		2.0	3.0	2.0	4.0		part_1
120		2.0				1.0	0.0							1.0	71.0	0.3599770262371749	1.0		1.0	5.0	1.0	2.0		part_1
121		2.0				1.0	1.0							4.0	104.0	0.4723460478126072	4.0		2.0	4.0	6.0	3.0		part_1
122		2.0				1.0	0.0							4.0	0.0	0.40766551037086174	4.0		0.0	7.0	3.0	8.0		part_1
123		2.0				1.0	0.0							4.0	214.0	0.3612943079788238	4.0		3.0	7.0	3.0	8.0		part_1
124		2.0				1.0	0.0							2.0	55.0	0.3185005919658579	2.0		1.0	5.0	1.0	2.0		part_1
125		2.0				1.0	1.0							4.0	420.0	0.4521448742598295	4.0		4.0	8.0	8.0	6.0		part_1
126		2.0				1.0	0.0							1.0	224.0	0.31805071741109714	1.0		3.0	7.0	3.0	8.0		part_1
127		2.0				1.0	1.0							1.0	0.0	0.3096221347805113	1.0		0.0	4.0	6.0	3.0		part_1
128		2.0				2.0	0.0							1.0	179.0	0.4442785179708153	1.0		3.0	7.0	3.0	8.0		part_1
129		2.0				1.0	1.0							1.0	0.0	0.3776015029288829	1.0		0.0	1.0	7.0	7.0		part_1
130		2.0				1.0	0.0							4.0	216.0	0.4790619323030114	4.0		3.0	7.0	3.0	8.0		part_1
131		2.0				1.0	1.0							4.0	389.0	0.38951902894768864	4.0		4.0	8.0	8.0	6.0		part_1
132		2.0				1.0	0.0							4.0	0.0	0.44699435227084905	4.0		0.0	7.0	3.0	8.0		part_1
133		2.0				1.0	0.0							1.0	0.0	0.458058743912261	1.0		0.0	3.0	2.0	4.0		part_1
134		2.0				1.0	0.0							2.0	390.0	0.4707912364392541	2.0		4.0	6.0	4.0	5.0		part_1
135		2.0				1.0	0.0							3.0	62.0	0.5368845844059251	3.0		1.0	5.0	1.0	2.0		part_1
136		2.0				1.0	0.0							4.0	191.0	0.5943378074443899	4.0		3.0	7.0	3.0	8.0		part_1
137		2.0				1.0	1.0							3.0	184.0	0.4478765112580732	3.0		3.0	1.0	7.0	7.0		part_1
138		2.0				1.0	0.0							3.0	0.0	0.3717992498422973	3.0		0.0	6.0	4.0	5.0		part_1
139		2.0				1.0	0.0							3.0	105.0	0.3936534554231912	3.0		2.0	3.0	2.0	4.0		part_1
140		2.0				1.0	1.0							3.0	0.0	0.3609373409999535	3.0		0.0	4.0	6.0	3.0		part_1
141		2.0				1.0	0.0							1.0	399.0	0.4404167549218983	1.0		4.0	6.0	4.0	5.0		part_1
142		2.0				1.0	1.0							1.0	0.0	0.5082345938426442	1.0		0.0	4.0	6.0	3.0		part_1
143		2.0				1.0	1.0							2.0	210.0	0.3845832799561322	2.0		3.0	1.0	7.0	7.0		part_1
144		2.0				1.0	1.0							4.0	192.0	0.5993580098147504	4.0		3.0	1.0	7.0	7.0		part_1
145		2.0				1.0	1.0							3.0	0.0	0.4871264539542608	3.0		0.0	1.0	7.0	7.0		part_1
146		2.0				1.0	0.0							3.0	175.0	0.4886575798154809	3.0		3.0	7.0	3.0	8.0		part_1
147		2.0				1.0	0.0							2.0	0.0	0.3760933963349089	2.0		0.0	6.0	4.0	5.0		part_1
148		2.0				1.0	0.0							2.0	78.0	0.4001354083884507	2.0		2.0	3.0	2.0	4.0		part_1
149		2.0				1.0	0.0							1.0	108.0	0.5453863193979487	1.0		2.0	3.0	2.0	4.0		part_1
150		2.0				1.0	1.0							1.0	409.0	0.4560037024202757	1.0		4.0	8.0	8.0	6.0		part_1
151		2.0				1.0	0.0							3.0	123.0	0.39002364984480653	3.0		2.0	3.0	2.0	4.0		part_1
152		2.0				1.0	1.0							3.0	399.0	0.41100705595454207	3.0		4.0	8.0	8.0	6.0		part_1
153		2.0				1.0	0.0							3.0	185.0	0.3678613009396941	3.0		3.0	7.0	3.0	8.0		part_1
154		2.0				1.0	0.0							4.0	67.0	0.4370952873141505	4.0		1.0	5.0	1.0	2.0		part_1
155		2.0				1.0	1.0							3.0	95.0	0.425133868411649	3.0		2.0	4.0	6.0	3.0		part_1
156		2.0				1.0	1.0							3.0	36.0	0.3573030519182794	3.0		1.0	2.0	5.0	1.0		part_1
157		2.0				1.0	1.0							1.0	32.0	0.40530026535270736	1.0		1.0	2.0	5.0	1.0		part_1
158		2.0				2.0	1.0							4.0	33.0	0.5184208584832959	4.0		1.0	2.0	5.0	1.0		part_1
159		2.0				1.0	0.0							4.0	104.0	0.4287328763748519	4.0		2.0	3.0	2.0	4.0		part_1
160		2.0				1.0	0.0							4.0	0.0	0.4170889290398918	4.0		0.0	5.0	1.0	2.0		part_1
161		2.0				1.0	0.0							4.0	69.0	0.3849402279010974	4.0		1.0	5.0	1.0	2.0		part_1
162		2.0				1.0	0.0							3.0	105.0	0.42889598943293095	3.0		2.0	3.0	2.0	4.0		part_1
163		2.0				1.0	1.0							1.0	71.0	0.4537811184418388	1.0		1.0	2.0	5.0	1.0		part_1
164		2.0				1.0	1.0							2.0	94.0	0.3972211569780484	2.0		2.0	4.0	6.0	3.0		part_1
165		2.0				1.0	1.0							2.0	377.0	0.4540499964496121	2.0		4.0	8.0	8.0	6.0		part_1
166		2.0				1.0	1.0							4.0	215.0	0.4091743629542179	4.0		3.0	1.0	7.0	7.0		part_1
167		2.0				1.0	1.0							1.0	38.0	0.4104430869920179	1.0		1.0	2.0	5.0	1.0		part_1
168		2.0				1.0	1.0							4.0	212.0	0.5686544564669019	4.0		3.0	1.0	7.0	7.0		part_1
169		2.0				1.0	0.0							2.0	92.0	0.4905827088514343	2.0		2.0	3.0	2.0	4.0		part_1
170		2.0				1.0	1.0							1.0	95.0	0.3660495804506354	1.0		2.0	4.0	6.0	3.0		part_1
171		2.0				1.0	1.0							4.0	407.0	0.3672857763594948	4.0		4.0	8.0	8.0	6.0		part_1
172		2.0				1.0	1.0							2.0	0.0	0.3450682059628889	2.0		0.0	8.0	8.0	6.0		part_1
173		2.0				1.0	1.0							2.0	0.0	0.3680118818301708	2.0		0.0	8.0	8.0	6.0		part_1
174		2.0				1.0	1.0							3.0	123.0	0.39079547638539225	3.0		2.0	4.0	6.0	3.0		part_1
175		2.0				1.0	0.0							1.0	61.0	0.5051321163773537	1.0		1.0	5.0	1.0	2.0		part_1
176		2.0				1.0	0.0							2.0	186.0	0.3924720909562893	2.0		3.0	7.0	3.0	8.0		part_1
177		2.0				1.0	0.0							4.0	98.0	0.3827186619746499	4.0		2.0	3.0	2.0	4.0		part_1
178		2.0				1.0	0.0							1.0	377.0	0.37040046940092	1.0		4.0	6.0	4.0	5.0		part_1
179		2.0				1.0	1.0							4.0	55.0	0.41827766835922375	4.0		1.0	2.0	5.0	1.0		part_1
180		2.0				1.0	0.0							3.0	188.0	0.4956024028360844	3.0		3.0	7.0	3.0	8.0		part_1
181		2.0				1.0	1.0							1.0	29.0	0.3611927683814429	1.0		1.0	2.0	5.0	1.0		part_1
182		2.0				1.0	0.0							2.0	192.0	0.4294352745055221	2.0		3.0	7.0	3.0	8.0		part_1
183		2.0				1.0	0.0							2.0	0.0	0.5417937018210068	2.0		0.0	6.0	4.0	5.0		part_1
184		2.0				1.0	1.0							2.0	205.0	0.3403209844254889	2.0		3.0	1.0	7.0	7.0		part_1
185		2.0				1.0	1.0							1.0	115.0	0.5218419573502615	1.0		2.0	4.0	6.0	3.0		part_1
186		2.0				1.0	0.0							4.0	42.0	0.42049507197225466	4.0		1.0	5.0	1.0	2.0		part_1
187		2.0				1.0	1.0							1.0	49.0	0.5443143709562719	1.0		1.0	2.0	5.0	1.0		part_1
188		2.0				1.0	0.0							4.0	411.0	0.6342893034452572	4.0		4.0	6.0	4.0	5.0		part_1
189		2.0				1.0	0.0							2.0	86.0	0.4781489754095674	2.0		2.0	3.0	2.0	4.0		part_1
190		2.0				1.0	1.0							1.0	412.0	0.4117465834133327	1.0		4.0	8.0	8.0	6.0		part_1
191		2.0				1.0	1.0							2.0	112.0	0.4684728778083809	2.0		2.0	4.0	6.0	3.0		part_1
192		2.0				1.0	0.0							3.0	193.0	0.3896816909546033	3.0		3.0	7.0	3.0	8.0		part_1
193		2.0				1.0	1.0							1.0	216.0	0.6503744510118851	1.0		3.0	1.0	7.0	7.0		part_1
194		2.0				1.0	1.0							2.0	102.0	0.5484775122604333	2.0		2.0	4.0	6.0	3.0		part_1
195		2.0				1.0	1.0							3.0	59.0	0.7638667839346454	3.0		1.0	2.0	5.0	1.0		part_1
196		2.0				2.0	0.0							2.0	115.0	0.4484861093806103	2.0		2.0	3.0	2.0	4.0		part_1
197		2.0				1.0	0.0							1.0	408.0	0.6646958324708976	1.0		4.0	6.0	4.0	5.0		part_1
198		2.0				1.0	0.0							2.0	33.0	0.3488081239629537	2.0		1.0	5.0	1.0	2.0		part_1
199		2.0				1.0	0.0							4.0	215.0	0.5080310443881899	4.0		3.0	7.0	3.0	8.0		part_1
200		3.0				1.0	1.0							2.0	412.0	0.3925451153772883	2.0		4.0	8.0	8.0	6.0		part_1
201		3.0				1.0	0.0							4.0	418.0	0.516294716973789	4.0		4.0	6.0	4.0	5.0		part_1
202		3.0				1.0	1.0							2.0	62.0	0.4035059169400483	2.0		1.0	2.0	5.0	1.0		part_1
203		3.0				1.0	0.0							1.0	399.0	0.2916368859587237	1.0		4.0	6.0	4.0	5.0		part_1
204		3.0				1.0	0.0							3.0	0.0	0.3953282799338922	3.0		0.0	7.0	3.0	8.0		part_1
205		3.0				1.0	1.0							4.0	0.0	0.3839253839687444	4.0		0.0	2.0	5.0	1.0		part_1
206		3.0				1.0	1.0							2.0	94.0	0.3061496003647335	2.0		2.0	4.0	6.0	3.0		part_1
207		3.0				1.0	1.0							2.0	180.0	0.3505154964514077	2.0		3.0	1.0	7.0	7.0		part_1
208		3.0				1.0	1.0							4.0	411.0	0.4529594249324873	4.0		4.0	8.0	8.0	6.0		part_1
209		3.0				1.0	1.0							2.0	384.0	0.3508778943796642	2.0		4.0	8.0	8.0	6.0		part_1
210		3.0				1.0	0.0							4.0	0.0	0.6334631864447147	4.0		0.0	5.0	1.0	2.0		part_1
211		3.0				1.0	0.0							1.0	121.0	0.3643587243859656	1.0		2.0	3.0	2.0	4.0		part_1
212		3.0				1.0	0.0							4.0	0.0	0.3981258473359048	4.0		0.0	3.0	2.0	4.0		part_1
213		3.0				1.0	0.0							2.0	0.0	0.386865857988596	2.0		0.0	5.0	1.0	2.0		part_1
214		3.0				1.0	0.0							4.0	205.0	0.5675845057703555	4.0		3.0	7.0	3.0	8.0		part_1
215		3.0				1.0	1.0							2.0	70.0	0.5686920423759148	2.0		1.0	2.0	5.0	1.0		part_1
216		3.0				1.0	0.0							2.0	70.0	0.4011123134405352	2.0		1.0	5.0	1.0	2.0		part_1
217		3.0				1.0	0.0							2.0	412.0	0.43550639995373785	2.0		4.0	6.0	4.0	5.0		part_1
218		3.0				1.0	0.0							2.0	0.0	0.3462181242648512	2.0		0.0	6.0	4.0	5.0		part_1
219		3.0				1.0	1.0							3.0	110.0	0.4572801468311809	3.0		2.0	4.0	6.0	3.0		part_1
220		3.0				1.0	0.0							1.0	71.0	0.3572647033142857	1.0		1.0	5.0	1.0	2.0		part_1
221		3.0				1.0	1.0							3.0	40.0	0.3689470199751668	3.0		1.0	2.0	5.0	1.0		part_1
222		3.0				1.0	1.0							2.0	193.0	0.27995472797192633	2.0		3.0	1.0	7.0	7.0		part_1
223		3.0				1.0	1.0							4.0	25.0	0.3467574819806032	4.0		1.0	2.0	5.0	1.0		part_1
224		3.0				1.0	1.0							3.0	0.0	0.3927668484393507	3.0		0.0	2.0	5.0	1.0		part_1
225		3.0				1.0	1.0							3.0	115.0	0.4602664429694414	3.0		2.0	4.0	6.0	3.0		part_1
226		3.0				1.0	0.0							4.0	0.0	0.33808526844950393	4.0		0.0	3.0	2.0	4.0		part_1
227		3.0				1.0	1.0							3.0	0.0	0.4167556748725474	3.0		0.0	1.0	7.0	7.0		part_1
228		3.0				1.0	0.0							2.0	184.0	0.36124082800233737	2.0		3.0	7.0	3.0	8.0		part_1
229		3.0				1.0	0.0							3.0	25.0	0.4192726638866589	3.0		1.0	5.0	1.0	2.0		part_1
230		3.0				1.0	0.0							1.0	0.0	0.3869829750037752	1.0		0.0	6.0	4.0	5.0		part_1
231		3.0				1.0	0.0							3.0	111.0	0.4410641494905576	3.0		2.0	3.0	2.0	4.0		part_1
232		3.0				1.0	0.0							1.0	180.0	0.4435788523987867	1.0		3.0	7.0	3.0	8.0		part_1
233		3.0				1.0	1.0							3.0	399.0	0.4766584974713624	3.0		4.0	8.0	8.0	6.0		part_1
234		3.0				1.0	1.0							3.0	206.0	0.465567029255908	3.0		3.0	1.0	7.0	7.0		part_1
235		3.0				1.0	0.0							1.0	48.0	0.7815571089740843	1.0		1.0	5.0	1.0	2.0		part_1
236		3.0				1.0	1.0							3.0	65.0	0.3996972704771906	3.0		1.0	2.0	5.0	1.0		part_1
237		3.0				1.0	1.0							4.0	91.0	0.4341882513836026	4.0		2.0	4.0	6.0	3.0		part_1
238		3.0				1.0	1.0							1.0	418.0	0.41229331580689177	1.0		4.0	8.0	8.0	6.0		part_1
239		3.0				1.0	1.0							3.0	0.0	0.3450055964058265	3.0		0.0	1.0	7.0	7.0		part_1
240		3.0				1.0	0.0							3.0	219.0	0.5594586853985675	3.0		3.0	7.0	3.0	8.0		part_1
241		3.0				1.0	0.0							2.0	0.0	0.3580492030014284	2.0		0.0	3.0	2.0	4.0		part_1
242		3.0				1.0	0.0							2.0	215.0	0.5506760284188204	2.0		3.0	7.0	3.0	8.0		part_1
243		3.0				1.0	0.0							1.0	96.0	0.6070065619423985	1.0		2.0	3.0	2.0	4.0		part_1
244		3.0				1.0	1.0							2.0	0.0	0.6075137048610486	2.0		0.0	4.0	6.0	3.0		part_1
245		3.0				1.0	0.0							1.0	420.0	0.5523237509769388	1.0		4.0	6.0	4.0	5.0		part_1
246		3.0				1.0	1.0							4.0	0.0	0.6304462664411403	4.0		0.0	8.0	8.0	6.0		part_1
247		3.0				1.0	0.0							4.0	184.0	0.4275723089231178	4.0		3.0	7.0	3.0	8.0		part_1
248		3.0				1.0	0.0							3.0	192.0	0.4954474034020677	3.0		3.0	7.0	3.0	8.0		part_1
249		3.0				1.0	0.0							1.0	32.0	0.3185755967861041	1.0		1.0	5.0	1.0	2.0		part_1
250		3.0				1.0	1.0							1.0	0.0	0.5540916378377005	1.0		0.0	2.0	5.0	1.0		part_1
251		3.0				1.0	1.0							4.0	418.0	0.4198998793726787	4.0		4.0	8.0	8.0	6.0		part_1
252		3.0				1.0	1.0							3.0	34.0	0.41957854537758976	3.0		1.0	2.0	5.0	1.0		part_1
253		3.0				1.0	0.0							3.0	115.0	0.4883754339534789	3.0		2.0	3.0	2.0	4.0		part_1
254		3.0				1.0	0.0							1.0	112.0	0.3777223197976127	1.0		2.0	3.0	2.0	4.0		part_1
255		3.0				1.0	1.0							3.0	205.0	0.3995168652618304	3.0		3.0	1.0	7.0	7.0		part_1
256		3.0				1.0	1.0							2.0	0.0	0.35595868894597515	2.0		0.0	8.0	8.0	6.0		part_1
257		3.0				1.0	0.0							1.0	383.0	0.4912291273940354	1.0		4.0	6.0	4.0	5.0		part_1
258		3.0				1.0	0.0							2.0	87.0	0.4177764999913052	2.0		2.0	3.0	2.0	4.0		part_1
259		3.0				1.0	1.0							2.0	404.0	0.5422338499920443	2.0		4.0	8.0	8.0	6.0		part_1
260		3.0				1.0	0.0							3.0	94.0	0.4627616209327243	3.0		2.0	3.0	2.0	4.0		part_1
261		3.0				1.0	0.0							1.0	95.0	0.4420496309758164	1.0		2.0	3.0	2.0	4.0		part_1
262		3.0				1.0	0.0							2.0	392.0	0.3420637792441994	2.0		4.0	6.0	4.0	5.0		part_1
263		3.0				1.0	1.0							4.0	78.0	0.3876166609697975	4.0		2.0	4.0	6.0	3.0		part_1
264		3.0				1.0	0.0							3.0	91.0	0.6571122998138891	3.0		2.0	3.0	2.0	4.0		part_1
265		3.0				1.0	1.0							3.0	96.0	0.3770605508470908	3.0		2.0	4.0	6.0	3.0		part_1
266		3.0				1.0	0.0							4.0	0.0	0.7475242250948213	4.0		0.0	7.0	3.0	8.0		part_1
267		3.0				1.0	0.0							1.0	401.0	0.3320540959248319	1.0		4.0	6.0	4.0	5.0		part_1
268		3.0				1.0	0.0							4.0	0.0	0.4572444984223694	4.0		0.0	5.0	1.0	2.0		part_1
269		3.0				1.0	1.0							3.0	0.0	0.4003412093734369	3.0		0.0	2.0	5.0	1.0		part_1
270		3.0				1.0	0.0							2.0	56.0	0.4255875078379177	2.0		1.0	5.0	1.0	2.0		part_1
271		3.0				1.0	0.0							1.0	100.0	0.3915390588226728	1.0		2.0	3.0	2.0	4.0		part_1
272		3.0				1.0	1.0							2.0	194.0	0.5036358493380249	2.0		3.0	1.0	7.0	7.0		part_1
273		3.0				1.0	0.0							3.0	0.0	0.3690607610042207	3.0		0.0	7.0	3.0	8.0		part_1
274		3.0				1.0	1.0							3.0	418.0	0.3694980339496397	3.0		4.0	8.0	8.0	6.0		part_1
275		3.0				1.0	1.0							1.0	105.0	0.383868656354025	1.0		2.0	4.0	6.0	3.0		part_1
276		3.0				1.0	1.0							2.0	0.0	0.3276169028249569	2.0		0.0	4.0	6.0	3.0		part_1
277		3.0				1.0	0.0							3.0	56.0	0.5528369479579851	3.0		1.0	5.0	1.0	2.0		part_1
278		3.0				1.0	0.0							3.0	384.0	0.4743531243875623	3.0		4.0	6.0	4.0	5.0		part_1
279		3.0				1.0	0.0							2.0	385.0	0.5323089719749987	2.0		4.0	6.0	4.0	5.0		part_1
280		3.0				1.0	1.0							3.0	408.0	0.4305477559100837	3.0		4.0	8.0	8.0	6.0		part_1
281		3.0				1.0	0.0							2.0	80.0	0.3520612904685549	2.0		2.0	3.0	2.0	4.0		part_1
282		3.0				1.0	0.0							2.0	83.0	0.3976528069470078	2.0		2.0	3.0	2.0	4.0		part_1
283		3.0				1.0	1.0							4.0	396.0	0.4427597814355977	4.0		4.0	8.0	8.0	6.0		part_1
284		3.0				1.0	0.0							4.0	181.0	0.5330425872234628	4.0		3.0	7.0	3.0	8.0		part_1
285		3.0				1.0	1.0							2.0	81.0	0.3311210988904349	2.0		2.0	4.0	6.0	3.0		part_1
286		3.0				1.0	1.0							3.0	179.0	0.5353015458676964	3.0		3.0	1.0	7.0	7.0		part_1
287		3.0				1.0	1.0							2.0	401.0	0.4571428143535741	2.0		4.0	8.0	8.0	6.0		part_1
288		3.0				1.0	0.0							3.0	379.0	0.4669557198067196	3.0		4.0	6.0	4.0	5.0		part_1
289		3.0				1.0	0.0							4.0	0.0	0.5252654804498889	4.0		0.0	7.0	3.0	8.0		part_1
290		3.0				1.0	1.0							2.0	67.0	0.4243983483756893	2.0		1.0	2.0	5.0	1.0		part_1
291		3.0				1.0	0.0							2.0	102.0	0.35777591430814937	2.0		2.0	3.0	2.0	4.0		part_1
292		3.0				1.0	1.0							4.0	86.0	0.5263906662585214	4.0		2.0	4.0	6.0	3.0		part_1
293		3.0				1.0	1.0							2.0	379.0	0.40466928441310296	2.0		4.0	8.0	8.0	6.0		part_1
294		3.0				1.0	1.0							3.0	181.0	0.6180526449461468	3.0		3.0	1.0	7.0	7.0		part_1
295		3.0				1.0	1.0							4.0	42.0	0.4609163898858242	4.0		1.0	2.0	5.0	1.0		part_1
296		3.0				1.0	1.0							3.0	32.0	0.4604097089031711	3.0		1.0	2.0	5.0	1.0		part_1
297		3.0				1.0	1.0							4.0	208.0	0.4834381409455091	4.0		3.0	1.0	7.0	7.0		part_1
298		3.0				1.0	1.0							1.0	105.0	0.4173291334300302	1.0		2.0	4.0	6.0	3.0		part_1
299		3.0				1.0	1.0							3.0	376.0	0.4062474833917804	3.0		4.0	8.0	8.0	6.0		part_1
300		4.0				1.0	0.0							1.0	388.0	0.36122534493915737	1.0		4.0	6.0	4.0	5.0		part_1
301		4.0				1.0	1.0							2.0	408.0	0.3293955983244814	2.0		4.0	8.0	8.0	6.0		part_1
302		4.0				1.0	0.0							3.0	411.0	0.3506260373978876	3.0		4.0	6.0	4.0	5.0		part_1
303		4.0				1.0	1.0							1.0	71.0	0.3309245222480968	1.0		1.0	2.0	5.0	1.0		part_1
304		4.0				1.0	0.0							4.0	0.0	0.40935118787456304	4.0		0.0	6.0	4.0	5.0		part_1
305		4.0				1.0	0.0							4.0	95.0	0.4429618274443783	4.0		2.0	3.0	2.0	4.0		part_1
306		4.0				1.0	1.0							3.0	0.0	0.465951322868932	3.0		0.0	4.0	6.0	3.0		part_1
307		4.0				1.0	1.0							4.0	54.0	0.3994676439906471	4.0		1.0	2.0	5.0	1.0		part_1
308		4.0				1.0	0.0							4.0	94.0	0.42382936738431454	4.0		2.0	3.0	2.0	4.0		part_1
309		4.0				1.0	0.0							3.0	0.0	0.4334874759078957	3.0		0.0	7.0	3.0	8.0		part_1
310		4.0				1.0	0.0							2.0	199.0	0.35581818444188684	2.0		3.0	7.0	3.0	8.0		part_1
311		4.0				1.0	0.0							2.0	389.0	0.34484692936530337	2.0		4.0	6.0	4.0	5.0		part_1
312		4.0				1.0	1.0							4.0	192.0	0.4591308393864893	4.0		3.0	1.0	7.0	7.0		part_1
313		4.0				1.0	1.0							2.0	51.0	0.3461210603709333	2.0		1.0	2.0	5.0	1.0		part_1
314		4.0				1.0	1.0							1.0	386.0	0.3481756329420023	1.0		4.0	8.0	8.0	6.0		part_1
315		4.0				1.0	0.0							2.0	0.0	0.5063928043819033	2.0		0.0	6.0	4.0	5.0		part_1
316		4.0				1.0	1.0							2.0	224.0	0.3704888799693435	2.0		3.0	1.0	7.0	7.0		part_1
317		4.0				1.0	0.0							4.0	62.0	0.3828143092105165	4.0		1.0	5.0	1.0	2.0		part_1
318		4.0				1.0	0.0							3.0	177.0	0.43892505898838863	3.0		3.0	7.0	3.0	8.0		part_1
319		4.0				1.0	1.0							1.0	0.0	0.3828381018247456	1.0		0.0	2.0	5.0	1.0		part_1
320		4.0				1.0	1.0							4.0	0.0	0.4511483103851788	4.0		0.0	8.0	8.0	6.0		part_1
321		4.0				1.0	0.0							2.0	0.0	0.2849886504118331	2.0		0.0	5.0	1.0	2.0		part_1
322		4.0				1.0	1.0							3.0	56.0	0.3739784358185716	3.0		1.0	2.0	5.0	1.0		part_1
323		4.0				1.0	0.0							4.0	206.0	0.4202522099367343	4.0		3.0	7.0	3.0	8.0		part_1
324		4.0				1.0	0.0							1.0	207.0	0.2965582189499401	1.0		3.0	7.0	3.0	8.0		part_1
325		4.0				1.0	1.0							3.0	61.0	0.41030918242177	3.0		1.0	2.0	5.0	1.0		part_1
326		4.0				1.0	1.0							2.0	195.0	0.3203382919309661	2.0		3.0	1.0	7.0	7.0		part_1
327		4.0				1.0	0.0							3.0	52.0	0.38867898780154064	3.0		1.0	5.0	1.0	2.0		part_1
328		4.0				1.0	1.0							3.0	0.0	0.4221464759320952	3.0		0.0	8.0	8.0	6.0		part_1
329		4.0				1.0	1.0							1.0	184.0	0.5028277068631724	1.0		3.0	1.0	7.0	7.0		part_1
330		4.0				1.0	1.0							2.0	0.0	0.3907146353740245	2.0		0.0	2.0	5.0	1.0		part_1
331		4.0				1.0	0.0							2.0	225.0	0.35632362542673945	2.0		3.0	7.0	3.0	8.0		part_1
332		4.0				1.0	1.0							3.0	94.0	0.4682249658508226	3.0		2.0	4.0	6.0	3.0		part_1
333		4.0				1.0	0.0							2.0	418.0	0.3118065489106812	2.0		4.0	6.0	4.0	5.0		part_1
334		4.0				1.0	1.0							2.0	62.0	0.4023445523926057	2.0		1.0	2.0	5.0	1.0		part_1
335		4.0				1.0	1.0							4.0	77.0	0.4608994189184159	4.0		2.0	4.0	6.0	3.0		part_1
336		4.0				1.0	0.0							1.0	224.0	0.4039643958094529	1.0		3.0	7.0	3.0	8.0		part_1
337		4.0				1.0	1.0							2.0	225.0	0.3031107608694583	2.0		3.0	1.0	7.0	7.0		part_1
338		4.0				1.0	1.0							2.0	100.0	0.4168770013493486	2.0		2.0	4.0	6.0	3.0		part_1
339		4.0				1.0	1.0							1.0	399.0	0.4279368348652497	1.0		4.0	8.0	8.0	6.0		part_1
340		4.0				1.0	1.0							4.0	188.0	0.4172876328229904	4.0		3.0	1.0	7.0	7.0		part_1
341		4.0				1.0	1.0							1.0	212.0	0.485518146364484	1.0		3.0	1.0	7.0	7.0		part_1
342		4.0				1.0	1.0							2.0	27.0	0.2942315109539777	2.0		1.0	2.0	5.0	1.0		part_1
343		4.0				1.0	1.0							1.0	0.0	0.3758219608571381	1.0		0.0	1.0	7.0	7.0		part_1
344		4.0				1.0	1.0							4.0	0.0	0.3428030399372801	4.0		0.0	4.0	6.0	3.0		part_1
345		4.0				1.0	0.0							4.0	412.0	0.35288515232969075	4.0		4.0	6.0	4.0	5.0		part_1
346		4.0				1.0	0.0							2.0	212.0	0.3414830423425883	2.0		3.0	7.0	3.0	8.0		part_1
347		4.0				1.0	1.0							2.0	0.0	0.3439760672627017	2.0		0.0	2.0	5.0	1.0		part_1
348		4.0				1.0	0.0							3.0	0.0	0.4323737543891184	3.0		0.0	6.0	4.0	5.0		part_1
349		4.0				1.0	0.0							3.0	0.0	0.4454136334243231	3.0		0.0	3.0	2.0	4.0		part_1
350		4.0				1.0	1.0							1.0	87.0	0.4469383018440567	1.0		2.0	4.0	6.0	3.0		part_1
351		4.0				1.0	0.0							3.0	407.0	0.40015910583315417	3.0		4.0	6.0	4.0	5.0		part_1
352		4.0				1.0	0.0							4.0	417.0	0.4018563744612038	4.0		4.0	6.0	4.0	5.0		part_1
353		4.0				1.0	1.0							4.0	52.0	0.3675513254711405	4.0		1.0	2.0	5.0	1.0		part_1
354		4.0				1.0	1.0							3.0	411.0	0.5149268879322335	3.0		4.0	8.0	8.0	6.0		part_1
355		4.0				1.0	0.0							1.0	31.0	0.5381898898049258	1.0		1.0	5.0	1.0	2.0		part_1
356		4.0				1.0	1.0							3.0	123.0	0.5164767322712578	3.0		2.0	4.0	6.0	3.0		part_1
357		4.0				1.0	1.0							4.0	408.0	0.4041184473317117	4.0		4.0	8.0	8.0	6.0		part_1
358		4.0				1.0	1.0							4.0	390.0	0.3837896373588592	4.0		4.0	8.0	8.0	6.0		part_1
359		4.0				1.0	0.0							4.0	399.0	0.3828893479658291	4.0		4.0	6.0	4.0	5.0		part_1
360		4.0				1.0	1.0							2.0	377.0	0.3739510903833434	2.0		4.0	8.0	8.0	6.0		part_1
361		4.0				1.0	1.0							1.0	0.0	0.5640348863671534	1.0		0.0	2.0	5.0	1.0		part_1
362		4.0				1.0	1.0							4.0	86.0	0.4069127233815379	4.0		2.0	4.0	6.0	3.0		part_1
363		4.0				1.0	1.0							1.0	0.0	0.4200807004235685	1.0		0.0	1.0	7.0	7.0		part_1
364		4.0				1.0	1.0							1.0	0.0	0.4422640389529988	1.0		0.0	4.0	6.0	3.0		part_1
365		4.0				1.0	0.0							2.0	46.0	0.4424884184263647	2.0		1.0	5.0	1.0	2.0		part_1
366		4.0				1.0	0.0							4.0	376.0	0.39772829436697066	4.0		4.0	6.0	4.0	5.0		part_1
367		4.0				1.0	1.0							2.0	0.0	0.3427186494227499	2.0		0.0	8.0	8.0	6.0		part_1
368		4.0				1.0	0.0							1.0	0.0	0.31060130399418995	1.0		0.0	6.0	4.0	5.0		part_1
369		4.0				1.0	0.0							2.0	212.0	0.4898736154427752	2.0		3.0	7.0	3.0	8.0		part_1
370		4.0				1.0	1.0							2.0	83.0	0.4447068003937602	2.0		2.0	4.0	6.0	3.0		part_1
371		4.0				1.0	0.0							1.0	94.0	0.34558018494863063	1.0		2.0	3.0	2.0	4.0		part_1
372		4.0				1.0	0.0							2.0	32.0	0.3784868189250119	2.0		1.0	5.0	1.0	2.0		part_1
373		4.0				1.0	0.0							3.0	400.0	0.3896142194280401	3.0		4.0	6.0	4.0	5.0		part_1
374		4.0				1.0	0.0							3.0	0.0	0.4577822755090892	3.0		0.0	5.0	1.0	2.0		part_1
375		4.0				1.0	1.0							2.0	375.0	0.3468018125859089	2.0		4.0	8.0	8.0	6.0		part_1
376		4.0				2.0	0.0							1.0	81.0	0.4035805835737847	1.0		2.0	3.0	2.0	4.0		part_1
377		4.0				1.0	1.0							4.0	0.0	0.5277459594653919	4.0		0.0	2.0	5.0	1.0		part_1
378		4.0				1.0	0.0							3.0	97.0	0.4044732020120136	3.0		2.0	3.0	2.0	4.0		part_1
379		4.0				1.0	0.0							3.0	408.0	0.3709277769667096	3.0		4.0	6.0	4.0	5.0		part_1
380		4.0				1.0	0.0							1.0	189.0	0.33919239189708605	1.0		3.0	7.0	3.0	8.0		part_1
381		4.0				1.0	0.0							3.0	0.0	0.3513908518361859	3.0		0.0	3.0	2.0	4.0		part_1
382		4.0				1.0	1.0							4.0	73.0	0.41913523635594174	4.0		1.0	2.0	5.0	1.0		part_1
383		4.0				1.0	0.0							2.0	49.0	0.4317607324337587	2.0		1.0	5.0	1.0	2.0		part_1
384		4.0				1.0	1.0							1.0	388.0	0.4889813489280641	1.0		4.0	8.0	8.0	6.0		part_1
385		4.0				2.0	1.0							4.0	74.0	0.3975104769342579	4.0		1.0	2.0	5.0	1.0		part_1
386		4.0				1.0	0.0							1.0	194.0	0.3761009509325959	1.0		3.0	7.0	3.0	8.0		part_1
387		4.0				1.0	0.0							4.0	394.0	0.37835545639973134	4.0		4.0	6.0	4.0	5.0		part_1
388		4.0				1.0	1.0							1.0	102.0	0.4464876464335248	1.0		2.0	4.0	6.0	3.0		part_1
389		4.0				1.0	1.0							2.0	0.0	0.4683023230172694	2.0		0.0	8.0	8.0	6.0		part_1
390		4.0				1.0	1.0							3.0	207.0	0.6609758410486393	3.0		3.0	1.0	7.0	7.0		part_1
391		4.0				1.0	0.0							1.0	59.0	0.4819144003558904	1.0		1.0	5.0	1.0	2.0		part_1
392		4.0				1.0	0.0							4.0	102.0	0.4238707358017564	4.0		2.0	3.0	2.0	4.0		part_1
393		4.0				1.0	0.0							2.0	195.0	0.357684317859821	2.0		3.0	7.0	3.0	8.0		part_1
394		4.0				1.0	0.0							4.0	377.0	0.5169225598801859	4.0		4.0	6.0	4.0	5.0		part_1
395		4.0				1.0	1.0							2.0	81.0	0.42742443294264376	2.0		2.0	4.0	6.0	3.0		part_1
396		4.0				1.0	0.0							3.0	418.0	0.5291583828511648	3.0		4.0	6.0	4.0	5.0		part_1
397		4.0				1.0	0.0							2.0	386.0	0.4402485314640217	2.0		4.0	6.0	4.0	5.0		part_1
398		4.0				1.0	1.0							1.0	0.0	0.5417769778869115	1.0		0.0	1.0	7.0	7.0		part_1
399		4.0				1.0	1.0							3.0	0.0	0.3939406419522129	3.0		0.0	4.0	6.0	3.0		part_1
0	1.0	1.0			250.0	0.0	1.0							5.0	0.0	0.8347840378410183	5.0	250.0	3.0	1.0	7.0	7.0	0.0	part_2
1	4.0	1.0			250.0	0.0	1.0							5.0	0.0	0.0	0.0	250.0	3.0	1.0	7.0	7.0	1.0	part_2
2	1.0	1.0			300.0	0.0	0.0							6.0	0.0	0.3071300188894384	6.0	250.0	1.0	5.0	1.0	2.0	0.0	part_2
3	3.0	1.0			300.0	0.0	1.0							5.0	0.0	0.3319470564601943	5.0	250.0	2.0	4.0	6.0	3.0	1.0	part_2
4	1.0	1.0			250.0	0.0	0.0							6.0	0.0	0.3205377188860439	6.0	250.0	4.0	6.0	4.0	5.0	0.0	part_2
5	1.0	1.0			250.0	0.0	0.0							6.0	0.0	0.34548189665656537	6.0	250.0	4.0	6.0	4.0	5.0	0.0	part_2
6	1.0	1.0			250.0	0.0	1.0							6.0	0.0	0.4245797097682953	6.0	250.0	1.0	2.0	5.0	1.0	0.0	part_2
7	3.0	1.0			250.0	0.0	1.0							5.0	0.0	0.3561313994578086	5.0	250.0	2.0	4.0	6.0	3.0	1.0	part_2
8	1.0	1.0			200.0	0.0	0.0							6.0	0.0	0.4146709228516556	6.0	250.0	1.0	5.0	1.0	2.0	0.0	part_2
9	1.0	1.0			200.0	0.0	0.0							5.0	0.0	0.4830984438885935	5.0	250.0	4.0	6.0	4.0	5.0	0.0	part_2
10	1.0	1.0			200.0	0.0	1.0							5.0	0.0	0.5171979368315078	5.0	250.0	2.0	4.0	6.0	3.0	0.0	part_2
11	3.0	1.0			200.0	0.0	1.0							6.0	0.0	0.41559335496276617	6.0	250.0	2.0	4.0	6.0	3.0	1.0	part_2
12	1.0	1.0			200.0	0.0	0.0							6.0	0.0	0.4634801027714275	6.0	200.0	2.0	3.0	2.0	4.0	0.0	part_2
13	1.0	1.0			200.0	0.0	0.0							5.0	0.0	0.4400473677087575	5.0	200.0	3.0	7.0	3.0	8.0	0.0	part_2
14	4.0	1.0			200.0	0.0	1.0							5.0	0.0	0.0	0.0	200.0	3.0	1.0	7.0	7.0	1.0	part_2
15	1.0	1.0			250.0	0.0	0.0							6.0	0.0	0.3756896097911522	6.0	200.0	1.0	5.0	1.0	2.0	0.0	part_2
16	4.0	1.0			250.0	0.0	1.0							5.0	0.0	0.0	0.0	200.0	3.0	1.0	7.0	7.0	1.0	part_2
17	1.0	1.0			300.0	0.0	1.0							6.0	0.0	0.4336348798824474	6.0	200.0	4.0	8.0	8.0	6.0	0.0	part_2
18	4.0	1.0			300.0	0.0	1.0							5.0	0.0	0.0	0.0	200.0	2.0	4.0	6.0	3.0	1.0	part_2
19	1.0	1.0			350.0	0.0	0.0							5.0	0.0	0.5461104846326634	5.0	200.0	1.0	5.0	1.0	2.0	0.0	part_2
20	1.0	1.0			350.0	0.0	1.0							5.0	0.0	0.7383726648404263	5.0	200.0	2.0	4.0	6.0	3.0	0.0	part_2
21	4.0	1.0			350.0	0.0	1.0							5.0	0.0	0.0	0.0	200.0	3.0	1.0	7.0	7.0	1.0	part_2
22	1.0	1.0			400.0	0.0	0.0							5.0	0.0	0.6845276087406091	5.0	200.0	4.0	6.0	4.0	5.0	0.0	part_2
23	4.0	1.0			400.0	0.0	1.0							5.0	0.0	0.0	0.0	200.0	4.0	8.0	8.0	6.0	1.0	part_2
24	1.0	1.0			450.0	0.0	0.0							5.0	0.0	0.6970174159505405	5.0	200.0	1.0	5.0	1.0	2.0	0.0	part_2
25	1.0	1.0			450.0	0.0	0.0							6.0	0.0	0.4497970838565379	6.0	200.0	4.0	6.0	4.0	5.0	0.0	part_2
26	4.0	1.0			450.0	0.0	1.0							6.0	0.0	0.0	0.0	200.0	2.0	4.0	6.0	3.0	1.0	part_2
27	1.0	1.0			450.0	0.0	1.0							5.0	0.0	0.3961044564493932	5.0	250.0	4.0	8.0	8.0	6.0	0.0	part_2
28	1.0	1.0			450.0	0.0	0.0							6.0	0.0	0.6438783421181142	6.0	250.0	1.0	5.0	1.0	2.0	0.0	part_2
29	1.0	1.0			450.0	0.0	0.0							5.0	0.0	0.4193895357311703	5.0	250.0	4.0	6.0	4.0	5.0	0.0	part_2
30	4.0	1.0			450.0	0.0	1.0							6.0	0.0	0.0	0.0	250.0	4.0	8.0	8.0	6.0	1.0	part_2
31	1.0	1.0			450.0	0.0	0.0							5.0	0.0	0.3876106230309233	5.0	300.0	2.0	3.0	2.0	4.0	0.0	part_2
32	1.0	1.0			450.0	0.0	0.0							6.0	0.0	0.5704832180053927	6.0	300.0	1.0	5.0	1.0	2.0	0.0	part_2
33	1.0	1.0			450.0	0.0	0.0							5.0	0.0	0.6373309605987743	5.0	300.0	4.0	6.0	4.0	5.0	0.0	part_2
34	1.0	1.0			450.0	0.0	0.0							6.0	0.0	0.5139192189672029	6.0	300.0	4.0	6.0	4.0	5.0	0.0	part_2
35	4.0	1.0			450.0	0.0	1.0							6.0	0.0	0.0	0.0	300.0	3.0	1.0	7.0	7.0	1.0	part_2
36	1.0	2.0			450.0	0.0	0.0							5.0	0.0	1.4434976418851877	5.0	350.0	4.0	6.0	4.0	5.0	0.0	part_2
37	1.0	2.0			450.0	0.0	0.0							6.0	0.0	0.3639214557479136	6.0	350.0	4.0	6.0	4.0	5.0	0.0	part_2
38	1.0	2.0			450.0	0.0	0.0							6.0	0.0	0.3534819596097805	6.0	350.0	4.0	6.0	4.0	5.0	0.0	part_2
39	3.0	2.0			450.0	0.0	1.0							6.0	0.0	0.34279848873848096	6.0	350.0	4.0	8.0	8.0	6.0	1.0	part_2
40	1.0	2.0			450.0	0.0	0.0							5.0	0.0	0.4013952538371086	5.0	300.0	3.0	7.0	3.0	8.0	0.0	part_2
41	1.0	2.0			450.0	0.0	0.0							5.0	0.0	0.4585000949446112	5.0	300.0	4.0	6.0	4.0	5.0	0.0	part_2
42	1.0	2.0			450.0	0.0	0.0							6.0	0.0	0.5599806858226657	6.0	300.0	4.0	6.0	4.0	5.0	0.0	part_2
43	4.0	2.0			450.0	0.0	1.0							6.0	0.0	0.0	0.0	300.0	1.0	2.0	5.0	1.0	1.0	part_2
44	3.0	2.0			450.0	0.0	1.0							6.0	0.0	0.426040031190496	6.0	350.0	4.0	8.0	8.0	6.0	1.0	part_2
45	1.0	2.0			450.0	0.0	0.0							6.0	0.0	0.73034999857191	6.0	300.0	2.0	3.0	2.0	4.0	0.0	part_2
46	1.0	2.0			450.0	0.0	1.0							6.0	0.0	0.8327706757117994	6.0	300.0	4.0	8.0	8.0	6.0	0.0	part_2
47	1.0	2.0			450.0	0.0	0.0							6.0	0.0	0.9247310568462126	6.0	300.0	1.0	5.0	1.0	2.0	0.0	part_2
48	1.0	2.0			450.0	0.0	0.0							6.0	0.0	0.5201422160025686	6.0	300.0	2.0	3.0	2.0	4.0	0.0	part_2
49	4.0	2.0			450.0	0.0	1.0							6.0	0.0	0.0	0.0	300.0	1.0	2.0	5.0	1.0	1.0	part_2
50	1.0	2.0			450.0	0.0	0.0							5.0	0.0	0.3965828608488664	5.0	350.0	1.0	5.0	1.0	2.0	0.0	part_2
51	4.0	2.0			450.0	0.0	1.0							5.0	0.0	0.0	0.0	350.0	4.0	8.0	8.0	6.0	1.0	part_2
52	1.0	2.0			500.0	0.0	0.0							5.0	0.0	0.4892042989376933	5.0	350.0	4.0	6.0	4.0	5.0	0.0	part_2
53	3.0	2.0			500.0	0.0	1.0							6.0	0.0	0.3427433465840295	6.0	350.0	3.0	1.0	7.0	7.0	1.0	part_2
54	3.0	2.0			500.0	0.0	1.0							5.0	0.0	0.4913926718872972	5.0	300.0	4.0	8.0	8.0	6.0	1.0	part_2
55	1.0	2.0			450.0	0.0	0.0							6.0	0.0	0.7950979238958098	6.0	300.0	4.0	6.0	4.0	5.0	0.0	part_2
56	1.0	2.0			450.0	0.0	0.0							5.0	0.0	0.7521654657321051	5.0	300.0	3.0	7.0	3.0	8.0	0.0	part_2
57	1.0	2.0			450.0	0.0	0.0							5.0	0.0	0.7851809486164711	5.0	300.0	2.0	3.0	2.0	4.0	0.0	part_2
58	4.0	2.0			450.0	0.0	1.0							6.0	0.0	0.0	0.0	300.0	2.0	4.0	6.0	3.0	1.0	part_2
59	4.0	2.0			450.0	0.0	1.0							6.0	0.0	0.0	0.0	350.0	1.0	2.0	5.0	1.0	1.0	part_2
60	1.0	2.0			450.0	0.0	0.0							6.0	0.0	0.6533189056208357	6.0	400.0	1.0	5.0	1.0	2.0	0.0	part_2
61	1.0	2.0			450.0	0.0	0.0							6.0	0.0	0.8670392969506793	6.0	400.0	3.0	7.0	3.0	8.0	0.0	part_2
62	4.0	2.0			450.0	0.0	1.0							5.0	0.0	0.0	0.0	400.0	4.0	8.0	8.0	6.0	1.0	part_2
63	3.0	2.0			500.0	0.0	1.0							5.0	0.0	0.4078571485588327	5.0	400.0	3.0	1.0	7.0	7.0	1.0	part_2
64	4.0	2.0			450.0	0.0	1.0							5.0	0.0	0.0	0.0	400.0	4.0	8.0	8.0	6.0	1.0	part_2
65	1.0	2.0			500.0	0.0	0.0							6.0	0.0	0.7355804956168868	6.0	400.0	4.0	6.0	4.0	5.0	0.0	part_2
66	1.0	2.0			500.0	0.0	0.0							5.0	0.0	0.8260530075058341	5.0	400.0	1.0	5.0	1.0	2.0	0.0	part_2
67	1.0	2.0			500.0	0.0	1.0							6.0	0.0	0.4796256226254627	6.0	400.0	4.0	8.0	8.0	6.0	0.0	part_2
68	1.0	2.0			500.0	0.0	0.0							5.0	0.0	0.6144400589982979	5.0	400.0	4.0	6.0	4.0	5.0	0.0	part_2
69	1.0	2.0			500.0	0.0	0.0							5.0	0.0	0.4922268367954529	5.0	400.0	4.0	6.0	4.0	5.0	0.0	part_2
70	3.0	2.0			500.0	0.0	1.0							6.0	0.0	0.3681094339699485	6.0	400.0	2.0	4.0	6.0	3.0	1.0	part_2
71	1.0	2.0			500.0	0.0	0.0							6.0	0.0	0.7180931589682586	6.0	350.0	3.0	7.0	3.0	8.0	0.0	part_2
72	3.0	3.0			500.0	0.0	1.0							6.0	0.0	0.5134460438275711	6.0	350.0	3.0	1.0	7.0	7.0	1.0	part_2
73	4.0	3.0			500.0	0.0	1.0							6.0	0.0	0.0	0.0	300.0	3.0	1.0	7.0	7.0	1.0	part_2
74	1.0	3.0			500.0	0.0	0.0							5.0	0.0	0.4705296769971028	5.0	350.0	2.0	3.0	2.0	4.0	0.0	part_2
75	4.0	3.0			500.0	0.0	1.0							6.0	0.0	0.0	0.0	350.0	2.0	4.0	6.0	3.0	1.0	part_2
76	3.0	3.0			500.0	0.0	1.0							6.0	0.0	0.3718635397381149	6.0	400.0	3.0	1.0	7.0	7.0	1.0	part_2
77	1.0	3.0			500.0	0.0	1.0							6.0	0.0	0.6747318926500157	6.0	350.0	3.0	1.0	7.0	7.0	0.0	part_2
78	1.0	3.0			500.0	0.0	1.0							6.0	0.0	0.3841768829734065	6.0	350.0	3.0	1.0	7.0	7.0	0.0	part_2
79	4.0	3.0			500.0	0.0	1.0							6.0	0.0	0.0	0.0	350.0	1.0	2.0	5.0	1.0	1.0	part_2
80	3.0	3.0			500.0	0.0	1.0							5.0	0.0	0.4756787808728404	5.0	400.0	1.0	2.0	5.0	1.0	1.0	part_2
81	1.0	3.0			450.0	0.0	0.0							6.0	0.0	0.6444410047843121	6.0	400.0	3.0	7.0	3.0	8.0	0.0	part_2
82	1.0	3.0			450.0	0.0	0.0							6.0	0.0	0.8476476278156042	6.0	400.0	3.0	7.0	3.0	8.0	0.0	part_2
83	1.0	3.0			450.0	0.0	0.0							6.0	0.0	0.4788268597912975	6.0	400.0	1.0	5.0	1.0	2.0	0.0	part_2
84	1.0	3.0			450.0	0.0	0.0							5.0	0.0	0.3900257238419727	5.0	400.0	3.0	7.0	3.0	8.0	0.0	part_2
85	1.0	3.0			450.0	0.0	0.0							6.0	0.0	0.36690895352512604	6.0	400.0	3.0	7.0	3.0	8.0	0.0	part_2
86	1.0	3.0			450.0	0.0	0.0							5.0	0.0	0.5155685364734381	5.0	400.0	2.0	3.0	2.0	4.0	0.0	part_2
87	1.0	3.0			450.0	0.0	0.0							5.0	0.0	0.4815622099558823	5.0	400.0	3.0	7.0	3.0	8.0	0.0	part_2
88	1.0	3.0			450.0	0.0	0.0							5.0	0.0	0.459045180643443	5.0	400.0	1.0	5.0	1.0	2.0	0.0	part_2
89	4.0	3.0			450.0	0.0	1.0							6.0	0.0	0.0	0.0	400.0	4.0	8.0	8.0	6.0	1.0	part_2
90	3.0	3.0			450.0	0.0	1.0							5.0	0.0	0.4830666619818658	5.0	450.0	3.0	1.0	7.0	7.0	1.0	part_2
91	1.0	3.0			400.0	0.0	0.0							5.0	0.0	0.857096754538361	5.0	450.0	1.0	5.0	1.0	2.0	0.0	part_2
92	4.0	3.0			400.0	0.0	1.0							5.0	0.0	0.0	0.0	450.0	4.0	8.0	8.0	6.0	1.0	part_2
93	1.0	3.0			450.0	0.0	1.0							5.0	0.0	0.9144968320033512	5.0	450.0	2.0	4.0	6.0	3.0	0.0	part_2
94	1.0	3.0			450.0	0.0	0.0							6.0	0.0	0.4539574926020578	6.0	450.0	2.0	3.0	2.0	4.0	0.0	part_2
95	1.0	3.0			450.0	0.0	0.0							5.0	0.0	0.9038797519751824	5.0	450.0	3.0	7.0	3.0	8.0	0.0	part_2
96	1.0	3.0			450.0	0.0	0.0							5.0	0.0	0.5900439947727136	5.0	450.0	4.0	6.0	4.0	5.0	0.0	part_2
97	3.0	3.0			450.0	0.0	1.0							5.0	0.0	0.5019846346694976	5.0	450.0	2.0	4.0	6.0	3.0	1.0	part_2
98	1.0	3.0			400.0	0.0	0.0							5.0	0.0	0.5924872306059115	5.0	450.0	2.0	3.0	2.0	4.0	0.0	part_2
99	1.0	3.0			400.0	0.0	0.0							6.0	0.0	0.4789806108456105	6.0	450.0	3.0	7.0	3.0	8.0	0.0	part_2
100	3.0	3.0			400.0	0.0	1.0							5.0	0.0	0.4700583315570839	5.0	450.0	1.0	2.0	5.0	1.0	1.0	part_2
101	4.0	3.0			350.0	0.0	1.0							5.0	0.0	0.0	0.0	450.0	4.0	8.0	8.0	6.0	1.0	part_2
102	1.0	3.0			400.0	0.0	0.0							5.0	0.0	0.7856344351312146	5.0	450.0	3.0	7.0	3.0	8.0	0.0	part_2
103	1.0	3.0			400.0	0.0	0.0							5.0	0.0	0.7976990086608566	5.0	450.0	2.0	3.0	2.0	4.0	0.0	part_2
104	3.0	3.0			400.0	0.0	1.0							6.0	0.0	0.5184504300705157	6.0	450.0	2.0	4.0	6.0	3.0	1.0	part_2
105	1.0	3.0			400.0	0.0	0.0							5.0	0.0	0.6081189260585234	5.0	400.0	3.0	7.0	3.0	8.0	0.0	part_2
106	3.0	3.0			400.0	0.0	1.0							5.0	0.0	0.5075777218444273	5.0	400.0	1.0	2.0	5.0	1.0	1.0	part_2
107	4.0	3.0			350.0	0.0	1.0							5.0	0.0	0.0	0.0	400.0	3.0	1.0	7.0	7.0	1.0	part_2
108	1.0	4.0			400.0	0.0	0.0							6.0	0.0	0.29542308795498684	6.0	400.0	4.0	6.0	4.0	5.0	0.0	part_2
109	3.0	4.0			400.0	0.0	1.0							6.0	0.0	0.3307302268804051	6.0	400.0	2.0	4.0	6.0	3.0	1.0	part_2
110	3.0	4.0			400.0	0.0	1.0							6.0	0.0	0.3982845040154643	6.0	350.0	2.0	4.0	6.0	3.0	1.0	part_2
111	1.0	4.0			400.0	0.0	0.0							6.0	0.0	0.6132334097055718	6.0	300.0	4.0	6.0	4.0	5.0	0.0	part_2
112	1.0	4.0			400.0	0.0	1.0							5.0	0.0	0.4678702566307038	5.0	300.0	4.0	8.0	8.0	6.0	0.0	part_2
113	3.0	4.0			400.0	0.0	1.0							6.0	0.0	0.3124838648363948	6.0	300.0	3.0	1.0	7.0	7.0	1.0	part_2
114	1.0	4.0			400.0	0.0	0.0							6.0	0.0	0.6621347885229625	6.0	250.0	4.0	6.0	4.0	5.0	0.0	part_2
115	1.0	4.0			400.0	0.0	0.0							6.0	0.0	0.6518160056439228	6.0	250.0	1.0	5.0	1.0	2.0	0.0	part_2
116	1.0	4.0			400.0	0.0	1.0							6.0	0.0	0.3358708375017159	6.0	250.0	1.0	2.0	5.0	1.0	0.0	part_2
117	1.0	4.0			400.0	0.0	0.0							5.0	0.0	0.415797121822834	5.0	250.0	3.0	7.0	3.0	8.0	0.0	part_2
118	3.0	4.0			400.0	0.0	1.0							6.0	0.0	0.3388873759540729	6.0	250.0	2.0	4.0	6.0	3.0	1.0	part_2
119	3.0	4.0			400.0	0.0	1.0							5.0	0.0	0.4288533559883945	5.0	200.0	4.0	8.0	8.0	6.0	1.0	part_2
120	1.0	4.0			350.0	0.0	0.0							5.0	0.0	0.5988076858920977	5.0	200.0	3.0	7.0	3.0	8.0	0.0	part_2
121	4.0	4.0			350.0	0.0	1.0							6.0	0.0	0.0	0.0	200.0	4.0	8.0	8.0	6.0	1.0	part_2
122	1.0	4.0			350.0	0.0	0.0							5.0	0.0	0.3873298069811426	5.0	250.0	3.0	7.0	3.0	8.0	0.0	part_2
123	1.0	4.0			350.0	0.0	0.0							6.0	0.0	0.5011014948249795	6.0	250.0	3.0	7.0	3.0	8.0	0.0	part_2
124	4.0	4.0			350.0	0.0	1.0							6.0	0.0	0.0	0.0	250.0	1.0	2.0	5.0	1.0	1.0	part_2
125	1.0	4.0			350.0	0.0	0.0							5.0	0.0	0.4110070688184351	5.0	300.0	4.0	6.0	4.0	5.0	0.0	part_2
126	1.0	4.0			350.0	0.0	0.0							5.0	0.0	0.5582892567035742	5.0	300.0	1.0	5.0	1.0	2.0	0.0	part_2
127	1.0	4.0			350.0	0.0	1.0							5.0	0.0	0.3464509727200493	5.0	300.0	1.0	2.0	5.0	1.0	0.0	part_2
128	1.0	4.0			350.0	0.0	0.0							6.0	0.0	0.4815392349846661	6.0	300.0	4.0	6.0	4.0	5.0	0.0	part_2
129	1.0	4.0			350.0	0.0	0.0							5.0	0.0	0.4485942967003211	5.0	300.0	4.0	6.0	4.0	5.0	0.0	part_2
130	3.0	4.0			350.0	0.0	1.0							5.0	0.0	0.3720103208906949	5.0	300.0	2.0	4.0	6.0	3.0	1.0	part_2
131	4.0	4.0			300.0	0.0	1.0							5.0	0.0	0.0	0.0	300.0	1.0	2.0	5.0	1.0	1.0	part_2
132	1.0	4.0			350.0	0.0	0.0							5.0	0.0	0.598551289876923	5.0	300.0	1.0	5.0	1.0	2.0	0.0	part_2
133	3.0	4.0			350.0	0.0	1.0							5.0	0.0	0.49655740195885295	5.0	300.0	1.0	2.0	5.0	1.0	1.0	part_2
134	1.0	4.0			300.0	0.0	0.0							6.0	0.0	0.4533876195782796	6.0	300.0	2.0	3.0	2.0	4.0	0.0	part_2
135	4.0	4.0			300.0	0.0	1.0							6.0	0.0	0.0	0.0	300.0	3.0	1.0	7.0	7.0	1.0	part_2
136	1.0	4.0			300.0	0.0	0.0							5.0	0.0	0.3763928838307038	5.0	350.0	3.0	7.0	3.0	8.0	0.0	part_2
137	4.0	4.0			300.0	0.0	1.0							6.0	0.0	0.0	0.0	350.0	4.0	8.0	8.0	6.0	1.0	part_2
138	3.0	4.0			300.0	0.0	1.0							6.0	0.0	0.5135775717790239	6.0	400.0	4.0	8.0	8.0	6.0	1.0	part_2
139	1.0	4.0			300.0	0.0	0.0							6.0	0.0	0.5359056607703678	6.0	350.0	4.0	6.0	4.0	5.0	0.0	part_2
140	1.0	4.0			300.0	0.0	0.0							5.0	0.0	0.5596423067618161	5.0	350.0	4.0	6.0	4.0	5.0	0.0	part_2
141	4.0	4.0			300.0	0.0	1.0							6.0	0.0	0.0	0.0	350.0	2.0	4.0	6.0	3.0	1.0	part_2
142	4.0	4.0			300.0	0.0	1.0							5.0	0.0	0.0	0.0	400.0	1.0	2.0	5.0	1.0	1.0	part_2
143	1.0	4.0			350.0	0.0	0.0							5.0	0.0	0.5385770596330985	5.0	400.0	3.0	7.0	3.0	8.0	0.0	part_2
144	3.0	5.0			350.0	0.0	1.0							6.0	0.0	0.7605547247221693	6.0	400.0	4.0	8.0	8.0	6.0	1.0	part_2
145	1.0	5.0			350.0	0.0	0.0							6.0	0.0	0.4907117019174621	6.0	350.0	4.0	6.0	4.0	5.0	0.0	part_2
146	1.0	5.0			350.0	0.0	0.0							5.0	0.0	0.3916134065948427	5.0	350.0	1.0	5.0	1.0	2.0	0.0	part_2
147	3.0	5.0			350.0	0.0	1.0							6.0	0.0	0.3241461748839356	6.0	350.0	4.0	8.0	8.0	6.0	1.0	part_2
148	1.0	5.0			350.0	0.0	0.0							6.0	0.0	0.3578843149589375	6.0	300.0	2.0	3.0	2.0	4.0	0.0	part_2
149	1.0	5.0			350.0	0.0	0.0							5.0	0.0	0.4281907088588923	5.0	300.0	4.0	6.0	4.0	5.0	0.0	part_2
150	1.0	5.0			350.0	0.0	0.0							6.0	0.0	0.41769390599802136	6.0	300.0	3.0	7.0	3.0	8.0	0.0	part_2
151	3.0	5.0			350.0	0.0	1.0							6.0	0.0	0.3845824078307487	6.0	300.0	2.0	4.0	6.0	3.0	1.0	part_2
152	3.0	5.0			350.0	0.0	1.0							5.0	0.0	0.4867327059619129	5.0	250.0	1.0	2.0	5.0	1.0	1.0	part_2
153	1.0	5.0			300.0	0.0	0.0							6.0	0.0	0.4859906327328645	6.0	250.0	1.0	5.0	1.0	2.0	0.0	part_2
154	1.0	5.0			300.0	0.0	0.0							5.0	0.0	0.5451105157262646	5.0	250.0	2.0	3.0	2.0	4.0	0.0	part_2
155	1.0	5.0			300.0	0.0	0.0							6.0	0.0	0.5675585827557371	6.0	250.0	2.0	3.0	2.0	4.0	0.0	part_2
156	3.0	5.0			300.0	0.0	1.0							6.0	0.0	0.3535632804851048	6.0	250.0	1.0	2.0	5.0	1.0	1.0	part_2
157	1.0	5.0			300.0	0.0	0.0							5.0	0.0	0.4225159760680981	5.0	200.0	3.0	7.0	3.0	8.0	0.0	part_2
158	3.0	5.0			300.0	0.0	1.0							6.0	0.0	0.3556860018870793	6.0	200.0	4.0	8.0	8.0	6.0	1.0	part_2
159	1.0	5.0			300.0	0.0	0.0							5.0	0.0	0.6376146764960141	5.0	150.0	2.0	3.0	2.0	4.0	0.0	part_2
160	4.0	5.0			300.0	0.0	1.0							6.0	0.0	0.0	0.0	150.0	3.0	1.0	7.0	7.0	1.0	part_2
161	1.0	5.0			300.0	0.0	0.0							5.0	0.0	0.4381986715598032	5.0	200.0	4.0	6.0	4.0	5.0	0.0	part_2
162	3.0	5.0			300.0	0.0	1.0							5.0	0.0	0.3928426200291142	5.0	200.0	1.0	2.0	5.0	1.0	1.0	part_2
163	1.0	5.0			250.0	0.0	0.0							5.0	0.0	0.5288439028081484	5.0	200.0	2.0	3.0	2.0	4.0	0.0	part_2
164	3.0	5.0			250.0	0.0	1.0							6.0	0.0	0.36209258274175227	6.0	200.0	1.0	2.0	5.0	1.0	1.0	part_2
165	1.0	5.0			250.0	0.0	0.0							5.0	0.0	0.5313342000008561	5.0	150.0	4.0	6.0	4.0	5.0	0.0	part_2
166	4.0	5.0			250.0	0.0	1.0							6.0	0.0	0.0	0.0	150.0	1.0	2.0	5.0	1.0	1.0	part_2
167	1.0	5.0			250.0	0.0	0.0							5.0	0.0	0.4431260696146637	5.0	200.0	1.0	5.0	1.0	2.0	0.0	part_2
168	1.0	5.0			250.0	0.0	0.0							6.0	0.0	0.4759972416213714	6.0	200.0	1.0	5.0	1.0	2.0	0.0	part_2
169	4.0	5.0			250.0	0.0	1.0							5.0	0.0	0.0	0.0	200.0	4.0	8.0	8.0	6.0	1.0	part_2
170	4.0	5.0			300.0	0.0	1.0							6.0	0.0	0.0	0.0	200.0	3.0	1.0	7.0	7.0	1.0	part_2
171	1.0	5.0			300.0	0.0	0.0							5.0	0.0	0.4332675498444587	5.0	250.0	2.0	3.0	2.0	4.0	0.0	part_2
172	1.0	5.0			300.0	0.0	0.0							6.0	0.0	0.548485113598872	6.0	250.0	2.0	3.0	2.0	4.0	0.0	part_2
173	4.0	5.0			300.0	0.0	1.0							6.0	0.0	0.0	0.0	250.0	2.0	4.0	6.0	3.0	1.0	part_2
174	1.0	5.0			300.0	0.0	1.0							5.0	0.0	0.5389251986052841	5.0	300.0	1.0	2.0	5.0	1.0	0.0	part_2
175	4.0	5.0			300.0	0.0	1.0							5.0	0.0	0.0	0.0	300.0	2.0	4.0	6.0	3.0	1.0	part_2
176	4.0	5.0			350.0	0.0	1.0							6.0	0.0	0.0	0.0	300.0	2.0	4.0	6.0	3.0	1.0	part_2
177	3.0	5.0			350.0	0.0	1.0							5.0	0.0	0.5296773867448792	5.0	350.0	1.0	2.0	5.0	1.0	1.0	part_2
178	1.0	5.0			300.0	0.0	1.0							6.0	0.0	0.6659717475995421	6.0	350.0	2.0	4.0	6.0	3.0	0.0	part_2
179	1.0	5.0			300.0	0.0	1.0							6.0	0.0	0.7101406925939955	6.0	350.0	3.0	1.0	7.0	7.0	0.0	part_2
180	1.0	6.0			300.0	0.0	0.0							6.0	0.0	0.6181682217284106	6.0	350.0	1.0	5.0	1.0	2.0	0.0	part_2
181	1.0	6.0			300.0	0.0	0.0							5.0	0.0	0.3712002858519554	5.0	350.0	2.0	3.0	2.0	4.0	0.0	part_2
182	1.0	6.0			300.0	0.0	0.0							6.0	0.0	0.3154807056998834	6.0	350.0	3.0	7.0	3.0	8.0	0.0	part_2
183	1.0	6.0			300.0	0.0	0.0							6.0	0.0	0.3263626446714625	6.0	350.0	3.0	7.0	3.0	8.0	0.0	part_2
184	3.0	6.0			300.0	0.0	1.0							5.0	0.0	0.4168982166447677	5.0	350.0	3.0	1.0	7.0	7.0	1.0	part_2
185	1.0	6.0			250.0	0.0	0.0							6.0	0.0	0.38442901882808656	6.0	350.0	3.0	7.0	3.0	8.0	0.0	part_2
186	1.0	6.0			250.0	0.0	0.0							5.0	0.0	0.4522150748525746	5.0	350.0	4.0	6.0	4.0	5.0	0.0	part_2
187	1.0	6.0			250.0	0.0	0.0							6.0	0.0	0.3873759527341463	6.0	350.0	2.0	3.0	2.0	4.0	0.0	part_2
188	4.0	6.0			250.0	0.0	1.0							5.0	0.0	0.0	0.0	350.0	3.0	1.0	7.0	7.0	1.0	part_2
189	1.0	6.0			300.0	0.0	0.0							5.0	0.0	0.5456386147998273	5.0	350.0	2.0	3.0	2.0	4.0	0.0	part_2
190	1.0	6.0			300.0	0.0	0.0							5.0	0.0	0.4912600978277624	5.0	350.0	1.0	5.0	1.0	2.0	0.0	part_2
191	3.0	6.0			300.0	0.0	1.0							6.0	0.0	0.3894948247470893	6.0	350.0	1.0	2.0	5.0	1.0	1.0	part_2
192	4.0	6.0			300.0	0.0	1.0							6.0	0.0	0.0	0.0	300.0	1.0	2.0	5.0	1.0	1.0	part_2
193	1.0	6.0			300.0	0.0	0.0							6.0	0.0	0.3907465049996972	6.0	350.0	1.0	5.0	1.0	2.0	0.0	part_2
194	1.0	6.0			300.0	0.0	0.0							6.0	0.0	0.3364518489688635	6.0	350.0	4.0	6.0	4.0	5.0	0.0	part_2
195	1.0	6.0			300.0	0.0	0.0							5.0	0.0	0.4167988888802938	5.0	350.0	1.0	5.0	1.0	2.0	0.0	part_2
196	4.0	6.0			300.0	0.0	1.0							5.0	0.0	0.0	0.0	350.0	1.0	2.0	5.0	1.0	1.0	part_2
197	4.0	6.0			350.0	0.0	1.0							5.0	0.0	0.0	0.0	350.0	4.0	8.0	8.0	6.0	1.0	part_2
198	1.0	6.0			400.0	0.0	0.0							6.0	0.0	0.7216329725924879	6.0	350.0	3.0	7.0	3.0	8.0	0.0	part_2
199	4.0	6.0			400.0	0.0	1.0							5.0	0.0	0.0	0.0	350.0	3.0	1.0	7.0	7.0	1.0	part_2
200	1.0	6.0			450.0	0.0	0.0							6.0	0.0	0.47546385688474396	6.0	350.0	2.0	3.0	2.0	4.0	0.0	part_2
201	1.0	6.0			450.0	0.0	0.0							5.0	0.0	0.7024214546545409	5.0	350.0	3.0	7.0	3.0	8.0	0.0	part_2
202	3.0	6.0			450.0	0.0	1.0							5.0	0.0	0.5008313351427205	5.0	350.0	1.0	2.0	5.0	1.0	1.0	part_2
203	1.0	6.0			400.0	0.0	1.0							5.0	0.0	0.5339640958700329	5.0	350.0	3.0	1.0	7.0	7.0	0.0	part_2
204	4.0	6.0			400.0	0.0	1.0							6.0	0.0	0.0	0.0	350.0	1.0	2.0	5.0	1.0	1.0	part_2
205	3.0	6.0			400.0	0.0	1.0							6.0	0.0	0.4576133985538036	6.0	400.0	4.0	8.0	8.0	6.0	1.0	part_2
206	1.0	6.0			400.0	0.0	0.0							5.0	0.0	0.7620201119570993	5.0	350.0	1.0	5.0	1.0	2.0	0.0	part_2
207	3.0	6.0			400.0	0.0	1.0							6.0	0.0	0.4260951969772577	6.0	350.0	4.0	8.0	8.0	6.0	1.0	part_2
208	1.0	6.0			400.0	0.0	0.0							6.0	0.0	0.4388036928721704	6.0	300.0	4.0	6.0	4.0	5.0	0.0	part_2
209	1.0	6.0			400.0	0.0	0.0							6.0	0.0	0.4490926447324455	6.0	300.0	2.0	3.0	2.0	4.0	0.0	part_2
210	1.0	6.0			400.0	0.0	0.0							6.0	0.0	0.5398807377205229	6.0	300.0	2.0	3.0	2.0	4.0	0.0	part_2
211	1.0	6.0			400.0	0.0	1.0							5.0	0.0	0.4299594239564613	5.0	300.0	2.0	4.0	6.0	3.0	0.0	part_2
212	1.0	6.0			400.0	0.0	0.0							6.0	0.0	0.4066076368908398	6.0	300.0	3.0	7.0	3.0	8.0	0.0	part_2
213	1.0	6.0			400.0	0.0	0.0							6.0	0.0	0.3849176997318864	6.0	300.0	4.0	6.0	4.0	5.0	0.0	part_2
214	1.0	6.0			400.0	0.0	0.0							6.0	0.0	0.4757278199540451	6.0	300.0	3.0	7.0	3.0	8.0	0.0	part_2
215	3.0	6.0			400.0	0.0	1.0							5.0	0.0	0.5216793248546311	5.0	300.0	3.0	1.0	7.0	7.0	1.0	part_2
216	1.0	7.0			350.0	0.0	0.0							5.0	0.0	0.4043207789654844	5.0	300.0	2.0	3.0	2.0	4.0	0.0	part_2
217	3.0	7.0			350.0	0.0	1.0							5.0	0.0	0.34914290154119954	5.0	300.0	2.0	4.0	6.0	3.0	1.0	part_2
218	3.0	7.0			300.0	0.0	1.0							5.0	0.0	0.427775964839384	5.0	300.0	1.0	2.0	5.0	1.0	1.0	part_2
219	1.0	7.0			250.0	0.0	0.0							6.0	0.0	0.3273257167893462	6.0	300.0	2.0	3.0	2.0	4.0	0.0	part_2
220	1.0	7.0			250.0	0.0	0.0							5.0	0.0	0.39622743549989536	5.0	300.0	3.0	7.0	3.0	8.0	0.0	part_2
221	1.0	7.0			250.0	0.0	0.0							5.0	0.0	0.419413857976906	5.0	300.0	2.0	3.0	2.0	4.0	0.0	part_2
222	3.0	7.0			250.0	0.0	1.0							5.0	0.0	0.3748114460031502	5.0	300.0	1.0	2.0	5.0	1.0	1.0	part_2
223	1.0	7.0			200.0	0.0	0.0							6.0	0.0	0.4655573779018596	6.0	300.0	2.0	3.0	2.0	4.0	0.0	part_2
224	1.0	7.0			200.0	0.0	0.0							6.0	0.0	0.5230519187753089	6.0	300.0	3.0	7.0	3.0	8.0	0.0	part_2
225	1.0	7.0			200.0	0.0	0.0							6.0	0.0	0.3443359166267328	6.0	300.0	1.0	5.0	1.0	2.0	0.0	part_2
226	1.0	7.0			200.0	0.0	0.0							6.0	0.0	0.3324777818634175	6.0	300.0	2.0	3.0	2.0	4.0	0.0	part_2
227	3.0	7.0			200.0	0.0	1.0							5.0	0.0	0.3006979700294323	5.0	300.0	2.0	4.0	6.0	3.0	1.0	part_2
228	1.0	7.0			150.0	0.0	0.0							6.0	0.0	0.36780361575074494	6.0	300.0	1.0	5.0	1.0	2.0	0.0	part_2
229	1.0	7.0			150.0	0.0	0.0							5.0	0.0	0.3476520389667712	5.0	300.0	1.0	5.0	1.0	2.0	0.0	part_2
230	4.0	7.0			150.0	0.0	1.0							5.0	0.0	0.0	0.0	300.0	1.0	2.0	5.0	1.0	1.0	part_2
231	1.0	7.0			200.0	0.0	1.0							5.0	0.0	0.48279535677284	5.0	300.0	1.0	2.0	5.0	1.0	0.0	part_2
232	1.0	7.0			200.0	0.0	0.0							5.0	0.0	0.5641279309638776	5.0	300.0	1.0	5.0	1.0	2.0	0.0	part_2
233	1.0	7.0			200.0	0.0	0.0							6.0	0.0	0.4290783020551317	6.0	300.0	3.0	7.0	3.0	8.0	0.0	part_2
234	1.0	7.0			200.0	0.0	1.0							5.0	0.0	0.3961556497379206	5.0	300.0	2.0	4.0	6.0	3.0	0.0	part_2
235	1.0	7.0			200.0	0.0	0.0							6.0	0.0	0.4525234086322598	6.0	300.0	1.0	5.0	1.0	2.0	0.0	part_2
236	4.0	7.0			200.0	0.0	1.0							5.0	0.0	0.0	0.0	300.0	4.0	8.0	8.0	6.0	1.0	part_2
237	4.0	7.0			250.0	0.0	1.0							5.0	0.0	0.0	0.0	300.0	4.0	8.0	8.0	6.0	1.0	part_2
238	3.0	7.0			300.0	0.0	1.0							6.0	0.0	0.3889776087598875	6.0	300.0	2.0	4.0	6.0	3.0	1.0	part_2
239	1.0	7.0			300.0	0.0	1.0							6.0	0.0	0.3430863629910164	6.0	250.0	1.0	2.0	5.0	1.0	0.0	part_2
240	1.0	7.0			300.0	0.0	1.0							5.0	0.0	0.6032151686376892	5.0	250.0	4.0	8.0	8.0	6.0	0.0	part_2
241	1.0	7.0			300.0	0.0	0.0							5.0	0.0	0.5716164957266301	5.0	250.0	1.0	5.0	1.0	2.0	0.0	part_2
242	3.0	7.0			300.0	0.0	1.0							5.0	0.0	0.4921459820470773	5.0	250.0	1.0	2.0	5.0	1.0	1.0	part_2
243	1.0	7.0			250.0	0.0	1.0							6.0	0.0	0.4591775727458298	6.0	250.0	1.0	2.0	5.0	1.0	0.0	part_2
244	4.0	7.0			250.0	0.0	1.0							5.0	0.0	0.0	0.0	250.0	3.0	1.0	7.0	7.0	1.0	part_2
245	4.0	7.0			300.0	0.0	1.0							6.0	0.0	0.0	0.0	250.0	1.0	2.0	5.0	1.0	1.0	part_2
246	1.0	7.0			300.0	0.0	0.0							5.0	0.0	0.4626317609800026	5.0	300.0	2.0	3.0	2.0	4.0	0.0	part_2
247	1.0	7.0			300.0	0.0	0.0							5.0	0.0	0.33872844447614625	5.0	300.0	1.0	5.0	1.0	2.0	0.0	part_2
248	1.0	7.0			300.0	0.0	1.0							6.0	0.0	0.4529865208314732	6.0	300.0	3.0	1.0	7.0	7.0	0.0	part_2
249	1.0	7.0			300.0	0.0	1.0							5.0	0.0	0.3526958426227793	5.0	300.0	2.0	4.0	6.0	3.0	0.0	part_2
250	1.0	7.0			300.0	0.0	1.0							5.0	0.0	0.4084424957400188	5.0	300.0	3.0	1.0	7.0	7.0	0.0	part_2
251	1.0	7.0			300.0	0.0	0.0							6.0	0.0	0.3769553047604859	6.0	300.0	2.0	3.0	2.0	4.0	0.0	part_2
252	4.0	8.0			300.0	0.0	1.0							6.0	0.0	0.0	0.0	300.0	2.0	4.0	6.0	3.0	1.0	part_2
253	3.0	8.0			300.0	0.0	1.0							5.0	0.0	0.3374306058976799	5.0	350.0	3.0	1.0	7.0	7.0	1.0	part_2
254	1.0	8.0			250.0	0.0	1.0							6.0	0.0	0.3040685086743906	6.0	350.0	1.0	2.0	5.0	1.0	0.0	part_2
255	3.0	8.0			250.0	0.0	1.0							6.0	0.0	0.3495049480115995	6.0	350.0	2.0	4.0	6.0	3.0	1.0	part_2
256	1.0	8.0			250.0	0.0	1.0							6.0	0.0	0.4173917878651992	6.0	300.0	4.0	8.0	8.0	6.0	0.0	part_2
257	1.0	8.0			250.0	0.0	1.0							5.0	0.0	0.3974103957298212	5.0	300.0	2.0	4.0	6.0	3.0	0.0	part_2
258	1.0	8.0			250.0	0.0	0.0							6.0	0.0	0.2724978767219	6.0	300.0	1.0	5.0	1.0	2.0	0.0	part_2
259	1.0	8.0			250.0	0.0	1.0							5.0	0.0	0.35371912497794256	5.0	300.0	3.0	1.0	7.0	7.0	0.0	part_2
260	1.0	8.0			250.0	0.0	0.0							5.0	0.0	0.3548608886776492	5.0	300.0	4.0	6.0	4.0	5.0	0.0	part_2
261	1.0	8.0			250.0	0.0	1.0							6.0	0.0	0.2981450397055596	6.0	300.0	3.0	1.0	7.0	7.0	0.0	part_2
262	1.0	8.0			250.0	0.0	0.0							6.0	0.0	0.5683239418431185	6.0	300.0	2.0	3.0	2.0	4.0	0.0	part_2
263	3.0	8.0			250.0	0.0	1.0							5.0	0.0	0.36817156203323975	5.0	300.0	2.0	4.0	6.0	3.0	1.0	part_2
264	4.0	8.0			200.0	0.0	1.0							5.0	0.0	0.0	0.0	300.0	4.0	8.0	8.0	6.0	1.0	part_2
265	1.0	8.0			250.0	0.0	0.0							6.0	0.0	0.5615897148381919	6.0	300.0	1.0	5.0	1.0	2.0	0.0	part_2
266	4.0	8.0			250.0	0.0	1.0							6.0	0.0	0.0	0.0	300.0	4.0	8.0	8.0	6.0	1.0	part_2
267	4.0	8.0			250.0	0.0	1.0							6.0	0.0	0.0	0.0	350.0	3.0	1.0	7.0	7.0	1.0	part_2
268	1.0	8.0			250.0	0.0	1.0							6.0	0.0	0.5975659115356393	6.0	400.0	1.0	2.0	5.0	1.0	0.0	part_2
269	4.0	8.0			250.0	0.0	1.0							5.0	0.0	0.0	0.0	400.0	4.0	8.0	8.0	6.0	1.0	part_2
270	1.0	8.0			300.0	0.0	0.0							6.0	0.0	0.4755558807519265	6.0	400.0	2.0	3.0	2.0	4.0	0.0	part_2
271	1.0	8.0			300.0	0.0	0.0							5.0	0.0	0.32901807385496795	5.0	400.0	2.0	3.0	2.0	4.0	0.0	part_2
272	1.0	8.0			300.0	0.0	0.0							6.0	0.0	0.3420871846028604	6.0	400.0	3.0	7.0	3.0	8.0	0.0	part_2
273	3.0	8.0			300.0	0.0	1.0							5.0	0.0	0.3426503735827282	5.0	400.0	3.0	1.0	7.0	7.0	1.0	part_2
274	1.0	8.0			250.0	0.0	0.0							5.0	0.0	0.4886752145830542	5.0	400.0	2.0	3.0	2.0	4.0	0.0	part_2
275	1.0	8.0			250.0	0.0	1.0							6.0	0.0	0.3992934378329665	6.0	400.0	4.0	8.0	8.0	6.0	0.0	part_2
276	3.0	8.0			250.0	0.0	1.0							6.0	0.0	0.5460011938703246	6.0	400.0	3.0	1.0	7.0	7.0	1.0	part_2
277	4.0	8.0			250.0	0.0	1.0							6.0	0.0	0.0	0.0	350.0	3.0	1.0	7.0	7.0	1.0	part_2
278	1.0	8.0			250.0	0.0	0.0							5.0	0.0	0.32426310499431565	5.0	400.0	3.0	7.0	3.0	8.0	0.0	part_2
279	4.0	8.0			250.0	0.0	1.0							6.0	0.0	0.0	0.0	400.0	3.0	1.0	7.0	7.0	1.0	part_2
280	1.0	8.0			250.0	0.0	1.0							5.0	0.0	0.6074439718504436	5.0	450.0	2.0	4.0	6.0	3.0	0.0	part_2
281	3.0	8.0			250.0	0.0	1.0							6.0	0.0	0.3481831718818285	6.0	450.0	2.0	4.0	6.0	3.0	1.0	part_2
282	1.0	8.0			250.0	0.0	0.0							6.0	0.0	0.4616043398273178	6.0	400.0	3.0	7.0	3.0	8.0	0.0	part_2
283	1.0	8.0			250.0	0.0	0.0							5.0	0.0	0.6089181604911573	5.0	400.0	1.0	5.0	1.0	2.0	0.0	part_2
284	2.0	8.0			250.0	0.0	0.0							5.0	0.0	0.5661701030330732	6.0	400.0	2.0	3.0	2.0	4.0	0.0	part_2
285	1.0	8.0			250.0	0.0	1.0							5.0	0.0	0.5328845544718206	5.0	400.0	4.0	8.0	8.0	6.0	0.0	part_2
286	4.0	8.0			250.0	0.0	1.0							5.0	0.0	0.0	0.0	400.0	2.0	4.0	6.0	3.0	1.0	part_2
287	1.0	8.0			300.0	0.0	0.0							5.0	0.0	0.5335637836833484	5.0	400.0	3.0	7.0	3.0	8.0	0.0	part_2
0	0.0	1.0	195.0	5.0	0.0	2.0	0.0	156.0	78.0	234.0	117.0	195.0	39.0	7.0	0.0	1.0627292318968102	5.0	0.0	3.0	7.0	3.0	8.0	0.0	part_3
1	0.0	1.0	162.0	3.0	0.0	1.0	1.0	162.0	324.0	54.0	270.0	216.0	108.0	7.0	0.0	2.346136426902376	1.0	0.0	1.0	2.0	5.0	1.0	0.0	part_3
2	0.0	1.0	234.0	6.0	0.0	1.0	1.0	156.0	117.0	78.0	195.0	234.0	39.0	7.0	0.0	2.1914255797164515	5.0	0.0	2.0	4.0	6.0	3.0	0.0	part_3
3	0.0	1.0	136.0	4.0	0.0	1.0	0.0	68.0	170.0	204.0	34.0	102.0	136.0	7.0	0.0	1.4372398916748352	6.0	0.0	3.0	7.0	3.0	8.0	0.0	part_3
4	0.0	1.0	136.0	4.0	0.0	1.0	0.0	136.0	68.0	170.0	34.0	204.0	102.0	7.0	0.0	1.4266595529625192	1.0	0.0	2.0	3.0	2.0	4.0	0.0	part_3
5	0.0	1.0	98.0	2.0	0.0	1.0	1.0	49.0	98.0	294.0	147.0	245.0	196.0	7.0	0.0	1.9473011716618205	2.0	0.0	2.0	4.0	6.0	3.0	0.0	part_3
6	0.0	1.0	204.0	6.0	0.0	1.0	0.0	34.0	170.0	204.0	102.0	136.0	68.0	7.0	0.0	1.2155609249020929	3.0	0.0	1.0	5.0	1.0	2.0	0.0	part_3
7	0.0	1.0	136.0	4.0	0.0	1.0	1.0	204.0	68.0	102.0	170.0	34.0	136.0	7.0	0.0	1.891122817993164	6.0	0.0	2.0	4.0	6.0	3.0	0.0	part_3
8	0.0	1.0	264.0	6.0	0.0	1.0	0.0	220.0	264.0	132.0	44.0	88.0	176.0	7.0	0.0	1.4427324717980812	2.0	0.0	2.0	3.0	2.0	4.0	0.0	part_3
9	0.0	1.0	34.0	1.0	0.0	1.0	1.0	204.0	170.0	34.0	102.0	136.0	68.0	7.0	0.0	1.489568595890887	3.0	0.0	4.0	8.0	8.0	6.0	0.0	part_3
10	0.0	1.0	78.0	2.0	0.0	1.0	1.0	78.0	117.0	195.0	39.0	156.0	234.0	7.0	0.0	1.5348408177378587	1.0	0.0	1.0	2.0	5.0	1.0	0.0	part_3
11	0.0	1.0	195.0	5.0	0.0	1.0	0.0	117.0	195.0	78.0	39.0	234.0	156.0	7.0	0.0	1.569955494836904	2.0	0.0	3.0	7.0	3.0	8.0	0.0	part_3
12	0.0	1.0	176.0	4.0	0.0	1.0	0.0	88.0	220.0	264.0	132.0	176.0	44.0	7.0	0.0	1.0991083770059051	5.0	0.0	3.0	7.0	3.0	8.0	0.0	part_3
13	0.0	1.0	49.0	1.0	0.0	1.0	1.0	196.0	147.0	294.0	49.0	98.0	245.0	7.0	0.0	1.3143031919607893	4.0	0.0	3.0	1.0	7.0	7.0	0.0	part_3
14	0.0	1.0	49.0	1.0	0.0	1.0	1.0	196.0	294.0	245.0	98.0	49.0	147.0	7.0	0.0	1.4163524599862285	5.0	0.0	1.0	2.0	5.0	1.0	0.0	part_3
15	0.0	1.0	132.0	3.0	0.0	1.0	1.0	176.0	220.0	44.0	264.0	88.0	132.0	7.0	0.0	2.171652642893605	6.0	0.0	2.0	4.0	6.0	3.0	0.0	part_3
16	0.0	1.0	234.0	6.0	0.0	1.0	1.0	39.0	156.0	234.0	195.0	78.0	117.0	7.0	0.0	2.0135378258419223	3.0	0.0	1.0	2.0	5.0	1.0	0.0	part_3
17	0.0	1.0	196.0	4.0	0.0	1.0	1.0	196.0	147.0	49.0	98.0	245.0	294.0	7.0	0.0	1.1259252096642742	1.0	0.0	3.0	1.0	7.0	7.0	0.0	part_3
18	0.0	1.0	147.0	3.0	0.0	1.0	1.0	196.0	147.0	49.0	245.0	294.0	98.0	7.0	0.0	0.993125531997066	2.0	0.0	4.0	8.0	8.0	6.0	0.0	part_3
19	0.0	1.0	220.0	5.0	0.0	1.0	1.0	264.0	44.0	220.0	176.0	132.0	88.0	7.0	0.0	1.196490314847324	3.0	0.0	2.0	4.0	6.0	3.0	0.0	part_3
20	0.0	2.0	176.0	4.0	0.0	1.0	1.0	176.0	44.0	264.0	220.0	88.0	132.0	7.0	0.0	0.7702270698500797	1.0	0.0	1.0	2.0	5.0	1.0	0.0	part_3
21	0.0	2.0	78.0	2.0	0.0	1.0	1.0	195.0	39.0	156.0	234.0	78.0	117.0	7.0	0.0	1.1429447159753179	5.0	0.0	3.0	1.0	7.0	7.0	0.0	part_3
22	0.0	2.0	294.0	6.0	0.0	1.0	1.0	294.0	49.0	245.0	196.0	147.0	98.0	7.0	0.0	1.5489190038642846	1.0	0.0	2.0	4.0	6.0	3.0	0.0	part_3
23	0.0	2.0	49.0	1.0	0.0	1.0	0.0	245.0	196.0	147.0	49.0	98.0	294.0	7.0	0.0	1.5732016037218273	4.0	0.0	4.0	6.0	4.0	5.0	0.0	part_3
24	0.0	2.0	195.0	5.0	0.0	1.0	0.0	117.0	39.0	156.0	78.0	195.0	234.0	7.0	0.0	1.50558884779457	5.0	0.0	2.0	3.0	2.0	4.0	0.0	part_3
25	0.0	2.0	220.0	5.0	0.0	1.0	1.0	220.0	88.0	44.0	264.0	132.0	176.0	7.0	0.0	1.6092952289618552	1.0	0.0	4.0	8.0	8.0	6.0	0.0	part_3
26	0.0	2.0	49.0	1.0	0.0	1.0	0.0	98.0	196.0	245.0	147.0	294.0	49.0	7.0	0.0	2.160738881735597	6.0	0.0	1.0	5.0	1.0	2.0	0.0	part_3
27	0.0	2.0	39.0	1.0	0.0	1.0	0.0	39.0	78.0	117.0	234.0	195.0	156.0	7.0	0.0	1.4858325698296542	1.0	0.0	2.0	3.0	2.0	4.0	0.0	part_3
28	0.0	2.0	68.0	2.0	0.0	1.0	0.0	102.0	68.0	34.0	170.0	204.0	136.0	7.0	0.0	1.7237185466801748	2.0	0.0	4.0	6.0	4.0	5.0	0.0	part_3
29	0.0	2.0	39.0	1.0	0.0	1.0	1.0	39.0	117.0	195.0	78.0	234.0	156.0	7.0	0.0	1.1507542007602751	1.0	0.0	4.0	8.0	8.0	6.0	0.0	part_3
30	0.0	2.0	108.0	2.0	0.0	1.0	0.0	108.0	54.0	216.0	162.0	324.0	270.0	7.0	0.0	1.8500869356794285	1.0	0.0	1.0	5.0	1.0	2.0	0.0	part_3
31	0.0	2.0	156.0	4.0	0.0	1.0	0.0	39.0	195.0	117.0	78.0	156.0	234.0	7.0	0.0	1.8054116167477328	5.0	0.0	4.0	6.0	4.0	5.0	0.0	part_3
32	0.0	2.0	44.0	1.0	0.0	1.0	0.0	264.0	44.0	176.0	220.0	88.0	132.0	7.0	0.0	1.1669571177335456	2.0	0.0	1.0	5.0	1.0	2.0	0.0	part_3
33	0.0	2.0	49.0	1.0	0.0	1.0	0.0	147.0	196.0	49.0	294.0	98.0	245.0	7.0	0.0	1.4132970857899636	3.0	0.0	1.0	5.0	1.0	2.0	0.0	part_3
34	0.0	2.0	204.0	6.0	0.0	1.0	0.0	102.0	68.0	136.0	170.0	204.0	34.0	7.0	0.0	1.5960971188615076	5.0	0.0	3.0	7.0	3.0	8.0	0.0	part_3
35	0.0	2.0	245.0	5.0	0.0	1.0	0.0	49.0	294.0	245.0	147.0	98.0	196.0	7.0	0.0	1.980261519784108	3.0	0.0	3.0	7.0	3.0	8.0	0.0	part_3
36	0.0	2.0	88.0	2.0	0.0	1.0	1.0	88.0	264.0	176.0	44.0	220.0	132.0	7.0	0.0	1.8790729578468015	1.0	0.0	3.0	1.0	7.0	7.0	0.0	part_3
37	0.0	2.0	162.0	3.0	0.0	1.0	0.0	54.0	324.0	216.0	108.0	162.0	270.0	7.0	0.0	1.981797893939074	5.0	0.0	3.0	7.0	3.0	8.0	0.0	part_3
38	0.0	2.0	324.0	6.0	0.0	1.0	1.0	324.0	54.0	270.0	216.0	162.0	108.0	7.0	0.0	1.0827117568696851	1.0	0.0	2.0	4.0	6.0	3.0	0.0	part_3
39	0.0	2.0	54.0	1.0	0.0	1.0	0.0	162.0	270.0	324.0	54.0	216.0	108.0	7.0	0.0	1.6001545557519419	4.0	0.0	1.0	5.0	1.0	2.0	0.0	part_3
40	0.0	3.0	216.0	4.0	0.0	1.0	1.0	216.0	108.0	54.0	270.0	162.0	324.0	7.0	0.0	1.2434196598478593	1.0	0.0	4.0	8.0	8.0	6.0	0.0	part_3
41	0.0	3.0	102.0	3.0	0.0	1.0	1.0	136.0	68.0	34.0	204.0	170.0	102.0	7.0	0.0	1.9854262378648853	6.0	0.0	1.0	2.0	5.0	1.0	0.0	part_3
42	0.0	3.0	68.0	2.0	0.0	1.0	1.0	170.0	136.0	68.0	204.0	102.0	34.0	7.0	0.0	1.45903854171047	3.0	0.0	3.0	1.0	7.0	7.0	0.0	part_3
43	0.0	3.0	39.0	1.0	0.0	1.0	0.0	39.0	234.0	117.0	156.0	195.0	78.0	7.0	0.0	1.2464547059498727	1.0	0.0	4.0	6.0	4.0	5.0	0.0	part_3
44	0.0	3.0	68.0	2.0	0.0	1.0	1.0	102.0	136.0	170.0	68.0	34.0	204.0	7.0	0.0	1.380927642865572	4.0	0.0	3.0	1.0	7.0	7.0	0.0	part_3
45	0.0	3.0	216.0	4.0	0.0	1.0	0.0	162.0	324.0	108.0	216.0	54.0	270.0	7.0	0.0	1.9785545538761653	4.0	0.0	2.0	3.0	2.0	4.0	0.0	part_3
46	0.0	3.0	102.0	3.0	0.0	1.0	0.0	68.0	170.0	102.0	136.0	204.0	34.0	7.0	0.0	1.1024874188005924	3.0	0.0	2.0	3.0	2.0	4.0	0.0	part_3
47	0.0	3.0	132.0	3.0	0.0	1.0	0.0	88.0	264.0	132.0	220.0	44.0	176.0	7.0	0.0	1.8343966998509127	3.0	0.0	2.0	3.0	2.0	4.0	0.0	part_3
48	0.0	3.0	196.0	4.0	0.0	1.0	0.0	196.0	49.0	294.0	147.0	245.0	98.0	7.0	0.0	1.6459635318606158	1.0	0.0	2.0	3.0	2.0	4.0	0.0	part_3
49	0.0	3.0	108.0	2.0	0.0	1.0	1.0	108.0	162.0	270.0	216.0	54.0	324.0	7.0	0.0	2.45644406467909	1.0	0.0	4.0	8.0	8.0	6.0	0.0	part_3
50	0.0	3.0	44.0	1.0	0.0	1.0	1.0	88.0	44.0	176.0	220.0	132.0	264.0	7.0	0.0	1.2993835108354688	2.0	0.0	3.0	1.0	7.0	7.0	0.0	part_3
51	0.0	3.0	88.0	2.0	0.0	1.0	0.0	220.0	264.0	88.0	44.0	132.0	176.0	7.0	0.0	1.3555488618439997	3.0	0.0	4.0	6.0	4.0	5.0	0.0	part_3
52	0.0	3.0	68.0	2.0	0.0	1.0	0.0	136.0	170.0	34.0	68.0	102.0	204.0	7.0	0.0	1.7058205878711306	4.0	0.0	4.0	6.0	4.0	5.0	0.0	part_3
53	0.0	3.0	39.0	1.0	0.0	1.0	1.0	195.0	234.0	156.0	39.0	117.0	78.0	7.0	0.0	1.3133373588789254	4.0	0.0	3.0	1.0	7.0	7.0	0.0	part_3
54	0.0	3.0	245.0	5.0	0.0	1.0	1.0	49.0	245.0	147.0	98.0	196.0	294.0	7.0	0.0	1.5625173268490469	2.0	0.0	1.0	2.0	5.0	1.0	0.0	part_3
55	0.0	3.0	270.0	5.0	0.0	1.0	1.0	162.0	54.0	108.0	270.0	216.0	324.0	7.0	0.0	1.0667613278492354	4.0	0.0	3.0	1.0	7.0	7.0	0.0	part_3
56	0.0	3.0	98.0	2.0	0.0	1.0	0.0	294.0	245.0	196.0	147.0	49.0	98.0	7.0	0.0	1.9234659958747216	6.0	0.0	2.0	3.0	2.0	4.0	0.0	part_3
57	0.0	3.0	39.0	1.0	0.0	1.0	0.0	234.0	39.0	195.0	78.0	156.0	117.0	7.0	0.0	1.339808720862493	2.0	0.0	1.0	5.0	1.0	2.0	0.0	part_3
58	0.0	3.0	54.0	1.0	0.0	1.0	0.0	54.0	270.0	216.0	324.0	108.0	162.0	7.0	0.0	1.2176655077491887	1.0	0.0	4.0	6.0	4.0	5.0	0.0	part_3
59	0.0	3.0	132.0	3.0	0.0	1.0	1.0	220.0	176.0	88.0	264.0	132.0	44.0	7.0	0.0	1.3989884289330805	5.0	0.0	4.0	8.0	8.0	6.0	0.0	part_3
60	0.0	4.0	34.0	1.0	0.0	1.0	0.0	170.0	34.0	204.0	68.0	102.0	136.0	7.0	0.0	1.1677211149362847	2.0	0.0	1.0	5.0	1.0	2.0	0.0	part_3
61	0.0	4.0	216.0	4.0	0.0	1.0	1.0	162.0	216.0	270.0	324.0	108.0	54.0	7.0	0.0	1.2920121810166163	2.0	0.0	2.0	4.0	6.0	3.0	0.0	part_3
62	0.0	4.0	54.0	1.0	0.0	1.0	1.0	270.0	324.0	162.0	216.0	54.0	108.0	7.0	0.0	0.9679895797744392	5.0	0.0	3.0	1.0	7.0	7.0	0.0	part_3
63	0.0	4.0	44.0	1.0	0.0	1.0	0.0	220.0	132.0	44.0	176.0	264.0	88.0	7.0	0.0	1.2941953698755242	3.0	0.0	1.0	5.0	1.0	2.0	0.0	part_3
64	0.0	4.0	234.0	6.0	0.0	1.0	1.0	156.0	39.0	117.0	78.0	234.0	195.0	7.0	0.0	1.5893374349107037	5.0	0.0	2.0	4.0	6.0	3.0	0.0	part_3
65	0.0	4.0	195.0	5.0	0.0	1.0	0.0	117.0	78.0	234.0	39.0	195.0	156.0	7.0	0.0	1.757752171717584	5.0	0.0	1.0	5.0	1.0	2.0	0.0	part_3
66	0.0	4.0	162.0	3.0	0.0	1.0	1.0	162.0	216.0	270.0	108.0	324.0	54.0	7.0	0.0	1.6016264898935333	1.0	0.0	1.0	2.0	5.0	1.0	0.0	part_3
67	0.0	4.0	220.0	5.0	0.0	1.0	1.0	176.0	88.0	220.0	44.0	132.0	264.0	7.0	0.0	1.5697827428230084	3.0	0.0	1.0	2.0	5.0	1.0	0.0	part_3
68	0.0	4.0	216.0	4.0	0.0	1.0	0.0	54.0	270.0	324.0	216.0	162.0	108.0	7.0	0.0	1.6270904489792883	4.0	0.0	3.0	7.0	3.0	8.0	0.0	part_3
69	0.0	4.0	220.0	5.0	0.0	1.0	0.0	220.0	44.0	88.0	132.0	176.0	264.0	7.0	0.0	1.9534672097070145	1.0	0.0	3.0	7.0	3.0	8.0	0.0	part_3
70	0.0	4.0	147.0	3.0	0.0	1.0	0.0	49.0	147.0	245.0	98.0	294.0	196.0	7.0	0.0	1.4254443979589269	2.0	0.0	4.0	6.0	4.0	5.0	0.0	part_3
71	0.0	4.0	117.0	3.0	0.0	1.0	1.0	195.0	234.0	78.0	156.0	39.0	117.0	7.0	0.0	1.7648472738801502	6.0	0.0	4.0	8.0	8.0	6.0	0.0	part_3
72	0.0	4.0	204.0	6.0	0.0	1.0	1.0	170.0	204.0	136.0	34.0	102.0	68.0	7.0	0.0	2.778794949932489	2.0	0.0	4.0	8.0	8.0	6.0	0.0	part_3
73	0.0	4.0	108.0	2.0	0.0	1.0	0.0	216.0	108.0	270.0	54.0	162.0	324.0	7.0	0.0	2.5656704497523606	2.0	0.0	2.0	3.0	2.0	4.0	0.0	part_3
74	0.0	4.0	204.0	6.0	0.0	1.0	1.0	68.0	170.0	102.0	204.0	136.0	34.0	7.0	0.0	2.250925685919356	4.0	0.0	2.0	4.0	6.0	3.0	0.0	part_3
75	0.0	4.0	147.0	3.0	0.0	1.0	0.0	98.0	245.0	147.0	294.0	49.0	196.0	7.0	0.0	1.2077533238916658	3.0	0.0	3.0	7.0	3.0	8.0	0.0	part_3
76	0.0	4.0	132.0	3.0	0.0	1.0	0.0	264.0	176.0	220.0	88.0	132.0	44.0	7.0	0.0	1.7135677108890377	5.0	0.0	4.0	6.0	4.0	5.0	0.0	part_3
77	0.0	4.0	147.0	3.0	0.0	1.0	1.0	245.0	49.0	98.0	147.0	294.0	196.0	7.0	0.0	1.9404239350114951	4.0	0.0	4.0	8.0	8.0	6.0	0.0	part_3
78	0.0	4.0	108.0	2.0	0.0	1.0	0.0	270.0	162.0	324.0	54.0	108.0	216.0	7.0	0.0	1.3555707598570734	5.0	0.0	4.0	6.0	4.0	5.0	0.0	part_3
79	0.0	4.0	102.0	3.0	0.0	1.0	1.0	204.0	136.0	170.0	68.0	34.0	102.0	7.0	0.0	1.4250855626887642	6.0	0.0	1.0	2.0	5.0	1.0	0.0	part_3
