	accuracy	block	chosen_bidding_amount	chosen_bidding_level	left_SSD	num_trial_presentations	paired_with_stopping	possible_bid_1	possible_bid_2	possible_bid_3	possible_bid_4	possible_bid_5	possible_bid_6	quadrant	raw_reward_magnitude	reaction_time	response	right_SSD	stepwise_reward_magnitude	stim_color	stim_reward	stim_shape	stop_signal_trial_type	which_part
0		1.0				1.0	1.0							3.0	49.0	0.36564091773470864	3.0		1.0	5.0	5.0	5.0		part_1
1		1.0				1.0	0.0							2.0	0.0	0.44516879285220057	2.0		0.0	6.0	2.0	7.0		part_1
2		1.0				1.0	0.0							1.0	394.0	0.4120395404170267	1.0		4.0	8.0	4.0	2.0		part_1
3		1.0				1.0	1.0							3.0	123.0	0.31042776070535183	3.0		2.0	1.0	6.0	6.0		part_1
4		1.0				1.0	0.0							3.0	40.0	0.378520104335621	3.0		1.0	3.0	1.0	3.0		part_1
5		1.0				1.0	0.0							2.0	175.0	0.3446853884961456	2.0		3.0	4.0	3.0	4.0		part_1
6		1.0				1.0	1.0							4.0	125.0	0.3690609553013928	4.0		2.0	1.0	6.0	6.0		part_1
7		1.0				1.0	0.0							2.0	0.0	0.4360113981529139	2.0		0.0	8.0	4.0	2.0		part_1
8		1.0				1.0	1.0							3.0	421.0	0.2905247418675572	3.0		4.0	7.0	8.0	1.0		part_1
9		1.0				1.0	0.0							1.0	84.0	0.4825208770344034	1.0		2.0	6.0	2.0	7.0		part_1
10		1.0				1.0	1.0							2.0	0.0	0.4151755089988001	2.0		0.0	2.0	7.0	8.0		part_1
11		1.0				1.0	0.0							3.0	88.0	0.3257178897620179	3.0		2.0	6.0	2.0	7.0		part_1
12		1.0				1.0	1.0							1.0	0.0	0.3272794680087827	1.0		0.0	1.0	6.0	6.0		part_1
13		1.0				1.0	1.0							4.0	201.0	0.32683558273129165	4.0		3.0	2.0	7.0	8.0		part_1
14		1.0				1.0	1.0							4.0	199.0	0.3610537305939943	4.0		3.0	2.0	7.0	8.0		part_1
15		1.0				1.0	0.0							2.0	220.0	0.30533867090707645	2.0		3.0	4.0	3.0	4.0		part_1
16		1.0				1.0	1.0							3.0	209.0	0.31635896005900577	3.0		3.0	2.0	7.0	8.0		part_1
17		1.0				1.0	1.0							2.0	0.0	0.4306003784877248	2.0		0.0	7.0	8.0	1.0		part_1
18		1.0				1.0	0.0							4.0	0.0	0.5658335718326271	4.0		0.0	3.0	1.0	3.0		part_1
19		1.0				1.0	0.0							2.0	63.0	0.44415073143318295	2.0		1.0	3.0	1.0	3.0		part_1
20		1.0				1.0	0.0							1.0	93.0	0.3762808587052859	1.0		2.0	6.0	2.0	7.0		part_1
21		1.0				1.0	1.0							1.0	181.0	0.4893837835988961	1.0		3.0	2.0	7.0	8.0		part_1
22		1.0				1.0	1.0							1.0	32.0	0.469068503472954	1.0		1.0	5.0	5.0	5.0		part_1
23		1.0				1.0	1.0							1.0	224.0	0.5573269891319796	1.0		3.0	2.0	7.0	8.0		part_1
24		1.0				1.0	0.0							1.0	381.0	0.4790135191287845	1.0		4.0	8.0	4.0	2.0		part_1
25		1.0				1.0	0.0							1.0	99.0	0.5021529484656639	1.0		2.0	6.0	2.0	7.0		part_1
26		1.0				1.0	1.0							4.0	383.0	0.4458711772458628	4.0		4.0	7.0	8.0	1.0		part_1
27		1.0				1.0	0.0							4.0	39.0	0.4582393509917893	4.0		1.0	3.0	1.0	3.0		part_1
28		1.0				1.0	0.0							4.0	114.0	0.3354517793050036	4.0		2.0	6.0	2.0	7.0		part_1
29		1.0				1.0	0.0							3.0	68.0	0.4598232207936235	3.0		1.0	3.0	1.0	3.0		part_1
30		1.0				1.0	0.0							4.0	0.0	0.4271585920359939	4.0		0.0	6.0	2.0	7.0		part_1
31		1.0				1.0	0.0							1.0	199.0	0.5838224377366714	1.0		3.0	4.0	3.0	4.0		part_1
32		1.0				1.0	1.0							2.0	412.0	0.3498343012761325	2.0		4.0	7.0	8.0	1.0		part_1
33		1.0				1.0	0.0							3.0	203.0	0.3607945717521943	3.0		3.0	4.0	3.0	4.0		part_1
34		1.0				1.0	0.0							2.0	379.0	0.5650396897690371	2.0		4.0	8.0	4.0	2.0		part_1
35		1.0				1.0	0.0							2.0	185.0	0.5188700754661113	2.0		3.0	4.0	3.0	4.0		part_1
36		1.0				1.0	0.0							3.0	187.0	0.4405446572927758	3.0		3.0	4.0	3.0	4.0		part_1
37		1.0				1.0	0.0							2.0	47.0	0.5088807445717975	2.0		1.0	3.0	1.0	3.0		part_1
38		1.0				1.0	0.0							2.0	106.0	0.4762306975899264	2.0		2.0	6.0	2.0	7.0		part_1
39		1.0				1.0	0.0							1.0	29.0	0.3879664020496421	1.0		1.0	3.0	1.0	3.0		part_1
40		1.0				1.0	1.0							4.0	0.0	0.3763673317735083	4.0		0.0	2.0	7.0	8.0		part_1
41		1.0				1.0	0.0							4.0	55.0	0.42145404644543305	4.0		1.0	3.0	1.0	3.0		part_1
42		1.0				1.0	1.0							3.0	184.0	0.4886243198416196	3.0		3.0	2.0	7.0	8.0		part_1
43		1.0				1.0	0.0							1.0	106.0	0.44652041915105656	1.0		2.0	6.0	2.0	7.0		part_1
44		1.0				1.0	1.0							2.0	0.0	0.32199564727488905	2.0		0.0	2.0	7.0	8.0		part_1
45		1.0				1.0	0.0							4.0	191.0	0.4019252095604315	4.0		3.0	4.0	3.0	4.0		part_1
46		1.0				1.0	1.0							2.0	0.0	0.5155125043238513	2.0		0.0	7.0	8.0	1.0		part_1
47		1.0				1.0	1.0							1.0	94.0	0.40201677224831656	1.0		2.0	1.0	6.0	6.0		part_1
48		1.0				1.0	0.0							4.0	216.0	0.4262792564695701	4.0		3.0	4.0	3.0	4.0		part_1
49		1.0				1.0	1.0							4.0	0.0	0.43685814132913947	4.0		0.0	5.0	5.0	5.0		part_1
50		1.0				1.0	0.0							4.0	414.0	0.392838969710283	4.0		4.0	8.0	4.0	2.0		part_1
51		1.0				1.0	1.0							4.0	50.0	0.3261636252864264	4.0		1.0	5.0	5.0	5.0		part_1
52		1.0				1.0	0.0							1.0	0.0	0.5734577901894227	1.0		0.0	8.0	4.0	2.0		part_1
53		1.0				1.0	0.0							2.0	387.0	0.4066290453192778	2.0		4.0	8.0	4.0	2.0		part_1
54		1.0				1.0	1.0							2.0	194.0	0.3833344512386248	2.0		3.0	2.0	7.0	8.0		part_1
55		1.0				1.0	1.0							4.0	225.0	0.6100566270179115	4.0		3.0	2.0	7.0	8.0		part_1
56		1.0				1.0	1.0							4.0	99.0	0.5305098668322898	4.0		2.0	1.0	6.0	6.0		part_1
57		1.0				1.0	1.0							2.0	191.0	0.5438734397175722	2.0		3.0	2.0	7.0	8.0		part_1
58		1.0				2.0	0.0							4.0	184.0	0.5212552683078684	4.0		3.0	4.0	3.0	4.0		part_1
59		1.0				1.0	0.0							2.0	40.0	0.5568841475760564	2.0		1.0	3.0	1.0	3.0		part_1
60		1.0				1.0	1.0							3.0	378.0	0.4320932210539468	3.0		4.0	7.0	8.0	1.0		part_1
61		1.0				1.0	0.0							3.0	0.0	0.466592728276737	3.0		0.0	6.0	2.0	7.0		part_1
62		1.0				1.0	1.0							3.0	224.0	0.5124546799925156	3.0		3.0	2.0	7.0	8.0		part_1
63		1.0				1.0	1.0							1.0	410.0	0.6019744297373109	1.0		4.0	7.0	8.0	1.0		part_1
64		1.0				1.0	1.0							4.0	200.0	0.4683745157090016	4.0		3.0	2.0	7.0	8.0		part_1
65		1.0				1.0	0.0							2.0	383.0	0.479748121870216	2.0		4.0	8.0	4.0	2.0		part_1
66		1.0				1.0	1.0							4.0	386.0	0.3905375538743101	4.0		4.0	7.0	8.0	1.0		part_1
67		1.0				1.0	1.0							1.0	118.0	0.7524230270646513	1.0		2.0	1.0	6.0	6.0		part_1
68		1.0				1.0	0.0							2.0	71.0	0.4602517598541454	2.0		1.0	3.0	1.0	3.0		part_1
69		1.0				1.0	1.0							4.0	219.0	0.4937450753641315	4.0		3.0	2.0	7.0	8.0		part_1
70		1.0				1.0	0.0							2.0	123.0	0.4490880384691991	2.0		2.0	6.0	2.0	7.0		part_1
71		1.0				1.0	1.0							4.0	55.0	0.5501577030518092	4.0		1.0	5.0	5.0	5.0		part_1
72		1.0				1.0	1.0							1.0	405.0	0.4724450437352061	1.0		4.0	7.0	8.0	1.0		part_1
73		1.0				1.0	0.0							1.0	26.0	0.462961622281	1.0		1.0	3.0	1.0	3.0		part_1
74		1.0				1.0	0.0							2.0	421.0	0.4290211935294792	2.0		4.0	8.0	4.0	2.0		part_1
75		1.0				1.0	1.0							3.0	78.0	0.4292493194807321	3.0		2.0	1.0	6.0	6.0		part_1
76		1.0				1.0	0.0							2.0	200.0	0.4765070675639436	2.0		3.0	4.0	3.0	4.0		part_1
77		1.0				1.0	0.0							1.0	93.0	0.4973887160886079	1.0		2.0	6.0	2.0	7.0		part_1
78		1.0				1.0	1.0							1.0	0.0	0.7792725912877358	1.0		0.0	5.0	5.0	5.0		part_1
79		1.0				1.0	1.0							2.0	56.0	0.4102880450082012	2.0		1.0	5.0	5.0	5.0		part_1
80		1.0				1.0	1.0							4.0	0.0	0.3202979084453545	4.0		0.0	7.0	8.0	1.0		part_1
81		1.0				1.0	0.0							4.0	0.0	0.37614795501576737	4.0		0.0	6.0	2.0	7.0		part_1
82		1.0				1.0	1.0							4.0	0.0	0.4002789564547129	4.0		0.0	2.0	7.0	8.0		part_1
83		1.0				1.0	1.0							1.0	63.0	0.613849074288737	1.0		1.0	5.0	5.0	5.0		part_1
84		1.0				1.0	1.0							4.0	387.0	0.435136173851788	4.0		4.0	7.0	8.0	1.0		part_1
85		1.0				1.0	0.0							3.0	49.0	0.4226089965668507	3.0		1.0	3.0	1.0	3.0		part_1
86		1.0				1.0	0.0							2.0	380.0	0.4251619167625904	2.0		4.0	8.0	4.0	2.0		part_1
87		1.0				1.0	1.0							1.0	76.0	0.4253164688707329	1.0		2.0	1.0	6.0	6.0		part_1
88		1.0				1.0	1.0							2.0	414.0	0.369373559311498	2.0		4.0	7.0	8.0	1.0		part_1
89		1.0				1.0	0.0							4.0	94.0	0.42519399884622544	4.0		2.0	6.0	2.0	7.0		part_1
90		1.0				1.0	0.0							4.0	410.0	0.6283989993389696	4.0		4.0	8.0	4.0	2.0		part_1
91		1.0				1.0	1.0							2.0	114.0	0.5274260703008622	2.0		2.0	1.0	6.0	6.0		part_1
92		1.0				1.0	0.0							4.0	181.0	0.41563764528837055	4.0		3.0	4.0	3.0	4.0		part_1
93		1.0				1.0	1.0							3.0	0.0	0.4053837322862819	3.0		0.0	5.0	5.0	5.0		part_1
94		1.0				1.0	0.0							1.0	125.0	0.4624553945031949	1.0		2.0	6.0	2.0	7.0		part_1
95		1.0				1.0	1.0							1.0	415.0	0.5653170264558867	1.0		4.0	7.0	8.0	1.0		part_1
96		1.0				1.0	1.0							2.0	73.0	0.4973836941644549	2.0		1.0	5.0	5.0	5.0		part_1
97		1.0				1.0	1.0							2.0	50.0	0.4985812693485059	2.0		1.0	5.0	5.0	5.0		part_1
98		1.0				1.0	0.0							2.0	188.0	0.5876074935658835	2.0		3.0	4.0	3.0	4.0		part_1
99		1.0				1.0	0.0							1.0	0.0	0.7237581080407836	1.0		0.0	8.0	4.0	2.0		part_1
100		2.0				2.0	1.0							1.0	407.0	0.543862925725989	1.0		4.0	7.0	8.0	1.0		part_1
101		2.0				1.0	1.0							3.0	102.0	0.4201395937707275	3.0		2.0	1.0	6.0	6.0		part_1
102		2.0				1.0	0.0							1.0	419.0	0.521894606470596	1.0		4.0	8.0	4.0	2.0		part_1
103		2.0				1.0	0.0							2.0	0.0	0.4327017570612952	2.0		0.0	4.0	3.0	4.0		part_1
104		2.0				1.0	0.0							3.0	225.0	0.411779182322789	3.0		3.0	4.0	3.0	4.0		part_1
105		2.0				1.0	0.0							2.0	59.0	0.3999857784365304	2.0		1.0	3.0	1.0	3.0		part_1
106		2.0				1.0	1.0							2.0	220.0	0.4914071515668184	2.0		3.0	2.0	7.0	8.0		part_1
107		2.0				1.0	0.0							1.0	0.0	0.35661472112406045	1.0		0.0	6.0	2.0	7.0		part_1
108		2.0				1.0	0.0							1.0	190.0	0.4237272485042922	1.0		3.0	4.0	3.0	4.0		part_1
109		2.0				1.0	0.0							1.0	405.0	0.4698578021489084	1.0		4.0	8.0	4.0	2.0		part_1
110		2.0				1.0	0.0							3.0	47.0	0.414333289838396	3.0		1.0	3.0	1.0	3.0		part_1
111		2.0				1.0	0.0							2.0	206.0	0.3706857381621376	2.0		3.0	4.0	3.0	4.0		part_1
112		2.0				1.0	0.0							4.0	48.0	0.391726239467971	4.0		1.0	3.0	1.0	3.0		part_1
113		2.0				1.0	0.0							3.0	50.0	0.3139080025721341	3.0		1.0	3.0	1.0	3.0		part_1
114		2.0				1.0	1.0							1.0	188.0	0.417317510349676	1.0		3.0	2.0	7.0	8.0		part_1
115		2.0				1.0	1.0							3.0	199.0	0.4607019191607833	3.0		3.0	2.0	7.0	8.0		part_1
116		2.0				1.0	0.0							1.0	211.0	0.474553297564853	1.0		3.0	4.0	3.0	4.0		part_1
117		2.0				1.0	0.0							3.0	0.0	0.3941963996039704	3.0		0.0	6.0	2.0	7.0		part_1
118		2.0				1.0	0.0							3.0	377.0	0.4862420763238333	3.0		4.0	8.0	4.0	2.0		part_1
119		2.0				1.0	1.0							4.0	110.0	0.3846025798702613	4.0		2.0	1.0	6.0	6.0		part_1
120		2.0				1.0	0.0							4.0	37.0	0.3866813048371114	4.0		1.0	3.0	1.0	3.0		part_1
121		2.0				1.0	1.0							2.0	216.0	0.4892624453059398	2.0		3.0	2.0	7.0	8.0		part_1
122		2.0				1.0	0.0							3.0	81.0	0.44269809388788417	3.0		2.0	6.0	2.0	7.0		part_1
123		2.0				1.0	1.0							3.0	43.0	0.4216267308802344	3.0		1.0	5.0	5.0	5.0		part_1
124		2.0				1.0	0.0							3.0	100.0	0.4104277694714256	3.0		2.0	6.0	2.0	7.0		part_1
125		2.0				1.0	0.0							4.0	89.0	0.4446723144501448	4.0		2.0	6.0	2.0	7.0		part_1
126		2.0				1.0	1.0							1.0	40.0	0.4243665931862779	1.0		1.0	5.0	5.0	5.0		part_1
127		2.0				1.0	1.0							2.0	389.0	0.5369669422507286	2.0		4.0	7.0	8.0	1.0		part_1
128		2.0				1.0	1.0							4.0	33.0	0.4689239347353578	4.0		1.0	5.0	5.0	5.0		part_1
129		2.0				1.0	1.0							4.0	0.0	0.4467326739686541	4.0		0.0	7.0	8.0	1.0		part_1
130		2.0				1.0	0.0							4.0	194.0	0.3684238761779852	4.0		3.0	4.0	3.0	4.0		part_1
131		2.0				1.0	0.0							1.0	52.0	0.8756130362162367	1.0		1.0	3.0	1.0	3.0		part_1
132		2.0				1.0	1.0							1.0	0.0	0.3918824488646351	1.0		0.0	2.0	7.0	8.0		part_1
133		2.0				1.0	1.0							4.0	379.0	0.4149800114100799	4.0		4.0	7.0	8.0	1.0		part_1
134		2.0				1.0	1.0							1.0	40.0	0.4842804704676382	1.0		1.0	5.0	5.0	5.0		part_1
135		2.0				1.0	1.0							1.0	84.0	0.4398679941659793	1.0		2.0	1.0	6.0	6.0		part_1
136		2.0				1.0	1.0							1.0	47.0	0.495641561166849	1.0		1.0	5.0	5.0	5.0		part_1
137		2.0				1.0	0.0							2.0	415.0	0.4846891752677038	2.0		4.0	8.0	4.0	2.0		part_1
138		2.0				1.0	0.0							4.0	81.0	0.4292631687130779	4.0		2.0	6.0	2.0	7.0		part_1
139		2.0				1.0	0.0							2.0	0.0	0.5536250821314752	2.0		0.0	8.0	4.0	2.0		part_1
140		2.0				1.0	1.0							3.0	214.0	0.4653693787404336	3.0		3.0	2.0	7.0	8.0		part_1
141		2.0				1.0	1.0							2.0	0.0	0.4866553682950325	2.0		0.0	5.0	5.0	5.0		part_1
142		2.0				1.0	0.0							2.0	421.0	0.4779102326137945	2.0		4.0	8.0	4.0	2.0		part_1
143		2.0				1.0	1.0							2.0	0.0	0.4101024057599716	2.0		0.0	5.0	5.0	5.0		part_1
144		2.0				1.0	0.0							3.0	0.0	0.37760779733071104	3.0		0.0	4.0	3.0	4.0		part_1
145		2.0				1.0	0.0							2.0	0.0	0.4328970447531901	2.0		0.0	3.0	1.0	3.0		part_1
146		2.0				1.0	1.0							2.0	379.0	0.4679361419985071	2.0		4.0	7.0	8.0	1.0		part_1
147		2.0				1.0	1.0							3.0	197.0	0.4227819601073861	3.0		3.0	2.0	7.0	8.0		part_1
148		2.0				1.0	0.0							4.0	407.0	0.4687501091975719	4.0		4.0	8.0	4.0	2.0		part_1
149		2.0				1.0	0.0							2.0	40.0	0.5370209016255103	2.0		1.0	3.0	1.0	3.0		part_1
150		2.0				1.0	0.0							2.0	0.0	0.6170270633301698	2.0		0.0	4.0	3.0	4.0		part_1
151		2.0				1.0	0.0							1.0	89.0	0.7744691988918929	1.0		2.0	6.0	2.0	7.0		part_1
152		2.0				1.0	1.0							2.0	75.0	0.5167871507583186	2.0		2.0	1.0	6.0	6.0		part_1
153		2.0				1.0	1.0							2.0	207.0	0.6187608321779408	2.0		3.0	2.0	7.0	8.0		part_1
154		2.0				1.0	1.0							4.0	0.0	0.4388437023153529	4.0		0.0	5.0	5.0	5.0		part_1
155		2.0				1.0	1.0							2.0	0.0	0.5397266874206252	2.0		0.0	7.0	8.0	1.0		part_1
156		2.0				1.0	0.0							2.0	75.0	0.518984891299624	2.0		1.0	3.0	1.0	3.0		part_1
157		2.0				1.0	0.0							4.0	0.0	0.5975656758528203	4.0		0.0	3.0	1.0	3.0		part_1
158		2.0				1.0	1.0							2.0	185.0	0.4627206557197496	2.0		3.0	2.0	7.0	8.0		part_1
159		2.0				1.0	0.0							4.0	0.0	0.5759760345681569	4.0		0.0	3.0	1.0	3.0		part_1
160		2.0				1.0	1.0							4.0	106.0	0.40908933884929866	4.0		2.0	1.0	6.0	6.0		part_1
161		2.0				1.0	1.0							4.0	81.0	0.4523931432049722	4.0		2.0	1.0	6.0	6.0		part_1
162		2.0				1.0	0.0							2.0	114.0	0.6902041813009419	2.0		2.0	6.0	2.0	7.0		part_1
163		2.0				1.0	1.0							1.0	30.0	0.5003901162999682	1.0		1.0	5.0	5.0	5.0		part_1
164		2.0				1.0	0.0							1.0	224.0	0.4446427255752496	1.0		3.0	4.0	3.0	4.0		part_1
165		2.0				1.0	0.0							2.0	0.0	0.6358888791874051	2.0		0.0	8.0	4.0	2.0		part_1
166		2.0				1.0	1.0							2.0	81.0	0.5136635578237474	2.0		2.0	1.0	6.0	6.0		part_1
167		2.0				1.0	0.0							2.0	50.0	0.5258016118314117	2.0		1.0	3.0	1.0	3.0		part_1
168		2.0				1.0	1.0							4.0	395.0	0.5124952311743982	4.0		4.0	7.0	8.0	1.0		part_1
169		2.0				1.0	1.0							4.0	210.0	0.4363032257533632	4.0		3.0	2.0	7.0	8.0		part_1
170		2.0				1.0	1.0							1.0	124.0	0.6940792828681879	1.0		2.0	1.0	6.0	6.0		part_1
171		2.0				1.0	1.0							3.0	191.0	0.514405837864615	3.0		3.0	2.0	7.0	8.0		part_1
172		2.0				1.0	0.0							2.0	0.0	0.4722841788898222	2.0		0.0	8.0	4.0	2.0		part_1
173		2.0				1.0	1.0							2.0	396.0	0.7764856292051263	2.0		4.0	7.0	8.0	1.0		part_1
174		2.0				1.0	0.0							2.0	0.0	0.5858138995827176	2.0		0.0	4.0	3.0	4.0		part_1
175		2.0				1.0	1.0							4.0	88.0	0.4735720961471088	4.0		2.0	1.0	6.0	6.0		part_1
176		2.0				1.0	0.0							4.0	124.0	0.4054065225063823	4.0		2.0	6.0	2.0	7.0		part_1
177		2.0				1.0	1.0							1.0	175.0	0.4956797256018035	1.0		3.0	2.0	7.0	8.0		part_1
178		2.0				1.0	1.0							3.0	80.0	0.46188608772354206	3.0		2.0	1.0	6.0	6.0		part_1
179		2.0				1.0	0.0							4.0	182.0	0.4634435521438718	4.0		3.0	4.0	3.0	4.0		part_1
180		2.0				1.0	1.0							4.0	0.0	0.4856317092198879	4.0		0.0	7.0	8.0	1.0		part_1
181		2.0				1.0	0.0							3.0	29.0	0.4641610195976682	3.0		1.0	3.0	1.0	3.0		part_1
182		2.0				1.0	1.0							1.0	203.0	0.5562294982955791	1.0		3.0	2.0	7.0	8.0		part_1
183		2.0				1.0	0.0							1.0	421.0	0.510727864166256	1.0		4.0	8.0	4.0	2.0		part_1
184		2.0				1.0	0.0							1.0	0.0	0.4665730202104896	1.0		0.0	4.0	3.0	4.0		part_1
185		2.0				1.0	0.0							4.0	75.0	0.4883864799048752	4.0		1.0	3.0	1.0	3.0		part_1
186		2.0				1.0	1.0							3.0	109.0	0.3882969992118888	3.0		2.0	1.0	6.0	6.0		part_1
187		2.0				1.0	0.0							2.0	399.0	0.4232485017273575	2.0		4.0	8.0	4.0	2.0		part_1
188		2.0				1.0	0.0							3.0	418.0	0.4337452341569588	3.0		4.0	8.0	4.0	2.0		part_1
189		2.0				1.0	0.0							3.0	176.0	0.4008830788661726	3.0		3.0	4.0	3.0	4.0		part_1
190		2.0				1.0	1.0							3.0	68.0	0.3669068054296076	3.0		1.0	5.0	5.0	5.0		part_1
191		2.0				1.0	1.0							4.0	120.0	0.42444721033098176	4.0		2.0	1.0	6.0	6.0		part_1
192		2.0				1.0	1.0							3.0	40.0	0.4365955552784726	3.0		1.0	5.0	5.0	5.0		part_1
193		2.0				1.0	1.0							4.0	71.0	0.4932671762653626	4.0		1.0	5.0	5.0	5.0		part_1
194		2.0				1.0	1.0							4.0	75.0	0.4608979055774398	4.0		1.0	5.0	5.0	5.0		part_1
195		2.0				1.0	1.0							4.0	59.0	0.4494516393169761	4.0		1.0	5.0	5.0	5.0		part_1
196		2.0				1.0	1.0							4.0	0.0	0.4160453496151604	4.0		0.0	1.0	6.0	6.0		part_1
197		2.0				1.0	1.0							4.0	114.0	0.4389870075974613	4.0		2.0	1.0	6.0	6.0		part_1
198		2.0				1.0	0.0							4.0	199.0	0.4504159908392466	4.0		3.0	4.0	3.0	4.0		part_1
199		2.0				1.0	1.0							4.0	193.0	0.4405143452459015	4.0		3.0	2.0	7.0	8.0		part_1
200		3.0				1.0	1.0							4.0	52.0	0.4894708738429472	4.0		1.0	5.0	5.0	5.0		part_1
201		3.0				1.0	0.0							1.0	185.0	0.3991381744854152	1.0		3.0	4.0	3.0	4.0		part_1
202		3.0				1.0	0.0							1.0	0.0	0.6580609474913217	1.0		0.0	4.0	3.0	4.0		part_1
203		3.0				1.0	0.0							2.0	0.0	0.5348661297466606	2.0		0.0	4.0	3.0	4.0		part_1
204		3.0				1.0	1.0							1.0	0.0	0.5347369458177127	1.0		0.0	1.0	6.0	6.0		part_1
205		3.0				1.0	0.0							4.0	109.0	0.4339426162769087	4.0		2.0	6.0	2.0	7.0		part_1
206		3.0				1.0	1.0							3.0	419.0	0.3224049721611664	3.0		4.0	7.0	8.0	1.0		part_1
207		3.0				1.0	1.0							2.0	377.0	0.4800857448717579	2.0		4.0	7.0	8.0	1.0		part_1
208		3.0				1.0	1.0							4.0	89.0	0.41383589286124334	4.0		2.0	1.0	6.0	6.0		part_1
209		3.0				1.0	0.0							2.0	396.0	0.4813273541512899	2.0		4.0	8.0	4.0	2.0		part_1
210		3.0				1.0	0.0							1.0	199.0	0.3359625171869993	1.0		3.0	4.0	3.0	4.0		part_1
211		3.0				1.0	1.0							3.0	99.0	0.4598830590257421	3.0		2.0	1.0	6.0	6.0		part_1
212		3.0				1.0	0.0							3.0	81.0	0.4948913398548029	3.0		2.0	6.0	2.0	7.0		part_1
213		3.0				1.0	1.0							3.0	0.0	0.4173256458598189	3.0		0.0	7.0	8.0	1.0		part_1
214		3.0				1.0	0.0							4.0	193.0	0.4500676654861309	4.0		3.0	4.0	3.0	4.0		part_1
215		3.0				1.0	0.0							3.0	73.0	0.5080111542483792	3.0		1.0	3.0	1.0	3.0		part_1
216		3.0				1.0	0.0							3.0	395.0	0.4631191564840265	3.0		4.0	8.0	4.0	2.0		part_1
217		3.0				1.0	1.0							4.0	0.0	0.4752016486017965	4.0		0.0	2.0	7.0	8.0		part_1
218		3.0				1.0	1.0							4.0	199.0	0.5545160118490458	4.0		3.0	2.0	7.0	8.0		part_1
219		3.0				1.0	0.0							2.0	95.0	0.7365567334345542	2.0		2.0	6.0	2.0	7.0		part_1
220		3.0				1.0	1.0							3.0	402.0	0.4102689261781052	3.0		4.0	7.0	8.0	1.0		part_1
221		3.0				1.0	1.0							4.0	418.0	0.5784254881436937	4.0		4.0	7.0	8.0	1.0		part_1
222		3.0				1.0	1.0							3.0	414.0	0.4215529575594701	3.0		4.0	7.0	8.0	1.0		part_1
223		3.0				1.0	0.0							3.0	419.0	0.4434097732882947	3.0		4.0	8.0	4.0	2.0		part_1
224		3.0				1.0	1.0							2.0	176.0	0.6142939262790605	2.0		3.0	2.0	7.0	8.0		part_1
225		3.0				1.0	1.0							2.0	123.0	0.4567858129157685	2.0		2.0	1.0	6.0	6.0		part_1
226		3.0				1.0	0.0							2.0	118.0	0.4914548983215354	2.0		2.0	6.0	2.0	7.0		part_1
227		3.0				1.0	0.0							1.0	415.0	0.5376200392493047	1.0		4.0	8.0	4.0	2.0		part_1
228		3.0				1.0	0.0							3.0	99.0	0.5823988271877171	3.0		2.0	6.0	2.0	7.0		part_1
229		3.0				1.0	0.0							1.0	416.0	0.5040582543006167	1.0		4.0	8.0	4.0	2.0		part_1
230		3.0				1.0	1.0							1.0	0.0	0.4819917872082442	1.0		0.0	1.0	6.0	6.0		part_1
231		3.0				1.0	1.0							2.0	100.0	0.5279467715299688	2.0		2.0	1.0	6.0	6.0		part_1
232		3.0				1.0	1.0							4.0	68.0	0.5730776841519399	4.0		1.0	5.0	5.0	5.0		part_1
233		3.0				1.0	1.0							4.0	415.0	0.5056762702879496	4.0		4.0	7.0	8.0	1.0		part_1
234		3.0				1.0	0.0							1.0	379.0	0.6078302460373379	1.0		4.0	8.0	4.0	2.0		part_1
235		3.0				1.0	1.0							1.0	31.0	0.4519708172301762	1.0		1.0	5.0	5.0	5.0		part_1
236		3.0				1.0	0.0							4.0	102.0	0.4414246584638022	4.0		2.0	6.0	2.0	7.0		part_1
237		3.0				1.0	1.0							1.0	0.0	0.5646404881263152	1.0		0.0	2.0	7.0	8.0		part_1
238		3.0				1.0	1.0							2.0	0.0	0.5548742322716862	2.0		0.0	1.0	6.0	6.0		part_1
239		3.0				1.0	0.0							4.0	94.0	0.5328549674595706	4.0		2.0	6.0	2.0	7.0		part_1
240		3.0				1.0	1.0							1.0	404.0	0.5104423770681024	1.0		4.0	7.0	8.0	1.0		part_1
241		3.0				1.0	1.0							3.0	75.0	0.5433193987701088	3.0		1.0	5.0	5.0	5.0		part_1
242		3.0				1.0	1.0							1.0	93.0	0.4318866016110405	1.0		2.0	1.0	6.0	6.0		part_1
243		3.0				1.0	1.0							1.0	395.0	0.4781632701633498	1.0		4.0	7.0	8.0	1.0		part_1
244		3.0				1.0	1.0							4.0	399.0	0.6807397348457016	4.0		4.0	7.0	8.0	1.0		part_1
245		3.0				1.0	0.0							4.0	414.0	0.5808144683251157	4.0		4.0	8.0	4.0	2.0		part_1
246		3.0				1.0	0.0							4.0	0.0	0.37852268444839865	4.0		0.0	4.0	3.0	4.0		part_1
247		3.0				1.0	0.0							1.0	402.0	0.5808140852022916	1.0		4.0	8.0	4.0	2.0		part_1
248		3.0				1.0	0.0							2.0	389.0	0.5588963974732906	2.0		4.0	8.0	4.0	2.0		part_1
249		3.0				1.0	1.0							4.0	190.0	0.5031539915362373	4.0		3.0	2.0	7.0	8.0		part_1
250		3.0				1.0	1.0							3.0	207.0	0.4254048284492456	3.0		3.0	2.0	7.0	8.0		part_1
251		3.0				1.0	0.0							1.0	99.0	0.4832556527690031	1.0		2.0	6.0	2.0	7.0		part_1
252		3.0				1.0	0.0							3.0	102.0	0.7307477504946291	3.0		2.0	6.0	2.0	7.0		part_1
253		3.0				1.0	1.0							2.0	66.0	0.6526225042762235	2.0		1.0	5.0	5.0	5.0		part_1
254		3.0				1.0	1.0							2.0	114.0	0.6081596651347354	2.0		2.0	1.0	6.0	6.0		part_1
255		3.0				1.0	0.0							2.0	207.0	0.4840977707062848	2.0		3.0	4.0	3.0	4.0		part_1
256		3.0				1.0	1.0							1.0	185.0	0.5639774677692913	1.0		3.0	2.0	7.0	8.0		part_1
257		3.0				1.0	0.0							3.0	207.0	0.4065313000464812	3.0		3.0	4.0	3.0	4.0		part_1
258		3.0				1.0	1.0							3.0	380.0	0.4186781541793607	3.0		4.0	7.0	8.0	1.0		part_1
259		3.0				1.0	0.0							1.0	27.0	0.7678457075962797	1.0		1.0	3.0	1.0	3.0		part_1
260		3.0				1.0	1.0							1.0	95.0	0.5326012952718884	1.0		2.0	1.0	6.0	6.0		part_1
261		3.0				1.0	0.0							3.0	114.0	0.4529406750225462	3.0		2.0	6.0	2.0	7.0		part_1
262		3.0				1.0	1.0							1.0	394.0	0.5120807612547651	1.0		4.0	7.0	8.0	1.0		part_1
263		3.0				1.0	0.0							3.0	100.0	0.4092446992872283	3.0		2.0	6.0	2.0	7.0		part_1
264		3.0				1.0	1.0							2.0	0.0	0.6915963351493701	2.0		0.0	7.0	8.0	1.0		part_1
265		3.0				1.0	0.0							2.0	75.0	0.6032971533131786	2.0		2.0	6.0	2.0	7.0		part_1
266		3.0				1.0	0.0							1.0	197.0	0.5467369337566197	1.0		3.0	4.0	3.0	4.0		part_1
267		3.0				1.0	0.0							2.0	0.0	0.5033920898567885	2.0		0.0	3.0	1.0	3.0		part_1
268		3.0				1.0	1.0							2.0	123.0	0.5818443137104623	2.0		2.0	1.0	6.0	6.0		part_1
269		3.0				1.0	1.0							2.0	103.0	0.582237962866202	2.0		2.0	1.0	6.0	6.0		part_1
270		3.0				1.0	0.0							4.0	399.0	0.5264044787618332	4.0		4.0	8.0	4.0	2.0		part_1
271		3.0				1.0	0.0							1.0	103.0	0.5836755127529614	1.0		2.0	6.0	2.0	7.0		part_1
272		3.0				1.0	1.0							3.0	26.0	0.4485939351725392	3.0		1.0	5.0	5.0	5.0		part_1
273		3.0				1.0	0.0							3.0	110.0	0.4937650225474499	3.0		2.0	6.0	2.0	7.0		part_1
274		3.0				1.0	1.0							1.0	85.0	0.540111455891747	1.0		2.0	1.0	6.0	6.0		part_1
275		3.0				1.0	0.0							1.0	48.0	0.4953188865911216	1.0		1.0	3.0	1.0	3.0		part_1
276		3.0				1.0	0.0							1.0	224.0	0.5408215904608369	1.0		3.0	4.0	3.0	4.0		part_1
277		3.0				1.0	1.0							2.0	0.0	0.564124072145205	2.0		0.0	7.0	8.0	1.0		part_1
278		3.0				1.0	0.0							1.0	123.0	0.6668088058941066	1.0		2.0	6.0	2.0	7.0		part_1
279		3.0				1.0	0.0							1.0	32.0	0.6455596796004102	1.0		1.0	3.0	1.0	3.0		part_1
280		3.0				1.0	0.0							2.0	195.0	0.5215332210063934	2.0		3.0	4.0	3.0	4.0		part_1
281		3.0				1.0	0.0							2.0	0.0	0.7132515055709518	2.0		0.0	3.0	1.0	3.0		part_1
282		3.0				1.0	0.0							4.0	56.0	0.4891786375665106	4.0		1.0	3.0	1.0	3.0		part_1
283		3.0				1.0	1.0							1.0	419.0	0.5000775904627517	1.0		4.0	7.0	8.0	1.0		part_1
284		3.0				1.0	0.0							1.0	0.0	0.6574082814622672	1.0		0.0	8.0	4.0	2.0		part_1
285		3.0				1.0	1.0							4.0	0.0	0.5014437255449593	4.0		0.0	1.0	6.0	6.0		part_1
286		3.0				1.0	0.0							3.0	209.0	0.4914979143068194	3.0		3.0	4.0	3.0	4.0		part_1
287		3.0				1.0	0.0							3.0	31.0	0.4004512474639341	3.0		1.0	3.0	1.0	3.0		part_1
288		3.0				1.0	1.0							3.0	421.0	0.3668655790388584	3.0		4.0	7.0	8.0	1.0		part_1
289		3.0				1.0	0.0							1.0	53.0	0.4807059458689764	1.0		1.0	3.0	1.0	3.0		part_1
290		3.0				1.0	0.0							4.0	99.0	0.5033576734713279	4.0		2.0	6.0	2.0	7.0		part_1
291		3.0				1.0	1.0							2.0	392.0	0.5055280711967498	2.0		4.0	7.0	8.0	1.0		part_1
292		3.0				1.0	1.0							2.0	216.0	0.470605765178334	2.0		3.0	2.0	7.0	8.0		part_1
293		3.0				1.0	1.0							3.0	99.0	0.4933899804600514	3.0		2.0	1.0	6.0	6.0		part_1
294		3.0				1.0	0.0							3.0	389.0	0.5048483818536624	3.0		4.0	8.0	4.0	2.0		part_1
295		3.0				1.0	1.0							3.0	47.0	0.41561887704301625	3.0		1.0	5.0	5.0	5.0		part_1
296		3.0				1.0	1.0							3.0	68.0	0.3834258615388535	3.0		1.0	5.0	5.0	5.0		part_1
297		3.0				1.0	1.0							4.0	381.0	0.4864503691205755	4.0		4.0	7.0	8.0	1.0		part_1
298		3.0				1.0	1.0							3.0	93.0	0.4068027001922019	3.0		2.0	1.0	6.0	6.0		part_1
299		3.0				1.0	1.0							2.0	214.0	0.4978697398910299	2.0		3.0	2.0	7.0	8.0		part_1
300		4.0				1.0	1.0							3.0	106.0	0.5140347953420132	3.0		2.0	1.0	6.0	6.0		part_1
301		4.0				1.0	1.0							1.0	48.0	0.3586916254716925	1.0		1.0	5.0	5.0	5.0		part_1
302		4.0				1.0	1.0							2.0	29.0	0.3707276247441769	2.0		1.0	5.0	5.0	5.0		part_1
303		4.0				1.0	1.0							2.0	68.0	0.5386769784381613	2.0		1.0	5.0	5.0	5.0		part_1
304		4.0				1.0	0.0							4.0	0.0	0.3932739364681765	4.0		0.0	6.0	2.0	7.0		part_1
305		4.0				1.0	1.0							4.0	381.0	0.43785265716724103	4.0		4.0	7.0	8.0	1.0		part_1
306		4.0				1.0	1.0							4.0	0.0	0.4158581500523724	4.0		0.0	5.0	5.0	5.0		part_1
307		4.0				1.0	0.0							1.0	216.0	0.47437865356914705	1.0		3.0	4.0	3.0	4.0		part_1
308		4.0				1.0	0.0							2.0	76.0	0.5185163972782902	2.0		2.0	6.0	2.0	7.0		part_1
309		4.0				1.0	0.0							4.0	386.0	0.41964134346926585	4.0		4.0	8.0	4.0	2.0		part_1
310		4.0				1.0	0.0							2.0	85.0	0.4193542457651347	2.0		2.0	6.0	2.0	7.0		part_1
311		4.0				1.0	1.0							1.0	0.0	0.4194762697443366	1.0		0.0	5.0	5.0	5.0		part_1
312		4.0				1.0	1.0							1.0	182.0	0.4550478822784498	1.0		3.0	2.0	7.0	8.0		part_1
313		4.0				1.0	0.0							3.0	214.0	0.3636305793188512	3.0		3.0	4.0	3.0	4.0		part_1
314		4.0				1.0	0.0							1.0	395.0	0.4659645767533221	1.0		4.0	8.0	4.0	2.0		part_1
315		4.0				1.0	1.0							2.0	94.0	0.4102657024632208	2.0		2.0	1.0	6.0	6.0		part_1
316		4.0				1.0	1.0							2.0	53.0	0.4115103348740377	2.0		1.0	5.0	5.0	5.0		part_1
317		4.0				1.0	1.0							1.0	211.0	0.34529328759526834	1.0		3.0	2.0	7.0	8.0		part_1
318		4.0				1.0	0.0							3.0	383.0	0.4335795987281017	3.0		4.0	8.0	4.0	2.0		part_1
319		4.0				1.0	1.0							4.0	0.0	0.4585145268356428	4.0		0.0	1.0	6.0	6.0		part_1
320		4.0				1.0	1.0							1.0	389.0	0.4259924514917657	1.0		4.0	7.0	8.0	1.0		part_1
321		4.0				1.0	0.0							2.0	123.0	0.4702563545433805	2.0		2.0	6.0	2.0	7.0		part_1
322		4.0				1.0	0.0							1.0	40.0	0.5382560145808384	1.0		1.0	3.0	1.0	3.0		part_1
323		4.0				1.0	0.0							2.0	191.0	0.7091691818204708	2.0		3.0	4.0	3.0	4.0		part_1
324		4.0				1.0	0.0							4.0	73.0	0.4165633481461555	4.0		1.0	3.0	1.0	3.0		part_1
325		4.0				1.0	0.0							3.0	210.0	0.3473429592559114	3.0		3.0	4.0	3.0	4.0		part_1
326		4.0				1.0	1.0							1.0	0.0	0.5175256677321158	1.0		0.0	1.0	6.0	6.0		part_1
327		4.0				1.0	1.0							2.0	73.0	0.4955738141434267	2.0		1.0	5.0	5.0	5.0		part_1
328		4.0				1.0	0.0							3.0	0.0	0.4627277614781633	3.0		0.0	3.0	1.0	3.0		part_1
329		4.0				1.0	1.0							1.0	40.0	0.5304891821579076	1.0		1.0	5.0	5.0	5.0		part_1
330		4.0				1.0	1.0							1.0	191.0	0.4752206015982665	1.0		3.0	2.0	7.0	8.0		part_1
331		4.0				1.0	1.0							2.0	35.0	0.5108609388698824	2.0		1.0	5.0	5.0	5.0		part_1
332		4.0				1.0	1.0							3.0	399.0	0.3974539085756987	3.0		4.0	7.0	8.0	1.0		part_1
333		4.0				1.0	1.0							2.0	0.0	0.4313757146010175	2.0		0.0	2.0	7.0	8.0		part_1
334		4.0				1.0	0.0							1.0	0.0	0.3978127094451338	1.0		0.0	6.0	2.0	7.0		part_1
335		4.0				1.0	0.0							3.0	0.0	0.5449642017483711	3.0		0.0	6.0	2.0	7.0		part_1
336		4.0				1.0	0.0							2.0	0.0	0.422554939170368	2.0		0.0	4.0	3.0	4.0		part_1
337		4.0				1.0	1.0							2.0	421.0	0.4127822577138432	2.0		4.0	7.0	8.0	1.0		part_1
338		4.0				1.0	0.0							3.0	30.0	0.4346455237828195	3.0		1.0	3.0	1.0	3.0		part_1
339		4.0				1.0	1.0							2.0	37.0	0.4353195968433283	2.0		1.0	5.0	5.0	5.0		part_1
340		4.0				1.0	0.0							3.0	0.0	0.5360041041276418	3.0		0.0	8.0	4.0	2.0		part_1
341		4.0				1.0	1.0							3.0	29.0	0.4126058078254573	3.0		1.0	5.0	5.0	5.0		part_1
342		4.0				1.0	1.0							3.0	217.0	0.4261892313370481	3.0		3.0	2.0	7.0	8.0		part_1
343		4.0				1.0	0.0							3.0	412.0	0.3460065061808564	3.0		4.0	8.0	4.0	2.0		part_1
344		4.0				1.0	1.0							2.0	206.0	0.4380582462763414	2.0		3.0	2.0	7.0	8.0		part_1
345		4.0				1.0	1.0							3.0	416.0	0.3929214738309384	3.0		4.0	7.0	8.0	1.0		part_1
346		4.0				1.0	1.0							1.0	0.0	0.4966619301703759	1.0		0.0	2.0	7.0	8.0		part_1
347		4.0				1.0	0.0							3.0	0.0	0.4044203857774846	3.0		0.0	3.0	1.0	3.0		part_1
348		4.0				1.0	0.0							4.0	392.0	0.372343479830306	4.0		4.0	8.0	4.0	2.0		part_1
349		4.0				1.0	1.0							2.0	390.0	0.4073262583115138	2.0		4.0	7.0	8.0	1.0		part_1
350		4.0				1.0	0.0							4.0	78.0	0.3748553702607751	4.0		2.0	6.0	2.0	7.0		part_1
351		4.0				1.0	0.0							3.0	80.0	0.3623215476982296	3.0		2.0	6.0	2.0	7.0		part_1
352		4.0				1.0	0.0							2.0	0.0	0.4192275100504048	2.0		0.0	8.0	4.0	2.0		part_1
353		4.0				1.0	1.0							4.0	0.0	0.3742926677223295	4.0		0.0	2.0	7.0	8.0		part_1
354		4.0				1.0	0.0							4.0	404.0	0.4338078141445294	4.0		4.0	8.0	4.0	2.0		part_1
355		4.0				1.0	1.0							2.0	89.0	0.421850397833623	2.0		2.0	1.0	6.0	6.0		part_1
356		4.0				1.0	0.0							4.0	33.0	0.6349689677590504	4.0		1.0	3.0	1.0	3.0		part_1
357		4.0				1.0	0.0							3.0	191.0	0.4330192560446449	3.0		3.0	4.0	3.0	4.0		part_1
358		4.0				1.0	1.0							1.0	195.0	0.3673965061898343	1.0		3.0	2.0	7.0	8.0		part_1
359		4.0				1.0	1.0							4.0	0.0	0.6258350718417205	4.0		0.0	5.0	5.0	5.0		part_1
360		4.0				1.0	1.0							4.0	0.0	0.4467612386215478	4.0		0.0	1.0	6.0	6.0		part_1
361		4.0				2.0	1.0							3.0	0.0	0.3918219801853411	3.0		0.0	7.0	8.0	1.0		part_1
362		4.0				1.0	1.0							4.0	51.0	0.4143557990901172	4.0		1.0	5.0	5.0	5.0		part_1
363		4.0				1.0	1.0							2.0	416.0	0.4031345673138276	2.0		4.0	7.0	8.0	1.0		part_1
364		4.0				1.0	1.0							4.0	0.0	0.5393413237761706	4.0		0.0	5.0	5.0	5.0		part_1
365		4.0				1.0	0.0							3.0	0.0	0.5393327724887058	3.0		0.0	3.0	1.0	3.0		part_1
366		4.0				2.0	1.0							1.0	100.0	0.4959880584501661	1.0		2.0	1.0	6.0	6.0		part_1
367		4.0				1.0	1.0							1.0	402.0	0.63178869971307	1.0		4.0	7.0	8.0	1.0		part_1
368		4.0				1.0	0.0							3.0	381.0	0.4852104128804058	3.0		4.0	8.0	4.0	2.0		part_1
369		4.0				1.0	1.0							1.0	81.0	0.6211693894583732	1.0		2.0	1.0	6.0	6.0		part_1
370		4.0				1.0	1.0							4.0	102.0	0.4641235987073742	4.0		2.0	1.0	6.0	6.0		part_1
371		4.0				1.0	1.0							4.0	187.0	0.4312706706114113	4.0		3.0	2.0	7.0	8.0		part_1
372		4.0				1.0	1.0							1.0	39.0	0.5218172378372401	1.0		1.0	5.0	5.0	5.0		part_1
373		4.0				1.0	0.0							4.0	416.0	0.38629005546681583	4.0		4.0	8.0	4.0	2.0		part_1
374		4.0				1.0	0.0							2.0	43.0	0.5115081841358915	2.0		1.0	3.0	1.0	3.0		part_1
375		4.0				1.0	0.0							4.0	0.0	0.5000738314702176	4.0		0.0	8.0	4.0	2.0		part_1
376		4.0				1.0	0.0							2.0	68.0	0.4801893511321396	2.0		1.0	3.0	1.0	3.0		part_1
377		4.0				1.0	1.0							3.0	48.0	0.3670940083102323	3.0		1.0	5.0	5.0	5.0		part_1
378		4.0				1.0	0.0							1.0	68.0	0.4462318654404953	1.0		1.0	3.0	1.0	3.0		part_1
379		4.0				1.0	1.0							3.0	383.0	0.4584277144749649	3.0		4.0	7.0	8.0	1.0		part_1
380		4.0				1.0	0.0							3.0	402.0	0.43558403075439855	3.0		4.0	8.0	4.0	2.0		part_1
381		4.0				1.0	1.0							3.0	99.0	0.4265086023369804	3.0		2.0	1.0	6.0	6.0		part_1
382		4.0				1.0	1.0							1.0	0.0	0.4157439995906316	1.0		0.0	1.0	6.0	6.0		part_1
383		4.0				1.0	0.0							4.0	183.0	0.415191347070504	4.0		3.0	4.0	3.0	4.0		part_1
384		4.0				1.0	1.0							3.0	183.0	0.4373597538215108	3.0		3.0	2.0	7.0	8.0		part_1
385		4.0				1.0	0.0							3.0	219.0	0.3927351200254634	3.0		3.0	4.0	3.0	4.0		part_1
386		4.0				1.0	0.0							1.0	66.0	0.4838191478629597	1.0		1.0	3.0	1.0	3.0		part_1
387		4.0				1.0	0.0							2.0	214.0	0.5309317422797903	2.0		3.0	4.0	3.0	4.0		part_1
388		4.0				1.0	0.0							3.0	51.0	0.3957925052964129	3.0		1.0	3.0	1.0	3.0		part_1
389		4.0				1.0	1.0							4.0	27.0	0.3739028233103454	4.0		1.0	5.0	5.0	5.0		part_1
390		4.0				1.0	0.0							3.0	390.0	0.44140030402923	3.0		4.0	8.0	4.0	2.0		part_1
391		4.0				1.0	0.0							4.0	68.0	0.4768645535805263	4.0		1.0	3.0	1.0	3.0		part_1
392		4.0				1.0	0.0							1.0	201.0	0.5230550780543126	1.0		3.0	4.0	3.0	4.0		part_1
393		4.0				1.0	0.0							4.0	0.0	0.5222337068407796	4.0		0.0	3.0	1.0	3.0		part_1
394		4.0				1.0	0.0							4.0	0.0	0.4447163394652307	4.0		0.0	6.0	2.0	7.0		part_1
395		4.0				1.0	0.0							4.0	378.0	0.4568763085990213	4.0		4.0	8.0	4.0	2.0		part_1
396		4.0				1.0	0.0							4.0	217.0	0.4890057978336699	4.0		3.0	4.0	3.0	4.0		part_1
397		4.0				1.0	0.0							2.0	120.0	0.49079043319216	2.0		2.0	6.0	2.0	7.0		part_1
398		4.0				1.0	0.0							3.0	0.0	0.4560501485248096	3.0		0.0	4.0	3.0	4.0		part_1
399		4.0				1.0	0.0							4.0	35.0	0.5476341531611979	4.0		1.0	3.0	1.0	3.0		part_1
0	3.0	1.0			250.0	0.0	1.0							5.0	0.0	0.5789118421962485	5.0	250.0	4.0	7.0	8.0	1.0	1.0	part_2
1	4.0	1.0			200.0	0.0	1.0							5.0	0.0	0.0	0.0	250.0	2.0	1.0	6.0	6.0	1.0	part_2
2	4.0	1.0			250.0	0.0	1.0							6.0	0.0	0.0	0.0	250.0	1.0	5.0	5.0	5.0	1.0	part_2
3	1.0	1.0			250.0	0.0	1.0							6.0	0.0	0.6832764685386792	6.0	300.0	4.0	7.0	8.0	1.0	0.0	part_2
4	4.0	1.0			250.0	0.0	1.0							5.0	0.0	0.0	0.0	300.0	3.0	2.0	7.0	8.0	1.0	part_2
5	1.0	1.0			300.0	0.0	0.0							5.0	0.0	0.7063893722370267	5.0	300.0	1.0	3.0	1.0	3.0	0.0	part_2
6	1.0	1.0			300.0	0.0	0.0							6.0	0.0	0.7534144215751439	6.0	300.0	3.0	4.0	3.0	4.0	0.0	part_2
7	1.0	1.0			300.0	0.0	0.0							6.0	0.0	0.7756109772599302	6.0	300.0	3.0	4.0	3.0	4.0	0.0	part_2
8	1.0	1.0			300.0	0.0	0.0							6.0	0.0	0.8565555802197196	6.0	300.0	3.0	4.0	3.0	4.0	0.0	part_2
9	1.0	1.0			300.0	0.0	0.0							5.0	0.0	0.6416320866555907	5.0	300.0	2.0	6.0	2.0	7.0	0.0	part_2
10	1.0	1.0			300.0	0.0	1.0							6.0	0.0	0.7106953909969889	6.0	300.0	2.0	1.0	6.0	6.0	0.0	part_2
11	1.0	1.0			300.0	0.0	0.0							6.0	0.0	0.7780918222269975	6.0	300.0	4.0	8.0	4.0	2.0	0.0	part_2
12	4.0	1.0			300.0	0.0	1.0							6.0	0.0	0.0	0.0	300.0	2.0	1.0	6.0	6.0	1.0	part_2
13	1.0	1.0			300.0	0.0	1.0							6.0	0.0	0.7926900248858146	6.0	350.0	4.0	7.0	8.0	1.0	0.0	part_2
14	1.0	1.0			300.0	0.0	0.0							6.0	0.0	0.8377471358980983	6.0	350.0	2.0	6.0	2.0	7.0	0.0	part_2
15	1.0	1.0			300.0	0.0	1.0							5.0	0.0	0.7830182576435618	5.0	350.0	1.0	5.0	5.0	5.0	0.0	part_2
16	1.0	1.0			300.0	0.0	1.0							5.0	0.0	0.816492618934717	5.0	350.0	4.0	7.0	8.0	1.0	0.0	part_2
17	4.0	1.0			300.0	0.0	1.0							5.0	0.0	0.0	0.0	350.0	3.0	2.0	7.0	8.0	1.0	part_2
18	1.0	1.0			350.0	0.0	0.0							6.0	0.0	0.7293567099259235	6.0	350.0	4.0	8.0	4.0	2.0	0.0	part_2
19	4.0	1.0			350.0	0.0	1.0							6.0	0.0	0.0	0.0	350.0	2.0	1.0	6.0	6.0	1.0	part_2
20	1.0	1.0			350.0	0.0	0.0							6.0	0.0	0.8872671878780238	6.0	400.0	3.0	4.0	3.0	4.0	0.0	part_2
21	4.0	1.0			350.0	0.0	1.0							6.0	0.0	0.0	0.0	400.0	3.0	2.0	7.0	8.0	1.0	part_2
22	1.0	1.0			350.0	0.0	1.0							6.0	0.0	0.8217534112045541	6.0	450.0	4.0	7.0	8.0	1.0	0.0	part_2
23	4.0	1.0			350.0	0.0	1.0							6.0	0.0	0.0	0.0	450.0	1.0	5.0	5.0	5.0	1.0	part_2
24	1.0	1.0			350.0	0.0	0.0							6.0	0.0	0.8121077466639691	6.0	500.0	4.0	8.0	4.0	2.0	0.0	part_2
25	1.0	1.0			350.0	0.0	1.0							6.0	0.0	1.1294046136317777	6.0	500.0	1.0	5.0	5.0	5.0	0.0	part_2
26	1.0	1.0			350.0	0.0	0.0							6.0	0.0	1.252067492925562	6.0	500.0	3.0	4.0	3.0	4.0	0.0	part_2
27	4.0	1.0			350.0	0.0	1.0							6.0	0.0	0.0	0.0	500.0	1.0	5.0	5.0	5.0	1.0	part_2
28	3.0	1.0			350.0	0.0	1.0							5.0	0.0	0.4668337755720131	5.0	550.0	3.0	2.0	7.0	8.0	1.0	part_2
29	1.0	1.0			300.0	0.0	0.0							6.0	0.0	0.963912867649924	6.0	550.0	4.0	8.0	4.0	2.0	0.0	part_2
30	4.0	1.0			300.0	0.0	1.0							6.0	0.0	0.0	0.0	550.0	2.0	1.0	6.0	6.0	1.0	part_2
31	1.0	1.0			300.0	0.0	1.0							6.0	0.0	0.9761269319569692	6.0	600.0	3.0	2.0	7.0	8.0	0.0	part_2
32	1.0	1.0			300.0	0.0	0.0							5.0	0.0	1.0884157941909507	5.0	600.0	2.0	6.0	2.0	7.0	0.0	part_2
33	1.0	1.0			300.0	0.0	0.0							6.0	0.0	1.1682627405971289	6.0	600.0	3.0	4.0	3.0	4.0	0.0	part_2
34	1.0	1.0			300.0	0.0	0.0							5.0	0.0	0.8990621071425267	5.0	600.0	3.0	4.0	3.0	4.0	0.0	part_2
35	1.0	1.0			300.0	0.0	0.0							6.0	0.0	0.8778067228849977	6.0	600.0	2.0	6.0	2.0	7.0	0.0	part_2
36	3.0	2.0			300.0	0.0	1.0							6.0	0.0	0.7213963815593161	6.0	600.0	4.0	7.0	8.0	1.0	1.0	part_2
37	1.0	2.0			300.0	0.0	1.0							5.0	0.0	0.6675237699528225	5.0	550.0	2.0	1.0	6.0	6.0	0.0	part_2
38	1.0	2.0			300.0	0.0	1.0							5.0	0.0	0.5320770912803711	5.0	550.0	1.0	5.0	5.0	5.0	0.0	part_2
39	4.0	2.0			300.0	0.0	1.0							5.0	0.0	0.0	0.0	550.0	3.0	2.0	7.0	8.0	1.0	part_2
40	1.0	2.0			350.0	0.0	0.0							6.0	0.0	0.5334462079918012	6.0	550.0	2.0	6.0	2.0	7.0	0.0	part_2
41	1.0	2.0			350.0	0.0	0.0							5.0	0.0	0.422552895557601	5.0	550.0	1.0	3.0	1.0	3.0	0.0	part_2
42	3.0	2.0			350.0	0.0	1.0							6.0	0.0	0.33288891159463674	6.0	550.0	1.0	5.0	5.0	5.0	1.0	part_2
43	4.0	2.0			350.0	0.0	1.0							5.0	0.0	0.0	0.0	500.0	3.0	2.0	7.0	8.0	1.0	part_2
44	1.0	2.0			400.0	0.0	0.0							5.0	0.0	0.6284739628899843	5.0	500.0	3.0	4.0	3.0	4.0	0.0	part_2
45	4.0	2.0			400.0	0.0	1.0							5.0	0.0	0.0	0.0	500.0	1.0	5.0	5.0	5.0	1.0	part_2
46	3.0	2.0			450.0	0.0	1.0							5.0	0.0	0.5177326772827655	5.0	500.0	1.0	5.0	5.0	5.0	1.0	part_2
47	1.0	2.0			400.0	0.0	0.0							5.0	0.0	1.024842472281307	5.0	500.0	2.0	6.0	2.0	7.0	0.0	part_2
48	1.0	2.0			400.0	0.0	1.0							6.0	0.0	0.4275994965573773	6.0	500.0	1.0	5.0	5.0	5.0	0.0	part_2
49	1.0	2.0			400.0	0.0	0.0							5.0	0.0	0.6097587100230157	5.0	500.0	4.0	8.0	4.0	2.0	0.0	part_2
50	1.0	2.0			400.0	0.0	0.0							5.0	0.0	0.6217491225688718	5.0	500.0	4.0	8.0	4.0	2.0	0.0	part_2
51	1.0	2.0			400.0	0.0	0.0							6.0	0.0	0.498504372255411	6.0	500.0	2.0	6.0	2.0	7.0	0.0	part_2
52	1.0	2.0			400.0	0.0	0.0							6.0	0.0	0.4534953895490617	6.0	500.0	3.0	4.0	3.0	4.0	0.0	part_2
53	1.0	2.0			400.0	0.0	0.0							6.0	0.0	0.4676100562210195	6.0	500.0	4.0	8.0	4.0	2.0	0.0	part_2
54	1.0	2.0			400.0	0.0	0.0							6.0	0.0	0.4671982599538751	6.0	500.0	1.0	3.0	1.0	3.0	0.0	part_2
55	1.0	2.0			400.0	0.0	0.0							6.0	0.0	0.6481889202841558	6.0	500.0	4.0	8.0	4.0	2.0	0.0	part_2
56	3.0	2.0			400.0	0.0	1.0							6.0	0.0	0.4576007091673091	6.0	500.0	2.0	1.0	6.0	6.0	1.0	part_2
57	3.0	2.0			400.0	0.0	1.0							5.0	0.0	0.5250975119997747	5.0	450.0	4.0	7.0	8.0	1.0	1.0	part_2
58	4.0	2.0			350.0	0.0	1.0							6.0	0.0	0.0	0.0	450.0	4.0	7.0	8.0	1.0	1.0	part_2
59	1.0	2.0			350.0	0.0	0.0							6.0	0.0	0.809134816925507	6.0	500.0	2.0	6.0	2.0	7.0	0.0	part_2
60	1.0	2.0			350.0	0.0	0.0							6.0	0.0	1.1575896192225628	6.0	500.0	3.0	4.0	3.0	4.0	0.0	part_2
61	1.0	2.0			350.0	0.0	0.0							6.0	0.0	1.1256224801763892	6.0	500.0	3.0	4.0	3.0	4.0	0.0	part_2
62	1.0	2.0			350.0	0.0	0.0							5.0	0.0	0.67760563705815	5.0	500.0	3.0	4.0	3.0	4.0	0.0	part_2
63	1.0	2.0			350.0	0.0	0.0							6.0	0.0	0.6881608889088966	6.0	500.0	4.0	8.0	4.0	2.0	0.0	part_2
64	1.0	2.0			350.0	0.0	0.0							5.0	0.0	0.6681909668259323	5.0	500.0	3.0	4.0	3.0	4.0	0.0	part_2
65	4.0	2.0			350.0	0.0	1.0							5.0	0.0	0.0	0.0	500.0	2.0	1.0	6.0	6.0	1.0	part_2
66	3.0	2.0			400.0	0.0	1.0							6.0	0.0	0.6021822271868587	6.0	500.0	2.0	1.0	6.0	6.0	1.0	part_2
67	1.0	2.0			400.0	0.0	0.0							5.0	0.0	0.9965773043222724	5.0	450.0	1.0	3.0	1.0	3.0	0.0	part_2
68	1.0	2.0			400.0	0.0	0.0							6.0	0.0	0.8285621795221232	6.0	450.0	1.0	3.0	1.0	3.0	0.0	part_2
69	1.0	2.0			400.0	0.0	0.0							5.0	0.0	0.80729475436965	5.0	450.0	3.0	4.0	3.0	4.0	0.0	part_2
70	1.0	2.0			400.0	0.0	0.0							6.0	0.0	0.7852390626794659	6.0	450.0	4.0	8.0	4.0	2.0	0.0	part_2
71	4.0	2.0			400.0	0.0	1.0							5.0	0.0	0.0	0.0	450.0	2.0	1.0	6.0	6.0	1.0	part_2
72	4.0	3.0			450.0	0.0	1.0							6.0	0.0	0.0	0.0	450.0	4.0	7.0	8.0	1.0	1.0	part_2
73	1.0	3.0			450.0	0.0	0.0							6.0	0.0	0.6233792862039991	6.0	500.0	1.0	3.0	1.0	3.0	0.0	part_2
74	3.0	3.0			450.0	0.0	1.0							6.0	0.0	0.5796113009564579	6.0	500.0	2.0	1.0	6.0	6.0	1.0	part_2
75	3.0	3.0			450.0	0.0	1.0							5.0	0.0	0.467343738884665	5.0	450.0	4.0	7.0	8.0	1.0	1.0	part_2
76	1.0	3.0			400.0	0.0	1.0							6.0	0.0	0.6027192479232326	6.0	450.0	3.0	2.0	7.0	8.0	0.0	part_2
77	1.0	3.0			400.0	0.0	1.0							6.0	0.0	0.5813417541212402	6.0	450.0	3.0	2.0	7.0	8.0	0.0	part_2
78	1.0	3.0			400.0	0.0	0.0							6.0	0.0	0.6287886211648583	6.0	450.0	4.0	8.0	4.0	2.0	0.0	part_2
79	4.0	3.0			400.0	0.0	1.0							5.0	0.0	0.0	0.0	450.0	3.0	2.0	7.0	8.0	1.0	part_2
80	4.0	3.0			450.0	0.0	1.0							6.0	0.0	0.0	0.0	450.0	2.0	1.0	6.0	6.0	1.0	part_2
81	1.0	3.0			450.0	0.0	1.0							6.0	0.0	0.6853879790287465	6.0	500.0	3.0	2.0	7.0	8.0	0.0	part_2
82	1.0	3.0			450.0	0.0	0.0							6.0	0.0	0.879553250502795	6.0	500.0	3.0	4.0	3.0	4.0	0.0	part_2
83	1.0	3.0			450.0	0.0	0.0							6.0	0.0	0.6645974895218387	6.0	500.0	1.0	3.0	1.0	3.0	0.0	part_2
84	1.0	3.0			450.0	0.0	0.0							5.0	0.0	0.5995790591696277	5.0	500.0	1.0	3.0	1.0	3.0	0.0	part_2
85	1.0	3.0			450.0	0.0	0.0							6.0	0.0	0.5443130775238387	6.0	500.0	3.0	4.0	3.0	4.0	0.0	part_2
86	4.0	3.0			450.0	0.0	1.0							5.0	0.0	0.0	0.0	500.0	1.0	5.0	5.0	5.0	1.0	part_2
87	1.0	3.0			500.0	0.0	0.0							5.0	0.0	0.7260000675451009	5.0	500.0	4.0	8.0	4.0	2.0	0.0	part_2
88	4.0	3.0			500.0	0.0	1.0							5.0	0.0	0.0	0.0	500.0	2.0	1.0	6.0	6.0	1.0	part_2
89	1.0	3.0			550.0	0.0	0.0							5.0	0.0	0.750369640532881	5.0	500.0	3.0	4.0	3.0	4.0	0.0	part_2
90	3.0	3.0			550.0	0.0	1.0							5.0	0.0	0.7284076068899594	5.0	500.0	4.0	7.0	8.0	1.0	1.0	part_2
91	1.0	3.0			500.0	0.0	0.0							5.0	0.0	0.9076472015003674	5.0	500.0	3.0	4.0	3.0	4.0	0.0	part_2
92	4.0	3.0			500.0	0.0	1.0							5.0	0.0	0.0	0.0	500.0	3.0	2.0	7.0	8.0	1.0	part_2
93	1.0	3.0			550.0	0.0	1.0							6.0	0.0	0.6850103549077176	6.0	500.0	4.0	7.0	8.0	1.0	0.0	part_2
94	4.0	3.0			550.0	0.0	1.0							6.0	0.0	0.0	0.0	500.0	3.0	2.0	7.0	8.0	1.0	part_2
95	4.0	3.0			550.0	0.0	1.0							5.0	0.0	0.0	0.0	550.0	4.0	7.0	8.0	1.0	1.0	part_2
96	1.0	3.0			600.0	0.0	0.0							6.0	0.0	0.3392806309275329	6.0	550.0	1.0	3.0	1.0	3.0	0.0	part_2
97	1.0	3.0			600.0	0.0	1.0							5.0	0.0	0.3618784471764229	5.0	550.0	2.0	1.0	6.0	6.0	0.0	part_2
98	4.0	3.0			600.0	0.0	1.0							5.0	0.0	0.0	0.0	550.0	3.0	2.0	7.0	8.0	1.0	part_2
99	1.0	3.0			650.0	0.0	0.0							6.0	0.0	0.8146180969197303	6.0	550.0	2.0	6.0	2.0	7.0	0.0	part_2
100	3.0	3.0			650.0	0.0	1.0							6.0	0.0	0.6681797199416906	6.0	550.0	2.0	1.0	6.0	6.0	1.0	part_2
101	3.0	3.0			650.0	0.0	1.0							5.0	0.0	0.7817281242460012	5.0	500.0	2.0	1.0	6.0	6.0	1.0	part_2
102	4.0	3.0			600.0	0.0	1.0							6.0	0.0	0.0	0.0	500.0	2.0	1.0	6.0	6.0	1.0	part_2
103	1.0	3.0			600.0	0.0	1.0							5.0	0.0	0.8839677086216398	5.0	550.0	3.0	2.0	7.0	8.0	0.0	part_2
104	1.0	3.0			600.0	0.0	0.0							5.0	0.0	0.7947905126493424	5.0	550.0	3.0	4.0	3.0	4.0	0.0	part_2
105	4.0	3.0			600.0	0.0	1.0							5.0	0.0	0.0	0.0	550.0	4.0	7.0	8.0	1.0	1.0	part_2
106	1.0	3.0			650.0	0.0	1.0							6.0	0.0	0.9775305168586784	6.0	550.0	3.0	2.0	7.0	8.0	0.0	part_2
107	1.0	3.0			650.0	0.0	0.0							6.0	0.0	0.8425284621771425	6.0	550.0	1.0	3.0	1.0	3.0	0.0	part_2
108	3.0	4.0			650.0	0.0	1.0							6.0	0.0	0.8224485366372392	6.0	550.0	4.0	7.0	8.0	1.0	1.0	part_2
109	1.0	4.0			650.0	0.0	0.0							5.0	0.0	0.3397306932602078	5.0	500.0	2.0	6.0	2.0	7.0	0.0	part_2
110	3.0	4.0			650.0	0.0	1.0							6.0	0.0	0.2182380651938729	6.0	500.0	2.0	1.0	6.0	6.0	1.0	part_2
111	3.0	4.0			650.0	0.0	1.0							5.0	0.0	0.2630320261232555	5.0	450.0	3.0	2.0	7.0	8.0	1.0	part_2
112	1.0	4.0			600.0	0.0	0.0							6.0	0.0	0.26298819563817233	6.0	450.0	1.0	3.0	1.0	3.0	0.0	part_2
113	3.0	4.0			600.0	0.0	1.0							5.0	0.0	0.2977080316049978	5.0	450.0	2.0	1.0	6.0	6.0	1.0	part_2
114	1.0	4.0			550.0	0.0	0.0							5.0	0.0	0.4337942838901654	5.0	450.0	2.0	6.0	2.0	7.0	0.0	part_2
115	1.0	4.0			550.0	0.0	1.0							5.0	0.0	0.3444700601976365	5.0	450.0	1.0	5.0	5.0	5.0	0.0	part_2
116	1.0	4.0			550.0	0.0	0.0							5.0	0.0	0.3565559103153646	5.0	450.0	3.0	4.0	3.0	4.0	0.0	part_2
117	3.0	4.0			550.0	0.0	1.0							6.0	0.0	0.3242640615790151	6.0	450.0	3.0	2.0	7.0	8.0	1.0	part_2
118	1.0	4.0			550.0	0.0	0.0							5.0	0.0	0.2564236331963912	5.0	400.0	1.0	3.0	1.0	3.0	0.0	part_2
119	1.0	4.0			550.0	0.0	0.0							5.0	0.0	0.3491981571423821	5.0	400.0	4.0	8.0	4.0	2.0	0.0	part_2
120	1.0	4.0			550.0	0.0	0.0							5.0	0.0	0.3260300862602889	5.0	400.0	2.0	6.0	2.0	7.0	0.0	part_2
121	3.0	4.0			550.0	0.0	1.0							5.0	0.0	0.5760760938865133	5.0	400.0	2.0	1.0	6.0	6.0	1.0	part_2
122	3.0	4.0			500.0	0.0	1.0							5.0	0.0	0.3405379222822376	5.0	400.0	1.0	5.0	5.0	5.0	1.0	part_2
123	1.0	4.0			450.0	0.0	0.0							6.0	0.0	0.3749885324505158	6.0	400.0	3.0	4.0	3.0	4.0	0.0	part_2
124	3.0	4.0			450.0	0.0	1.0							6.0	0.0	0.3404971575946547	6.0	400.0	1.0	5.0	5.0	5.0	1.0	part_2
125	3.0	4.0			450.0	0.0	1.0							6.0	0.0	0.34270393091719603	6.0	350.0	3.0	2.0	7.0	8.0	1.0	part_2
126	1.0	4.0			450.0	0.0	0.0							6.0	0.0	0.4894081460079178	6.0	300.0	4.0	8.0	4.0	2.0	0.0	part_2
127	3.0	4.0			450.0	0.0	1.0							6.0	0.0	0.4562479326268658	6.0	300.0	1.0	5.0	5.0	5.0	1.0	part_2
128	1.0	4.0			450.0	0.0	0.0							6.0	0.0	0.4022984132752754	6.0	250.0	1.0	3.0	1.0	3.0	0.0	part_2
129	1.0	4.0			450.0	0.0	1.0							5.0	0.0	0.3238971419050358	5.0	250.0	2.0	1.0	6.0	6.0	0.0	part_2
130	3.0	4.0			450.0	0.0	1.0							5.0	0.0	0.3356513051548973	5.0	250.0	2.0	1.0	6.0	6.0	1.0	part_2
131	1.0	4.0			400.0	0.0	1.0							6.0	0.0	0.335388696170412	6.0	250.0	3.0	2.0	7.0	8.0	0.0	part_2
132	3.0	4.0			400.0	0.0	1.0							5.0	0.0	0.32426377409137785	5.0	250.0	3.0	2.0	7.0	8.0	1.0	part_2
133	1.0	4.0			350.0	0.0	0.0							5.0	0.0	0.721215462544933	5.0	250.0	2.0	6.0	2.0	7.0	0.0	part_2
134	3.0	4.0			350.0	0.0	1.0							5.0	0.0	0.4506757567869499	5.0	250.0	2.0	1.0	6.0	6.0	1.0	part_2
135	1.0	4.0			300.0	0.0	0.0							5.0	0.0	0.3833400226430968	5.0	250.0	3.0	4.0	3.0	4.0	0.0	part_2
136	3.0	4.0			300.0	0.0	1.0							5.0	0.0	0.3740333938621916	5.0	250.0	2.0	1.0	6.0	6.0	1.0	part_2
137	3.0	4.0			250.0	0.0	1.0							6.0	0.0	0.396927562658675	6.0	250.0	3.0	2.0	7.0	8.0	1.0	part_2
138	3.0	4.0			250.0	0.0	1.0							6.0	0.0	0.4094428591779433	6.0	200.0	1.0	5.0	5.0	5.0	1.0	part_2
139	1.0	4.0			250.0	0.0	0.0							5.0	0.0	0.5896530429017729	5.0	150.0	1.0	3.0	1.0	3.0	0.0	part_2
140	1.0	4.0			250.0	0.0	0.0							5.0	0.0	0.5559250605292618	5.0	150.0	1.0	3.0	1.0	3.0	0.0	part_2
141	1.0	4.0			250.0	0.0	0.0							5.0	0.0	0.5127635379321873	5.0	150.0	3.0	4.0	3.0	4.0	0.0	part_2
142	3.0	4.0			250.0	0.0	1.0							6.0	0.0	0.33431901421863586	6.0	150.0	4.0	7.0	8.0	1.0	1.0	part_2
143	1.0	4.0			250.0	0.0	0.0							5.0	0.0	0.4256622312823311	5.0	100.0	4.0	8.0	4.0	2.0	0.0	part_2
144	1.0	5.0			250.0	0.0	0.0							5.0	0.0	0.8358793188817799	5.0	100.0	2.0	6.0	2.0	7.0	0.0	part_2
145	3.0	5.0			250.0	0.0	1.0							6.0	0.0	0.36484288418432703	6.0	100.0	4.0	7.0	8.0	1.0	1.0	part_2
146	3.0	5.0			250.0	0.0	1.0							5.0	0.0	0.4102939700242132	5.0	50.0	3.0	2.0	7.0	8.0	1.0	part_2
147	1.0	5.0			200.0	0.0	0.0							6.0	0.0	0.5466515755397268	6.0	50.0	4.0	8.0	4.0	2.0	0.0	part_2
148	1.0	5.0			200.0	0.0	0.0							5.0	0.0	0.8282121121301316	5.0	50.0	1.0	3.0	1.0	3.0	0.0	part_2
149	4.0	5.0			200.0	0.0	1.0							5.0	0.0	0.0	0.0	50.0	1.0	5.0	5.0	5.0	1.0	part_2
150	4.0	5.0			250.0	0.0	1.0							6.0	0.0	0.0	0.0	50.0	1.0	5.0	5.0	5.0	1.0	part_2
151	1.0	5.0			250.0	0.0	0.0							5.0	0.0	0.7859727093600668	5.0	100.0	1.0	3.0	1.0	3.0	0.0	part_2
152	1.0	5.0			250.0	0.0	0.0							5.0	0.0	0.7637511419015937	5.0	100.0	4.0	8.0	4.0	2.0	0.0	part_2
153	1.0	5.0			250.0	0.0	0.0							6.0	0.0	0.6072800726396963	6.0	100.0	2.0	6.0	2.0	7.0	0.0	part_2
154	4.0	5.0			250.0	0.0	1.0							6.0	0.0	0.0	0.0	100.0	3.0	2.0	7.0	8.0	1.0	part_2
155	1.0	5.0			250.0	0.0	0.0							5.0	0.0	0.856166307523381	5.0	150.0	3.0	4.0	3.0	4.0	0.0	part_2
156	4.0	5.0			250.0	0.0	1.0							6.0	0.0	0.0	0.0	150.0	1.0	5.0	5.0	5.0	1.0	part_2
157	1.0	5.0			250.0	0.0	0.0							6.0	0.0	0.8242057055467741	6.0	200.0	2.0	6.0	2.0	7.0	0.0	part_2
158	1.0	5.0			250.0	0.0	0.0							6.0	0.0	0.5565538266673684	6.0	200.0	4.0	8.0	4.0	2.0	0.0	part_2
159	1.0	5.0			250.0	0.0	0.0							5.0	0.0	0.4436364451539703	5.0	200.0	4.0	8.0	4.0	2.0	0.0	part_2
160	1.0	5.0			250.0	0.0	0.0							5.0	0.0	0.681055610650219	5.0	200.0	4.0	8.0	4.0	2.0	0.0	part_2
161	1.0	5.0			250.0	0.0	0.0							5.0	0.0	0.6038991317618638	5.0	200.0	2.0	6.0	2.0	7.0	0.0	part_2
162	1.0	5.0			250.0	0.0	0.0							6.0	0.0	0.6385344269219786	6.0	200.0	1.0	3.0	1.0	3.0	0.0	part_2
163	4.0	5.0			250.0	0.0	1.0							6.0	0.0	0.0	0.0	200.0	4.0	7.0	8.0	1.0	1.0	part_2
164	4.0	5.0			250.0	0.0	1.0							6.0	0.0	0.0	0.0	250.0	4.0	7.0	8.0	1.0	1.0	part_2
165	1.0	5.0			250.0	0.0	0.0							6.0	0.0	0.7636161385453306	6.0	300.0	4.0	8.0	4.0	2.0	0.0	part_2
166	1.0	5.0			250.0	0.0	0.0							5.0	0.0	0.8559079501428641	5.0	300.0	2.0	6.0	2.0	7.0	0.0	part_2
167	1.0	5.0			250.0	0.0	0.0							5.0	0.0	0.8894853919046	5.0	300.0	3.0	4.0	3.0	4.0	0.0	part_2
168	1.0	5.0			250.0	0.0	0.0							6.0	0.0	0.383089822891634	6.0	300.0	4.0	8.0	4.0	2.0	0.0	part_2
169	1.0	5.0			250.0	0.0	0.0							5.0	0.0	0.6209617541753687	5.0	300.0	2.0	6.0	2.0	7.0	0.0	part_2
170	1.0	5.0			250.0	0.0	0.0							6.0	0.0	0.6330876305582933	6.0	300.0	1.0	3.0	1.0	3.0	0.0	part_2
171	1.0	5.0			250.0	0.0	0.0							6.0	0.0	0.7238700689049438	6.0	300.0	4.0	8.0	4.0	2.0	0.0	part_2
172	4.0	5.0			250.0	0.0	1.0							5.0	0.0	0.0	0.0	300.0	1.0	5.0	5.0	5.0	1.0	part_2
173	1.0	5.0			300.0	0.0	0.0							5.0	0.0	0.6008839032729156	5.0	300.0	3.0	4.0	3.0	4.0	0.0	part_2
174	4.0	5.0			300.0	0.0	1.0							6.0	0.0	0.0	0.0	300.0	1.0	5.0	5.0	5.0	1.0	part_2
175	1.0	5.0			300.0	0.0	0.0							6.0	0.0	0.8407540663029067	6.0	350.0	2.0	6.0	2.0	7.0	0.0	part_2
176	4.0	5.0			300.0	0.0	1.0							5.0	0.0	0.0	0.0	350.0	3.0	2.0	7.0	8.0	1.0	part_2
177	1.0	5.0			350.0	0.0	0.0							6.0	0.0	0.7509737812215462	6.0	350.0	2.0	6.0	2.0	7.0	0.0	part_2
178	4.0	5.0			350.0	0.0	1.0							5.0	0.0	0.0	0.0	350.0	2.0	1.0	6.0	6.0	1.0	part_2
179	1.0	5.0			400.0	0.0	0.0							6.0	0.0	0.6854664665297605	6.0	350.0	1.0	3.0	1.0	3.0	0.0	part_2
180	1.0	6.0			400.0	0.0	0.0							5.0	0.0	0.5847025233088061	5.0	350.0	1.0	3.0	1.0	3.0	0.0	part_2
181	1.0	6.0			400.0	0.0	0.0							6.0	0.0	0.7992304103681818	6.0	350.0	1.0	3.0	1.0	3.0	0.0	part_2
182	4.0	6.0			400.0	0.0	1.0							6.0	0.0	0.0	0.0	350.0	4.0	7.0	8.0	1.0	1.0	part_2
183	4.0	6.0			400.0	0.0	1.0							6.0	0.0	0.0	0.0	400.0	2.0	1.0	6.0	6.0	1.0	part_2
184	4.0	6.0			400.0	0.0	1.0							5.0	0.0	0.0	0.0	450.0	1.0	5.0	5.0	5.0	1.0	part_2
185	1.0	6.0			450.0	0.0	0.0							6.0	0.0	0.6339403631864116	6.0	450.0	1.0	3.0	1.0	3.0	0.0	part_2
186	1.0	6.0			450.0	0.0	1.0							5.0	0.0	0.6893178801983595	5.0	450.0	1.0	5.0	5.0	5.0	0.0	part_2
187	1.0	6.0			450.0	0.0	1.0							5.0	0.0	0.5781136889127083	5.0	450.0	4.0	7.0	8.0	1.0	0.0	part_2
188	1.0	6.0			450.0	0.0	0.0							5.0	0.0	0.6461918883724138	5.0	450.0	1.0	3.0	1.0	3.0	0.0	part_2
189	1.0	6.0			450.0	0.0	0.0							5.0	0.0	0.6247067802469246	5.0	450.0	1.0	3.0	1.0	3.0	0.0	part_2
190	1.0	6.0			450.0	0.0	0.0							6.0	0.0	0.5018229801789857	6.0	450.0	2.0	6.0	2.0	7.0	0.0	part_2
191	1.0	6.0			450.0	0.0	1.0							5.0	0.0	0.6607387783005834	5.0	450.0	4.0	7.0	8.0	1.0	0.0	part_2
192	3.0	6.0			450.0	0.0	1.0							6.0	0.0	0.5385115318931639	6.0	450.0	3.0	2.0	7.0	8.0	1.0	part_2
193	4.0	6.0			450.0	0.0	1.0							5.0	0.0	0.0	0.0	400.0	3.0	2.0	7.0	8.0	1.0	part_2
194	1.0	6.0			500.0	0.0	1.0							6.0	0.0	0.6512406332767569	6.0	400.0	2.0	1.0	6.0	6.0	0.0	part_2
195	4.0	6.0			500.0	0.0	1.0							6.0	0.0	0.0	0.0	400.0	3.0	2.0	7.0	8.0	1.0	part_2
196	4.0	6.0			500.0	0.0	1.0							6.0	0.0	0.0	0.0	450.0	4.0	7.0	8.0	1.0	1.0	part_2
197	1.0	6.0			500.0	0.0	1.0							6.0	0.0	0.6204449679935351	6.0	500.0	1.0	5.0	5.0	5.0	0.0	part_2
198	4.0	6.0			500.0	0.0	1.0							6.0	0.0	0.0	0.0	500.0	2.0	1.0	6.0	6.0	1.0	part_2
199	1.0	6.0			500.0	0.0	0.0							5.0	0.0	0.7913959399447776	5.0	550.0	4.0	8.0	4.0	2.0	0.0	part_2
200	1.0	6.0			500.0	0.0	1.0							5.0	0.0	0.8039758612867445	5.0	550.0	4.0	7.0	8.0	1.0	0.0	part_2
201	3.0	6.0			500.0	0.0	1.0							5.0	0.0	0.579956567613408	5.0	550.0	1.0	5.0	5.0	5.0	1.0	part_2
202	1.0	6.0			450.0	0.0	0.0							6.0	0.0	0.7491047052899376	6.0	550.0	3.0	4.0	3.0	4.0	0.0	part_2
203	4.0	6.0			450.0	0.0	1.0							5.0	0.0	0.0	0.0	550.0	1.0	5.0	5.0	5.0	1.0	part_2
204	1.0	6.0			500.0	0.0	1.0							5.0	0.0	0.8060889655607753	5.0	550.0	2.0	1.0	6.0	6.0	0.0	part_2
205	4.0	6.0			500.0	0.0	1.0							5.0	0.0	0.0	0.0	550.0	4.0	7.0	8.0	1.0	1.0	part_2
206	1.0	6.0			550.0	0.0	0.0							5.0	0.0	0.8313331785611808	5.0	550.0	3.0	4.0	3.0	4.0	0.0	part_2
207	1.0	6.0			550.0	0.0	0.0							5.0	0.0	0.8982533459784463	5.0	550.0	2.0	6.0	2.0	7.0	0.0	part_2
208	1.0	6.0			550.0	0.0	0.0							5.0	0.0	0.977816150872968	5.0	550.0	1.0	3.0	1.0	3.0	0.0	part_2
209	1.0	6.0			550.0	0.0	0.0							6.0	0.0	0.8229803125723265	6.0	550.0	2.0	6.0	2.0	7.0	0.0	part_2
210	4.0	6.0			550.0	0.0	1.0							6.0	0.0	0.0	0.0	550.0	4.0	7.0	8.0	1.0	1.0	part_2
211	4.0	6.0			550.0	0.0	1.0							6.0	0.0	0.0	0.0	600.0	4.0	7.0	8.0	1.0	1.0	part_2
212	1.0	6.0			550.0	0.0	0.0							5.0	0.0	0.6770722551736981	5.0	650.0	4.0	8.0	4.0	2.0	0.0	part_2
213	3.0	6.0			550.0	0.0	1.0							6.0	0.0	0.7571986662806012	6.0	650.0	2.0	1.0	6.0	6.0	1.0	part_2
214	5.0	6.0			550.0	0.0	0.0							5.0	0.0	0.0	0.0	600.0	3.0	4.0	3.0	4.0	0.0	part_2
215	1.0	6.0			550.0	0.0	1.0							5.0	0.0	0.8721828979323618	5.0	600.0	3.0	2.0	7.0	8.0	0.0	part_2
216	3.0	7.0			550.0	0.0	1.0							5.0	0.0	0.5894456961541437	5.0	600.0	1.0	5.0	5.0	5.0	1.0	part_2
217	1.0	7.0			500.0	0.0	1.0							5.0	0.0	0.7365554881980643	5.0	600.0	2.0	1.0	6.0	6.0	0.0	part_2
218	1.0	7.0			500.0	0.0	0.0							6.0	0.0	0.6138303495245054	6.0	600.0	3.0	4.0	3.0	4.0	0.0	part_2
219	3.0	7.0			500.0	0.0	1.0							5.0	0.0	0.5360052898759022	5.0	600.0	1.0	5.0	5.0	5.0	1.0	part_2
220	4.0	7.0			450.0	0.0	1.0							5.0	0.0	0.0	0.0	600.0	3.0	2.0	7.0	8.0	1.0	part_2
221	1.0	7.0			500.0	0.0	0.0							5.0	0.0	0.8742157479282469	5.0	600.0	2.0	6.0	2.0	7.0	0.0	part_2
222	4.0	7.0			500.0	0.0	1.0							6.0	0.0	0.0	0.0	600.0	3.0	2.0	7.0	8.0	1.0	part_2
223	4.0	7.0			500.0	0.0	1.0							5.0	0.0	0.0	0.0	650.0	4.0	7.0	8.0	1.0	1.0	part_2
224	1.0	7.0			550.0	0.0	0.0							5.0	0.0	0.8781510495464318	5.0	650.0	4.0	8.0	4.0	2.0	0.0	part_2
225	1.0	7.0			550.0	0.0	0.0							5.0	0.0	0.7881263741292059	5.0	650.0	2.0	6.0	2.0	7.0	0.0	part_2
226	1.0	7.0			550.0	0.0	0.0							6.0	0.0	0.6769473800086416	6.0	650.0	2.0	6.0	2.0	7.0	0.0	part_2
227	1.0	7.0			550.0	0.0	0.0							5.0	0.0	0.8925126241520047	5.0	650.0	3.0	4.0	3.0	4.0	0.0	part_2
228	1.0	7.0			550.0	0.0	0.0							5.0	0.0	0.7471361318021081	5.0	650.0	4.0	8.0	4.0	2.0	0.0	part_2
229	3.0	7.0			550.0	0.0	1.0							5.0	0.0	0.6797034702030942	5.0	650.0	3.0	2.0	7.0	8.0	1.0	part_2
230	1.0	7.0			500.0	0.0	0.0							6.0	0.0	0.8367797792889178	6.0	650.0	1.0	3.0	1.0	3.0	0.0	part_2
231	1.0	7.0			500.0	0.0	0.0							5.0	0.0	0.8842469881637953	5.0	650.0	4.0	8.0	4.0	2.0	0.0	part_2
232	1.0	7.0			500.0	0.0	0.0							6.0	0.0	0.8401255566277541	6.0	650.0	4.0	8.0	4.0	2.0	0.0	part_2
233	1.0	7.0			500.0	0.0	0.0							6.0	0.0	0.7841676001553424	6.0	650.0	1.0	3.0	1.0	3.0	0.0	part_2
234	4.0	7.0			500.0	0.0	1.0							5.0	0.0	0.0	0.0	650.0	3.0	2.0	7.0	8.0	1.0	part_2
235	1.0	7.0			550.0	0.0	0.0							6.0	0.0	0.5938587678829208	6.0	650.0	1.0	3.0	1.0	3.0	0.0	part_2
236	1.0	7.0			550.0	0.0	0.0							6.0	0.0	0.9101942882407456	6.0	650.0	1.0	3.0	1.0	3.0	0.0	part_2
237	1.0	7.0			550.0	0.0	0.0							5.0	0.0	0.9778150172205642	5.0	650.0	1.0	3.0	1.0	3.0	0.0	part_2
238	4.0	7.0			550.0	0.0	1.0							6.0	0.0	0.0	0.0	650.0	1.0	5.0	5.0	5.0	1.0	part_2
239	1.0	7.0			550.0	0.0	0.0							5.0	0.0	0.462826183589641	5.0	700.0	4.0	8.0	4.0	2.0	0.0	part_2
240	1.0	7.0			550.0	0.0	0.0							6.0	0.0	1.0027975194971075	6.0	700.0	3.0	4.0	3.0	4.0	0.0	part_2
241	1.0	7.0			550.0	0.0	1.0							5.0	0.0	1.0709903235547245	5.0	700.0	1.0	5.0	5.0	5.0	0.0	part_2
242	1.0	7.0			550.0	0.0	0.0							6.0	0.0	0.880796717305202	6.0	700.0	3.0	4.0	3.0	4.0	0.0	part_2
243	1.0	7.0			550.0	0.0	0.0							5.0	0.0	0.9502645222819409	5.0	700.0	3.0	4.0	3.0	4.0	0.0	part_2
244	1.0	7.0			550.0	0.0	0.0							5.0	0.0	0.7153075005626306	5.0	700.0	1.0	3.0	1.0	3.0	0.0	part_2
245	1.0	7.0			550.0	0.0	0.0							5.0	0.0	1.1423018409404904	5.0	700.0	2.0	6.0	2.0	7.0	0.0	part_2
246	4.0	7.0			550.0	0.0	1.0							6.0	0.0	0.0	0.0	700.0	3.0	2.0	7.0	8.0	1.0	part_2
247	4.0	7.0			550.0	0.0	1.0							5.0	0.0	0.0	0.0	750.0	1.0	5.0	5.0	5.0	1.0	part_2
248	1.0	7.0			600.0	0.0	0.0							6.0	0.0	0.6389806694351137	6.0	750.0	4.0	8.0	4.0	2.0	0.0	part_2
249	1.0	7.0			600.0	0.0	0.0							5.0	0.0	0.7971080077695659	5.0	750.0	4.0	8.0	4.0	2.0	0.0	part_2
250	1.0	7.0			600.0	0.0	0.0							5.0	0.0	0.909505276940763	5.0	750.0	4.0	8.0	4.0	2.0	0.0	part_2
251	4.0	7.0			600.0	0.0	1.0							6.0	0.0	0.0	0.0	750.0	3.0	2.0	7.0	8.0	1.0	part_2
252	2.0	8.0			600.0	0.0	0.0							5.0	0.0	1.0815915922867134	1.0	800.0	2.0	6.0	2.0	7.0	0.0	part_2
253	3.0	8.0			600.0	0.0	1.0							6.0	0.0	0.6224138482939452	6.0	800.0	1.0	5.0	5.0	5.0	1.0	part_2
254	1.0	8.0			600.0	0.0	0.0							6.0	0.0	0.5545025742030703	6.0	750.0	3.0	4.0	3.0	4.0	0.0	part_2
255	1.0	8.0			600.0	0.0	0.0							6.0	0.0	0.4550593846361153	6.0	750.0	3.0	4.0	3.0	4.0	0.0	part_2
256	1.0	8.0			600.0	0.0	0.0							6.0	0.0	0.8167366518173367	6.0	750.0	2.0	6.0	2.0	7.0	0.0	part_2
257	3.0	8.0			600.0	0.0	1.0							5.0	0.0	0.6812518527149223	5.0	750.0	4.0	7.0	8.0	1.0	1.0	part_2
258	1.0	8.0			550.0	0.0	0.0							5.0	0.0	0.8400062035652809	5.0	750.0	1.0	3.0	1.0	3.0	0.0	part_2
259	4.0	8.0			550.0	0.0	1.0							5.0	0.0	0.0	0.0	750.0	4.0	7.0	8.0	1.0	1.0	part_2
260	3.0	8.0			600.0	0.0	1.0							5.0	0.0	0.6158833619556391	5.0	750.0	2.0	1.0	6.0	6.0	1.0	part_2
261	4.0	8.0			550.0	0.0	1.0							5.0	0.0	0.0	0.0	750.0	1.0	5.0	5.0	5.0	1.0	part_2
262	1.0	8.0			600.0	0.0	1.0							6.0	0.0	0.9108034308883362	6.0	750.0	4.0	7.0	8.0	1.0	0.0	part_2
263	4.0	8.0			600.0	0.0	1.0							5.0	0.0	0.0	0.0	750.0	4.0	7.0	8.0	1.0	1.0	part_2
264	1.0	8.0			650.0	0.0	0.0							6.0	0.0	0.7768599489936605	6.0	750.0	4.0	8.0	4.0	2.0	0.0	part_2
265	1.0	8.0			650.0	0.0	0.0							6.0	0.0	1.2723985236370936	6.0	750.0	2.0	6.0	2.0	7.0	0.0	part_2
266	1.0	8.0			650.0	0.0	0.0							6.0	0.0	0.8689164716051891	6.0	750.0	1.0	3.0	1.0	3.0	0.0	part_2
267	1.0	8.0			650.0	0.0	0.0							5.0	0.0	1.1387640775064938	5.0	750.0	4.0	8.0	4.0	2.0	0.0	part_2
268	1.0	8.0			650.0	0.0	0.0							5.0	0.0	0.9711467298911884	5.0	750.0	1.0	3.0	1.0	3.0	0.0	part_2
269	1.0	8.0			650.0	0.0	1.0							6.0	0.0	0.8260998346377164	6.0	750.0	1.0	5.0	5.0	5.0	0.0	part_2
270	1.0	8.0			650.0	0.0	0.0							5.0	0.0	0.8277212153188884	5.0	750.0	1.0	3.0	1.0	3.0	0.0	part_2
271	3.0	8.0			650.0	0.0	1.0							6.0	0.0	0.7268418156309053	6.0	750.0	1.0	5.0	5.0	5.0	1.0	part_2
272	4.0	8.0			650.0	0.0	1.0							6.0	0.0	0.0	0.0	700.0	1.0	5.0	5.0	5.0	1.0	part_2
273	1.0	8.0			650.0	0.0	1.0							6.0	0.0	0.9990946775651536	6.0	750.0	2.0	1.0	6.0	6.0	0.0	part_2
274	1.0	8.0			650.0	0.0	1.0							6.0	0.0	0.9768418219173328	6.0	750.0	2.0	1.0	6.0	6.0	0.0	part_2
275	1.0	8.0			650.0	0.0	0.0							5.0	0.0	0.7512711496092379	5.0	750.0	2.0	6.0	2.0	7.0	0.0	part_2
276	4.0	8.0			650.0	0.0	1.0							5.0	0.0	0.0	0.0	750.0	4.0	7.0	8.0	1.0	1.0	part_2
277	1.0	8.0			700.0	0.0	0.0							5.0	0.0	0.9902665356639772	5.0	750.0	2.0	6.0	2.0	7.0	0.0	part_2
278	1.0	8.0			700.0	0.0	1.0							6.0	0.0	0.8337699719122611	6.0	750.0	3.0	2.0	7.0	8.0	0.0	part_2
279	4.0	8.0			700.0	0.0	1.0							6.0	0.0	0.0	0.0	750.0	4.0	7.0	8.0	1.0	1.0	part_2
280	1.0	8.0			700.0	0.0	0.0							5.0	0.0	0.7559376229182817	5.0	800.0	4.0	8.0	4.0	2.0	0.0	part_2
281	4.0	8.0			700.0	0.0	1.0							5.0	0.0	0.0	0.0	800.0	4.0	7.0	8.0	1.0	1.0	part_2
282	1.0	8.0			750.0	0.0	0.0							6.0	0.0	0.8249453365569934	6.0	800.0	2.0	6.0	2.0	7.0	0.0	part_2
283	4.0	8.0			750.0	0.0	1.0							6.0	0.0	0.0	0.0	800.0	2.0	1.0	6.0	6.0	1.0	part_2
284	3.0	8.0			750.0	0.0	1.0							5.0	0.0	0.4890000721206889	5.0	850.0	4.0	7.0	8.0	1.0	1.0	part_2
285	1.0	8.0			700.0	0.0	0.0							6.0	0.0	0.8047781875939108	6.0	850.0	2.0	6.0	2.0	7.0	0.0	part_2
286	1.0	8.0			700.0	0.0	0.0							6.0	0.0	0.6708572502830066	6.0	850.0	2.0	6.0	2.0	7.0	0.0	part_2
287	4.0	8.0			700.0	0.0	1.0							5.0	0.0	0.0	0.0	850.0	2.0	1.0	6.0	6.0	1.0	part_2
0	0.0	1.0	98.0	2.0	0.0	2.0	0.0	147.0	245.0	294.0	196.0	98.0	49.0	7.0	0.0	2.4991158036282286	5.0	0.0	3.0	4.0	3.0	4.0	0.0	part_3
1	0.0	1.0	39.0	1.0	0.0	1.0	1.0	156.0	78.0	234.0	39.0	195.0	117.0	7.0	0.0	2.453589314478449	4.0	0.0	1.0	5.0	5.0	5.0	0.0	part_3
2	0.0	1.0	44.0	1.0	0.0	1.0	1.0	176.0	44.0	264.0	220.0	132.0	88.0	7.0	0.0	1.7349093024968167	2.0	0.0	1.0	5.0	5.0	5.0	0.0	part_3
3	0.0	1.0	132.0	3.0	0.0	1.0	1.0	176.0	220.0	88.0	264.0	132.0	44.0	7.0	0.0	2.2188936752500013	5.0	0.0	3.0	2.0	7.0	8.0	0.0	part_3
4	0.0	1.0	98.0	2.0	0.0	1.0	1.0	196.0	147.0	98.0	294.0	49.0	245.0	7.0	0.0	2.1864594392245635	3.0	0.0	2.0	1.0	6.0	6.0	0.0	part_3
5	0.0	1.0	44.0	1.0	0.0	1.0	0.0	264.0	176.0	88.0	44.0	220.0	132.0	7.0	0.0	1.59121266764123	4.0	0.0	4.0	8.0	4.0	2.0	0.0	part_3
6	0.0	1.0	54.0	1.0	0.0	1.0	0.0	54.0	324.0	162.0	216.0	270.0	108.0	7.0	0.0	3.1012718951678835	1.0	0.0	1.0	3.0	1.0	3.0	0.0	part_3
7	0.0	1.0	39.0	1.0	0.0	1.0	1.0	78.0	195.0	234.0	117.0	156.0	39.0	7.0	0.0	1.8301056030904876	6.0	0.0	3.0	2.0	7.0	8.0	0.0	part_3
8	0.0	1.0	98.0	2.0	0.0	1.0	0.0	98.0	245.0	196.0	49.0	147.0	294.0	7.0	0.0	1.5498530383338218	1.0	0.0	3.0	4.0	3.0	4.0	0.0	part_3
9	0.0	1.0	34.0	1.0	0.0	1.0	0.0	102.0	34.0	170.0	136.0	204.0	68.0	7.0	0.0	1.6638503491412848	2.0	0.0	3.0	4.0	3.0	4.0	0.0	part_3
10	0.0	1.0	88.0	2.0	0.0	1.0	0.0	176.0	220.0	44.0	88.0	264.0	132.0	7.0	0.0	1.6982628206606023	4.0	0.0	1.0	3.0	1.0	3.0	0.0	part_3
11	0.0	1.0	98.0	2.0	0.0	1.0	1.0	147.0	49.0	98.0	196.0	245.0	294.0	7.0	0.0	1.6883874731138349	3.0	0.0	3.0	2.0	7.0	8.0	0.0	part_3
12	0.0	1.0	117.0	3.0	0.0	1.0	0.0	117.0	39.0	195.0	156.0	234.0	78.0	7.0	0.0	2.3867851062095724	1.0	0.0	1.0	3.0	1.0	3.0	0.0	part_3
13	0.0	1.0	102.0	3.0	0.0	1.0	1.0	68.0	170.0	34.0	136.0	102.0	204.0	7.0	0.0	1.7691803073394112	5.0	0.0	1.0	5.0	5.0	5.0	0.0	part_3
14	0.0	1.0	108.0	2.0	0.0	1.0	1.0	162.0	108.0	216.0	324.0	54.0	270.0	7.0	0.0	1.310188954055775	2.0	0.0	1.0	5.0	5.0	5.0	0.0	part_3
15	0.0	1.0	156.0	4.0	0.0	1.0	1.0	234.0	39.0	117.0	78.0	195.0	156.0	7.0	0.0	2.5814968419144857	6.0	0.0	4.0	7.0	8.0	1.0	0.0	part_3
16	0.0	1.0	147.0	3.0	0.0	1.0	1.0	245.0	49.0	147.0	294.0	196.0	98.0	7.0	0.0	1.9863219945109452	3.0	0.0	1.0	5.0	5.0	5.0	0.0	part_3
17	0.0	1.0	162.0	3.0	0.0	1.0	0.0	270.0	216.0	324.0	108.0	162.0	54.0	7.0	0.0	1.4813860911526715	5.0	0.0	2.0	6.0	2.0	7.0	0.0	part_3
18	0.0	1.0	170.0	5.0	0.0	1.0	1.0	34.0	204.0	68.0	102.0	170.0	136.0	7.0	0.0	1.6168679685215466	5.0	0.0	3.0	2.0	7.0	8.0	0.0	part_3
19	0.0	1.0	102.0	3.0	0.0	1.0	0.0	204.0	34.0	136.0	68.0	102.0	170.0	7.0	0.0	1.7081656521768311	5.0	0.0	3.0	4.0	3.0	4.0	0.0	part_3
20	0.0	2.0	176.0	4.0	0.0	1.0	0.0	132.0	44.0	264.0	220.0	176.0	88.0	7.0	0.0	1.8454742400208488	5.0	0.0	2.0	6.0	2.0	7.0	0.0	part_3
21	0.0	2.0	176.0	4.0	0.0	1.0	1.0	220.0	264.0	44.0	176.0	88.0	132.0	7.0	0.0	1.3612467881175692	4.0	0.0	2.0	1.0	6.0	6.0	0.0	part_3
22	0.0	2.0	88.0	2.0	0.0	1.0	1.0	44.0	88.0	132.0	264.0	176.0	220.0	7.0	0.0	2.1857214705087245	2.0	0.0	2.0	1.0	6.0	6.0	0.0	part_3
23	0.0	2.0	132.0	3.0	0.0	1.0	1.0	220.0	264.0	132.0	88.0	44.0	176.0	7.0	0.0	2.288041790365241	3.0	0.0	3.0	2.0	7.0	8.0	0.0	part_3
24	0.0	2.0	98.0	2.0	0.0	1.0	0.0	294.0	245.0	196.0	147.0	49.0	98.0	7.0	0.0	1.320069040171802	6.0	0.0	4.0	8.0	4.0	2.0	0.0	part_3
25	0.0	2.0	102.0	3.0	0.0	1.0	0.0	170.0	34.0	204.0	136.0	102.0	68.0	7.0	0.0	1.3432202746625992	5.0	0.0	2.0	6.0	2.0	7.0	0.0	part_3
26	0.0	2.0	162.0	3.0	0.0	1.0	0.0	54.0	270.0	216.0	162.0	324.0	108.0	7.0	0.0	1.3446377933723852	4.0	0.0	1.0	3.0	1.0	3.0	0.0	part_3
27	0.0	2.0	162.0	3.0	0.0	1.0	0.0	270.0	216.0	162.0	324.0	54.0	108.0	7.0	0.0	1.3453514631255528	3.0	0.0	4.0	8.0	4.0	2.0	0.0	part_3
28	0.0	2.0	136.0	4.0	0.0	1.0	0.0	170.0	68.0	102.0	136.0	34.0	204.0	7.0	0.0	1.2117788960458709	4.0	0.0	4.0	8.0	4.0	2.0	0.0	part_3
29	0.0	2.0	108.0	2.0	0.0	1.0	0.0	324.0	216.0	54.0	270.0	162.0	108.0	7.0	0.0	2.474574253137689	6.0	0.0	2.0	6.0	2.0	7.0	0.0	part_3
30	0.0	2.0	196.0	4.0	0.0	1.0	1.0	98.0	294.0	196.0	147.0	245.0	49.0	7.0	0.0	2.1136445504962467	3.0	0.0	4.0	7.0	8.0	1.0	0.0	part_3
31	0.0	2.0	108.0	2.0	0.0	1.0	0.0	270.0	216.0	54.0	162.0	108.0	324.0	7.0	0.0	1.800249283609446	5.0	0.0	3.0	4.0	3.0	4.0	0.0	part_3
32	0.0	2.0	156.0	4.0	0.0	1.0	1.0	39.0	78.0	117.0	156.0	195.0	234.0	7.0	0.0	2.465378798020538	4.0	0.0	4.0	7.0	8.0	1.0	0.0	part_3
33	0.0	2.0	147.0	3.0	0.0	1.0	0.0	294.0	196.0	245.0	98.0	147.0	49.0	7.0	0.0	1.8379562146728856	5.0	0.0	1.0	3.0	1.0	3.0	0.0	part_3
34	0.0	2.0	147.0	3.0	0.0	1.0	1.0	49.0	196.0	294.0	147.0	98.0	245.0	7.0	0.0	1.4446460906183347	4.0	0.0	1.0	5.0	5.0	5.0	0.0	part_3
35	0.0	2.0	136.0	4.0	0.0	1.0	1.0	102.0	34.0	68.0	170.0	136.0	204.0	7.0	0.0	1.9969301063101736	5.0	0.0	4.0	7.0	8.0	1.0	0.0	part_3
36	0.0	2.0	117.0	3.0	0.0	1.0	0.0	234.0	156.0	39.0	117.0	195.0	78.0	7.0	0.0	1.8634001681930383	4.0	0.0	2.0	6.0	2.0	7.0	0.0	part_3
37	0.0	2.0	147.0	3.0	0.0	1.0	0.0	294.0	196.0	49.0	98.0	245.0	147.0	7.0	0.0	2.1686310915392824	6.0	0.0	1.0	3.0	1.0	3.0	0.0	part_3
38	0.0	2.0	195.0	5.0	0.0	1.0	1.0	117.0	156.0	78.0	39.0	234.0	195.0	7.0	0.0	2.4052709154784684	6.0	0.0	2.0	1.0	6.0	6.0	0.0	part_3
39	0.0	2.0	132.0	3.0	0.0	1.0	0.0	176.0	88.0	220.0	264.0	132.0	44.0	7.0	0.0	2.1913413080037567	5.0	0.0	4.0	8.0	4.0	2.0	0.0	part_3
40	0.0	3.0	102.0	3.0	0.0	1.0	1.0	34.0	170.0	102.0	204.0	68.0	136.0	7.0	0.0	1.7459026576834733	3.0	0.0	4.0	7.0	8.0	1.0	0.0	part_3
41	0.0	3.0	170.0	5.0	0.0	1.0	0.0	102.0	170.0	68.0	204.0	34.0	136.0	7.0	0.0	1.6798985060304403	2.0	0.0	1.0	3.0	1.0	3.0	0.0	part_3
42	0.0	3.0	170.0	5.0	0.0	1.0	0.0	68.0	102.0	204.0	34.0	170.0	136.0	7.0	0.0	1.5226769730215892	5.0	0.0	1.0	3.0	1.0	3.0	0.0	part_3
43	0.0	3.0	162.0	3.0	0.0	1.0	1.0	162.0	54.0	216.0	324.0	270.0	108.0	7.0	0.0	2.7404215565184127	1.0	0.0	4.0	7.0	8.0	1.0	0.0	part_3
44	0.0	3.0	162.0	3.0	0.0	1.0	1.0	108.0	324.0	162.0	54.0	270.0	216.0	7.0	0.0	1.7171835116459988	3.0	0.0	3.0	2.0	7.0	8.0	0.0	part_3
45	0.0	3.0	136.0	4.0	0.0	1.0	1.0	170.0	136.0	102.0	34.0	204.0	68.0	7.0	0.0	2.223734022525605	2.0	0.0	3.0	2.0	7.0	8.0	0.0	part_3
46	0.0	3.0	156.0	4.0	0.0	1.0	0.0	78.0	234.0	39.0	195.0	156.0	117.0	7.0	0.0	1.8758837421773933	5.0	0.0	4.0	8.0	4.0	2.0	0.0	part_3
47	0.0	3.0	156.0	4.0	0.0	1.0	0.0	234.0	117.0	39.0	156.0	78.0	195.0	7.0	0.0	2.0476150516187768	4.0	0.0	3.0	4.0	3.0	4.0	0.0	part_3
48	0.0	3.0	162.0	3.0	0.0	1.0	1.0	108.0	162.0	324.0	216.0	270.0	54.0	7.0	0.0	2.003675300220493	2.0	0.0	3.0	2.0	7.0	8.0	0.0	part_3
49	0.0	3.0	156.0	4.0	0.0	1.0	0.0	117.0	39.0	195.0	234.0	156.0	78.0	7.0	0.0	1.5323714683763685	5.0	0.0	2.0	6.0	2.0	7.0	0.0	part_3
50	0.0	3.0	132.0	3.0	0.0	1.0	0.0	176.0	264.0	88.0	132.0	220.0	44.0	7.0	0.0	1.3854855359531941	4.0	0.0	3.0	4.0	3.0	4.0	0.0	part_3
51	0.0	3.0	156.0	4.0	0.0	1.0	1.0	117.0	234.0	78.0	156.0	195.0	39.0	7.0	0.0	1.3079686093842608	4.0	0.0	3.0	2.0	7.0	8.0	0.0	part_3
52	0.0	3.0	147.0	3.0	0.0	1.0	1.0	294.0	147.0	245.0	196.0	49.0	98.0	7.0	0.0	2.1296887220232747	2.0	0.0	4.0	7.0	8.0	1.0	0.0	part_3
53	0.0	3.0	132.0	3.0	0.0	1.0	0.0	44.0	176.0	264.0	220.0	132.0	88.0	7.0	0.0	1.7041832921095192	5.0	0.0	2.0	6.0	2.0	7.0	0.0	part_3
54	0.0	3.0	162.0	3.0	0.0	1.0	1.0	108.0	216.0	324.0	54.0	162.0	270.0	7.0	0.0	2.6398297152481973	5.0	0.0	1.0	5.0	5.0	5.0	0.0	part_3
55	0.0	3.0	108.0	2.0	0.0	1.0	1.0	162.0	216.0	270.0	54.0	108.0	324.0	7.0	0.0	1.3585201096720994	5.0	0.0	4.0	7.0	8.0	1.0	0.0	part_3
56	0.0	3.0	147.0	3.0	0.0	1.0	0.0	49.0	245.0	196.0	98.0	147.0	294.0	7.0	0.0	1.1679143250221389	5.0	0.0	4.0	8.0	4.0	2.0	0.0	part_3
57	0.0	3.0	162.0	3.0	0.0	1.0	0.0	324.0	270.0	162.0	216.0	54.0	108.0	7.0	0.0	2.416566578729544	3.0	0.0	4.0	8.0	4.0	2.0	0.0	part_3
58	0.0	3.0	136.0	4.0	0.0	1.0	0.0	170.0	68.0	136.0	204.0	102.0	34.0	7.0	0.0	1.709146543056704	3.0	0.0	2.0	6.0	2.0	7.0	0.0	part_3
59	0.0	3.0	162.0	3.0	0.0	1.0	1.0	270.0	108.0	324.0	54.0	162.0	216.0	7.0	0.0	1.811186320730485	5.0	0.0	2.0	1.0	6.0	6.0	0.0	part_3
60	0.0	4.0	156.0	4.0	0.0	1.0	0.0	195.0	117.0	39.0	234.0	156.0	78.0	7.0	0.0	1.6847075691912323	5.0	0.0	4.0	8.0	4.0	2.0	0.0	part_3
61	0.0	4.0	170.0	5.0	0.0	1.0	1.0	34.0	102.0	136.0	204.0	170.0	68.0	7.0	0.0	1.3470068132155577	5.0	0.0	2.0	1.0	6.0	6.0	0.0	part_3
62	0.0	4.0	88.0	2.0	0.0	1.0	1.0	132.0	220.0	88.0	44.0	264.0	176.0	7.0	0.0	2.1027047811658117	3.0	0.0	4.0	7.0	8.0	1.0	0.0	part_3
63	0.0	4.0	176.0	4.0	0.0	1.0	1.0	132.0	44.0	220.0	264.0	176.0	88.0	7.0	0.0	1.271357359131798	5.0	0.0	4.0	7.0	8.0	1.0	0.0	part_3
64	0.0	4.0	117.0	3.0	0.0	1.0	0.0	156.0	234.0	78.0	117.0	195.0	39.0	7.0	0.0	2.2836738492478617	4.0	0.0	3.0	4.0	3.0	4.0	0.0	part_3
65	0.0	4.0	176.0	4.0	0.0	1.0	0.0	264.0	132.0	88.0	176.0	44.0	220.0	7.0	0.0	1.262518006376922	4.0	0.0	1.0	3.0	1.0	3.0	0.0	part_3
66	0.0	4.0	147.0	3.0	0.0	1.0	0.0	294.0	147.0	98.0	245.0	196.0	49.0	7.0	0.0	1.7907110649975948	2.0	0.0	2.0	6.0	2.0	7.0	0.0	part_3
67	0.0	4.0	176.0	4.0	0.0	1.0	0.0	220.0	88.0	132.0	264.0	176.0	44.0	7.0	0.0	1.7471014716429636	5.0	0.0	3.0	4.0	3.0	4.0	0.0	part_3
68	0.0	4.0	108.0	2.0	0.0	1.0	0.0	162.0	216.0	324.0	54.0	108.0	270.0	7.0	0.0	2.5581213789992034	5.0	0.0	3.0	4.0	3.0	4.0	0.0	part_3
69	0.0	4.0	176.0	4.0	0.0	1.0	1.0	220.0	264.0	88.0	132.0	176.0	44.0	7.0	0.0	2.189002701372374	5.0	0.0	1.0	5.0	5.0	5.0	0.0	part_3
70	0.0	4.0	147.0	3.0	0.0	1.0	0.0	49.0	294.0	98.0	196.0	245.0	147.0	7.0	0.0	1.7723045664024542	6.0	0.0	2.0	6.0	2.0	7.0	0.0	part_3
71	0.0	4.0	117.0	3.0	0.0	1.0	1.0	156.0	234.0	195.0	39.0	117.0	78.0	7.0	0.0	1.4136915496201254	5.0	0.0	1.0	5.0	5.0	5.0	0.0	part_3
72	0.0	4.0	117.0	3.0	0.0	1.0	1.0	39.0	78.0	156.0	195.0	117.0	234.0	7.0	0.0	1.1220134379691444	5.0	0.0	2.0	1.0	6.0	6.0	0.0	part_3
73	0.0	4.0	108.0	2.0	0.0	1.0	1.0	324.0	54.0	162.0	216.0	108.0	270.0	7.0	0.0	1.4388218356180005	5.0	0.0	2.0	1.0	6.0	6.0	0.0	part_3
74	0.0	4.0	117.0	3.0	0.0	1.0	0.0	156.0	39.0	234.0	117.0	195.0	78.0	7.0	0.0	1.6758378883241676	4.0	0.0	1.0	3.0	1.0	3.0	0.0	part_3
75	0.0	4.0	170.0	5.0	0.0	1.0	1.0	170.0	68.0	34.0	136.0	204.0	102.0	7.0	0.0	2.566172711609397	1.0	0.0	2.0	1.0	6.0	6.0	0.0	part_3
76	0.0	4.0	170.0	5.0	0.0	1.0	0.0	68.0	204.0	170.0	136.0	102.0	34.0	7.0	0.0	1.7114473401452417	3.0	0.0	4.0	8.0	4.0	2.0	0.0	part_3
77	0.0	4.0	196.0	4.0	0.0	1.0	1.0	49.0	98.0	294.0	245.0	196.0	147.0	7.0	0.0	1.690310058998875	5.0	0.0	3.0	2.0	7.0	8.0	0.0	part_3
78	0.0	4.0	147.0	3.0	0.0	1.0	1.0	98.0	196.0	147.0	245.0	49.0	294.0	7.0	0.0	1.7938036266714334	3.0	0.0	2.0	1.0	6.0	6.0	0.0	part_3
79	0.0	4.0	170.0	5.0	0.0	1.0	1.0	204.0	136.0	68.0	170.0	34.0	102.0	7.0	0.0	1.5367309123394082	4.0	0.0	1.0	5.0	5.0	5.0	0.0	part_3
