	accuracy	block	chosen_bidding_amount	chosen_bidding_level	left_SSD	num_trial_presentations	paired_with_stopping	possible_bid_1	possible_bid_2	possible_bid_3	possible_bid_4	possible_bid_5	possible_bid_6	quadrant	raw_reward_magnitude	reaction_time	response	right_SSD	stepwise_reward_magnitude	stim_color	stim_reward	stim_shape	stop_signal_trial_type	which_part
0		1.0				1.0	0.0							3.0	89.0	0.4272530924099556	3.0		2.0	7.0	2.0	6.0		part_1
1		1.0				1.0	1.0							2.0	175.0	0.2726372354918567	2.0		3.0	2.0	7.0	7.0		part_1
2		1.0				1.0	0.0							1.0	0.0	0.2956611953231913	1.0		0.0	5.0	1.0	5.0		part_1
3		1.0				1.0	0.0							2.0	175.0	0.44234301249161945	2.0		3.0	6.0	3.0	1.0		part_1
4		1.0				1.0	1.0							4.0	38.0	0.3059839415727765	4.0		1.0	3.0	5.0	4.0		part_1
5		1.0				1.0	0.0							1.0	53.0	0.2978214417453273	1.0		1.0	5.0	1.0	5.0		part_1
6		1.0				1.0	1.0							4.0	0.0	0.24012353149373666	4.0		0.0	1.0	8.0	3.0		part_1
7		1.0				1.0	1.0							1.0	117.0	0.35470025791437365	1.0		2.0	8.0	6.0	8.0		part_1
8		1.0				1.0	0.0							2.0	0.0	0.28639933125668904	2.0		0.0	5.0	1.0	5.0		part_1
9		1.0				1.0	1.0							1.0	378.0	0.27744213966070674	1.0		4.0	1.0	8.0	3.0		part_1
10		1.0				1.0	1.0							2.0	0.0	0.3005564757477259	2.0		0.0	1.0	8.0	3.0		part_1
11		1.0				1.0	0.0							2.0	0.0	0.2780134888307657	2.0		0.0	7.0	2.0	6.0		part_1
12		1.0				1.0	1.0							2.0	394.0	0.2656902976632409	2.0		4.0	1.0	8.0	3.0		part_1
13		1.0				1.0	0.0							2.0	407.0	0.2442761984893877	2.0		4.0	4.0	4.0	2.0		part_1
14		1.0				1.0	1.0							3.0	28.0	0.3571966386625718	3.0		1.0	3.0	5.0	4.0		part_1
15		1.0				1.0	1.0							3.0	206.0	0.3242422066614381	3.0		3.0	2.0	7.0	7.0		part_1
16		1.0				1.0	1.0							1.0	111.0	0.2798038427426945	1.0		2.0	8.0	6.0	8.0		part_1
17		1.0				1.0	1.0							1.0	49.0	0.2237787757476326	1.0		1.0	3.0	5.0	4.0		part_1
18		1.0				1.0	1.0							2.0	180.0	0.24781975349469576	2.0		3.0	2.0	7.0	7.0		part_1
19		1.0				1.0	1.0							3.0	211.0	0.25866352457524044	3.0		3.0	2.0	7.0	7.0		part_1
20		1.0				1.0	1.0							3.0	0.0	0.2718463209130277	3.0		0.0	3.0	5.0	4.0		part_1
21		1.0				1.0	1.0							4.0	65.0	0.23854644508537606	4.0		1.0	3.0	5.0	4.0		part_1
22		1.0				1.0	1.0							2.0	191.0	0.23841311674550525	2.0		3.0	2.0	7.0	7.0		part_1
23		1.0				2.0	0.0							2.0	389.0	0.28533432949188864	2.0		4.0	4.0	4.0	2.0		part_1
24		1.0				1.0	0.0							3.0	218.0	0.3070762706629466	3.0		3.0	6.0	3.0	1.0		part_1
25		1.0				1.0	0.0							1.0	80.0	0.23980645932169864	1.0		2.0	7.0	2.0	6.0		part_1
26		1.0				1.0	0.0							4.0	178.0	0.25306833683134755	4.0		3.0	6.0	3.0	1.0		part_1
27		1.0				1.0	1.0							2.0	378.0	0.26359460582898464	2.0		4.0	1.0	8.0	3.0		part_1
28		1.0				1.0	0.0							2.0	73.0	0.253079402831645	2.0		1.0	5.0	1.0	5.0		part_1
29		1.0				1.0	0.0							1.0	108.0	0.27592001374432584	1.0		2.0	7.0	2.0	6.0		part_1
30		1.0				1.0	1.0							4.0	81.0	0.26571406832226785	4.0		2.0	8.0	6.0	8.0		part_1
31		1.0				1.0	0.0							2.0	80.0	0.2782115170011821	2.0		2.0	7.0	2.0	6.0		part_1
32		1.0				1.0	0.0							4.0	111.0	0.24313801374592006	4.0		2.0	7.0	2.0	6.0		part_1
33		1.0				1.0	1.0							4.0	379.0	0.28862147840845864	4.0		4.0	1.0	8.0	3.0		part_1
34		1.0				1.0	1.0							2.0	105.0	0.22222625783251715	2.0		2.0	8.0	6.0	8.0		part_1
35		1.0				1.0	1.0							2.0	214.0	0.2341815873187443	2.0		3.0	2.0	7.0	7.0		part_1
36		1.0				2.0	1.0							1.0	0.0	0.2818345428313478	1.0		0.0	2.0	7.0	7.0		part_1
37		1.0				1.0	0.0							4.0	382.0	0.2916487764923659	4.0		4.0	4.0	4.0	2.0		part_1
38		1.0				1.0	1.0							1.0	62.0	0.2717455375750433	1.0		1.0	3.0	5.0	4.0		part_1
39		1.0				1.0	1.0							2.0	383.0	0.2597759529999166	2.0		4.0	1.0	8.0	3.0		part_1
40		1.0				1.0	1.0							3.0	108.0	0.30458596566313645	3.0		2.0	8.0	6.0	8.0		part_1
41		1.0				1.0	1.0							2.0	74.0	0.23776854632160396	2.0		1.0	3.0	5.0	4.0		part_1
42		1.0				1.0	1.0							3.0	45.0	0.2960542303226248	3.0		1.0	3.0	5.0	4.0		part_1
43		1.0				1.0	0.0							2.0	194.0	0.2952250118323718	2.0		3.0	6.0	3.0	1.0		part_1
44		1.0				2.0	0.0							4.0	417.0	0.3431291392371349	4.0		4.0	4.0	4.0	2.0		part_1
45		1.0				1.0	0.0							1.0	62.0	0.3212838456602185	1.0		1.0	5.0	1.0	5.0		part_1
46		1.0				2.0	1.0							1.0	395.0	0.3220960688304331	1.0		4.0	1.0	8.0	3.0		part_1
47		1.0				1.0	0.0							4.0	199.0	0.29805055083124893	4.0		3.0	6.0	3.0	1.0		part_1
48		1.0				1.0	0.0							4.0	409.0	0.32311123257750296	4.0		4.0	4.0	4.0	2.0		part_1
49		1.0				1.0	1.0							3.0	417.0	0.3119353027468605	3.0		4.0	1.0	8.0	3.0		part_1
50		1.0				1.0	0.0							1.0	102.0	0.28981023191590793	1.0		2.0	7.0	2.0	6.0		part_1
51		1.0				1.0	0.0							4.0	178.0	0.3233183252996241	4.0		3.0	6.0	3.0	1.0		part_1
52		1.0				1.0	1.0							1.0	123.0	0.27908751221548306	1.0		2.0	8.0	6.0	8.0		part_1
53		1.0				1.0	0.0							1.0	73.0	0.2800075759623724	1.0		1.0	5.0	1.0	5.0		part_1
54		1.0				1.0	0.0							3.0	179.0	0.3132923761695565	3.0		3.0	6.0	3.0	1.0		part_1
55		1.0				1.0	0.0							2.0	0.0	0.32730025157434284	2.0		0.0	4.0	4.0	2.0		part_1
56		1.0				1.0	0.0							4.0	420.0	0.31443611932263593	4.0		4.0	4.0	4.0	2.0		part_1
57		1.0				1.0	0.0							3.0	0.0	0.3603607518307399	3.0		0.0	5.0	1.0	5.0		part_1
58		1.0				1.0	1.0							4.0	78.0	0.3612795584085689	4.0		2.0	8.0	6.0	8.0		part_1
59		1.0				1.0	1.0							4.0	378.0	0.3054631326594972	4.0		4.0	1.0	8.0	3.0		part_1
60		1.0				1.0	0.0							4.0	98.0	0.3401057744922582	4.0		2.0	7.0	2.0	6.0		part_1
61		1.0				1.0	1.0							4.0	192.0	0.3394355778291356	4.0		3.0	2.0	7.0	7.0		part_1
62		1.0				1.0	0.0							2.0	0.0	0.2621547433227533	2.0		0.0	4.0	4.0	2.0		part_1
63		1.0				1.0	1.0							4.0	73.0	0.3303042617444589	4.0		1.0	3.0	5.0	4.0		part_1
64		1.0				1.0	1.0							4.0	98.0	0.3187635364920425	4.0		2.0	8.0	6.0	8.0		part_1
65		1.0				1.0	0.0							2.0	41.0	0.2754259514913429	2.0		1.0	5.0	1.0	5.0		part_1
66		1.0				1.0	1.0							1.0	0.0	0.3658059195731767	1.0		0.0	2.0	7.0	7.0		part_1
67		1.0				1.0	0.0							4.0	0.0	0.28791196099700755	4.0		0.0	7.0	2.0	6.0		part_1
68		1.0				1.0	0.0							2.0	0.0	0.31017089140368626	2.0		0.0	6.0	3.0	1.0		part_1
69		1.0				1.0	1.0							4.0	53.0	0.31189421366070746	4.0		1.0	3.0	5.0	4.0		part_1
70		1.0				1.0	0.0							3.0	117.0	0.312652241827891	3.0		2.0	7.0	2.0	6.0		part_1
71		1.0				1.0	0.0							3.0	0.0	0.3224359494925011	3.0		0.0	6.0	3.0	1.0		part_1
72		1.0				1.0	1.0							3.0	412.0	0.27867293957751826	3.0		4.0	1.0	8.0	3.0		part_1
73		1.0				1.0	1.0							4.0	383.0	0.3020163316614344	4.0		4.0	1.0	8.0	3.0		part_1
74		1.0				1.0	1.0							2.0	82.0	0.3141821594908833	2.0		2.0	8.0	6.0	8.0		part_1
75		1.0				1.0	0.0							2.0	73.0	0.3372926883203036	2.0		1.0	5.0	1.0	5.0		part_1
76		1.0				1.0	1.0							3.0	68.0	0.3137926242379763	3.0		1.0	3.0	5.0	4.0		part_1
77		1.0				1.0	0.0							3.0	220.0	0.3156738688303449	3.0		3.0	6.0	3.0	1.0		part_1
78		1.0				1.0	0.0							3.0	211.0	0.32770050449107657	3.0		3.0	6.0	3.0	1.0		part_1
79		1.0				1.0	0.0							2.0	61.0	0.32829581599798985	2.0		1.0	5.0	1.0	5.0		part_1
80		1.0				1.0	0.0							3.0	40.0	0.3055932196584763	3.0		1.0	5.0	1.0	5.0		part_1
81		1.0				1.0	1.0							2.0	99.0	0.3288850699173054	2.0		2.0	8.0	6.0	8.0		part_1
82		1.0				1.0	0.0							4.0	0.0	0.3287812666603713	4.0		0.0	6.0	3.0	1.0		part_1
83		1.0				1.0	1.0							1.0	61.0	0.3187446687479678	1.0		1.0	3.0	5.0	4.0		part_1
84		1.0				1.0	1.0							1.0	409.0	0.3526785206631757	1.0		4.0	1.0	8.0	3.0		part_1
85		1.0				1.0	1.0							2.0	73.0	0.3211043849150883	2.0		1.0	3.0	5.0	4.0		part_1
86		1.0				1.0	0.0							3.0	0.0	0.30959091957629425	3.0		0.0	5.0	1.0	5.0		part_1
87		1.0				1.0	0.0							3.0	198.0	0.3093352215764753	3.0		3.0	6.0	3.0	1.0		part_1
88		1.0				1.0	1.0							3.0	193.0	0.2988866414052609	3.0		3.0	2.0	7.0	7.0		part_1
89		1.0				1.0	0.0							3.0	394.0	0.30960827557282755	3.0		4.0	4.0	4.0	2.0		part_1
90		1.0				1.0	0.0							1.0	0.0	0.3119366738319513	1.0		0.0	6.0	3.0	1.0		part_1
91		1.0				1.0	1.0							4.0	0.0	0.2566646085761022	4.0		0.0	1.0	8.0	3.0		part_1
92		1.0				1.0	1.0							4.0	223.0	0.29026709049139754	4.0		3.0	2.0	7.0	7.0		part_1
93		1.0				1.0	0.0							3.0	108.0	0.2904911284094851	3.0		2.0	7.0	2.0	6.0		part_1
94		1.0				1.0	0.0							2.0	0.0	0.2798821318283444	2.0		0.0	5.0	1.0	5.0		part_1
95		1.0				1.0	0.0							3.0	0.0	0.2920044260827126	3.0		0.0	7.0	2.0	6.0		part_1
96		1.0				1.0	0.0							4.0	0.0	0.30339926474698586	4.0		0.0	5.0	1.0	5.0		part_1
97		1.0				1.0	1.0							3.0	50.0	0.3032861554893316	3.0		1.0	3.0	5.0	4.0		part_1
98		1.0				1.0	0.0							2.0	219.0	0.31554823549231514	2.0		3.0	6.0	3.0	1.0		part_1
99		1.0				1.0	1.0							1.0	0.0	0.2829154157443554	1.0		0.0	1.0	8.0	3.0		part_1
100		2.0				1.0	1.0							2.0	0.0	0.4036662217440608	2.0		0.0	3.0	5.0	4.0		part_1
101		2.0				2.0	0.0							4.0	224.0	0.3021549219156441	4.0		3.0	6.0	3.0	1.0		part_1
102		2.0				1.0	0.0							1.0	0.0	0.2686411019130901	1.0		0.0	5.0	1.0	5.0		part_1
103		2.0				1.0	1.0							4.0	421.0	0.2821357005777827	4.0		4.0	1.0	8.0	3.0		part_1
104		2.0				1.0	0.0							4.0	182.0	0.3157614353222016	4.0		3.0	6.0	3.0	1.0		part_1
105		2.0				1.0	0.0							2.0	191.0	0.2706619659147691	2.0		3.0	6.0	3.0	1.0		part_1
106		2.0				1.0	1.0							3.0	224.0	0.28278267932182644	3.0		3.0	2.0	7.0	7.0		part_1
107		2.0				2.0	0.0							3.0	65.0	0.31716732940549264	3.0		1.0	5.0	1.0	5.0		part_1
108		2.0				1.0	0.0							1.0	43.0	0.2948828634907841	1.0		1.0	5.0	1.0	5.0		part_1
109		2.0				1.0	1.0							2.0	179.0	0.2071678234060528	2.0		3.0	2.0	7.0	7.0		part_1
110		2.0				1.0	1.0							3.0	110.0	0.2405689436600369	3.0		2.0	8.0	6.0	8.0		part_1
111		2.0				1.0	0.0							2.0	206.0	0.24132568091590656	2.0		3.0	6.0	3.0	1.0		part_1
112		2.0				1.0	1.0							3.0	39.0	0.21965105882918576	3.0		1.0	3.0	5.0	4.0		part_1
113		2.0				1.0	0.0							4.0	220.0	0.2984201004037459	4.0		3.0	6.0	3.0	1.0		part_1
114		2.0				1.0	1.0							4.0	410.0	0.28827979891502764	4.0		4.0	1.0	8.0	3.0		part_1
115		2.0				1.0	1.0							1.0	183.0	0.3098406286590034	1.0		3.0	2.0	7.0	7.0		part_1
116		2.0				1.0	0.0							1.0	196.0	0.3112114837458648	1.0		3.0	6.0	3.0	1.0		part_1
117		2.0				1.0	1.0							3.0	0.0	0.32208916040690383	3.0		0.0	2.0	7.0	7.0		part_1
118		2.0				1.0	1.0							4.0	0.0	0.279323634083994	4.0		0.0	8.0	6.0	8.0		part_1
119		2.0				1.0	1.0							1.0	0.0	0.3244304998333973	1.0		0.0	8.0	6.0	8.0		part_1
120		2.0				1.0	1.0							3.0	412.0	0.30105158366131946	3.0		4.0	1.0	8.0	3.0		part_1
121		2.0				1.0	1.0							3.0	40.0	0.3247756055752689	3.0		1.0	3.0	5.0	4.0		part_1
122		2.0				1.0	0.0							3.0	76.0	0.3035253974921943	3.0		2.0	7.0	2.0	6.0		part_1
123		2.0				1.0	1.0							3.0	206.0	0.3250169136626937	3.0		3.0	2.0	7.0	7.0		part_1
124		2.0				2.0	0.0							1.0	219.0	0.3625634383242869	1.0		3.0	6.0	3.0	1.0		part_1
125		2.0				1.0	0.0							4.0	32.0	0.30507915891575976	4.0		1.0	5.0	1.0	5.0		part_1
126		2.0				1.0	1.0							1.0	0.0	0.3190955847458099	1.0		0.0	2.0	7.0	7.0		part_1
127		2.0				1.0	1.0							1.0	177.0	0.28357351382874185	1.0		3.0	2.0	7.0	7.0		part_1
128		2.0				1.0	1.0							2.0	60.0	0.3190281049173791	2.0		1.0	3.0	5.0	4.0		part_1
129		2.0				1.0	0.0							3.0	96.0	0.2736589686610387	3.0		2.0	7.0	2.0	6.0		part_1
130		2.0				1.0	1.0							4.0	0.0	0.2746730566614133	4.0		0.0	2.0	7.0	7.0		part_1
131		2.0				1.0	1.0							4.0	211.0	0.30770512925300864	4.0		3.0	2.0	7.0	7.0		part_1
132		2.0				1.0	0.0							3.0	118.0	0.2982436346610484	3.0		2.0	7.0	2.0	6.0		part_1
133		2.0				1.0	1.0							1.0	0.0	0.2758762178309553	1.0		0.0	1.0	8.0	3.0		part_1
134		2.0				1.0	1.0							2.0	0.0	0.2533015114895534	2.0		0.0	3.0	5.0	4.0		part_1
135		2.0				1.0	0.0							2.0	39.0	0.312170188746677	2.0		1.0	5.0	1.0	5.0		part_1
136		2.0				1.0	1.0							1.0	409.0	0.2891688880008587	1.0		4.0	1.0	8.0	3.0		part_1
137		2.0				1.0	1.0							4.0	34.0	0.3117060489130381	4.0		1.0	3.0	5.0	4.0		part_1
138		2.0				1.0	1.0							2.0	100.0	0.33503074223699514	2.0		2.0	8.0	6.0	8.0		part_1
139		2.0				1.0	1.0							4.0	216.0	0.3353413874101534	4.0		3.0	2.0	7.0	7.0		part_1
140		2.0				1.0	0.0							4.0	203.0	0.34848002149010426	4.0		3.0	6.0	3.0	1.0		part_1
141		2.0				1.0	1.0							2.0	64.0	0.3138913825787313	2.0		1.0	3.0	5.0	4.0		part_1
142		2.0				1.0	1.0							3.0	30.0	0.30408681008339045	3.0		1.0	3.0	5.0	4.0		part_1
143		2.0				1.0	0.0							4.0	58.0	0.2820979708303639	4.0		1.0	5.0	1.0	5.0		part_1
144		2.0				1.0	1.0							1.0	415.0	0.31515146566016483	1.0		4.0	1.0	8.0	3.0		part_1
145		2.0				1.0	1.0							3.0	213.0	0.3046749559143791	3.0		3.0	2.0	7.0	7.0		part_1
146		2.0				1.0	1.0							4.0	68.0	0.2953664067426871	4.0		1.0	3.0	5.0	4.0		part_1
147		2.0				1.0	1.0							2.0	42.0	0.2845781444921158	2.0		1.0	3.0	5.0	4.0		part_1
148		2.0				1.0	0.0							3.0	422.0	0.2845076265766693	3.0		4.0	4.0	4.0	2.0		part_1
149		2.0				1.0	1.0							2.0	198.0	0.29697037657388137	2.0		3.0	2.0	7.0	7.0		part_1
150		2.0				1.0	0.0							3.0	29.0	0.2963572669978021	3.0		1.0	5.0	1.0	5.0		part_1
151		2.0				1.0	0.0							4.0	0.0	0.2974496245769842	4.0		0.0	6.0	3.0	1.0		part_1
152		2.0				1.0	1.0							1.0	76.0	0.3314516049977101	1.0		2.0	8.0	6.0	8.0		part_1
153		2.0				1.0	1.0							2.0	397.0	0.2526441774061823	2.0		4.0	1.0	8.0	3.0		part_1
154		2.0				1.0	0.0							1.0	192.0	0.3208854664917453	1.0		3.0	6.0	3.0	1.0		part_1
155		2.0				1.0	0.0							2.0	92.0	0.3327738378284266	2.0		2.0	7.0	2.0	6.0		part_1
156		2.0				1.0	0.0							3.0	30.0	0.2773641475760087	3.0		1.0	5.0	1.0	5.0		part_1
157		2.0				1.0	0.0							1.0	38.0	0.3449581397471775	1.0		1.0	5.0	1.0	5.0		part_1
158		2.0				1.0	0.0							3.0	0.0	0.3224015396590403	3.0		0.0	7.0	2.0	6.0		part_1
159		2.0				1.0	0.0							4.0	379.0	0.3136235545753152	4.0		4.0	4.0	4.0	2.0		part_1
160		2.0				1.0	0.0							2.0	0.0	0.3141485504929733	2.0		0.0	7.0	2.0	6.0		part_1
161		2.0				1.0	1.0							4.0	89.0	0.3465267639148806	4.0		2.0	8.0	6.0	8.0		part_1
162		2.0				1.0	0.0							1.0	0.0	0.3372389393225603	1.0		0.0	4.0	4.0	2.0		part_1
163		2.0				1.0	1.0							4.0	185.0	0.3713415767451807	4.0		3.0	2.0	7.0	7.0		part_1
164		2.0				1.0	1.0							3.0	0.0	0.3382306346611585	3.0		0.0	2.0	7.0	7.0		part_1
165		2.0				1.0	0.0							4.0	0.0	0.3153690004910459	4.0		0.0	6.0	3.0	1.0		part_1
166		2.0				1.0	0.0							2.0	56.0	0.3161630409995269	2.0		1.0	5.0	1.0	5.0		part_1
167		2.0				1.0	1.0							4.0	41.0	0.3058690554898931	4.0		1.0	3.0	5.0	4.0		part_1
168		2.0				1.0	1.0							3.0	112.0	0.3175712679149001	3.0		2.0	8.0	6.0	8.0		part_1
169		2.0				1.0	0.0							2.0	45.0	0.3303347366600065	2.0		1.0	5.0	1.0	5.0		part_1
170		2.0				1.0	0.0							3.0	0.0	0.3072206670840387	3.0		0.0	6.0	3.0	1.0		part_1
171		2.0				1.0	0.0							1.0	100.0	0.3097268499150232	1.0		2.0	7.0	2.0	6.0		part_1
172		2.0				1.0	1.0							2.0	30.0	0.3194919432353345	2.0		1.0	3.0	5.0	4.0		part_1
173		2.0				1.0	0.0							3.0	39.0	0.2864671079987602	3.0		1.0	5.0	1.0	5.0		part_1
174		2.0				1.0	0.0							4.0	122.0	0.3204133779145195	4.0		2.0	7.0	2.0	6.0		part_1
175		2.0				1.0	1.0							2.0	378.0	0.320973617661366	2.0		4.0	1.0	8.0	3.0		part_1
176		2.0				1.0	0.0							4.0	214.0	0.3003148990028421	4.0		3.0	6.0	3.0	1.0		part_1
177		2.0				1.0	1.0							2.0	423.0	0.3011704458294844	2.0		4.0	1.0	8.0	3.0		part_1
178		2.0				1.0	1.0							3.0	80.0	0.40081373932480346	3.0		2.0	8.0	6.0	8.0		part_1
179		2.0				1.0	0.0							3.0	0.0	0.34651876791758696	3.0		0.0	4.0	4.0	2.0		part_1
180		2.0				1.0	1.0							2.0	182.0	0.3466080365760717	2.0		3.0	2.0	7.0	7.0		part_1
181		2.0				1.0	0.0							3.0	0.0	0.3245193248294527	3.0		0.0	7.0	2.0	6.0		part_1
182		2.0				2.0	1.0							1.0	194.0	0.34875726357495296	1.0		3.0	2.0	7.0	7.0		part_1
183		2.0				1.0	0.0							4.0	390.0	0.3481861884065438	4.0		4.0	4.0	4.0	2.0		part_1
184		2.0				1.0	0.0							4.0	117.0	0.35123652066249633	4.0		2.0	7.0	2.0	6.0		part_1
185		2.0				1.0	1.0							4.0	0.0	0.3509624133221223	4.0		0.0	3.0	5.0	4.0		part_1
186		2.0				1.0	0.0							2.0	223.0	0.3283871826643008	2.0		3.0	6.0	3.0	1.0		part_1
187		2.0				1.0	1.0							4.0	0.0	0.3402599017463217	4.0		0.0	8.0	6.0	8.0		part_1
188		2.0				1.0	0.0							1.0	185.0	0.3407796767423861	1.0		3.0	6.0	3.0	1.0		part_1
189		2.0				1.0	0.0							3.0	400.0	0.319500305577094	3.0		4.0	4.0	4.0	2.0		part_1
190		2.0				1.0	0.0							3.0	0.0	0.3179074872386991	3.0		0.0	4.0	4.0	2.0		part_1
191		2.0				1.0	1.0							1.0	420.0	0.307732706576644	1.0		4.0	1.0	8.0	3.0		part_1
192		2.0				1.0	0.0							1.0	110.0	0.5904702115767577	1.0		2.0	7.0	2.0	6.0		part_1
193		2.0				1.0	0.0							2.0	50.0	0.35553644266110496	2.0		1.0	5.0	1.0	5.0		part_1
194		2.0				1.0	1.0							4.0	0.0	0.2648090176626283	4.0		0.0	3.0	5.0	4.0		part_1
195		2.0				1.0	1.0							1.0	0.0	0.2772438429165049	1.0		0.0	1.0	8.0	3.0		part_1
196		2.0				1.0	1.0							4.0	125.0	0.2661683466612885	4.0		2.0	8.0	6.0	8.0		part_1
197		2.0				2.0	0.0							1.0	44.0	0.3461268419159751	1.0		1.0	5.0	1.0	5.0		part_1
198		2.0				1.0	1.0							3.0	0.0	0.28998980174583266	3.0		0.0	1.0	8.0	3.0		part_1
199		2.0				1.0	0.0							4.0	385.0	0.30224284466021345	4.0		4.0	4.0	4.0	2.0		part_1
200		3.0				1.0	0.0							2.0	121.0	0.336574436405499	2.0		2.0	7.0	2.0	6.0		part_1
201		3.0				1.0	0.0							3.0	108.0	0.33709665066271555	3.0		2.0	7.0	2.0	6.0		part_1
202		3.0				1.0	0.0							4.0	74.0	0.29336809066080605	4.0		1.0	5.0	1.0	5.0		part_1
203		3.0				1.0	1.0							3.0	390.0	0.3041813488307525	3.0		4.0	1.0	8.0	3.0		part_1
204		3.0				1.0	0.0							2.0	0.0	0.2727576256584143	2.0		0.0	7.0	2.0	6.0		part_1
205		3.0				1.0	0.0							1.0	409.0	0.2610776260007697	1.0		4.0	4.0	4.0	2.0		part_1
206		3.0				1.0	1.0							4.0	92.0	0.2730406529153697	4.0		2.0	8.0	6.0	8.0		part_1
207		3.0				1.0	0.0							3.0	404.0	0.3192805057442456	3.0		4.0	4.0	4.0	2.0		part_1
208		3.0				1.0	0.0							4.0	99.0	0.273145015748014	4.0		2.0	7.0	2.0	6.0		part_1
209		3.0				1.0	0.0							1.0	394.0	0.2757958617476106	1.0		4.0	4.0	4.0	2.0		part_1
210		3.0				1.0	1.0							1.0	178.0	0.2866103566630045	1.0		3.0	2.0	7.0	7.0		part_1
211		3.0				1.0	1.0							1.0	207.0	0.2753917447225831	1.0		3.0	2.0	7.0	7.0		part_1
212		3.0				1.0	0.0							1.0	34.0	0.25274025332328165	1.0		1.0	5.0	1.0	5.0		part_1
213		3.0				1.0	1.0							2.0	96.0	0.27792358074657386	2.0		2.0	8.0	6.0	8.0		part_1
214		3.0				2.0	1.0							4.0	0.0	0.3123227409123501	4.0		0.0	2.0	7.0	7.0		part_1
215		3.0				1.0	1.0							3.0	389.0	0.31251747523856466	3.0		4.0	1.0	8.0	3.0		part_1
216		3.0				1.0	1.0							1.0	39.0	0.3013931450004748	1.0		1.0	3.0	5.0	4.0		part_1
217		3.0				1.0	0.0							1.0	383.0	0.33643426640628604	1.0		4.0	4.0	4.0	2.0		part_1
218		3.0				1.0	0.0							4.0	0.0	0.3128005457474501	4.0		0.0	4.0	4.0	2.0		part_1
219		3.0				1.0	0.0							4.0	28.0	0.3589922328283137	4.0		1.0	5.0	1.0	5.0		part_1
220		3.0				1.0	0.0							4.0	42.0	0.304631047489238	4.0		1.0	5.0	1.0	5.0		part_1
221		3.0				1.0	0.0							3.0	189.0	0.33852721232324257	3.0		3.0	6.0	3.0	1.0		part_1
222		3.0				1.0	1.0							3.0	44.0	0.42723242991633015	3.0		1.0	3.0	5.0	4.0		part_1
223		3.0				1.0	0.0							1.0	378.0	0.36112284849150456	1.0		4.0	4.0	4.0	2.0		part_1
224		3.0				1.0	1.0							4.0	0.0	0.3284437840848113	4.0		0.0	1.0	8.0	3.0		part_1
225		3.0				1.0	0.0							3.0	382.0	0.3631219854069059	3.0		4.0	4.0	4.0	2.0		part_1
226		3.0				1.0	1.0							1.0	88.0	0.4189423113202793	1.0		2.0	8.0	6.0	8.0		part_1
227		3.0				1.0	0.0							2.0	214.0	0.44162636483088136	2.0		3.0	6.0	3.0	1.0		part_1
228		3.0				1.0	1.0							4.0	422.0	0.31822223665949423	4.0		4.0	1.0	8.0	3.0		part_1
229		3.0				1.0	0.0							1.0	206.0	0.2967000996613933	1.0		3.0	6.0	3.0	1.0		part_1
230		3.0				1.0	1.0							2.0	98.0	0.3198090687437798	2.0		2.0	8.0	6.0	8.0		part_1
231		3.0				1.0	1.0							1.0	50.0	0.3211305339136743	1.0		1.0	3.0	5.0	4.0		part_1
232		3.0				1.0	1.0							1.0	91.0	0.3436631674921955	1.0		2.0	8.0	6.0	8.0		part_1
233		3.0				1.0	1.0							4.0	220.0	0.4453142332349671	4.0		3.0	2.0	7.0	7.0		part_1
234		3.0				1.0	0.0							3.0	0.0	0.3226343898313644	3.0		0.0	6.0	3.0	1.0		part_1
235		3.0				1.0	0.0							4.0	0.0	0.2781292464933358	4.0		0.0	4.0	4.0	2.0		part_1
236		3.0				1.0	0.0							4.0	76.0	0.2895884445752017	4.0		2.0	7.0	2.0	6.0		part_1
237		3.0				1.0	1.0							4.0	0.0	0.29041141383277136	4.0		0.0	2.0	7.0	7.0		part_1
238		3.0				1.0	1.0							1.0	196.0	0.2807364890832105	1.0		3.0	2.0	7.0	7.0		part_1
239		3.0				1.0	1.0							4.0	0.0	0.2925140757470217	4.0		0.0	3.0	5.0	4.0		part_1
240		3.0				1.0	0.0							3.0	0.0	0.3255630217427097	3.0		0.0	6.0	3.0	1.0		part_1
241		3.0				1.0	0.0							4.0	78.0	0.3036045724911673	4.0		2.0	7.0	2.0	6.0		part_1
242		3.0				1.0	1.0							3.0	108.0	0.32749060765854665	3.0		2.0	8.0	6.0	8.0		part_1
243		3.0				1.0	0.0							2.0	395.0	0.29380667391524184	2.0		4.0	4.0	4.0	2.0		part_1
244		3.0				1.0	0.0							4.0	0.0	0.2827122009148297	4.0		0.0	5.0	1.0	5.0		part_1
245		3.0				1.0	1.0							3.0	109.0	0.3286173305750708	3.0		2.0	8.0	6.0	8.0		part_1
246		3.0				1.0	0.0							4.0	80.0	0.2839063914070721	4.0		2.0	7.0	2.0	6.0		part_1
247		3.0				1.0	1.0							4.0	219.0	0.36311809183098376	4.0		3.0	2.0	7.0	7.0		part_1
248		3.0				1.0	1.0							1.0	87.0	0.34068736483095563	1.0		2.0	8.0	6.0	8.0		part_1
249		3.0				1.0	0.0							4.0	27.0	0.2630747999974119	4.0		1.0	5.0	1.0	5.0		part_1
250		3.0				1.0	0.0							4.0	177.0	0.30976146591638104	4.0		3.0	6.0	3.0	1.0		part_1
251		3.0				1.0	0.0							2.0	91.0	0.3876477800004068	2.0		2.0	7.0	2.0	6.0		part_1
252		3.0				1.0	1.0							3.0	181.0	0.31044672523785266	3.0		3.0	2.0	7.0	7.0		part_1
253		3.0				1.0	0.0							2.0	125.0	0.2992628318315837	2.0		2.0	7.0	2.0	6.0		part_1
254		3.0				1.0	1.0							3.0	422.0	0.3793847924061993	3.0		4.0	1.0	8.0	3.0		part_1
255		3.0				1.0	0.0							1.0	0.0	0.2776763924048282	1.0		0.0	4.0	4.0	2.0		part_1
256		3.0				1.0	1.0							1.0	196.0	0.277753864407714	1.0		3.0	2.0	7.0	7.0		part_1
257		3.0				1.0	0.0							3.0	123.0	0.3239976773220405	3.0		2.0	7.0	2.0	6.0		part_1
258		3.0				1.0	1.0							4.0	125.0	0.3020813684925088	4.0		2.0	8.0	6.0	8.0		part_1
259		3.0				1.0	1.0							3.0	186.0	0.3127388725770288	3.0		3.0	2.0	7.0	7.0		part_1
260		3.0				1.0	1.0							2.0	199.0	0.3368449794907065	2.0		3.0	2.0	7.0	7.0		part_1
261		3.0				1.0	1.0							1.0	424.0	0.3046925474081945	1.0		4.0	1.0	8.0	3.0		part_1
262		3.0				1.0	1.0							2.0	0.0	0.3280661367462017	2.0		0.0	8.0	6.0	8.0		part_1
263		3.0				1.0	1.0							4.0	42.0	0.3261401550007577	4.0		1.0	3.0	5.0	4.0		part_1
264		3.0				1.0	1.0							1.0	119.0	0.3165755774098216	1.0		2.0	8.0	6.0	8.0		part_1
265		3.0				1.0	1.0							2.0	403.0	0.31675723257649224	2.0		4.0	1.0	8.0	3.0		part_1
266		3.0				1.0	1.0							2.0	121.0	0.3411660868296167	2.0		2.0	8.0	6.0	8.0		part_1
267		3.0				1.0	0.0							3.0	415.0	0.34080018974418635	3.0		4.0	4.0	4.0	2.0		part_1
268		3.0				1.0	0.0							2.0	389.0	0.3291919119146769	2.0		4.0	4.0	4.0	2.0		part_1
269		3.0				1.0	0.0							1.0	0.0	0.2735158627438068	1.0		0.0	4.0	4.0	2.0		part_1
270		3.0				1.0	1.0							4.0	218.0	0.2749653035752999	4.0		3.0	2.0	7.0	7.0		part_1
271		3.0				1.0	0.0							3.0	405.0	0.3079901462369889	3.0		4.0	4.0	4.0	2.0		part_1
272		3.0				1.0	1.0							3.0	204.0	0.3552853405781207	3.0		3.0	2.0	7.0	7.0		part_1
273		3.0				1.0	1.0							3.0	0.0	0.3436598868283909	3.0		0.0	8.0	6.0	8.0		part_1
274		3.0				1.0	0.0							1.0	201.0	0.2652206679995288	1.0		3.0	6.0	3.0	1.0		part_1
275		3.0				1.0	0.0							4.0	423.0	0.26511191166355275	4.0		4.0	4.0	4.0	2.0		part_1
276		3.0				1.0	0.0							1.0	421.0	0.3116571607424703	1.0		4.0	4.0	4.0	2.0		part_1
277		3.0				1.0	0.0							3.0	0.0	0.3001710412390821	3.0		0.0	7.0	2.0	6.0		part_1
278		3.0				1.0	0.0							4.0	68.0	0.30092297557348496	4.0		1.0	5.0	1.0	5.0		part_1
279		3.0				1.0	0.0							4.0	79.0	0.3363459597458132	4.0		2.0	7.0	2.0	6.0		part_1
280		3.0				1.0	1.0							4.0	100.0	0.3263790318305837	4.0		2.0	8.0	6.0	8.0		part_1
281		3.0				1.0	0.0							2.0	0.0	0.3144929099144065	2.0		0.0	5.0	1.0	5.0		part_1
282		3.0				1.0	0.0							2.0	125.0	0.3278153738283436	2.0		2.0	7.0	2.0	6.0		part_1
283		3.0				1.0	0.0							4.0	46.0	0.3144767734047491	4.0		1.0	5.0	1.0	5.0		part_1
284		3.0				1.0	1.0							4.0	27.0	0.3264448602349148	4.0		1.0	3.0	5.0	4.0		part_1
285		3.0				1.0	1.0							2.0	178.0	0.3388569197486504	2.0		3.0	2.0	7.0	7.0		part_1
286		3.0				1.0	1.0							3.0	76.0	0.3502708428277401	3.0		2.0	8.0	6.0	8.0		part_1
287		3.0				1.0	0.0							3.0	216.0	0.3635907702373515	3.0		3.0	6.0	3.0	1.0		part_1
288		3.0				1.0	0.0							2.0	105.0	0.6550236456605489	2.0		2.0	7.0	2.0	6.0		part_1
289		3.0				1.0	1.0							4.0	117.0	0.3640323388317484	4.0		2.0	8.0	6.0	8.0		part_1
290		3.0				1.0	0.0							1.0	199.0	0.2968245443189517	1.0		3.0	6.0	3.0	1.0		part_1
291		3.0				1.0	1.0							2.0	214.0	0.4001028204911563	2.0		3.0	2.0	7.0	7.0		part_1
292		3.0				1.0	1.0							1.0	199.0	0.3313169557477522	1.0		3.0	2.0	7.0	7.0		part_1
293		3.0				1.0	1.0							4.0	51.0	0.27577208365983097	4.0		1.0	3.0	5.0	4.0		part_1
294		3.0				1.0	1.0							3.0	46.0	0.27545724032097496	3.0		1.0	3.0	5.0	4.0		part_1
295		3.0				1.0	1.0							4.0	385.0	0.2884456744905037	4.0		4.0	1.0	8.0	3.0		part_1
296		3.0				1.0	0.0							2.0	410.0	0.31238472657787497	2.0		4.0	4.0	4.0	2.0		part_1
297		3.0				1.0	1.0							2.0	0.0	0.3571183425774507	2.0		0.0	1.0	8.0	3.0		part_1
298		3.0				1.0	1.0							1.0	407.0	0.29075754283257993	1.0		4.0	1.0	8.0	3.0		part_1
299		3.0				1.0	1.0							1.0	50.0	0.29040651132163475	1.0		1.0	3.0	5.0	4.0		part_1
300		4.0				1.0	0.0							1.0	409.0	0.35095160057608155	1.0		4.0	4.0	4.0	2.0		part_1
301		4.0				1.0	1.0							2.0	102.0	0.2833796592349245	2.0		2.0	8.0	6.0	8.0		part_1
302		4.0				1.0	1.0							1.0	53.0	0.2611204676577472	1.0		1.0	3.0	5.0	4.0		part_1
303		4.0				1.0	0.0							2.0	389.0	0.26234836857474875	2.0		4.0	4.0	4.0	2.0		part_1
304		4.0				1.0	0.0							1.0	97.0	0.285017686404899	1.0		2.0	7.0	2.0	6.0		part_1
305		4.0				1.0	0.0							1.0	98.0	0.2628847714913718	1.0		2.0	7.0	2.0	6.0		part_1
306		4.0				1.0	1.0							1.0	220.0	0.2749725535759353	1.0		3.0	2.0	7.0	7.0		part_1
307		4.0				1.0	0.0							1.0	412.0	0.2526530014911259	1.0		4.0	4.0	4.0	2.0		part_1
308		4.0				1.0	0.0							2.0	119.0	0.2774630719140987	2.0		2.0	7.0	2.0	6.0		part_1
309		4.0				1.0	0.0							2.0	112.0	0.2770668179146014	2.0		2.0	7.0	2.0	6.0		part_1
310		4.0				1.0	1.0							2.0	402.0	0.31097915440477664	2.0		4.0	1.0	8.0	3.0		part_1
311		4.0				1.0	0.0							1.0	50.0	0.3918396655753895	1.0		1.0	5.0	1.0	5.0		part_1
312		4.0				1.0	1.0							3.0	385.0	0.3798867013210838	3.0		4.0	1.0	8.0	3.0		part_1
313		4.0				1.0	0.0							4.0	96.0	0.3574293039164331	4.0		2.0	7.0	2.0	6.0		part_1
314		4.0				1.0	1.0							3.0	118.0	0.3691149886581115	3.0		2.0	8.0	6.0	8.0		part_1
315		4.0				1.0	0.0							1.0	378.0	0.3131900227454025	1.0		4.0	4.0	4.0	2.0		part_1
316		4.0				1.0	1.0							2.0	58.0	0.3256857763190055	2.0		1.0	3.0	5.0	4.0		part_1
317		4.0				1.0	1.0							2.0	43.0	0.3028841569175711	2.0		1.0	3.0	5.0	4.0		part_1
318		4.0				1.0	0.0							3.0	402.0	0.3483202205752605	3.0		4.0	4.0	4.0	2.0		part_1
319		4.0				1.0	0.0							3.0	49.0	0.33889803599959123	3.0		1.0	5.0	1.0	5.0		part_1
320		4.0				1.0	0.0							1.0	213.0	0.3388703916607483	1.0		3.0	6.0	3.0	1.0		part_1
321		4.0				1.0	1.0							1.0	394.0	0.3279729505775322	1.0		4.0	1.0	8.0	3.0		part_1
322		4.0				1.0	1.0							3.0	400.0	0.3281719947481179	3.0		4.0	1.0	8.0	3.0		part_1
323		4.0				1.0	0.0							3.0	193.0	0.36296772491550655	3.0		3.0	6.0	3.0	1.0		part_1
324		4.0				1.0	1.0							1.0	29.0	0.3067711244912061	1.0		1.0	3.0	5.0	4.0		part_1
325		4.0				1.0	1.0							4.0	0.0	0.3306213154901343	4.0		0.0	3.0	5.0	4.0		part_1
326		4.0				1.0	0.0							1.0	207.0	0.27450405065974337	1.0		3.0	6.0	3.0	1.0		part_1
327		4.0				1.0	1.0							1.0	0.0	0.2768102726622601	1.0		0.0	2.0	7.0	7.0		part_1
328		4.0				1.0	1.0							1.0	0.0	0.2644296264916193	1.0		0.0	2.0	7.0	7.0		part_1
329		4.0				1.0	0.0							1.0	68.0	0.3001408846612321	1.0		1.0	5.0	1.0	5.0		part_1
330		4.0				1.0	0.0							1.0	81.0	0.27677558866344043	1.0		2.0	7.0	2.0	6.0		part_1
331		4.0				1.0	0.0							3.0	52.0	0.3797343548321805	3.0		1.0	5.0	1.0	5.0		part_1
332		4.0				1.0	1.0							2.0	122.0	0.33365649383267737	2.0		2.0	8.0	6.0	8.0		part_1
333		4.0				1.0	1.0							2.0	389.0	0.34777262157876976	2.0		4.0	1.0	8.0	3.0		part_1
334		4.0				1.0	1.0							1.0	0.0	0.347016419575084	1.0		0.0	3.0	5.0	4.0		part_1
335		4.0				1.0	0.0							3.0	383.0	0.334795726575976	3.0		4.0	4.0	4.0	2.0		part_1
336		4.0				1.0	0.0							4.0	0.0	0.35813247032274376	4.0		0.0	4.0	4.0	2.0		part_1
337		4.0				1.0	1.0							3.0	382.0	0.336015254000813	3.0		4.0	1.0	8.0	3.0		part_1
338		4.0				1.0	0.0							3.0	53.0	0.3271489523212949	3.0		1.0	5.0	1.0	5.0		part_1
339		4.0				1.0	1.0							1.0	80.0	0.3724754344912071	1.0		2.0	8.0	6.0	8.0		part_1
340		4.0				1.0	1.0							4.0	382.0	0.3381342266620777	4.0		4.0	1.0	8.0	3.0		part_1
341		4.0				1.0	1.0							1.0	52.0	0.33961158757665544	1.0		1.0	3.0	5.0	4.0		part_1
342		4.0				1.0	1.0							3.0	56.0	0.3400598729167541	3.0		1.0	3.0	5.0	4.0		part_1
343		4.0				1.0	1.0							2.0	79.0	0.3626497223231127	2.0		2.0	8.0	6.0	8.0		part_1
344		4.0				1.0	0.0							2.0	64.0	0.31946508832334075	2.0		1.0	5.0	1.0	5.0		part_1
345		4.0				1.0	1.0							2.0	409.0	0.3195454776614497	2.0		4.0	1.0	8.0	3.0		part_1
346		4.0				1.0	1.0							3.0	0.0	0.3421919609136239	3.0		0.0	3.0	5.0	4.0		part_1
347		4.0				1.0	0.0							1.0	403.0	0.3437417308305157	1.0		4.0	4.0	4.0	2.0		part_1
348		4.0				1.0	0.0							4.0	378.0	0.3320148368293303	4.0		4.0	4.0	4.0	2.0		part_1
349		4.0				1.0	0.0							4.0	48.0	0.3436393298288749	4.0		1.0	5.0	1.0	5.0		part_1
350		4.0				1.0	0.0							2.0	378.0	0.3439358229152276	2.0		4.0	4.0	4.0	2.0		part_1
351		4.0				1.0	0.0							3.0	181.0	0.3344168110015744	3.0		3.0	6.0	3.0	1.0		part_1
352		4.0				2.0	0.0							1.0	109.0	0.3694692597455287	1.0		2.0	7.0	2.0	6.0		part_1
353		4.0				1.0	0.0							4.0	424.0	0.3580859007452091	4.0		4.0	4.0	4.0	2.0		part_1
354		4.0				1.0	1.0							3.0	417.0	0.3571588056584005	3.0		4.0	1.0	8.0	3.0		part_1
355		4.0				1.0	0.0							3.0	204.0	0.34683131648853305	3.0		3.0	6.0	3.0	1.0		part_1
356		4.0				1.0	0.0							2.0	397.0	0.3367353337453096	2.0		4.0	4.0	4.0	2.0		part_1
357		4.0				1.0	0.0							2.0	211.0	0.3274189483199734	2.0		3.0	6.0	3.0	1.0		part_1
358		4.0				1.0	0.0							1.0	180.0	0.3382252826631884	1.0		3.0	6.0	3.0	1.0		part_1
359		4.0				1.0	0.0							2.0	0.0	0.3157907975764829	2.0		0.0	6.0	3.0	1.0		part_1
360		4.0				1.0	0.0							2.0	186.0	0.35172310117195593	2.0		3.0	6.0	3.0	1.0		part_1
361		4.0				1.0	1.0							4.0	203.0	0.3618445369138499	4.0		3.0	2.0	7.0	7.0		part_1
362		4.0				1.0	1.0							4.0	389.0	0.3391978919171379	4.0		4.0	1.0	8.0	3.0		part_1
363		4.0				1.0	0.0							2.0	0.0	0.3515891815768555	2.0		0.0	7.0	2.0	6.0		part_1
364		4.0				1.0	1.0							4.0	405.0	0.3647619722360105	4.0		4.0	1.0	8.0	3.0		part_1
365		4.0				1.0	1.0							3.0	97.0	0.3759653446577431	3.0		2.0	8.0	6.0	8.0		part_1
366		4.0				1.0	0.0							1.0	82.0	0.3538944526626437	1.0		2.0	7.0	2.0	6.0		part_1
367		4.0				1.0	1.0							3.0	108.0	0.3868073305748112	3.0		2.0	8.0	6.0	8.0		part_1
368		4.0				1.0	1.0							2.0	0.0	0.33374302940865164	2.0		0.0	1.0	8.0	3.0		part_1
369		4.0				1.0	1.0							1.0	80.0	0.3673142749139515	1.0		2.0	8.0	6.0	8.0		part_1
370		4.0				1.0	0.0							2.0	42.0	0.35610354491655016	2.0		1.0	5.0	1.0	5.0		part_1
371		4.0				1.0	1.0							2.0	73.0	0.3241926733207947	2.0		1.0	3.0	5.0	4.0		part_1
372		4.0				1.0	1.0							4.0	96.0	0.3450123004076886	4.0		2.0	8.0	6.0	8.0		part_1
373		4.0				1.0	1.0							2.0	32.0	0.3237300424880232	2.0		1.0	3.0	5.0	4.0		part_1
374		4.0				1.0	0.0							3.0	50.0	0.3360389749177557	3.0		1.0	5.0	1.0	5.0		part_1
375		4.0				1.0	0.0							3.0	385.0	0.33586563649078016	3.0		4.0	4.0	4.0	2.0		part_1
376		4.0				1.0	1.0							1.0	189.0	0.34716904357628664	1.0		3.0	2.0	7.0	7.0		part_1
377		4.0				1.0	0.0							2.0	87.0	0.325232928746118	2.0		2.0	7.0	2.0	6.0		part_1
378		4.0				1.0	1.0							4.0	219.0	0.3483485677461431	4.0		3.0	2.0	7.0	7.0		part_1
379		4.0				1.0	0.0							2.0	417.0	0.3396008757445088	2.0		4.0	4.0	4.0	2.0		part_1
380		4.0				1.0	1.0							3.0	0.0	0.3728523603203939	3.0		0.0	8.0	6.0	8.0		part_1
381		4.0				1.0	0.0							3.0	88.0	0.3291645216595498	3.0		2.0	7.0	2.0	6.0		part_1
382		4.0				1.0	1.0							1.0	48.0	0.3516825066617457	1.0		1.0	3.0	5.0	4.0		part_1
383		4.0				1.0	1.0							3.0	0.0	0.3168218528335274	3.0		0.0	3.0	5.0	4.0		part_1
384		4.0				1.0	0.0							3.0	51.0	0.328738964490185	3.0		1.0	5.0	1.0	5.0		part_1
385		4.0				1.0	0.0							1.0	0.0	0.3652681204912369	1.0		0.0	7.0	2.0	6.0		part_1
386		4.0				1.0	0.0							2.0	422.0	0.37503711049066624	2.0		4.0	4.0	4.0	2.0		part_1
387		4.0				1.0	0.0							4.0	30.0	0.3662340577466239	4.0		1.0	5.0	1.0	5.0		part_1
388		4.0				1.0	0.0							1.0	60.0	0.41098068174324	1.0		1.0	5.0	1.0	5.0		part_1
389		4.0				1.0	0.0							2.0	0.0	0.4336454958320246	2.0		0.0	5.0	1.0	5.0		part_1
390		4.0				1.0	0.0							1.0	412.0	0.4021125768304046	1.0		4.0	4.0	4.0	2.0		part_1
391		4.0				1.0	1.0							1.0	404.0	0.3687693804895389	1.0		4.0	1.0	8.0	3.0		part_1
392		4.0				1.0	1.0							3.0	0.0	0.3567068772354105	3.0		0.0	8.0	6.0	8.0		part_1
393		4.0				1.0	0.0							4.0	196.0	0.3801936754898634	4.0		3.0	6.0	3.0	1.0		part_1
394		4.0				1.0	0.0							2.0	183.0	0.36838743391854223	2.0		3.0	6.0	3.0	1.0		part_1
395		4.0				1.0	1.0							3.0	201.0	0.35836484874380403	3.0		3.0	2.0	7.0	7.0		part_1
396		4.0				1.0	1.0							2.0	0.0	0.3602130208309973	2.0		0.0	8.0	6.0	8.0		part_1
397		4.0				1.0	1.0							3.0	0.0	0.3702028908301145	3.0		0.0	8.0	6.0	8.0		part_1
398		4.0				1.0	1.0							1.0	0.0	0.4390854185767239	1.0		0.0	8.0	6.0	8.0		part_1
399		4.0				1.0	0.0							3.0	100.0	0.36003067483034096	3.0		2.0	7.0	2.0	6.0		part_1
0	1.0	1.0			250.0	0.0	1.0							5.0	0.0	0.3833605406107381	5.0	250.0	1.0	3.0	5.0	4.0	0.0	part_2
1	1.0	1.0			250.0	0.0	0.0							5.0	0.0	0.7222209623250819	5.0	250.0	2.0	7.0	2.0	6.0	0.0	part_2
2	1.0	1.0			250.0	0.0	0.0							6.0	0.0	0.5781231386317813	6.0	250.0	4.0	4.0	4.0	2.0	0.0	part_2
3	1.0	1.0			250.0	0.0	0.0							6.0	0.0	0.33067422628664644	6.0	250.0	1.0	5.0	1.0	5.0	0.0	part_2
4	4.0	1.0			250.0	0.0	1.0							5.0	0.0	0.0	0.0	250.0	3.0	2.0	7.0	7.0	1.0	part_2
5	4.0	1.0			300.0	0.0	1.0							5.0	0.0	0.0	0.0	250.0	3.0	2.0	7.0	7.0	1.0	part_2
6	1.0	1.0			350.0	0.0	0.0							5.0	0.0	0.5141587619800703	5.0	250.0	3.0	6.0	3.0	1.0	0.0	part_2
7	1.0	1.0			350.0	0.0	0.0							5.0	0.0	0.6036892773081489	5.0	250.0	4.0	4.0	4.0	2.0	0.0	part_2
8	4.0	1.0			350.0	0.0	1.0							5.0	0.0	0.0	0.0	250.0	3.0	2.0	7.0	7.0	1.0	part_2
9	1.0	1.0			400.0	0.0	0.0							6.0	0.0	0.5039857886113168	6.0	250.0	2.0	7.0	2.0	6.0	0.0	part_2
10	4.0	1.0			400.0	0.0	1.0							5.0	0.0	0.0	0.0	250.0	4.0	1.0	8.0	3.0	1.0	part_2
11	1.0	1.0			450.0	0.0	0.0							6.0	0.0	0.4286028416536283	6.0	250.0	2.0	7.0	2.0	6.0	0.0	part_2
12	3.0	1.0			450.0	0.0	1.0							5.0	0.0	0.5853399296538555	5.0	250.0	3.0	2.0	7.0	7.0	1.0	part_2
13	1.0	1.0			400.0	0.0	0.0							5.0	0.0	0.6210554692843289	5.0	250.0	3.0	6.0	3.0	1.0	0.0	part_2
14	4.0	1.0			400.0	0.0	1.0							5.0	0.0	0.0	0.0	250.0	4.0	1.0	8.0	3.0	1.0	part_2
15	4.0	1.0			450.0	0.0	1.0							5.0	0.0	0.0	0.0	250.0	2.0	8.0	6.0	8.0	1.0	part_2
16	1.0	1.0			500.0	0.0	0.0							5.0	0.0	0.8144615849996626	5.0	250.0	2.0	7.0	2.0	6.0	0.0	part_2
17	1.0	1.0			500.0	0.0	0.0							6.0	0.0	0.7805509313038783	6.0	250.0	3.0	6.0	3.0	1.0	0.0	part_2
18	1.0	1.0			500.0	0.0	0.0							6.0	0.0	0.7704709516510775	6.0	250.0	3.0	6.0	3.0	1.0	0.0	part_2
19	1.0	1.0			500.0	0.0	0.0							5.0	0.0	0.3435727156102075	5.0	250.0	1.0	5.0	1.0	5.0	0.0	part_2
20	1.0	1.0			500.0	0.0	1.0							5.0	0.0	0.8051811666118738	5.0	250.0	2.0	8.0	6.0	8.0	0.0	part_2
21	4.0	1.0			500.0	0.0	1.0							6.0	0.0	0.0	0.0	250.0	1.0	3.0	5.0	4.0	1.0	part_2
22	4.0	1.0			500.0	0.0	1.0							6.0	0.0	0.0	0.0	300.0	3.0	2.0	7.0	7.0	1.0	part_2
23	1.0	1.0			500.0	0.0	0.0							6.0	0.0	0.7175195296076708	6.0	350.0	1.0	5.0	1.0	5.0	0.0	part_2
24	1.0	1.0			500.0	0.0	0.0							5.0	0.0	0.7751097089785617	5.0	350.0	4.0	4.0	4.0	2.0	0.0	part_2
25	4.0	1.0			500.0	0.0	1.0							6.0	0.0	0.0	0.0	350.0	4.0	1.0	8.0	3.0	1.0	part_2
26	1.0	1.0			500.0	0.0	0.0							5.0	0.0	0.6545850769580284	5.0	400.0	1.0	5.0	1.0	5.0	0.0	part_2
27	4.0	1.0			500.0	0.0	1.0							6.0	0.0	0.0	0.0	400.0	4.0	1.0	8.0	3.0	1.0	part_2
28	4.0	1.0			500.0	0.0	1.0							6.0	0.0	0.0	0.0	450.0	1.0	3.0	5.0	4.0	1.0	part_2
29	3.0	1.0			500.0	0.0	1.0							6.0	0.0	0.6678033859570861	6.0	500.0	2.0	8.0	6.0	8.0	1.0	part_2
30	1.0	1.0			500.0	0.0	0.0							6.0	0.0	0.6785201916500228	6.0	450.0	3.0	6.0	3.0	1.0	0.0	part_2
31	1.0	1.0			500.0	0.0	1.0							5.0	0.0	0.3548574386513792	5.0	450.0	4.0	1.0	8.0	3.0	0.0	part_2
32	1.0	1.0			500.0	0.0	0.0							6.0	0.0	0.7478131726529682	6.0	450.0	2.0	7.0	2.0	6.0	0.0	part_2
33	1.0	1.0			500.0	0.0	1.0							5.0	0.0	0.838797505304683	5.0	450.0	3.0	2.0	7.0	7.0	0.0	part_2
34	1.0	1.0			500.0	0.0	0.0							6.0	0.0	0.6931544709805166	6.0	450.0	3.0	6.0	3.0	1.0	0.0	part_2
35	1.0	1.0			500.0	0.0	1.0							5.0	0.0	0.7522363129792211	5.0	450.0	1.0	3.0	5.0	4.0	0.0	part_2
36	1.0	2.0			500.0	0.0	0.0							6.0	0.0	0.30226361400127644	6.0	450.0	4.0	4.0	4.0	2.0	0.0	part_2
37	1.0	2.0			500.0	0.0	0.0							6.0	0.0	0.4369847932830453	6.0	450.0	4.0	4.0	4.0	2.0	0.0	part_2
38	1.0	2.0			500.0	0.0	1.0							5.0	0.0	0.5380218566315307	5.0	450.0	1.0	3.0	5.0	4.0	0.0	part_2
39	3.0	2.0			500.0	0.0	1.0							5.0	0.0	0.4944731356335978	5.0	450.0	1.0	3.0	5.0	4.0	1.0	part_2
40	3.0	2.0			450.0	0.0	1.0							6.0	0.0	0.5405806776325335	6.0	450.0	2.0	8.0	6.0	8.0	1.0	part_2
41	1.0	2.0			450.0	0.0	0.0							5.0	0.0	0.4634315419789346	5.0	400.0	2.0	7.0	2.0	6.0	0.0	part_2
42	1.0	2.0			450.0	0.0	0.0							5.0	0.0	0.6329849749781715	5.0	400.0	1.0	5.0	1.0	5.0	0.0	part_2
43	1.0	2.0			450.0	0.0	0.0							5.0	0.0	0.6102530953066889	5.0	400.0	2.0	7.0	2.0	6.0	0.0	part_2
44	1.0	2.0			450.0	0.0	0.0							6.0	0.0	0.5668378182817833	6.0	400.0	4.0	4.0	4.0	2.0	0.0	part_2
45	1.0	2.0			450.0	0.0	0.0							5.0	0.0	0.4992230599564209	5.0	400.0	4.0	4.0	4.0	2.0	0.0	part_2
46	1.0	2.0			450.0	0.0	0.0							5.0	0.0	0.6467565896527958	5.0	400.0	2.0	7.0	2.0	6.0	0.0	part_2
47	4.0	2.0			450.0	0.0	1.0							5.0	0.0	0.0	0.0	400.0	2.0	8.0	6.0	8.0	1.0	part_2
48	1.0	2.0			500.0	0.0	0.0							6.0	0.0	0.5808990159566747	6.0	400.0	1.0	5.0	1.0	5.0	0.0	part_2
49	1.0	2.0			500.0	0.0	0.0							5.0	0.0	0.6170584809769935	5.0	400.0	2.0	7.0	2.0	6.0	0.0	part_2
50	1.0	2.0			500.0	0.0	0.0							6.0	0.0	0.5610406186751788	6.0	400.0	1.0	5.0	1.0	5.0	0.0	part_2
51	1.0	2.0			500.0	0.0	0.0							6.0	0.0	0.6745825706530013	6.0	400.0	3.0	6.0	3.0	1.0	0.0	part_2
52	4.0	2.0			500.0	0.0	1.0							6.0	0.0	0.0	0.0	400.0	2.0	8.0	6.0	8.0	1.0	part_2
53	1.0	2.0			500.0	0.0	0.0							5.0	0.0	0.6648442046534909	5.0	450.0	1.0	5.0	1.0	5.0	0.0	part_2
54	1.0	2.0			500.0	0.0	1.0							6.0	0.0	0.5647347153244482	6.0	450.0	2.0	8.0	6.0	8.0	0.0	part_2
55	1.0	2.0			500.0	0.0	0.0							5.0	0.0	0.6880545356543735	5.0	450.0	1.0	5.0	1.0	5.0	0.0	part_2
56	1.0	2.0			500.0	0.0	0.0							5.0	0.0	0.6225256973266369	5.0	450.0	2.0	7.0	2.0	6.0	0.0	part_2
57	1.0	2.0			500.0	0.0	0.0							6.0	0.0	0.6782391056112829	6.0	450.0	3.0	6.0	3.0	1.0	0.0	part_2
58	4.0	2.0			500.0	0.0	1.0							6.0	0.0	0.0	0.0	450.0	1.0	3.0	5.0	4.0	1.0	part_2
59	3.0	2.0			500.0	0.0	1.0							6.0	0.0	0.45478258965158597	6.0	500.0	3.0	2.0	7.0	7.0	1.0	part_2
60	3.0	2.0			500.0	0.0	1.0							5.0	0.0	0.5921666066715261	5.0	450.0	1.0	3.0	5.0	4.0	1.0	part_2
61	1.0	2.0			450.0	0.0	0.0							5.0	0.0	0.7266627019562293	5.0	450.0	2.0	7.0	2.0	6.0	0.0	part_2
62	3.0	2.0			450.0	0.0	1.0							6.0	0.0	0.31198655763364513	6.0	450.0	3.0	2.0	7.0	7.0	1.0	part_2
63	1.0	2.0			450.0	0.0	0.0							5.0	0.0	0.707198008956766	5.0	400.0	2.0	7.0	2.0	6.0	0.0	part_2
64	1.0	2.0			450.0	0.0	0.0							6.0	0.0	0.6726156122858811	6.0	400.0	1.0	5.0	1.0	5.0	0.0	part_2
65	4.0	2.0			450.0	0.0	1.0							5.0	0.0	0.0	0.0	400.0	3.0	2.0	7.0	7.0	1.0	part_2
66	4.0	2.0			500.0	0.0	1.0							6.0	0.0	0.0	0.0	400.0	2.0	8.0	6.0	8.0	1.0	part_2
67	4.0	2.0			500.0	0.0	1.0							6.0	0.0	0.0	0.0	450.0	1.0	3.0	5.0	4.0	1.0	part_2
68	1.0	2.0			500.0	0.0	1.0							5.0	0.0	0.6643115263032087	5.0	500.0	2.0	8.0	6.0	8.0	0.0	part_2
69	1.0	2.0			500.0	0.0	0.0							6.0	0.0	0.6314055479779199	6.0	500.0	3.0	6.0	3.0	1.0	0.0	part_2
70	1.0	2.0			500.0	0.0	0.0							5.0	0.0	0.6998946806306776	5.0	500.0	3.0	6.0	3.0	1.0	0.0	part_2
71	1.0	2.0			500.0	0.0	0.0							5.0	0.0	0.7240509036309959	5.0	500.0	4.0	4.0	4.0	2.0	0.0	part_2
72	1.0	3.0			500.0	0.0	0.0							6.0	0.0	0.5035813442846121	6.0	500.0	2.0	7.0	2.0	6.0	0.0	part_2
73	1.0	3.0			500.0	0.0	0.0							5.0	0.0	0.4493170849818853	5.0	500.0	1.0	5.0	1.0	5.0	0.0	part_2
74	1.0	3.0			500.0	0.0	0.0							5.0	0.0	0.5625791313250375	5.0	500.0	3.0	6.0	3.0	1.0	0.0	part_2
75	3.0	3.0			500.0	0.0	1.0							5.0	0.0	0.5733605133063975	5.0	500.0	2.0	8.0	6.0	8.0	1.0	part_2
76	1.0	3.0			450.0	0.0	1.0							5.0	0.0	0.6869746646298154	5.0	500.0	3.0	2.0	7.0	7.0	0.0	part_2
77	3.0	3.0			450.0	0.0	1.0							5.0	0.0	0.5982496706747042	5.0	500.0	4.0	1.0	8.0	3.0	1.0	part_2
78	3.0	3.0			400.0	0.0	1.0							6.0	0.0	0.33975919330259785	6.0	500.0	3.0	2.0	7.0	7.0	1.0	part_2
79	3.0	3.0			400.0	0.0	1.0							6.0	0.0	0.4635926219780231	6.0	450.0	3.0	2.0	7.0	7.0	1.0	part_2
80	1.0	3.0			400.0	0.0	0.0							6.0	0.0	0.6779442859769915	6.0	400.0	2.0	7.0	2.0	6.0	0.0	part_2
81	4.0	3.0			400.0	0.0	1.0							6.0	0.0	0.0	0.0	400.0	2.0	8.0	6.0	8.0	1.0	part_2
82	1.0	3.0			400.0	0.0	1.0							5.0	0.0	0.5557091936498182	5.0	450.0	3.0	2.0	7.0	7.0	0.0	part_2
83	1.0	3.0			400.0	0.0	0.0							5.0	0.0	0.4905549736322428	5.0	450.0	4.0	4.0	4.0	2.0	0.0	part_2
84	1.0	3.0			400.0	0.0	0.0							6.0	0.0	0.25373279230552725	6.0	450.0	2.0	7.0	2.0	6.0	0.0	part_2
85	1.0	3.0			400.0	0.0	0.0							5.0	0.0	0.2675567699807289	5.0	450.0	3.0	6.0	3.0	1.0	0.0	part_2
86	3.0	3.0			400.0	0.0	1.0							5.0	0.0	0.12198269830696518	6.0	450.0	4.0	1.0	8.0	3.0	1.0	part_2
87	1.0	3.0			350.0	0.0	0.0							5.0	0.0	0.3485061519786541	5.0	450.0	3.0	6.0	3.0	1.0	0.0	part_2
88	1.0	3.0			350.0	0.0	0.0							5.0	0.0	0.3487639696104452	5.0	450.0	3.0	6.0	3.0	1.0	0.0	part_2
89	3.0	3.0			350.0	0.0	1.0							6.0	0.0	0.6067738899801043	6.0	450.0	3.0	2.0	7.0	7.0	1.0	part_2
90	1.0	3.0			350.0	0.0	0.0							6.0	0.0	0.3823618269780127	6.0	400.0	3.0	6.0	3.0	1.0	0.0	part_2
91	1.0	3.0			350.0	0.0	1.0							6.0	0.0	0.3621556330217573	6.0	400.0	2.0	8.0	6.0	8.0	0.0	part_2
92	3.0	3.0			350.0	0.0	1.0							5.0	0.0	0.2624120826512808	5.0	400.0	3.0	2.0	7.0	7.0	1.0	part_2
93	4.0	3.0			300.0	0.0	1.0							5.0	0.0	0.0	0.0	400.0	4.0	1.0	8.0	3.0	1.0	part_2
94	1.0	3.0			350.0	0.0	0.0							6.0	0.0	0.5551145187964721	6.0	400.0	3.0	6.0	3.0	1.0	0.0	part_2
95	3.0	3.0			350.0	0.0	1.0							6.0	0.0	0.3532133033077116	6.0	400.0	4.0	1.0	8.0	3.0	1.0	part_2
96	1.0	3.0			350.0	0.0	0.0							5.0	0.0	0.6027010806501494	5.0	350.0	3.0	6.0	3.0	1.0	0.0	part_2
97	1.0	3.0			350.0	0.0	1.0							6.0	0.0	0.2659451176332368	6.0	350.0	4.0	1.0	8.0	3.0	0.0	part_2
98	1.0	3.0			350.0	0.0	0.0							5.0	0.0	0.2783130369789433	5.0	350.0	2.0	7.0	2.0	6.0	0.0	part_2
99	3.0	3.0			350.0	0.0	1.0							6.0	0.0	0.22333828497721694	6.0	350.0	2.0	8.0	6.0	8.0	1.0	part_2
100	1.0	3.0			350.0	0.0	0.0							6.0	0.0	0.3020806625208934	6.0	300.0	4.0	4.0	4.0	2.0	0.0	part_2
101	1.0	3.0			350.0	0.0	0.0							6.0	0.0	0.2916411409787543	6.0	300.0	3.0	6.0	3.0	1.0	0.0	part_2
102	1.0	3.0			350.0	0.0	0.0							5.0	0.0	0.3367053536530875	5.0	300.0	2.0	7.0	2.0	6.0	0.0	part_2
103	1.0	3.0			350.0	0.0	0.0							6.0	0.0	0.2252802569564665	6.0	300.0	2.0	7.0	2.0	6.0	0.0	part_2
104	1.0	3.0			350.0	0.0	0.0							6.0	0.0	0.3047152096332866	6.0	300.0	3.0	6.0	3.0	1.0	0.0	part_2
105	3.0	3.0			350.0	0.0	1.0							5.0	0.0	0.30650869500095723	5.0	300.0	2.0	8.0	6.0	8.0	1.0	part_2
106	1.0	3.0			300.0	0.0	1.0							6.0	0.0	0.5871362326324743	6.0	300.0	3.0	2.0	7.0	7.0	0.0	part_2
107	1.0	3.0			300.0	0.0	0.0							5.0	0.0	0.4546478873271553	5.0	300.0	2.0	7.0	2.0	6.0	0.0	part_2
108	1.0	4.0			300.0	0.0	0.0							6.0	0.0	0.6194712453034299	6.0	300.0	2.0	7.0	2.0	6.0	0.0	part_2
109	4.0	4.0			300.0	0.0	1.0							6.0	0.0	0.0	0.0	300.0	2.0	8.0	6.0	8.0	1.0	part_2
110	1.0	4.0			300.0	0.0	0.0							5.0	0.0	0.4962635556330497	5.0	350.0	3.0	6.0	3.0	1.0	0.0	part_2
111	4.0	4.0			300.0	0.0	1.0							6.0	0.0	0.0	0.0	350.0	2.0	8.0	6.0	8.0	1.0	part_2
112	1.0	4.0			300.0	0.0	0.0							6.0	0.0	0.5675921309593832	6.0	400.0	4.0	4.0	4.0	2.0	0.0	part_2
113	4.0	4.0			300.0	0.0	1.0							5.0	0.0	0.0	0.0	400.0	3.0	2.0	7.0	7.0	1.0	part_2
114	1.0	4.0			350.0	0.0	0.0							5.0	0.0	0.5904784119811666	5.0	400.0	1.0	5.0	1.0	5.0	0.0	part_2
115	1.0	4.0			350.0	0.0	0.0							5.0	0.0	0.6476805742822762	5.0	400.0	1.0	5.0	1.0	5.0	0.0	part_2
116	4.0	4.0			350.0	0.0	1.0							5.0	0.0	0.0	0.0	400.0	1.0	3.0	5.0	4.0	1.0	part_2
117	1.0	4.0			400.0	0.0	1.0							6.0	0.0	0.59452084595614	6.0	400.0	3.0	2.0	7.0	7.0	0.0	part_2
118	1.0	4.0			400.0	0.0	1.0							6.0	0.0	0.3804104886730784	6.0	400.0	4.0	1.0	8.0	3.0	0.0	part_2
119	1.0	4.0			400.0	0.0	0.0							6.0	0.0	0.5839711743064981	6.0	400.0	2.0	7.0	2.0	6.0	0.0	part_2
120	1.0	4.0			400.0	0.0	0.0							5.0	0.0	0.61940559728464	5.0	400.0	1.0	5.0	1.0	5.0	0.0	part_2
121	1.0	4.0			400.0	0.0	1.0							5.0	0.0	0.3704941782816604	5.0	400.0	3.0	2.0	7.0	7.0	0.0	part_2
122	1.0	4.0			400.0	0.0	0.0							5.0	0.0	0.6206709863254218	5.0	400.0	2.0	7.0	2.0	6.0	0.0	part_2
123	1.0	4.0			400.0	0.0	0.0							5.0	0.0	0.2943253989578807	5.0	400.0	3.0	6.0	3.0	1.0	0.0	part_2
124	1.0	4.0			400.0	0.0	0.0							5.0	0.0	0.5981326389592141	5.0	400.0	4.0	4.0	4.0	2.0	0.0	part_2
125	4.0	4.0			400.0	0.0	1.0							6.0	0.0	0.0	0.0	400.0	1.0	3.0	5.0	4.0	1.0	part_2
126	1.0	4.0			400.0	0.0	0.0							6.0	0.0	0.6110501406728872	6.0	450.0	1.0	5.0	1.0	5.0	0.0	part_2
127	3.0	4.0			400.0	0.0	1.0							6.0	0.0	0.5445019340004364	6.0	450.0	3.0	2.0	7.0	7.0	1.0	part_2
128	3.0	4.0			400.0	0.0	1.0							5.0	0.0	0.4565866986522451	5.0	400.0	2.0	8.0	6.0	8.0	1.0	part_2
129	1.0	4.0			350.0	0.0	0.0							5.0	0.0	0.5918559549791098	5.0	400.0	3.0	6.0	3.0	1.0	0.0	part_2
130	1.0	4.0			350.0	0.0	1.0							5.0	0.0	0.4917003293048765	5.0	400.0	2.0	8.0	6.0	8.0	0.0	part_2
131	1.0	4.0			350.0	0.0	0.0							6.0	0.0	0.289489982304076	6.0	400.0	4.0	4.0	4.0	2.0	0.0	part_2
132	1.0	4.0			350.0	0.0	0.0							6.0	0.0	0.6178601103274559	6.0	400.0	3.0	6.0	3.0	1.0	0.0	part_2
133	3.0	4.0			350.0	0.0	1.0							6.0	0.0	0.5723516852813191	6.0	400.0	2.0	8.0	6.0	8.0	1.0	part_2
134	4.0	4.0			350.0	0.0	1.0							6.0	0.0	0.0	0.0	350.0	4.0	1.0	8.0	3.0	1.0	part_2
135	1.0	4.0			350.0	0.0	0.0							6.0	0.0	0.6185025953454897	6.0	400.0	1.0	5.0	1.0	5.0	0.0	part_2
136	1.0	4.0			350.0	0.0	0.0							5.0	0.0	0.6650132899776509	5.0	400.0	1.0	5.0	1.0	5.0	0.0	part_2
137	1.0	4.0			350.0	0.0	0.0							5.0	0.0	0.5981041380000534	5.0	400.0	1.0	5.0	1.0	5.0	0.0	part_2
138	1.0	4.0			350.0	0.0	0.0							5.0	0.0	0.3517335983233352	5.0	400.0	4.0	4.0	4.0	2.0	0.0	part_2
139	1.0	4.0			350.0	0.0	1.0							6.0	0.0	0.4085795909777517	6.0	400.0	4.0	1.0	8.0	3.0	0.0	part_2
140	1.0	4.0			350.0	0.0	0.0							5.0	0.0	0.5892188849575177	5.0	400.0	4.0	4.0	4.0	2.0	0.0	part_2
141	4.0	4.0			350.0	0.0	1.0							6.0	0.0	0.0	0.0	400.0	1.0	3.0	5.0	4.0	1.0	part_2
142	4.0	4.0			350.0	0.0	1.0							6.0	0.0	0.0	0.0	450.0	1.0	3.0	5.0	4.0	1.0	part_2
143	1.0	4.0			350.0	0.0	0.0							5.0	0.0	0.6603675309779646	5.0	500.0	3.0	6.0	3.0	1.0	0.0	part_2
144	4.0	5.0			350.0	0.0	1.0							5.0	0.0	0.0	0.0	500.0	1.0	3.0	5.0	4.0	1.0	part_2
145	1.0	5.0			400.0	0.0	0.0							5.0	0.0	0.4744095979367557	5.0	500.0	2.0	7.0	2.0	6.0	0.0	part_2
146	1.0	5.0			400.0	0.0	1.0							6.0	0.0	0.3741164199382183	6.0	500.0	4.0	1.0	8.0	3.0	0.0	part_2
147	3.0	5.0			400.0	0.0	1.0							5.0	0.0	0.43151202593435295	5.0	500.0	4.0	1.0	8.0	3.0	1.0	part_2
148	1.0	5.0			350.0	0.0	0.0							6.0	0.0	0.4887528693252534	6.0	500.0	4.0	4.0	4.0	2.0	0.0	part_2
149	1.0	5.0			350.0	0.0	0.0							5.0	0.0	0.4678898583260889	5.0	500.0	4.0	4.0	4.0	2.0	0.0	part_2
150	4.0	5.0			350.0	0.0	1.0							5.0	0.0	0.0	0.0	500.0	1.0	3.0	5.0	4.0	1.0	part_2
151	1.0	5.0			400.0	0.0	0.0							5.0	0.0	0.5811525459794211	5.0	500.0	2.0	7.0	2.0	6.0	0.0	part_2
152	1.0	5.0			400.0	0.0	0.0							5.0	0.0	0.6949271619778301	5.0	500.0	3.0	6.0	3.0	1.0	0.0	part_2
153	1.0	5.0			400.0	0.0	1.0							5.0	0.0	0.6384234760007529	5.0	500.0	4.0	1.0	8.0	3.0	0.0	part_2
154	1.0	5.0			400.0	0.0	0.0							6.0	0.0	0.606999173956865	6.0	500.0	2.0	7.0	2.0	6.0	0.0	part_2
155	1.0	5.0			400.0	0.0	0.0							6.0	0.0	0.5503034563480469	6.0	500.0	4.0	4.0	4.0	2.0	0.0	part_2
156	3.0	5.0			400.0	0.0	1.0							6.0	0.0	0.6086774646319101	6.0	500.0	1.0	3.0	5.0	4.0	1.0	part_2
157	1.0	5.0			400.0	0.0	0.0							6.0	0.0	0.7444085686729522	6.0	450.0	2.0	7.0	2.0	6.0	0.0	part_2
158	1.0	5.0			400.0	0.0	0.0							5.0	0.0	0.5750996342867438	5.0	450.0	4.0	4.0	4.0	2.0	0.0	part_2
159	1.0	5.0			400.0	0.0	1.0							6.0	0.0	0.6213333019586571	6.0	450.0	3.0	2.0	7.0	7.0	0.0	part_2
160	1.0	5.0			400.0	0.0	0.0							5.0	0.0	0.7011263473468716	5.0	450.0	1.0	5.0	1.0	5.0	0.0	part_2
161	1.0	5.0			400.0	0.0	1.0							5.0	0.0	0.6132698972869548	5.0	450.0	2.0	8.0	6.0	8.0	0.0	part_2
162	1.0	5.0			400.0	0.0	1.0							5.0	0.0	0.5338697449587926	5.0	450.0	3.0	2.0	7.0	7.0	0.0	part_2
163	4.0	5.0			400.0	0.0	1.0							5.0	0.0	0.0	0.0	450.0	4.0	1.0	8.0	3.0	1.0	part_2
164	4.0	5.0			450.0	0.0	1.0							5.0	0.0	0.0	0.0	450.0	1.0	3.0	5.0	4.0	1.0	part_2
165	1.0	5.0			500.0	0.0	0.0							6.0	0.0	0.7626750083254592	6.0	450.0	4.0	4.0	4.0	2.0	0.0	part_2
166	1.0	5.0			500.0	0.0	0.0							6.0	0.0	0.7508528239595762	6.0	450.0	1.0	5.0	1.0	5.0	0.0	part_2
167	4.0	5.0			500.0	0.0	1.0							6.0	0.0	0.0	0.0	450.0	1.0	3.0	5.0	4.0	1.0	part_2
168	4.0	5.0			500.0	0.0	1.0							5.0	0.0	0.0	0.0	500.0	4.0	1.0	8.0	3.0	1.0	part_2
169	1.0	5.0			550.0	0.0	1.0							5.0	0.0	0.6988609683248797	5.0	500.0	4.0	1.0	8.0	3.0	0.0	part_2
170	1.0	5.0			550.0	0.0	0.0							5.0	0.0	0.6755667866527801	5.0	500.0	1.0	5.0	1.0	5.0	0.0	part_2
171	1.0	5.0			550.0	0.0	0.0							6.0	0.0	0.6871592710012919	6.0	500.0	1.0	5.0	1.0	5.0	0.0	part_2
172	1.0	5.0			550.0	0.0	1.0							6.0	0.0	0.6324114972849202	6.0	500.0	1.0	3.0	5.0	4.0	0.0	part_2
173	1.0	5.0			550.0	0.0	0.0							5.0	0.0	0.6223088446313341	5.0	500.0	1.0	5.0	1.0	5.0	0.0	part_2
174	1.0	5.0			550.0	0.0	0.0							6.0	0.0	0.6109504283267597	6.0	500.0	4.0	4.0	4.0	2.0	0.0	part_2
175	3.0	5.0			550.0	0.0	1.0							5.0	0.0	0.5452478966726629	5.0	500.0	3.0	2.0	7.0	7.0	1.0	part_2
176	4.0	5.0			500.0	0.0	1.0							5.0	0.0	0.0	0.0	500.0	2.0	8.0	6.0	8.0	1.0	part_2
177	1.0	5.0			550.0	0.0	0.0							5.0	0.0	0.6824567976073013	5.0	500.0	4.0	4.0	4.0	2.0	0.0	part_2
178	1.0	5.0			550.0	0.0	0.0							6.0	0.0	0.7512594589570654	6.0	500.0	4.0	4.0	4.0	2.0	0.0	part_2
179	1.0	5.0			550.0	0.0	1.0							6.0	0.0	0.7279518546092731	6.0	500.0	1.0	3.0	5.0	4.0	0.0	part_2
180	1.0	6.0			550.0	0.0	0.0							6.0	0.0	0.31945892230578465	6.0	500.0	1.0	5.0	1.0	5.0	0.0	part_2
181	1.0	6.0			550.0	0.0	0.0							5.0	0.0	0.499733919998107	5.0	500.0	1.0	5.0	1.0	5.0	0.0	part_2
182	1.0	6.0			550.0	0.0	0.0							6.0	0.0	0.3982105693066842	6.0	500.0	2.0	7.0	2.0	6.0	0.0	part_2
183	1.0	6.0			550.0	0.0	1.0							6.0	0.0	0.4445724053039157	6.0	500.0	2.0	8.0	6.0	8.0	0.0	part_2
184	1.0	6.0			550.0	0.0	0.0							6.0	0.0	0.5694742233063153	6.0	500.0	3.0	6.0	3.0	1.0	0.0	part_2
185	3.0	6.0			550.0	0.0	1.0							5.0	0.0	0.3785632086328405	5.0	500.0	1.0	3.0	5.0	4.0	1.0	part_2
186	3.0	6.0			500.0	0.0	1.0							6.0	0.0	0.513686064612557	6.0	500.0	1.0	3.0	5.0	4.0	1.0	part_2
187	4.0	6.0			500.0	0.0	1.0							6.0	0.0	0.0	0.0	450.0	4.0	1.0	8.0	3.0	1.0	part_2
188	1.0	6.0			500.0	0.0	0.0							6.0	0.0	0.6404895356536144	6.0	500.0	1.0	5.0	1.0	5.0	0.0	part_2
189	4.0	6.0			500.0	0.0	1.0							6.0	0.0	0.0	0.0	500.0	1.0	3.0	5.0	4.0	1.0	part_2
190	1.0	6.0			500.0	0.0	0.0							6.0	0.0	0.6203045006550383	6.0	550.0	3.0	6.0	3.0	1.0	0.0	part_2
191	1.0	6.0			500.0	0.0	0.0							6.0	0.0	0.3610660136509978	6.0	550.0	2.0	7.0	2.0	6.0	0.0	part_2
192	1.0	6.0			500.0	0.0	0.0							6.0	0.0	0.6780669456093165	6.0	550.0	1.0	5.0	1.0	5.0	0.0	part_2
193	4.0	6.0			500.0	0.0	1.0							5.0	0.0	0.0	0.0	550.0	3.0	2.0	7.0	7.0	1.0	part_2
194	4.0	6.0			550.0	0.0	1.0							5.0	0.0	0.0	0.0	550.0	1.0	3.0	5.0	4.0	1.0	part_2
195	1.0	6.0			600.0	0.0	0.0							6.0	0.0	0.7027439166340628	6.0	550.0	3.0	6.0	3.0	1.0	0.0	part_2
196	1.0	6.0			600.0	0.0	0.0							6.0	0.0	0.7489275799780444	6.0	550.0	3.0	6.0	3.0	1.0	0.0	part_2
197	1.0	6.0			600.0	0.0	0.0							6.0	0.0	0.670590629306389	6.0	550.0	1.0	5.0	1.0	5.0	0.0	part_2
198	3.0	6.0			600.0	0.0	1.0							6.0	0.0	0.7380918872840994	6.0	550.0	4.0	1.0	8.0	3.0	1.0	part_2
199	1.0	6.0			600.0	0.0	0.0							6.0	0.0	0.8526035809591122	6.0	500.0	4.0	4.0	4.0	2.0	0.0	part_2
200	3.0	6.0			600.0	0.0	1.0							5.0	0.0	0.7182423089579971	5.0	500.0	4.0	1.0	8.0	3.0	1.0	part_2
201	4.0	6.0			550.0	0.0	1.0							5.0	0.0	0.0	0.0	500.0	2.0	8.0	6.0	8.0	1.0	part_2
202	1.0	6.0			600.0	0.0	0.0							5.0	0.0	0.9095175946713424	5.0	500.0	1.0	5.0	1.0	5.0	0.0	part_2
203	3.0	6.0			600.0	0.0	1.0							5.0	0.0	0.663479503000417	5.0	500.0	2.0	8.0	6.0	8.0	1.0	part_2
204	4.0	6.0			550.0	0.0	1.0							5.0	0.0	0.0	0.0	500.0	4.0	1.0	8.0	3.0	1.0	part_2
205	1.0	6.0			600.0	0.0	0.0							6.0	0.0	0.6989171836539754	6.0	500.0	4.0	4.0	4.0	2.0	0.0	part_2
206	1.0	6.0			600.0	0.0	1.0							5.0	0.0	0.6205026293064293	5.0	500.0	3.0	2.0	7.0	7.0	0.0	part_2
207	1.0	6.0			600.0	0.0	0.0							5.0	0.0	0.6894583713074098	5.0	500.0	3.0	6.0	3.0	1.0	0.0	part_2
208	1.0	6.0			600.0	0.0	0.0							6.0	0.0	0.8130348709782993	6.0	500.0	1.0	5.0	1.0	5.0	0.0	part_2
209	3.0	6.0			600.0	0.0	1.0							6.0	0.0	0.6463518973469036	6.0	500.0	4.0	1.0	8.0	3.0	1.0	part_2
210	4.0	6.0			600.0	0.0	1.0							5.0	0.0	0.0	0.0	450.0	3.0	2.0	7.0	7.0	1.0	part_2
211	1.0	6.0			650.0	0.0	0.0							6.0	0.0	0.8621458886736946	6.0	450.0	2.0	7.0	2.0	6.0	0.0	part_2
212	4.0	6.0			650.0	0.0	1.0							5.0	0.0	0.0	0.0	450.0	4.0	1.0	8.0	3.0	1.0	part_2
213	1.0	6.0			700.0	0.0	0.0							6.0	0.0	0.717727388957428	6.0	450.0	2.0	7.0	2.0	6.0	0.0	part_2
214	4.0	6.0			700.0	0.0	1.0							6.0	0.0	0.0	0.0	450.0	3.0	2.0	7.0	7.0	1.0	part_2
215	4.0	6.0			700.0	0.0	1.0							6.0	0.0	0.0	0.0	500.0	4.0	1.0	8.0	3.0	1.0	part_2
216	3.0	7.0			700.0	0.0	1.0							5.0	0.0	0.4985331236530328	5.0	550.0	2.0	8.0	6.0	8.0	1.0	part_2
217	1.0	7.0			650.0	0.0	0.0							6.0	0.0	0.452474927307776	6.0	550.0	2.0	7.0	2.0	6.0	0.0	part_2
218	1.0	7.0			650.0	0.0	0.0							6.0	0.0	0.6224982742824068	6.0	550.0	4.0	4.0	4.0	2.0	0.0	part_2
219	1.0	7.0			650.0	0.0	0.0							6.0	0.0	0.6344668050005566	6.0	550.0	4.0	4.0	4.0	2.0	0.0	part_2
220	3.0	7.0			650.0	0.0	1.0							6.0	0.0	0.6242566146320314	6.0	550.0	4.0	1.0	8.0	3.0	1.0	part_2
221	1.0	7.0			650.0	0.0	0.0							6.0	0.0	0.8171646506525576	6.0	500.0	4.0	4.0	4.0	2.0	0.0	part_2
222	4.0	7.0			650.0	0.0	1.0							6.0	0.0	0.0	0.0	500.0	2.0	8.0	6.0	8.0	1.0	part_2
223	1.0	7.0			650.0	0.0	0.0							5.0	0.0	0.8178203026545816	5.0	550.0	4.0	4.0	4.0	2.0	0.0	part_2
224	3.0	7.0			650.0	0.0	1.0							5.0	0.0	0.753061697632802	5.0	550.0	1.0	3.0	5.0	4.0	1.0	part_2
225	4.0	7.0			600.0	0.0	1.0							6.0	0.0	0.0	0.0	550.0	1.0	3.0	5.0	4.0	1.0	part_2
226	1.0	7.0			600.0	0.0	0.0							5.0	0.0	0.8424465340212919	5.0	600.0	4.0	4.0	4.0	2.0	0.0	part_2
227	4.0	7.0			600.0	0.0	1.0							5.0	0.0	0.0	0.0	600.0	2.0	8.0	6.0	8.0	1.0	part_2
228	1.0	7.0			650.0	0.0	1.0							6.0	0.0	0.8786973819369449	6.0	600.0	2.0	8.0	6.0	8.0	0.0	part_2
229	1.0	7.0			650.0	0.0	0.0							6.0	0.0	0.8120309629812255	6.0	600.0	3.0	6.0	3.0	1.0	0.0	part_2
230	4.0	7.0			650.0	0.0	1.0							6.0	0.0	0.0	0.0	600.0	2.0	8.0	6.0	8.0	1.0	part_2
231	1.0	7.0			650.0	0.0	0.0							6.0	0.0	0.7798843129785382	6.0	650.0	1.0	5.0	1.0	5.0	0.0	part_2
232	1.0	7.0			650.0	0.0	0.0							6.0	0.0	0.7585506043251371	6.0	650.0	2.0	7.0	2.0	6.0	0.0	part_2
233	1.0	7.0			650.0	0.0	0.0							6.0	0.0	0.7593236753273231	6.0	650.0	2.0	7.0	2.0	6.0	0.0	part_2
234	1.0	7.0			650.0	0.0	0.0							6.0	0.0	0.7936129096742661	6.0	650.0	1.0	5.0	1.0	5.0	0.0	part_2
235	4.0	7.0			650.0	0.0	1.0							6.0	0.0	0.0	0.0	650.0	3.0	2.0	7.0	7.0	1.0	part_2
236	1.0	7.0			650.0	0.0	0.0							6.0	0.0	0.8625998429997708	6.0	700.0	3.0	6.0	3.0	1.0	0.0	part_2
237	4.0	7.0			650.0	0.0	1.0							5.0	0.0	0.0	0.0	700.0	2.0	8.0	6.0	8.0	1.0	part_2
238	4.0	7.0			700.0	0.0	1.0							5.0	0.0	0.0	0.0	700.0	1.0	3.0	5.0	4.0	1.0	part_2
239	1.0	7.0			750.0	0.0	0.0							5.0	0.0	0.7414698823049548	5.0	700.0	2.0	7.0	2.0	6.0	0.0	part_2
240	3.0	7.0			750.0	0.0	1.0							6.0	0.0	0.6987258036133426	6.0	700.0	1.0	3.0	5.0	4.0	1.0	part_2
241	3.0	7.0			750.0	0.0	1.0							5.0	0.0	0.697362273978797	5.0	650.0	2.0	8.0	6.0	8.0	1.0	part_2
242	1.0	7.0			700.0	0.0	0.0							5.0	0.0	0.7791259426085162	5.0	650.0	4.0	4.0	4.0	2.0	0.0	part_2
243	3.0	7.0			700.0	0.0	1.0							6.0	0.0	0.7346516989782685	6.0	650.0	2.0	8.0	6.0	8.0	1.0	part_2
244	3.0	7.0			700.0	0.0	1.0							6.0	0.0	0.7808718506530568	6.0	600.0	3.0	2.0	7.0	7.0	1.0	part_2
245	3.0	7.0			700.0	0.0	1.0							5.0	0.0	0.6784728193269984	5.0	550.0	3.0	2.0	7.0	7.0	1.0	part_2
246	1.0	7.0			650.0	0.0	0.0							5.0	0.0	0.7580358076738776	5.0	550.0	3.0	6.0	3.0	1.0	0.0	part_2
247	1.0	7.0			650.0	0.0	0.0							5.0	0.0	0.6704768069575948	5.0	550.0	4.0	4.0	4.0	2.0	0.0	part_2
248	3.0	7.0			650.0	0.0	1.0							5.0	0.0	0.7263386236518272	5.0	550.0	3.0	2.0	7.0	7.0	1.0	part_2
249	4.0	7.0			600.0	0.0	1.0							6.0	0.0	0.0	0.0	550.0	1.0	3.0	5.0	4.0	1.0	part_2
250	1.0	7.0			600.0	0.0	1.0							6.0	0.0	0.8973137259563373	6.0	600.0	1.0	3.0	5.0	4.0	0.0	part_2
251	4.0	7.0			600.0	0.0	1.0							6.0	0.0	0.0	0.0	600.0	3.0	2.0	7.0	7.0	1.0	part_2
252	3.0	8.0			600.0	0.0	1.0							5.0	0.0	0.34847247630750644	5.0	650.0	4.0	1.0	8.0	3.0	1.0	part_2
253	1.0	8.0			550.0	0.0	1.0							6.0	0.0	0.4397574853283004	6.0	650.0	1.0	3.0	5.0	4.0	0.0	part_2
254	1.0	8.0			550.0	0.0	1.0							5.0	0.0	0.283830421652965	5.0	650.0	1.0	3.0	5.0	4.0	0.0	part_2
255	3.0	8.0			550.0	0.0	1.0							5.0	0.0	0.5997241229561041	5.0	650.0	4.0	1.0	8.0	3.0	1.0	part_2
256	1.0	8.0			500.0	0.0	0.0							5.0	0.0	0.7231551349796064	5.0	650.0	4.0	4.0	4.0	2.0	0.0	part_2
257	3.0	8.0			500.0	0.0	1.0							6.0	0.0	0.32006845997966593	6.0	650.0	3.0	2.0	7.0	7.0	1.0	part_2
258	1.0	8.0			500.0	0.0	0.0							6.0	0.0	0.5669229709383217	6.0	600.0	1.0	5.0	1.0	5.0	0.0	part_2
259	4.0	8.0			500.0	0.0	1.0							5.0	0.0	0.0	0.0	600.0	2.0	8.0	6.0	8.0	1.0	part_2
260	3.0	8.0			550.0	0.0	1.0							5.0	0.0	0.6250538339554623	5.0	600.0	4.0	1.0	8.0	3.0	1.0	part_2
261	1.0	8.0			500.0	0.0	0.0							5.0	0.0	0.7609006596539984	5.0	600.0	3.0	6.0	3.0	1.0	0.0	part_2
262	1.0	8.0			500.0	0.0	0.0							5.0	0.0	0.5601955593265302	5.0	600.0	3.0	6.0	3.0	1.0	0.0	part_2
263	3.0	8.0			500.0	0.0	1.0							6.0	0.0	0.3350697343048523	6.0	600.0	2.0	8.0	6.0	8.0	1.0	part_2
264	4.0	8.0			500.0	0.0	1.0							5.0	0.0	0.0	0.0	550.0	2.0	8.0	6.0	8.0	1.0	part_2
265	1.0	8.0			550.0	0.0	0.0							5.0	0.0	0.7877050773277006	5.0	550.0	1.0	5.0	1.0	5.0	0.0	part_2
266	1.0	8.0			550.0	0.0	1.0							6.0	0.0	0.24852030028705485	6.0	550.0	4.0	1.0	8.0	3.0	0.0	part_2
267	3.0	8.0			550.0	0.0	1.0							5.0	0.0	0.29299303395600873	5.0	550.0	1.0	3.0	5.0	4.0	1.0	part_2
268	3.0	8.0			500.0	0.0	1.0							6.0	0.0	0.30547212395686074	6.0	550.0	4.0	1.0	8.0	3.0	1.0	part_2
269	4.0	8.0			500.0	0.0	1.0							5.0	0.0	0.0	0.0	500.0	1.0	3.0	5.0	4.0	1.0	part_2
270	1.0	8.0			550.0	0.0	0.0							5.0	0.0	0.6910769869791693	5.0	500.0	3.0	6.0	3.0	1.0	0.0	part_2
271	4.0	8.0			550.0	0.0	1.0							6.0	0.0	0.0	0.0	500.0	3.0	2.0	7.0	7.0	1.0	part_2
272	1.0	8.0			550.0	0.0	0.0							6.0	0.0	0.34372383597656153	6.0	550.0	1.0	5.0	1.0	5.0	0.0	part_2
273	3.0	8.0			550.0	0.0	1.0							5.0	0.0	0.5600986563040351	5.0	550.0	1.0	3.0	5.0	4.0	1.0	part_2
274	4.0	8.0			500.0	0.0	1.0							5.0	0.0	0.0	0.0	550.0	4.0	1.0	8.0	3.0	1.0	part_2
275	3.0	8.0			550.0	0.0	1.0							6.0	0.0	0.34547373095847433	6.0	550.0	3.0	2.0	7.0	7.0	1.0	part_2
276	1.0	8.0			550.0	0.0	1.0							6.0	0.0	0.6494119019589562	6.0	500.0	2.0	8.0	6.0	8.0	0.0	part_2
277	1.0	8.0			550.0	0.0	0.0							5.0	0.0	0.7183123563263507	5.0	500.0	4.0	4.0	4.0	2.0	0.0	part_2
278	3.0	8.0			550.0	0.0	1.0							6.0	0.0	0.3365649936313275	6.0	500.0	4.0	1.0	8.0	3.0	1.0	part_2
279	3.0	8.0			550.0	0.0	1.0							6.0	0.0	0.5729862906737253	6.0	450.0	3.0	2.0	7.0	7.0	1.0	part_2
280	1.0	8.0			550.0	0.0	0.0							6.0	0.0	0.2380297696290654	6.0	400.0	4.0	4.0	4.0	2.0	0.0	part_2
281	1.0	8.0			550.0	0.0	0.0							5.0	0.0	0.2930725006517605	5.0	400.0	2.0	7.0	2.0	6.0	0.0	part_2
282	1.0	8.0			550.0	0.0	1.0							6.0	0.0	0.2723220749758184	6.0	400.0	4.0	1.0	8.0	3.0	0.0	part_2
283	1.0	8.0			550.0	0.0	0.0							5.0	0.0	0.2520485739805736	5.0	400.0	1.0	5.0	1.0	5.0	0.0	part_2
284	1.0	8.0			550.0	0.0	0.0							5.0	0.0	0.2964326799992705	5.0	400.0	4.0	4.0	4.0	2.0	0.0	part_2
285	3.0	8.0			550.0	0.0	1.0							6.0	0.0	0.2405631483270554	6.0	400.0	4.0	1.0	8.0	3.0	1.0	part_2
286	1.0	8.0			550.0	0.0	0.0							5.0	0.0	0.636247795959207	5.0	350.0	2.0	7.0	2.0	6.0	0.0	part_2
287	1.0	8.0			550.0	0.0	1.0							5.0	0.0	0.6699322746535472	5.0	350.0	1.0	3.0	5.0	4.0	0.0	part_2
0	0.0	1.0	294.0	6.0	0.0	2.0	0.0	196.0	98.0	49.0	294.0	147.0	245.0	7.0	0.0	1.8155290336690089	4.0	0.0	3.0	6.0	3.0	1.0	0.0	part_3
1	0.0	1.0	68.0	2.0	0.0	1.0	0.0	204.0	68.0	102.0	170.0	34.0	136.0	7.0	0.0	1.761503928224556	2.0	0.0	2.0	7.0	2.0	6.0	0.0	part_3
2	0.0	1.0	216.0	4.0	0.0	1.0	0.0	270.0	54.0	108.0	162.0	216.0	324.0	7.0	0.0	1.907439049336972	5.0	0.0	4.0	4.0	4.0	2.0	0.0	part_3
3	0.0	1.0	147.0	3.0	0.0	1.0	1.0	294.0	147.0	196.0	245.0	49.0	98.0	7.0	0.0	1.290872328892874	2.0	0.0	2.0	8.0	6.0	8.0	0.0	part_3
4	0.0	1.0	88.0	2.0	0.0	1.0	1.0	264.0	88.0	44.0	220.0	176.0	132.0	7.0	0.0	1.7293624736703348	2.0	0.0	3.0	2.0	7.0	7.0	0.0	part_3
5	0.0	1.0	117.0	3.0	0.0	1.0	1.0	234.0	195.0	156.0	39.0	117.0	78.0	7.0	0.0	1.0235797986715625	5.0	0.0	4.0	1.0	8.0	3.0	0.0	part_3
6	0.0	1.0	162.0	3.0	0.0	1.0	1.0	54.0	162.0	216.0	324.0	270.0	108.0	7.0	0.0	1.8682638228929136	2.0	0.0	1.0	3.0	5.0	4.0	0.0	part_3
7	0.0	1.0	117.0	3.0	0.0	1.0	0.0	234.0	195.0	117.0	78.0	156.0	39.0	7.0	0.0	1.9709497876683602	3.0	0.0	2.0	7.0	2.0	6.0	0.0	part_3
8	0.0	1.0	294.0	6.0	0.0	1.0	1.0	98.0	147.0	245.0	49.0	196.0	294.0	7.0	0.0	2.4774318884483364	6.0	0.0	4.0	1.0	8.0	3.0	0.0	part_3
9	0.0	1.0	196.0	4.0	0.0	1.0	0.0	49.0	245.0	294.0	196.0	98.0	147.0	7.0	0.0	1.8481408542211284	4.0	0.0	4.0	4.0	4.0	2.0	0.0	part_3
10	0.0	1.0	102.0	3.0	0.0	1.0	1.0	204.0	102.0	170.0	34.0	136.0	68.0	7.0	0.0	1.4208793601101206	2.0	0.0	3.0	2.0	7.0	7.0	0.0	part_3
11	0.0	1.0	196.0	4.0	0.0	1.0	0.0	49.0	98.0	294.0	245.0	196.0	147.0	7.0	0.0	1.9976875132233545	5.0	0.0	3.0	6.0	3.0	1.0	0.0	part_3
12	0.0	1.0	34.0	1.0	0.0	1.0	1.0	204.0	170.0	68.0	136.0	102.0	34.0	7.0	0.0	2.559562728558376	6.0	0.0	1.0	3.0	5.0	4.0	0.0	part_3
13	0.0	1.0	132.0	3.0	0.0	1.0	1.0	44.0	132.0	88.0	264.0	220.0	176.0	7.0	0.0	2.20031846978236	2.0	0.0	2.0	8.0	6.0	8.0	0.0	part_3
14	0.0	1.0	324.0	6.0	0.0	1.0	1.0	270.0	108.0	216.0	324.0	54.0	162.0	7.0	0.0	2.394591621559812	4.0	0.0	3.0	2.0	7.0	7.0	0.0	part_3
15	0.0	1.0	156.0	4.0	0.0	1.0	0.0	195.0	234.0	39.0	156.0	78.0	117.0	7.0	0.0	2.1021348788926844	4.0	0.0	3.0	6.0	3.0	1.0	0.0	part_3
16	0.0	1.0	39.0	1.0	0.0	1.0	0.0	78.0	39.0	195.0	234.0	117.0	156.0	7.0	0.0	1.3282137193345989	2.0	0.0	1.0	5.0	1.0	5.0	0.0	part_3
17	0.0	1.0	162.0	3.0	0.0	1.0	0.0	162.0	324.0	54.0	270.0	108.0	216.0	7.0	0.0	2.3292154703340198	1.0	0.0	4.0	4.0	4.0	2.0	0.0	part_3
18	0.0	1.0	234.0	6.0	0.0	1.0	1.0	78.0	39.0	156.0	195.0	117.0	234.0	7.0	0.0	2.4091510291109444	6.0	0.0	1.0	3.0	5.0	4.0	0.0	part_3
19	0.0	1.0	108.0	2.0	0.0	1.0	1.0	270.0	324.0	162.0	54.0	108.0	216.0	7.0	0.0	2.5120922176683957	5.0	0.0	3.0	2.0	7.0	7.0	0.0	part_3
20	0.0	2.0	136.0	4.0	0.0	1.0	0.0	102.0	34.0	170.0	136.0	68.0	204.0	7.0	0.0	1.5622882370043951	4.0	0.0	4.0	4.0	4.0	2.0	0.0	part_3
21	0.0	2.0	156.0	4.0	0.0	1.0	1.0	39.0	195.0	78.0	117.0	156.0	234.0	7.0	0.0	2.0907897344477533	5.0	0.0	2.0	8.0	6.0	8.0	0.0	part_3
22	0.0	2.0	196.0	4.0	0.0	1.0	1.0	49.0	147.0	294.0	98.0	245.0	196.0	7.0	0.0	1.519271308556199	6.0	0.0	1.0	3.0	5.0	4.0	0.0	part_3
23	0.0	2.0	216.0	4.0	0.0	1.0	1.0	324.0	216.0	270.0	108.0	54.0	162.0	7.0	0.0	1.0570000352236093	2.0	0.0	4.0	1.0	8.0	3.0	0.0	part_3
24	0.0	2.0	156.0	4.0	0.0	1.0	1.0	39.0	78.0	195.0	234.0	117.0	156.0	7.0	0.0	1.9922109428916883	6.0	0.0	4.0	1.0	8.0	3.0	0.0	part_3
25	0.0	2.0	170.0	5.0	0.0	1.0	0.0	68.0	102.0	34.0	136.0	170.0	204.0	7.0	0.0	1.8040623281121952	5.0	0.0	2.0	7.0	2.0	6.0	0.0	part_3
26	0.0	2.0	294.0	6.0	0.0	1.0	0.0	98.0	294.0	147.0	245.0	196.0	49.0	7.0	0.0	1.1503513743336953	2.0	0.0	1.0	5.0	1.0	5.0	0.0	part_3
27	0.0	2.0	162.0	3.0	0.0	1.0	0.0	324.0	54.0	108.0	270.0	216.0	162.0	7.0	0.0	3.1545325153347217	6.0	0.0	1.0	5.0	1.0	5.0	0.0	part_3
28	0.0	2.0	294.0	6.0	0.0	1.0	1.0	245.0	49.0	294.0	147.0	196.0	98.0	7.0	0.0	2.594721132336417	3.0	0.0	4.0	1.0	8.0	3.0	0.0	part_3
29	0.0	2.0	136.0	4.0	0.0	1.0	1.0	170.0	68.0	102.0	204.0	136.0	34.0	7.0	0.0	2.245103195113188	5.0	0.0	4.0	1.0	8.0	3.0	0.0	part_3
30	0.0	2.0	204.0	6.0	0.0	1.0	1.0	34.0	204.0	170.0	136.0	68.0	102.0	7.0	0.0	1.3923384975605586	2.0	0.0	2.0	8.0	6.0	8.0	0.0	part_3
31	0.0	2.0	132.0	3.0	0.0	1.0	0.0	88.0	44.0	132.0	176.0	220.0	264.0	7.0	0.0	2.485153126559453	3.0	0.0	4.0	4.0	4.0	2.0	0.0	part_3
32	0.0	2.0	216.0	4.0	0.0	1.0	1.0	324.0	54.0	108.0	162.0	270.0	216.0	7.0	0.0	1.8319630214500648	6.0	0.0	4.0	1.0	8.0	3.0	0.0	part_3
33	0.0	2.0	264.0	6.0	0.0	1.0	0.0	88.0	132.0	264.0	220.0	176.0	44.0	7.0	0.0	1.8352829402210773	3.0	0.0	4.0	4.0	4.0	2.0	0.0	part_3
34	0.0	2.0	270.0	5.0	0.0	1.0	0.0	108.0	54.0	162.0	324.0	270.0	216.0	7.0	0.0	2.555103582890297	5.0	0.0	2.0	7.0	2.0	6.0	0.0	part_3
35	0.0	2.0	147.0	3.0	0.0	1.0	1.0	294.0	98.0	49.0	245.0	147.0	196.0	7.0	0.0	2.2423242621116515	5.0	0.0	1.0	3.0	5.0	4.0	0.0	part_3
36	0.0	2.0	204.0	6.0	0.0	1.0	0.0	34.0	68.0	170.0	136.0	102.0	204.0	7.0	0.0	2.1307311074488102	6.0	0.0	3.0	6.0	3.0	1.0	0.0	part_3
37	0.0	2.0	216.0	4.0	0.0	1.0	1.0	324.0	216.0	270.0	54.0	162.0	108.0	7.0	0.0	2.1419604510047066	2.0	0.0	2.0	8.0	6.0	8.0	0.0	part_3
38	0.0	2.0	176.0	4.0	0.0	1.0	1.0	132.0	264.0	176.0	44.0	220.0	88.0	7.0	0.0	2.176870173447241	3.0	0.0	4.0	1.0	8.0	3.0	0.0	part_3
39	0.0	2.0	196.0	4.0	0.0	1.0	0.0	245.0	196.0	147.0	98.0	294.0	49.0	7.0	0.0	2.1682188864469936	2.0	0.0	4.0	4.0	4.0	2.0	0.0	part_3
40	0.0	3.0	108.0	2.0	0.0	1.0	0.0	162.0	54.0	270.0	216.0	108.0	324.0	7.0	0.0	1.482187802223052	5.0	0.0	3.0	6.0	3.0	1.0	0.0	part_3
41	0.0	3.0	264.0	6.0	0.0	1.0	0.0	132.0	88.0	44.0	220.0	264.0	176.0	7.0	0.0	2.382018954558589	5.0	0.0	2.0	7.0	2.0	6.0	0.0	part_3
42	0.0	3.0	39.0	1.0	0.0	1.0	1.0	78.0	195.0	39.0	234.0	117.0	156.0	7.0	0.0	0.9329250893351856	3.0	0.0	2.0	8.0	6.0	8.0	0.0	part_3
43	0.0	3.0	324.0	6.0	0.0	1.0	1.0	108.0	216.0	162.0	54.0	324.0	270.0	7.0	0.0	1.6307641512212283	5.0	0.0	1.0	3.0	5.0	4.0	0.0	part_3
44	0.0	3.0	220.0	5.0	0.0	1.0	0.0	44.0	88.0	176.0	264.0	132.0	220.0	7.0	0.0	1.6538036534475395	6.0	0.0	1.0	5.0	1.0	5.0	0.0	part_3
45	0.0	3.0	132.0	3.0	0.0	1.0	1.0	44.0	88.0	132.0	220.0	264.0	176.0	7.0	0.0	2.6783297607835266	3.0	0.0	3.0	2.0	7.0	7.0	0.0	part_3
46	0.0	3.0	294.0	6.0	0.0	1.0	0.0	49.0	147.0	196.0	245.0	98.0	294.0	7.0	0.0	2.072682236110268	6.0	0.0	2.0	7.0	2.0	6.0	0.0	part_3
47	0.0	3.0	156.0	4.0	0.0	1.0	1.0	195.0	78.0	39.0	117.0	156.0	234.0	7.0	0.0	2.1631335093334196	5.0	0.0	3.0	2.0	7.0	7.0	0.0	part_3
48	0.0	3.0	294.0	6.0	0.0	1.0	0.0	147.0	49.0	294.0	196.0	245.0	98.0	7.0	0.0	3.6054580331110633	3.0	0.0	2.0	7.0	2.0	6.0	0.0	part_3
49	0.0	3.0	147.0	3.0	0.0	1.0	1.0	147.0	98.0	294.0	245.0	49.0	196.0	7.0	0.0	2.8977224008958733	1.0	0.0	3.0	2.0	7.0	7.0	0.0	part_3
50	0.0	3.0	156.0	4.0	0.0	1.0	1.0	234.0	195.0	78.0	39.0	117.0	156.0	7.0	0.0	2.043355063335184	6.0	0.0	1.0	3.0	5.0	4.0	0.0	part_3
51	0.0	3.0	216.0	4.0	0.0	1.0	0.0	324.0	162.0	270.0	216.0	54.0	108.0	7.0	0.0	2.538437374336354	4.0	0.0	2.0	7.0	2.0	6.0	0.0	part_3
52	0.0	3.0	136.0	4.0	0.0	1.0	1.0	102.0	34.0	68.0	204.0	136.0	170.0	7.0	0.0	1.6751339168949926	5.0	0.0	4.0	1.0	8.0	3.0	0.0	part_3
53	0.0	3.0	54.0	1.0	0.0	1.0	1.0	324.0	54.0	108.0	270.0	216.0	162.0	7.0	0.0	2.351082607110584	2.0	0.0	2.0	8.0	6.0	8.0	0.0	part_3
54	0.0	3.0	162.0	3.0	0.0	1.0	0.0	54.0	216.0	270.0	324.0	162.0	108.0	7.0	0.0	2.0697913987823995	5.0	0.0	1.0	5.0	1.0	5.0	0.0	part_3
55	0.0	3.0	176.0	4.0	0.0	1.0	1.0	44.0	132.0	264.0	220.0	176.0	88.0	7.0	0.0	2.1273956827826623	5.0	0.0	2.0	8.0	6.0	8.0	0.0	part_3
56	0.0	3.0	102.0	3.0	0.0	1.0	0.0	136.0	102.0	34.0	170.0	68.0	204.0	7.0	0.0	2.31991740522426	2.0	0.0	1.0	5.0	1.0	5.0	0.0	part_3
57	0.0	3.0	170.0	5.0	0.0	1.0	1.0	170.0	34.0	102.0	68.0	136.0	204.0	7.0	0.0	2.467136851781106	1.0	0.0	3.0	2.0	7.0	7.0	0.0	part_3
58	0.0	3.0	204.0	6.0	0.0	1.0	0.0	170.0	102.0	204.0	34.0	136.0	68.0	7.0	0.0	2.0513864385575293	3.0	0.0	4.0	4.0	4.0	2.0	0.0	part_3
59	0.0	3.0	102.0	3.0	0.0	1.0	1.0	68.0	170.0	34.0	136.0	102.0	204.0	7.0	0.0	1.7374198028956016	5.0	0.0	1.0	3.0	5.0	4.0	0.0	part_3
60	0.0	4.0	245.0	5.0	0.0	1.0	1.0	49.0	245.0	294.0	98.0	147.0	196.0	7.0	0.0	1.817299930109584	2.0	0.0	3.0	2.0	7.0	7.0	0.0	part_3
61	0.0	4.0	34.0	1.0	0.0	1.0	1.0	136.0	68.0	34.0	204.0	102.0	170.0	7.0	0.0	1.2448548081119952	3.0	0.0	2.0	8.0	6.0	8.0	0.0	part_3
62	0.0	4.0	117.0	3.0	0.0	1.0	0.0	156.0	78.0	39.0	117.0	234.0	195.0	7.0	0.0	2.2798112700002093	4.0	0.0	3.0	6.0	3.0	1.0	0.0	part_3
63	0.0	4.0	156.0	4.0	0.0	1.0	0.0	234.0	117.0	78.0	195.0	156.0	39.0	7.0	0.0	1.932418632335612	5.0	0.0	4.0	4.0	4.0	2.0	0.0	part_3
64	0.0	4.0	132.0	3.0	0.0	1.0	1.0	88.0	44.0	264.0	132.0	176.0	220.0	7.0	0.0	2.4278866876702523	4.0	0.0	1.0	3.0	5.0	4.0	0.0	part_3
65	0.0	4.0	147.0	3.0	0.0	1.0	1.0	98.0	147.0	49.0	294.0	245.0	196.0	7.0	0.0	1.102248598224833	2.0	0.0	2.0	8.0	6.0	8.0	0.0	part_3
66	0.0	4.0	102.0	3.0	0.0	1.0	0.0	204.0	34.0	170.0	136.0	102.0	68.0	7.0	0.0	1.012877286222647	5.0	0.0	3.0	6.0	3.0	1.0	0.0	part_3
67	0.0	4.0	176.0	4.0	0.0	1.0	0.0	88.0	176.0	264.0	220.0	44.0	132.0	7.0	0.0	1.5441896601114422	2.0	0.0	3.0	6.0	3.0	1.0	0.0	part_3
68	0.0	4.0	147.0	3.0	0.0	1.0	0.0	294.0	196.0	98.0	147.0	49.0	245.0	7.0	0.0	2.0495544822224474	4.0	0.0	1.0	5.0	1.0	5.0	0.0	part_3
69	0.0	4.0	264.0	6.0	0.0	1.0	0.0	220.0	264.0	176.0	88.0	44.0	132.0	7.0	0.0	2.7496683051140285	2.0	0.0	2.0	7.0	2.0	6.0	0.0	part_3
70	0.0	4.0	117.0	3.0	0.0	1.0	0.0	234.0	117.0	156.0	78.0	39.0	195.0	7.0	0.0	1.6923355915569118	2.0	0.0	4.0	4.0	4.0	2.0	0.0	part_3
71	0.0	4.0	68.0	2.0	0.0	1.0	0.0	170.0	136.0	204.0	102.0	34.0	68.0	7.0	0.0	2.041656905112177	6.0	0.0	1.0	5.0	1.0	5.0	0.0	part_3
72	0.0	4.0	176.0	4.0	0.0	1.0	0.0	132.0	88.0	44.0	176.0	220.0	264.0	7.0	0.0	2.1782524084446777	4.0	0.0	1.0	5.0	1.0	5.0	0.0	part_3
73	0.0	4.0	220.0	5.0	0.0	1.0	1.0	264.0	44.0	132.0	88.0	176.0	220.0	7.0	0.0	2.3139512018933597	6.0	0.0	4.0	1.0	8.0	3.0	0.0	part_3
74	0.0	4.0	195.0	5.0	0.0	1.0	1.0	195.0	39.0	117.0	234.0	156.0	78.0	7.0	0.0	1.7523183100056483	1.0	0.0	3.0	2.0	7.0	7.0	0.0	part_3
75	0.0	4.0	234.0	6.0	0.0	1.0	0.0	39.0	234.0	156.0	117.0	195.0	78.0	7.0	0.0	1.4965861114469592	2.0	0.0	2.0	7.0	2.0	6.0	0.0	part_3
76	0.0	4.0	270.0	5.0	0.0	1.0	0.0	54.0	108.0	162.0	216.0	270.0	324.0	7.0	0.0	1.1477543992223218	5.0	0.0	3.0	6.0	3.0	1.0	0.0	part_3
77	0.0	4.0	88.0	2.0	0.0	1.0	0.0	220.0	44.0	176.0	88.0	264.0	132.0	7.0	0.0	1.85684446266896	4.0	0.0	3.0	6.0	3.0	1.0	0.0	part_3
78	0.0	4.0	195.0	5.0	0.0	1.0	0.0	195.0	117.0	156.0	39.0	78.0	234.0	7.0	0.0	1.6894559623360692	1.0	0.0	1.0	5.0	1.0	5.0	0.0	part_3
79	0.0	4.0	176.0	4.0	0.0	1.0	1.0	88.0	44.0	220.0	132.0	264.0	176.0	7.0	0.0	1.815853589669132	6.0	0.0	1.0	3.0	5.0	4.0	0.0	part_3
