	accuracy	block	chosen_bidding_amount	chosen_bidding_level	left_SSD	num_trial_presentations	paired_with_stopping	possible_bid_1	possible_bid_2	possible_bid_3	possible_bid_4	possible_bid_5	possible_bid_6	quadrant	raw_reward_magnitude	reaction_time	response	right_SSD	stepwise_reward_magnitude	stim_color	stim_reward	stim_shape	stop_signal_trial_type	which_part
0		1.0				1.0	0.0							4.0	28.0	0.7515912174458208	4.0		1.0	2.0	1.0	4.0		part_1
1		1.0				1.0	1.0							1.0	117.0	0.438079893000122	1.0		2.0	5.0	6.0	1.0		part_1
2		1.0				1.0	0.0							2.0	185.0	0.3578178917628065	2.0		3.0	4.0	3.0	5.0		part_1
3		1.0				1.0	1.0							1.0	0.0	0.3598982936828179	1.0		0.0	7.0	7.0	6.0		part_1
4		1.0				1.0	1.0							3.0	0.0	0.3254764817625073	3.0		0.0	5.0	6.0	1.0		part_1
5		1.0				1.0	0.0							3.0	388.0	0.3721374774454489	3.0		4.0	8.0	4.0	3.0		part_1
6		1.0				1.0	0.0							1.0	398.0	0.30469301484163225	1.0		4.0	8.0	4.0	3.0		part_1
7		1.0				1.0	1.0							1.0	74.0	0.3614868486829437	1.0		1.0	1.0	5.0	2.0		part_1
8		1.0				1.0	0.0							1.0	0.0	0.3050716036832455	1.0		0.0	4.0	3.0	5.0		part_1
9		1.0				1.0	1.0							3.0	81.0	0.3172800208417357	3.0		2.0	5.0	6.0	1.0		part_1
10		1.0				1.0	0.0							2.0	0.0	0.3852981347627065	2.0		0.0	4.0	3.0	5.0		part_1
11		1.0				1.0	0.0							2.0	0.0	0.2951014819209377	2.0		0.0	8.0	4.0	3.0		part_1
12		1.0				1.0	1.0							1.0	398.0	0.35269380776253456	1.0		4.0	3.0	8.0	7.0		part_1
13		1.0				1.0	1.0							1.0	0.0	0.2980843468417333	1.0		0.0	3.0	8.0	7.0		part_1
14		1.0				1.0	0.0							1.0	200.0	0.2648417156829055	1.0		3.0	4.0	3.0	5.0		part_1
15		1.0				1.0	1.0							4.0	0.0	0.30837113968345875	4.0		0.0	1.0	5.0	2.0		part_1
16		1.0				1.0	1.0							3.0	410.0	0.35459318160428666	3.0		4.0	3.0	8.0	7.0		part_1
17		1.0				1.0	1.0							2.0	56.0	0.27805659107934844	2.0		1.0	1.0	5.0	2.0		part_1
18		1.0				1.0	0.0							1.0	202.0	0.2783212896833902	1.0		3.0	4.0	3.0	5.0		part_1
19		1.0				1.0	0.0							2.0	124.0	0.2672104347625464	2.0		2.0	6.0	2.0	8.0		part_1
20		1.0				1.0	1.0							2.0	418.0	0.3227597819204675	2.0		4.0	3.0	8.0	7.0		part_1
21		1.0				1.0	1.0							2.0	384.0	0.268894749525316	2.0		4.0	3.0	8.0	7.0		part_1
22		1.0				1.0	0.0							2.0	105.0	0.3126847960002124	2.0		2.0	6.0	2.0	8.0		part_1
23		1.0				1.0	0.0							1.0	211.0	0.3151284546834177	1.0		3.0	4.0	3.0	5.0		part_1
24		1.0				1.0	0.0							2.0	0.0	0.2930450725248193	2.0		0.0	8.0	4.0	3.0		part_1
25		1.0				1.0	1.0							4.0	53.0	0.31403618084186746	4.0		1.0	1.0	5.0	2.0		part_1
26		1.0				1.0	0.0							1.0	49.0	0.3169414205249268	1.0		1.0	2.0	1.0	4.0		part_1
27		1.0				1.0	0.0							2.0	185.0	0.3385041949209153	2.0		3.0	4.0	3.0	5.0		part_1
28		1.0				1.0	1.0							4.0	0.0	0.3946791956832385	4.0		0.0	5.0	6.0	1.0		part_1
29		1.0				1.0	0.0							3.0	424.0	0.3505197614458666	3.0		4.0	8.0	4.0	3.0		part_1
30		1.0				1.0	1.0							3.0	209.0	0.33969046376250844	3.0		3.0	7.0	7.0	6.0		part_1
31		1.0				1.0	0.0							3.0	56.0	0.3171296293667183	3.0		1.0	2.0	1.0	4.0		part_1
32		1.0				1.0	0.0							1.0	32.0	0.3197979608416972	1.0		1.0	2.0	1.0	4.0		part_1
33		1.0				1.0	0.0							1.0	175.0	0.31953228776274045	1.0		3.0	4.0	3.0	5.0		part_1
34		1.0				1.0	0.0							4.0	213.0	0.2522114896833045	4.0		3.0	4.0	3.0	5.0		part_1
35		1.0				1.0	0.0							2.0	67.0	0.30914400752499205	2.0		1.0	2.0	1.0	4.0		part_1
36		1.0				1.0	0.0							1.0	41.0	0.3334385853668209	1.0		1.0	2.0	1.0	4.0		part_1
37		1.0				1.0	0.0							4.0	61.0	0.2884435737623789	4.0		1.0	2.0	1.0	4.0		part_1
38		1.0				1.0	1.0							1.0	405.0	0.3561297083665522	1.0		4.0	3.0	8.0	7.0		part_1
39		1.0				1.0	1.0							3.0	424.0	0.33269432484212297	3.0		4.0	3.0	8.0	7.0		part_1
40		1.0				1.0	0.0							3.0	388.0	0.3570815594457599	3.0		4.0	8.0	4.0	3.0		part_1
41		1.0				1.0	1.0							4.0	179.0	0.3358912018420597	4.0		3.0	7.0	7.0	6.0		part_1
42		1.0				1.0	1.0							2.0	31.0	0.31365367660419	2.0		1.0	1.0	5.0	2.0		part_1
43		1.0				1.0	1.0							1.0	413.0	0.34772690960471664	1.0		4.0	3.0	8.0	7.0		part_1
44		1.0				1.0	1.0							1.0	49.0	0.3246810557620847	1.0		1.0	1.0	5.0	2.0		part_1
45		1.0				1.0	0.0							4.0	0.0	0.3022996036843324	4.0		0.0	6.0	2.0	8.0		part_1
46		1.0				1.0	0.0							3.0	410.0	0.34764874344546115	3.0		4.0	8.0	4.0	3.0		part_1
47		1.0				1.0	0.0							2.0	193.0	0.3394135106045724	2.0		3.0	4.0	3.0	5.0		part_1
48		1.0				1.0	0.0							4.0	0.0	0.3500041095248889	4.0		0.0	2.0	1.0	4.0		part_1
49		1.0				1.0	1.0							3.0	202.0	0.40647221660492505	3.0		3.0	7.0	7.0	6.0		part_1
50		1.0				1.0	1.0							3.0	378.0	0.3281850609209869	3.0		4.0	3.0	8.0	7.0		part_1
51		1.0				1.0	1.0							2.0	115.0	0.274210897762714	2.0		2.0	5.0	6.0	1.0		part_1
52		1.0				1.0	1.0							3.0	201.0	0.34018266960447363	3.0		3.0	7.0	7.0	6.0		part_1
53		1.0				1.0	0.0							3.0	0.0	0.3411714596841193	3.0		0.0	8.0	4.0	3.0		part_1
54		1.0				1.0	0.0							2.0	0.0	0.31956077276208816	2.0		0.0	4.0	3.0	5.0		part_1
55		1.0				1.0	1.0							4.0	36.0	0.3441438216041206	4.0		1.0	1.0	5.0	2.0		part_1
56		1.0				1.0	0.0							1.0	53.0	0.4002615076042275	1.0		1.0	2.0	1.0	4.0		part_1
57		1.0				1.0	0.0							2.0	65.0	0.3212802964453658	2.0		1.0	2.0	1.0	4.0		part_1
58		1.0				1.0	0.0							3.0	98.0	0.2998906643670125	3.0		2.0	6.0	2.0	8.0		part_1
59		1.0				1.0	0.0							2.0	36.0	0.34449475652490946	2.0		1.0	2.0	1.0	4.0		part_1
60		1.0				1.0	0.0							1.0	225.0	0.3461753578412754	1.0		3.0	4.0	3.0	5.0		part_1
61		1.0				1.0	0.0							2.0	225.0	0.3355631567619639	2.0		3.0	4.0	3.0	5.0		part_1
62		1.0				1.0	1.0							1.0	375.0	0.3239782796836153	1.0		4.0	3.0	8.0	7.0		part_1
63		1.0				1.0	1.0							4.0	218.0	0.3252924586840891	4.0		3.0	7.0	7.0	6.0		part_1
64		1.0				1.0	0.0							1.0	418.0	0.31332092768298025	1.0		4.0	8.0	4.0	3.0		part_1
65		1.0				1.0	1.0							4.0	199.0	0.33630915484081925	4.0		3.0	7.0	7.0	6.0		part_1
66		1.0				1.0	1.0							3.0	0.0	0.3594230149201394	3.0		0.0	7.0	7.0	6.0		part_1
67		1.0				1.0	1.0							2.0	382.0	0.3155237026830946	2.0		4.0	3.0	8.0	7.0		part_1
68		1.0				1.0	0.0							3.0	192.0	0.473996169840575	3.0		3.0	4.0	3.0	5.0		part_1
69		1.0				1.0	1.0							4.0	47.0	0.327513350604022	4.0		1.0	1.0	5.0	2.0		part_1
70		1.0				2.0	1.0							3.0	46.0	0.3959901442867704	3.0		1.0	1.0	5.0	2.0		part_1
71		1.0				1.0	1.0							2.0	0.0	0.4308731417622767	2.0		0.0	5.0	6.0	1.0		part_1
72		1.0				1.0	0.0							3.0	0.0	0.3748440646832023	3.0		0.0	6.0	2.0	8.0		part_1
73		1.0				1.0	0.0							4.0	413.0	0.3199566016046447	4.0		4.0	8.0	4.0	3.0		part_1
74		1.0				1.0	1.0							3.0	114.0	0.3862371686036568	3.0		2.0	5.0	6.0	1.0		part_1
75		1.0				1.0	1.0							4.0	221.0	0.3765122936047192	4.0		3.0	7.0	7.0	6.0		part_1
76		1.0				1.0	0.0							3.0	0.0	0.33084305352440424	3.0		0.0	2.0	1.0	4.0		part_1
77		1.0				1.0	1.0							1.0	0.0	0.3788066086835897	1.0		0.0	3.0	8.0	7.0		part_1
78		1.0				1.0	1.0							3.0	0.0	0.3114096326044091	3.0		0.0	7.0	7.0	6.0		part_1
79		1.0				1.0	0.0							3.0	404.0	0.34598680836643325	3.0		4.0	8.0	4.0	3.0		part_1
80		1.0				1.0	0.0							3.0	0.0	0.39119873936579097	3.0		0.0	6.0	2.0	8.0		part_1
81		1.0				1.0	1.0							2.0	125.0	0.3246462578417777	2.0		2.0	5.0	6.0	1.0		part_1
82		1.0				1.0	0.0							2.0	52.0	0.34686405068350723	2.0		1.0	2.0	1.0	4.0		part_1
83		1.0				2.0	0.0							4.0	197.0	0.25778369584168104	4.0		3.0	4.0	3.0	5.0		part_1
84		1.0				1.0	1.0							4.0	0.0	0.3491976669210999	4.0		0.0	3.0	8.0	7.0		part_1
85		1.0				1.0	1.0							1.0	409.0	0.3720201227615689	1.0		4.0	3.0	8.0	7.0		part_1
86		1.0				1.0	1.0							3.0	82.0	0.4272959986046772	3.0		2.0	5.0	6.0	1.0		part_1
87		1.0				1.0	0.0							4.0	0.0	0.3505239474452537	4.0		0.0	4.0	3.0	5.0		part_1
88		1.0				1.0	0.0							3.0	0.0	0.3951777798411058	3.0		0.0	6.0	2.0	8.0		part_1
89		1.0				1.0	0.0							4.0	99.0	0.3509525297613436	4.0		2.0	6.0	2.0	8.0		part_1
90		1.0				1.0	1.0							1.0	208.0	0.4317381186838247	1.0		3.0	7.0	7.0	6.0		part_1
91		1.0				1.0	0.0							4.0	397.0	0.34214619560407306	4.0		4.0	8.0	4.0	3.0		part_1
92		1.0				1.0	1.0							2.0	0.0	0.3201384084459278	2.0		0.0	3.0	8.0	7.0		part_1
93		1.0				1.0	1.0							1.0	213.0	0.4203269006839037	1.0		3.0	7.0	7.0	6.0		part_1
94		1.0				1.0	0.0							1.0	0.0	0.34358267576135404	1.0		0.0	2.0	1.0	4.0		part_1
95		1.0				1.0	1.0							4.0	190.0	0.3554497416043887	4.0		3.0	7.0	7.0	6.0		part_1
96		1.0				1.0	0.0							1.0	423.0	0.48919852184098994	1.0		4.0	8.0	4.0	3.0		part_1
97		1.0				1.0	0.0							2.0	56.0	0.3334504899212334	2.0		1.0	2.0	1.0	4.0		part_1
98		1.0				1.0	0.0							1.0	76.0	0.3445188103660257	1.0		2.0	6.0	2.0	8.0		part_1
99		1.0				1.0	1.0							4.0	101.0	0.3447532508416771	4.0		2.0	5.0	6.0	1.0		part_1
100		2.0				1.0	0.0							4.0	77.0	0.571960791683523	4.0		2.0	6.0	2.0	8.0		part_1
101		2.0				1.0	1.0							2.0	392.0	0.3480386098408417	2.0		4.0	3.0	8.0	7.0		part_1
102		2.0				1.0	1.0							4.0	28.0	0.32627113952548825	4.0		1.0	1.0	5.0	2.0		part_1
103		2.0				1.0	0.0							3.0	30.0	0.3488350716834248	3.0		1.0	2.0	1.0	4.0		part_1
104		2.0				1.0	0.0							1.0	0.0	0.3273346555251919	1.0		0.0	2.0	1.0	4.0		part_1
105		2.0				1.0	0.0							4.0	62.0	0.3393620004453624	4.0		1.0	2.0	1.0	4.0		part_1
106		2.0				1.0	1.0							3.0	185.0	0.28360827076176065	3.0		3.0	7.0	7.0	6.0		part_1
107		2.0				1.0	1.0							3.0	213.0	0.3508739279996007	3.0		3.0	7.0	7.0	6.0		part_1
108		2.0				1.0	0.0							1.0	104.0	0.3310189928415639	1.0		2.0	6.0	2.0	8.0		part_1
109		2.0				1.0	1.0							4.0	0.0	0.3419019995244525	4.0		0.0	5.0	6.0	1.0		part_1
110		2.0				1.0	0.0							1.0	96.0	0.3749621186834702	1.0		2.0	6.0	2.0	8.0		part_1
111		2.0				1.0	1.0							4.0	0.0	0.3091461659214474	4.0		0.0	3.0	8.0	7.0		part_1
112		2.0				1.0	1.0							2.0	211.0	0.354089948525143	2.0		3.0	7.0	7.0	6.0		part_1
113		2.0				1.0	1.0							1.0	182.0	0.3877119818416759	1.0		3.0	7.0	7.0	6.0		part_1
114		2.0				1.0	1.0							3.0	68.0	0.4460671708420705	3.0		1.0	1.0	5.0	2.0		part_1
115		2.0				1.0	0.0							4.0	0.0	0.3461770654457723	4.0		0.0	2.0	1.0	4.0		part_1
116		2.0				1.0	1.0							2.0	392.0	0.2887103709199437	2.0		4.0	3.0	8.0	7.0		part_1
117		2.0				1.0	0.0							2.0	92.0	0.3348941837621169	2.0		2.0	6.0	2.0	8.0		part_1
118		2.0				1.0	0.0							1.0	0.0	0.3473809596043793	1.0		0.0	6.0	2.0	8.0		part_1
119		2.0				1.0	1.0							1.0	392.0	0.3351711125251313	1.0		4.0	3.0	8.0	7.0		part_1
120		2.0				1.0	0.0							3.0	47.0	0.3368421637624124	3.0		1.0	2.0	1.0	4.0		part_1
121		2.0				1.0	1.0							1.0	65.0	0.2926663696835021	1.0		1.0	1.0	5.0	2.0		part_1
122		2.0				1.0	0.0							4.0	73.0	0.2920557465249658	4.0		1.0	2.0	1.0	4.0		part_1
123		2.0				1.0	0.0							3.0	213.0	0.3827950498416613	3.0		3.0	4.0	3.0	5.0		part_1
124		2.0				1.0	1.0							3.0	0.0	0.3602690332872953	3.0		0.0	7.0	7.0	6.0		part_1
125		2.0				1.0	0.0							2.0	0.0	0.3286576413665898	2.0		0.0	4.0	3.0	5.0		part_1
126		2.0				1.0	1.0							2.0	403.0	0.3838220359211846	2.0		4.0	3.0	8.0	7.0		part_1
127		2.0				1.0	1.0							3.0	388.0	0.36230401968441583	3.0		4.0	3.0	8.0	7.0		part_1
128		2.0				1.0	1.0							4.0	388.0	0.3747990448418932	4.0		4.0	3.0	8.0	7.0		part_1
129		2.0				1.0	1.0							1.0	100.0	0.3292706296042525	1.0		2.0	5.0	6.0	1.0		part_1
130		2.0				1.0	0.0							3.0	62.0	0.3416735329201401	3.0		1.0	2.0	1.0	4.0		part_1
131		2.0				2.0	1.0							1.0	32.0	0.26350233728680905	1.0		1.0	1.0	5.0	2.0		part_1
132		2.0				1.0	1.0							4.0	0.0	0.3420922945242637	4.0		0.0	1.0	5.0	2.0		part_1
133		2.0				1.0	1.0							2.0	104.0	0.5353824423664264	2.0		2.0	5.0	6.0	1.0		part_1
134		2.0				1.0	0.0							4.0	0.0	0.343397022604222	4.0		0.0	6.0	2.0	8.0		part_1
135		2.0				1.0	0.0							2.0	392.0	0.3563107416048297	2.0		4.0	8.0	4.0	3.0		part_1
136		2.0				1.0	0.0							2.0	116.0	0.3225897956835979	2.0		2.0	6.0	2.0	8.0		part_1
137		2.0				1.0	1.0							2.0	91.0	0.30230835060410755	2.0		2.0	5.0	6.0	1.0		part_1
138		2.0				1.0	0.0							4.0	66.0	0.38112733176240005	4.0		1.0	2.0	1.0	4.0		part_1
139		2.0				1.0	0.0							2.0	393.0	0.33595565884115786	2.0		4.0	8.0	4.0	3.0		part_1
140		2.0				1.0	0.0							4.0	81.0	0.3596569899200404	4.0		2.0	6.0	2.0	8.0		part_1
141		2.0				1.0	1.0							3.0	106.0	0.3807183535245713	3.0		2.0	5.0	6.0	1.0		part_1
142		2.0				1.0	0.0							2.0	115.0	0.4173493374455575	2.0		2.0	6.0	2.0	8.0		part_1
143		2.0				1.0	1.0							3.0	396.0	0.394246975999522	3.0		4.0	3.0	8.0	7.0		part_1
144		2.0				1.0	1.0							1.0	76.0	0.3834134735243424	1.0		2.0	5.0	6.0	1.0		part_1
145		2.0				1.0	1.0							2.0	225.0	0.293276618524942	2.0		3.0	7.0	7.0	6.0		part_1
146		2.0				1.0	1.0							1.0	61.0	0.3950312644465157	1.0		1.0	1.0	5.0	2.0		part_1
147		2.0				1.0	0.0							4.0	375.0	0.3399849585248376	4.0		4.0	8.0	4.0	3.0		part_1
148		2.0				1.0	1.0							1.0	0.0	0.342042480921009	1.0		0.0	7.0	7.0	6.0		part_1
149		2.0				1.0	0.0							3.0	407.0	0.35122618268360384	3.0		4.0	8.0	4.0	3.0		part_1
150		2.0				1.0	1.0							3.0	198.0	0.3640949919208651	3.0		3.0	7.0	7.0	6.0		part_1
151		2.0				1.0	0.0							1.0	378.0	0.35305651660382864	1.0		4.0	8.0	4.0	3.0		part_1
152		2.0				1.0	0.0							1.0	208.0	0.467794267604404	1.0		3.0	4.0	3.0	5.0		part_1
153		2.0				1.0	1.0							4.0	92.0	0.3894598407623562	4.0		2.0	5.0	6.0	1.0		part_1
154		2.0				1.0	1.0							1.0	391.0	0.433357760920444	1.0		4.0	3.0	8.0	7.0		part_1
155		2.0				1.0	0.0							2.0	104.0	0.3445010687619288	2.0		2.0	6.0	2.0	8.0		part_1
156		2.0				1.0	0.0							1.0	194.0	0.32231248484094976	1.0		3.0	4.0	3.0	5.0		part_1
157		2.0				1.0	1.0							3.0	105.0	0.3784726266840153	3.0		2.0	5.0	6.0	1.0		part_1
158		2.0				1.0	0.0							4.0	27.0	0.391098754761515	4.0		1.0	2.0	1.0	4.0		part_1
159		2.0				1.0	1.0							2.0	81.0	0.3143971796043843	2.0		2.0	5.0	6.0	1.0		part_1
160		2.0				1.0	1.0							1.0	217.0	0.324328843920739	1.0		3.0	7.0	7.0	6.0		part_1
161		2.0				1.0	1.0							2.0	0.0	0.34870855044573545	2.0		0.0	3.0	8.0	7.0		part_1
162		2.0				1.0	0.0							1.0	123.0	0.3607578987621309	1.0		2.0	6.0	2.0	8.0		part_1
163		2.0				1.0	1.0							4.0	407.0	0.3143299156045032	4.0		4.0	3.0	8.0	7.0		part_1
164		2.0				1.0	0.0							4.0	0.0	0.3265500924462685	4.0		0.0	8.0	4.0	3.0		part_1
165		2.0				2.0	1.0							3.0	0.0	0.36163190076240426	3.0		0.0	5.0	6.0	1.0		part_1
166		2.0				1.0	1.0							2.0	0.0	0.3394381958414669	2.0		0.0	1.0	5.0	2.0		part_1
167		2.0				1.0	1.0							3.0	0.0	0.4081564753660132	3.0		0.0	5.0	6.0	1.0		part_1
168		2.0				1.0	1.0							2.0	181.0	0.3066858913662145	2.0		3.0	7.0	7.0	6.0		part_1
169		2.0				1.0	0.0							1.0	179.0	0.3760310946045138	1.0		3.0	4.0	3.0	5.0		part_1
170		2.0				1.0	1.0							2.0	55.0	0.3641365955254514	2.0		1.0	1.0	5.0	2.0		part_1
171		2.0				1.0	1.0							1.0	102.0	0.30855948768294184	1.0		2.0	5.0	6.0	1.0		part_1
172		2.0				1.0	0.0							2.0	392.0	0.31057391992089833	2.0		4.0	8.0	4.0	3.0		part_1
173		2.0				1.0	1.0							3.0	41.0	0.3426190105255955	3.0		1.0	1.0	5.0	2.0		part_1
174		2.0				1.0	0.0							4.0	413.0	0.3564227924462102	4.0		4.0	8.0	4.0	3.0		part_1
175		2.0				1.0	0.0							3.0	88.0	0.3660900003669667	3.0		2.0	6.0	2.0	8.0		part_1
176		2.0				1.0	1.0							2.0	216.0	0.3897723547615897	2.0		3.0	7.0	7.0	6.0		part_1
177		2.0				1.0	1.0							4.0	88.0	0.3337650827625112	4.0		2.0	5.0	6.0	1.0		part_1
178		2.0				1.0	1.0							4.0	116.0	0.357644360604354	4.0		2.0	5.0	6.0	1.0		part_1
179		2.0				1.0	0.0							3.0	96.0	0.3354109387619246	3.0		2.0	6.0	2.0	8.0		part_1
180		2.0				1.0	1.0							4.0	193.0	0.3240729395247399	4.0		3.0	7.0	7.0	6.0		part_1
181		2.0				1.0	0.0							3.0	43.0	0.3021133546044439	3.0		1.0	2.0	1.0	4.0		part_1
182		2.0				1.0	0.0							2.0	36.0	0.3046460412870147	2.0		1.0	2.0	1.0	4.0		part_1
183		2.0				1.0	1.0							3.0	423.0	0.3261663036046229	3.0		4.0	3.0	8.0	7.0		part_1
184		2.0				1.0	1.0							2.0	46.0	0.3738433634462126	2.0		1.0	1.0	5.0	2.0		part_1
185		2.0				1.0	0.0							1.0	102.0	0.3290329124456548	1.0		2.0	6.0	2.0	8.0		part_1
186		2.0				1.0	0.0							2.0	407.0	0.3741663599212188	2.0		4.0	8.0	4.0	3.0		part_1
187		2.0				1.0	1.0							2.0	192.0	0.3516845576041305	2.0		3.0	7.0	7.0	6.0		part_1
188		2.0				1.0	1.0							1.0	40.0	0.3870554852874193	1.0		1.0	1.0	5.0	2.0		part_1
189		2.0				1.0	0.0							4.0	398.0	0.31813830584178504	4.0		4.0	8.0	4.0	3.0		part_1
190		2.0				1.0	0.0							2.0	29.0	0.3521712445253797	2.0		1.0	2.0	1.0	4.0		part_1
191		2.0				1.0	1.0							2.0	0.0	0.3302922873663192	2.0		0.0	7.0	7.0	6.0		part_1
192		2.0				1.0	1.0							2.0	190.0	0.28821484868421976	2.0		3.0	7.0	7.0	6.0		part_1
193		2.0				1.0	0.0							4.0	175.0	0.3763905358418924	4.0		3.0	4.0	3.0	5.0		part_1
194		2.0				1.0	0.0							3.0	122.0	0.3430411556837498	3.0		2.0	6.0	2.0	8.0		part_1
195		2.0				1.0	0.0							4.0	100.0	0.35537771860435896	4.0		2.0	6.0	2.0	8.0		part_1
196		2.0				1.0	1.0							3.0	42.0	0.3227793968417245	3.0		1.0	1.0	5.0	2.0		part_1
197		2.0				1.0	0.0							1.0	0.0	0.3566428827616619	1.0		0.0	8.0	4.0	3.0		part_1
198		2.0				1.0	1.0							4.0	89.0	0.5380115114458022	4.0		2.0	5.0	6.0	1.0		part_1
199		2.0				1.0	1.0							1.0	0.0	0.3932308857620228	1.0		0.0	3.0	8.0	7.0		part_1
200		3.0				1.0	0.0							2.0	0.0	0.465781153367061	2.0		0.0	6.0	2.0	8.0		part_1
201		3.0				1.0	1.0							2.0	424.0	0.3325461709200681	2.0		4.0	3.0	8.0	7.0		part_1
202		3.0				1.0	0.0							2.0	209.0	0.3093805209200582	2.0		3.0	4.0	3.0	5.0		part_1
203		3.0				1.0	0.0							1.0	0.0	0.34427410823809623	1.0		0.0	2.0	1.0	4.0		part_1
204		3.0				1.0	1.0							1.0	175.0	0.323341916841855	1.0		3.0	7.0	7.0	6.0		part_1
205		3.0				1.0	1.0							3.0	43.0	0.3018860653664888	3.0		1.0	1.0	5.0	2.0		part_1
206		3.0				1.0	1.0							4.0	0.0	0.3470512416042766	4.0		0.0	5.0	6.0	1.0		part_1
207		3.0				1.0	1.0							2.0	29.0	0.3353782097619842	2.0		1.0	1.0	5.0	2.0		part_1
208		3.0				1.0	0.0							2.0	0.0	0.3921562376044676	2.0		0.0	8.0	4.0	3.0		part_1
209		3.0				1.0	1.0							1.0	91.0	0.3701312376833812	1.0		2.0	5.0	6.0	1.0		part_1
210		3.0				1.0	0.0							3.0	91.0	0.4256904968415256	3.0		2.0	6.0	2.0	8.0		part_1
211		3.0				1.0	1.0							4.0	0.0	0.3383860519206792	4.0		0.0	3.0	8.0	7.0		part_1
212		3.0				1.0	0.0							2.0	405.0	0.3040951793664135	2.0		4.0	8.0	4.0	3.0		part_1
213		3.0				1.0	1.0							1.0	0.0	0.3492846118406305	1.0		0.0	5.0	6.0	1.0		part_1
214		3.0				2.0	1.0							1.0	0.0	0.2953972025252369	1.0		0.0	1.0	5.0	2.0		part_1
215		3.0				2.0	1.0							2.0	92.0	0.4770451158419746	2.0		2.0	5.0	6.0	1.0		part_1
216		3.0				1.0	0.0							3.0	401.0	0.3625413783665863	3.0		4.0	8.0	4.0	3.0		part_1
217		3.0				1.0	0.0							2.0	395.0	0.3644890668419976	2.0		4.0	8.0	4.0	3.0		part_1
218		3.0				1.0	0.0							1.0	409.0	0.3980594192871649	1.0		4.0	8.0	4.0	3.0		part_1
219		3.0				1.0	1.0							4.0	413.0	0.4668332997625839	4.0		4.0	3.0	8.0	7.0		part_1
220		3.0				1.0	0.0							3.0	190.0	0.3657423797621959	3.0		3.0	4.0	3.0	5.0		part_1
221		3.0				1.0	1.0							4.0	0.0	0.421862329841133	4.0		0.0	5.0	6.0	1.0		part_1
222		3.0				1.0	0.0							1.0	40.0	0.4005424109209344	1.0		1.0	2.0	1.0	4.0		part_1
223		3.0				1.0	1.0							2.0	56.0	0.4585962793662475	2.0		1.0	1.0	5.0	2.0		part_1
224		3.0				1.0	1.0							3.0	209.0	0.4010048086829556	3.0		3.0	7.0	7.0	6.0		part_1
225		3.0				1.0	0.0							2.0	204.0	0.4019802204456937	2.0		3.0	4.0	3.0	5.0		part_1
226		3.0				1.0	1.0							4.0	194.0	0.3929123393663758	4.0		3.0	7.0	7.0	6.0		part_1
227		3.0				1.0	1.0							3.0	401.0	0.4254160453665463	3.0		4.0	3.0	8.0	7.0		part_1
228		3.0				1.0	1.0							2.0	411.0	0.3144684756844072	2.0		4.0	3.0	8.0	7.0		part_1
229		3.0				1.0	0.0							4.0	384.0	0.3592017953660616	4.0		4.0	8.0	4.0	3.0		part_1
230		3.0				1.0	0.0							2.0	0.0	0.2823980412867968	2.0		0.0	4.0	3.0	5.0		part_1
231		3.0				1.0	1.0							3.0	0.0	0.31510436352527904	3.0		0.0	1.0	5.0	2.0		part_1
232		3.0				1.0	0.0							2.0	116.0	0.2822226216840136	2.0		2.0	6.0	2.0	8.0		part_1
233		3.0				1.0	0.0							4.0	106.0	0.32891844576170115	4.0		2.0	6.0	2.0	8.0		part_1
234		3.0				2.0	0.0							4.0	81.0	0.2846219135253705	4.0		2.0	6.0	2.0	8.0		part_1
235		3.0				1.0	0.0							3.0	59.0	0.4079677255249408	3.0		1.0	2.0	1.0	4.0		part_1
236		3.0				1.0	1.0							1.0	197.0	0.4194010523669931	1.0		3.0	7.0	7.0	6.0		part_1
237		3.0				1.0	0.0							1.0	42.0	0.3545739439205136	1.0		1.0	2.0	1.0	4.0		part_1
238		3.0				1.0	1.0							2.0	77.0	0.3311844629206462	2.0		2.0	5.0	6.0	1.0		part_1
239		3.0				1.0	1.0							4.0	35.0	0.4225778276040728	4.0		1.0	1.0	5.0	2.0		part_1
240		3.0				1.0	1.0							3.0	393.0	0.4099526298414276	3.0		4.0	3.0	8.0	7.0		part_1
241		3.0				1.0	0.0							2.0	396.0	0.3669466783667304	2.0		4.0	8.0	4.0	3.0		part_1
242		3.0				1.0	0.0							1.0	111.0	0.4006191305252287	1.0		2.0	6.0	2.0	8.0		part_1
243		3.0				1.0	1.0							1.0	96.0	0.3899259496047307	1.0		2.0	5.0	6.0	1.0		part_1
244		3.0				1.0	1.0							3.0	122.0	0.3907723039201301	3.0		2.0	5.0	6.0	1.0		part_1
245		3.0				1.0	1.0							2.0	423.0	0.3681146418412027	2.0		4.0	3.0	8.0	7.0		part_1
246		3.0				1.0	0.0							3.0	0.0	0.5721284866840506	3.0		0.0	8.0	4.0	3.0		part_1
247		3.0				1.0	0.0							1.0	115.0	0.3937960273660792	1.0		2.0	6.0	2.0	8.0		part_1
248		3.0				1.0	1.0							1.0	0.0	0.3592081536044134	1.0		0.0	5.0	6.0	1.0		part_1
249		3.0				1.0	0.0							4.0	182.0	0.3926966649214592	4.0		3.0	4.0	3.0	5.0		part_1
250		3.0				1.0	1.0							2.0	0.0	0.27048072568322823	2.0		0.0	1.0	5.0	2.0		part_1
251		3.0				1.0	0.0							3.0	0.0	0.3839136125243385	3.0		0.0	2.0	1.0	4.0		part_1
252		3.0				1.0	0.0							3.0	208.0	0.4059529013657084	3.0		3.0	4.0	3.0	5.0		part_1
253		3.0				1.0	1.0							2.0	123.0	0.30645500044556684	2.0		2.0	5.0	6.0	1.0		part_1
254		3.0				1.0	0.0							1.0	120.0	0.3734372297612936	1.0		2.0	6.0	2.0	8.0		part_1
255		3.0				1.0	0.0							1.0	49.0	0.3175566235249789	1.0		1.0	2.0	1.0	4.0		part_1
256		3.0				1.0	1.0							3.0	36.0	0.4088822346839152	3.0		1.0	1.0	5.0	2.0		part_1
257		3.0				1.0	1.0							2.0	225.0	0.2961347558411944	2.0		3.0	7.0	7.0	6.0		part_1
258		3.0				1.0	1.0							2.0	197.0	0.2870884285257489	2.0		3.0	7.0	7.0	6.0		part_1
259		3.0				1.0	0.0							1.0	0.0	0.3536585718411516	1.0		0.0	4.0	3.0	5.0		part_1
260		3.0				1.0	0.0							1.0	98.0	0.3434650775252521	1.0		2.0	6.0	2.0	8.0		part_1
261		3.0				1.0	1.0							4.0	404.0	0.3545331988416365	4.0		4.0	3.0	8.0	7.0		part_1
262		3.0				1.0	1.0							1.0	49.0	0.37966980076180334	1.0		1.0	1.0	5.0	2.0		part_1
263		3.0				1.0	0.0							3.0	213.0	0.3564837184458156	3.0		3.0	4.0	3.0	5.0		part_1
264		3.0				1.0	1.0							4.0	407.0	0.34579109768401395	4.0		4.0	3.0	8.0	7.0		part_1
265		3.0				1.0	0.0							2.0	0.0	0.5613977357625117	2.0		0.0	2.0	1.0	4.0		part_1
266		3.0				1.0	0.0							2.0	46.0	0.3462040727617932	2.0		1.0	2.0	1.0	4.0		part_1
267		3.0				1.0	1.0							1.0	124.0	0.359814549920884	1.0		2.0	5.0	6.0	1.0		part_1
268		3.0				1.0	1.0							1.0	46.0	0.3811741425242872	1.0		1.0	1.0	5.0	2.0		part_1
269		3.0				1.0	0.0							4.0	70.0	0.3937630808413815	4.0		1.0	2.0	1.0	4.0		part_1
270		3.0				1.0	1.0							3.0	63.0	0.3385287928413163	3.0		1.0	1.0	5.0	2.0		part_1
271		3.0				1.0	0.0							1.0	376.0	0.2932305509202706	1.0		4.0	8.0	4.0	3.0		part_1
272		3.0				1.0	1.0							1.0	200.0	0.3290184574452724	1.0		3.0	7.0	7.0	6.0		part_1
273		3.0				1.0	0.0							4.0	389.0	0.4058396497621288	4.0		4.0	8.0	4.0	3.0		part_1
274		3.0				1.0	1.0							1.0	0.0	0.3751242186835953	1.0		0.0	1.0	5.0	2.0		part_1
275		3.0				1.0	0.0							3.0	55.0	0.3842606223670373	3.0		1.0	2.0	1.0	4.0		part_1
276		3.0				1.0	1.0							4.0	176.0	0.33049121897056466	4.0		3.0	7.0	7.0	6.0		part_1
277		3.0				1.0	1.0							4.0	42.0	0.3635765937615361	4.0		1.0	1.0	5.0	2.0		part_1
278		3.0				1.0	1.0							3.0	52.0	0.36430319544524536	3.0		1.0	1.0	5.0	2.0		part_1
279		3.0				1.0	0.0							4.0	176.0	0.3641551572864046	4.0		3.0	4.0	3.0	5.0		part_1
280		3.0				1.0	1.0							4.0	395.0	0.4000910004451725	4.0		4.0	3.0	8.0	7.0		part_1
281		3.0				1.0	1.0							4.0	120.0	0.35501125707924075	4.0		2.0	5.0	6.0	1.0		part_1
282		3.0				1.0	1.0							1.0	418.0	0.4340218466832084	1.0		4.0	3.0	8.0	7.0		part_1
283		3.0				1.0	1.0							2.0	175.0	0.3899740678416492	2.0		3.0	7.0	7.0	6.0		part_1
284		3.0				1.0	0.0							4.0	221.0	0.36796018068343983	4.0		3.0	4.0	3.0	5.0		part_1
285		3.0				1.0	0.0							3.0	381.0	0.4247048464458203	3.0		4.0	8.0	4.0	3.0		part_1
286		3.0				1.0	0.0							4.0	403.0	0.3802250376838856	4.0		4.0	8.0	4.0	3.0		part_1
287		3.0				1.0	1.0							3.0	96.0	0.356909193366846	3.0		2.0	5.0	6.0	1.0		part_1
288		3.0				1.0	1.0							4.0	116.0	0.3578673656838873	4.0		2.0	5.0	6.0	1.0		part_1
289		3.0				1.0	1.0							2.0	115.0	0.3154823515251337	2.0		2.0	5.0	6.0	1.0		part_1
290		3.0				1.0	1.0							4.0	387.0	0.3946504127616208	4.0		4.0	3.0	8.0	7.0		part_1
291		3.0				1.0	1.0							2.0	185.0	0.3376114287621021	2.0		3.0	7.0	7.0	6.0		part_1
292		3.0				1.0	1.0							4.0	98.0	0.3717056403665993	4.0		2.0	5.0	6.0	1.0		part_1
293		3.0				2.0	1.0							3.0	204.0	0.1939571196835459	3.0		3.0	7.0	7.0	6.0		part_1
294		3.0				1.0	0.0							2.0	180.0	0.3296748875254707	2.0		3.0	4.0	3.0	5.0		part_1
295		3.0				1.0	0.0							3.0	63.0	0.37512972892091057	3.0		1.0	2.0	1.0	4.0		part_1
296		3.0				1.0	1.0							2.0	389.0	0.3525756554454347	2.0		4.0	3.0	8.0	7.0		part_1
297		3.0				1.0	0.0							1.0	424.0	0.46570901652466995	1.0		4.0	8.0	4.0	3.0		part_1
298		3.0				1.0	1.0							2.0	73.0	0.3077588575251866	2.0		1.0	1.0	5.0	2.0		part_1
299		3.0				1.0	0.0							2.0	418.0	0.36566432768358936	2.0		4.0	8.0	4.0	3.0		part_1
300		4.0				1.0	0.0							4.0	89.0	0.3920484004456739	4.0		2.0	6.0	2.0	8.0		part_1
301		4.0				1.0	0.0							3.0	0.0	0.3694771318414496	3.0		0.0	8.0	4.0	3.0		part_1
302		4.0				1.0	0.0							2.0	201.0	0.33728094944581244	2.0		3.0	4.0	3.0	5.0		part_1
303		4.0				1.0	0.0							2.0	31.0	0.3607075726840776	2.0		1.0	2.0	1.0	4.0		part_1
304		4.0				1.0	1.0							2.0	0.0	0.32791950076170906	2.0		0.0	7.0	7.0	6.0		part_1
305		4.0				1.0	1.0							1.0	67.0	0.3727490436831431	1.0		1.0	1.0	5.0	2.0		part_1
306		4.0				1.0	0.0							1.0	390.0	0.3614830007618366	1.0		4.0	8.0	4.0	3.0		part_1
307		4.0				1.0	0.0							1.0	61.0	0.3395660209207563	1.0		1.0	2.0	1.0	4.0		part_1
308		4.0				1.0	0.0							3.0	68.0	0.4184115246835063	3.0		1.0	2.0	1.0	4.0		part_1
309		4.0				1.0	0.0							1.0	0.0	0.32999287352504325	1.0		0.0	6.0	2.0	8.0		part_1
310		4.0				1.0	0.0							3.0	43.0	0.3644141748418406	3.0		1.0	2.0	1.0	4.0		part_1
311		4.0				1.0	0.0							2.0	35.0	0.3193968666046203	2.0		1.0	2.0	1.0	4.0		part_1
312		4.0				1.0	1.0							2.0	0.0	0.3554224386043643	2.0		0.0	7.0	7.0	6.0		part_1
313		4.0				1.0	0.0							3.0	0.0	0.3326367449208192	3.0		0.0	4.0	3.0	5.0		part_1
314		4.0				1.0	0.0							2.0	82.0	0.33227583068401145	2.0		2.0	6.0	2.0	8.0		part_1
315		4.0				1.0	0.0							4.0	198.0	0.34414932684103405	4.0		3.0	4.0	3.0	5.0		part_1
316		4.0				1.0	0.0							4.0	0.0	0.3552660209206806	4.0		0.0	2.0	1.0	4.0		part_1
317		4.0				1.0	1.0							2.0	30.0	0.30094596176240884	2.0		1.0	1.0	5.0	2.0		part_1
318		4.0				1.0	1.0							4.0	62.0	0.3227893385255811	4.0		1.0	1.0	5.0	2.0		part_1
319		4.0				1.0	0.0							4.0	209.0	0.3585367786035931	4.0		3.0	4.0	3.0	5.0		part_1
320		4.0				1.0	0.0							1.0	423.0	0.27900503060391196	1.0		4.0	8.0	4.0	3.0		part_1
321		4.0				2.0	0.0							3.0	76.0	0.2590768017626033	3.0		2.0	6.0	2.0	8.0		part_1
322		4.0				1.0	1.0							3.0	212.0	0.2805367265336827	3.0		3.0	7.0	7.0	6.0		part_1
323		4.0				1.0	0.0							1.0	197.0	0.3508482338411341	1.0		3.0	4.0	3.0	5.0		part_1
324		4.0				1.0	1.0							4.0	0.0	0.3502289234456839	4.0		0.0	1.0	5.0	2.0		part_1
325		4.0				1.0	0.0							4.0	194.0	0.3047581694454493	4.0		3.0	4.0	3.0	5.0		part_1
326		4.0				1.0	0.0							3.0	181.0	0.3624807425248946	3.0		3.0	4.0	3.0	5.0		part_1
327		4.0				1.0	1.0							4.0	376.0	0.3511949798412388	4.0		4.0	3.0	8.0	7.0		part_1
328		4.0				1.0	1.0							4.0	398.0	0.3738174655254625	4.0		4.0	3.0	8.0	7.0		part_1
329		4.0				1.0	0.0							3.0	217.0	0.3525496493666651	3.0		3.0	4.0	3.0	5.0		part_1
330		4.0				1.0	1.0							1.0	180.0	0.3865686270000879	1.0		3.0	7.0	7.0	6.0		part_1
331		4.0				1.0	1.0							4.0	66.0	0.33220550576243113	4.0		1.0	1.0	5.0	2.0		part_1
332		4.0				1.0	1.0							3.0	0.0	0.35453824176147464	3.0		0.0	1.0	5.0	2.0		part_1
333		4.0				1.0	0.0							4.0	0.0	0.33263067136613245	4.0		0.0	6.0	2.0	8.0		part_1
334		4.0				1.0	0.0							1.0	46.0	0.3330274138415916	1.0		1.0	2.0	1.0	4.0		part_1
335		4.0				1.0	1.0							3.0	390.0	0.2989185585247469	3.0		4.0	3.0	8.0	7.0		part_1
336		4.0				1.0	1.0							4.0	27.0	0.3682850615250573	4.0		1.0	1.0	5.0	2.0		part_1
337		4.0				1.0	1.0							3.0	0.0	0.3354434846842196	3.0		0.0	3.0	8.0	7.0		part_1
338		4.0				1.0	0.0							4.0	117.0	0.3694361427615149	4.0		2.0	6.0	2.0	8.0		part_1
339		4.0				1.0	1.0							1.0	61.0	0.3581454804452733	1.0		1.0	1.0	5.0	2.0		part_1
340		4.0				1.0	1.0							2.0	43.0	0.3373968387622881	2.0		1.0	1.0	5.0	2.0		part_1
341		4.0				1.0	0.0							2.0	83.0	0.3823782374956864	2.0		2.0	6.0	2.0	8.0		part_1
342		4.0				1.0	1.0							3.0	76.0	0.4154319086837859	3.0		2.0	5.0	6.0	1.0		part_1
343		4.0				1.0	0.0							1.0	46.0	0.3939633367617717	1.0		1.0	2.0	1.0	4.0		part_1
344		4.0				1.0	1.0							3.0	70.0	0.34913300160405925	3.0		1.0	1.0	5.0	2.0		part_1
345		4.0				1.0	1.0							2.0	0.0	0.3292592614952809	2.0		0.0	7.0	7.0	6.0		part_1
346		4.0				1.0	1.0							4.0	208.0	0.3842639865788442	4.0		3.0	7.0	7.0	6.0		part_1
347		4.0				1.0	0.0							4.0	391.0	0.3858514795256269	4.0		4.0	8.0	4.0	3.0		part_1
348		4.0				1.0	0.0							1.0	387.0	0.3411562946048434	1.0		4.0	8.0	4.0	3.0		part_1
349		4.0				1.0	0.0							3.0	92.0	0.3750455025256088	3.0		2.0	6.0	2.0	8.0		part_1
350		4.0				1.0	1.0							1.0	397.0	0.4213826735249313	1.0		4.0	3.0	8.0	7.0		part_1
351		4.0				1.0	0.0							3.0	216.0	0.3637862614459664	3.0		3.0	4.0	3.0	5.0		part_1
352		4.0				1.0	1.0							4.0	76.0	0.3540058966837023	4.0		2.0	5.0	6.0	1.0		part_1
353		4.0				1.0	0.0							3.0	125.0	0.400267220366004	3.0		2.0	6.0	2.0	8.0		part_1
354		4.0				1.0	0.0							4.0	100.0	0.40033524252521596	4.0		2.0	6.0	2.0	8.0		part_1
355		4.0				1.0	1.0							4.0	104.0	0.31149749560427153	4.0		2.0	5.0	6.0	1.0		part_1
356		4.0				1.0	0.0							2.0	198.0	0.3790968972871269	2.0		3.0	4.0	3.0	5.0		part_1
357		4.0				1.0	0.0							4.0	418.0	0.3465330438411911	4.0		4.0	8.0	4.0	3.0		part_1
358		4.0				1.0	0.0							3.0	382.0	0.4362551366839398	3.0		4.0	8.0	4.0	3.0		part_1
359		4.0				1.0	0.0							4.0	73.0	0.41340886652506015	4.0		1.0	2.0	1.0	4.0		part_1
360		4.0				1.0	1.0							1.0	198.0	0.3356750093662413	1.0		3.0	7.0	7.0	6.0		part_1
361		4.0				1.0	0.0							4.0	190.0	0.3256315695252852	4.0		3.0	4.0	3.0	5.0		part_1
362		4.0				1.0	0.0							4.0	88.0	0.32550067344618583	4.0		2.0	6.0	2.0	8.0		part_1
363		4.0				1.0	1.0							3.0	59.0	0.5070797665248392	3.0		1.0	1.0	5.0	2.0		part_1
364		4.0				1.0	0.0							4.0	42.0	0.42818439199982095	4.0		1.0	2.0	1.0	4.0		part_1
365		4.0				1.0	1.0							4.0	224.0	0.36248393544610735	4.0		3.0	7.0	7.0	6.0		part_1
366		4.0				1.0	1.0							1.0	418.0	0.351595218604416	1.0		4.0	3.0	8.0	7.0		part_1
367		4.0				1.0	0.0							2.0	403.0	0.3739701563663401	2.0		4.0	8.0	4.0	3.0		part_1
368		4.0				1.0	0.0							1.0	212.0	0.3400649406048615	1.0		3.0	4.0	3.0	5.0		part_1
369		4.0				1.0	1.0							2.0	83.0	0.3195526646049984	2.0		2.0	5.0	6.0	1.0		part_1
370		4.0				1.0	0.0							4.0	74.0	0.3314393099208246	4.0		1.0	2.0	1.0	4.0		part_1
371		4.0				1.0	0.0							3.0	0.0	0.36464380752568093	3.0		0.0	4.0	3.0	5.0		part_1
372		4.0				1.0	0.0							2.0	0.0	0.4002166028412829	2.0		0.0	8.0	4.0	3.0		part_1
373		4.0				1.0	1.0							1.0	98.0	0.3323231496833614	1.0		2.0	5.0	6.0	1.0		part_1
374		4.0				1.0	1.0							1.0	213.0	0.3552463158412138	1.0		3.0	7.0	7.0	6.0		part_1
375		4.0				1.0	1.0							2.0	73.0	0.3902420845242887	2.0		1.0	1.0	5.0	2.0		part_1
376		4.0				1.0	1.0							1.0	111.0	0.323414033604422	1.0		2.0	5.0	6.0	1.0		part_1
377		4.0				1.0	0.0							1.0	0.0	0.3224959736044184	1.0		0.0	2.0	1.0	4.0		part_1
378		4.0				1.0	0.0							1.0	76.0	0.28918913260440604	1.0		2.0	6.0	2.0	8.0		part_1
379		4.0				1.0	0.0							2.0	218.0	0.3918898255242311	2.0		3.0	4.0	3.0	5.0		part_1
380		4.0				1.0	1.0							3.0	381.0	0.3804836589997649	3.0		4.0	3.0	8.0	7.0		part_1
381		4.0				1.0	0.0							3.0	101.0	0.4257387957613901	3.0		2.0	6.0	2.0	8.0		part_1
382		4.0				1.0	0.0							2.0	0.0	0.3481154874452841	2.0		0.0	6.0	2.0	8.0		part_1
383		4.0				1.0	1.0							1.0	100.0	0.37062460860488505	1.0		2.0	5.0	6.0	1.0		part_1
384		4.0				1.0	0.0							2.0	114.0	0.2827201159207107	2.0		2.0	6.0	2.0	8.0		part_1
385		4.0				1.0	0.0							2.0	0.0	0.3047789467618713	2.0		0.0	4.0	3.0	5.0		part_1
386		4.0				1.0	1.0							4.0	0.0	0.3514935566836357	4.0		0.0	1.0	5.0	2.0		part_1
387		4.0				1.0	0.0							2.0	392.0	0.29453595360428153	2.0		4.0	8.0	4.0	3.0		part_1
388		4.0				1.0	0.0							3.0	411.0	0.3626030108416671	3.0		4.0	8.0	4.0	3.0		part_1
389		4.0				1.0	1.0							4.0	403.0	0.3739059073659519	4.0		4.0	3.0	8.0	7.0		part_1
390		4.0				1.0	1.0							3.0	99.0	0.4200614768415107	3.0		2.0	5.0	6.0	1.0		part_1
391		4.0				1.0	1.0							3.0	88.0	0.37506489636598417	3.0		2.0	5.0	6.0	1.0		part_1
392		4.0				1.0	0.0							3.0	199.0	0.36481804484174063	3.0		3.0	4.0	3.0	5.0		part_1
393		4.0				1.0	1.0							3.0	0.0	0.3438636715245593	3.0		0.0	3.0	8.0	7.0		part_1
394		4.0				1.0	1.0							2.0	0.0	0.2977914777620754	2.0		0.0	7.0	7.0	6.0		part_1
395		4.0				1.0	1.0							4.0	62.0	0.3553095629204108	4.0		1.0	1.0	5.0	2.0		part_1
396		4.0				1.0	0.0							3.0	0.0	0.3773805508417354	3.0		0.0	8.0	4.0	3.0		part_1
397		4.0				1.0	1.0							3.0	194.0	0.3439724457621196	3.0		3.0	7.0	7.0	6.0		part_1
398		4.0				1.0	0.0							3.0	91.0	0.30156470792098844	3.0		2.0	6.0	2.0	8.0		part_1
399		4.0				1.0	0.0							3.0	224.0	0.4461973657626004	3.0		3.0	4.0	3.0	5.0		part_1
0	1.0	1.0			250.0	0.0	0.0							5.0	0.0	0.4622874543965736	5.0	250.0	4.0	8.0	4.0	3.0	0.0	part_2
1	1.0	1.0			250.0	0.0	0.0							6.0	0.0	0.5192731366978478	6.0	250.0	2.0	6.0	2.0	8.0	0.0	part_2
2	1.0	1.0			250.0	0.0	0.0							5.0	0.0	0.4753668495823149	5.0	250.0	1.0	2.0	1.0	4.0	0.0	part_2
3	4.0	1.0			250.0	0.0	1.0							6.0	0.0	0.0	0.0	250.0	3.0	7.0	7.0	6.0	1.0	part_2
4	3.0	1.0			250.0	0.0	1.0							6.0	0.0	0.3429603476979537	6.0	300.0	4.0	3.0	8.0	7.0	1.0	part_2
5	1.0	1.0			250.0	0.0	0.0							6.0	0.0	0.4682664766978633	6.0	250.0	1.0	2.0	1.0	4.0	0.0	part_2
6	3.0	1.0			250.0	0.0	1.0							6.0	0.0	0.6491387953956291	6.0	250.0	1.0	1.0	5.0	2.0	1.0	part_2
7	1.0	1.0			250.0	0.0	0.0							6.0	0.0	0.5364372951871701	6.0	200.0	4.0	8.0	4.0	3.0	0.0	part_2
8	1.0	1.0			250.0	0.0	0.0							5.0	0.0	0.6846630865829866	5.0	200.0	3.0	4.0	3.0	5.0	0.0	part_2
9	1.0	1.0			250.0	0.0	0.0							5.0	0.0	0.7853014464899388	5.0	200.0	2.0	6.0	2.0	8.0	0.0	part_2
10	1.0	1.0			250.0	0.0	0.0							5.0	0.0	0.7068200391868231	5.0	200.0	1.0	2.0	1.0	4.0	0.0	part_2
11	1.0	1.0			250.0	0.0	0.0							6.0	0.0	0.8886186161871592	6.0	200.0	3.0	4.0	3.0	5.0	0.0	part_2
12	4.0	1.0			250.0	0.0	1.0							6.0	0.0	0.0	0.0	200.0	3.0	7.0	7.0	6.0	1.0	part_2
13	4.0	1.0			250.0	0.0	1.0							6.0	0.0	0.0	0.0	250.0	1.0	1.0	5.0	2.0	1.0	part_2
14	1.0	1.0			250.0	0.0	0.0							5.0	0.0	0.6549663124887957	5.0	300.0	4.0	8.0	4.0	3.0	0.0	part_2
15	1.0	1.0			250.0	0.0	0.0							6.0	0.0	0.6778155994888948	6.0	300.0	1.0	2.0	1.0	4.0	0.0	part_2
16	4.0	1.0			250.0	0.0	1.0							6.0	0.0	0.0	0.0	300.0	3.0	7.0	7.0	6.0	1.0	part_2
17	1.0	1.0			250.0	0.0	1.0							6.0	0.0	0.7237460906981141	6.0	350.0	1.0	1.0	5.0	2.0	0.0	part_2
18	1.0	1.0			250.0	0.0	0.0							6.0	0.0	0.8499343800003771	6.0	350.0	1.0	2.0	1.0	4.0	0.0	part_2
19	4.0	1.0			250.0	0.0	1.0							6.0	0.0	0.0	0.0	350.0	2.0	5.0	6.0	1.0	1.0	part_2
20	1.0	1.0			250.0	0.0	0.0							5.0	0.0	0.3901118325829884	5.0	400.0	3.0	4.0	3.0	5.0	0.0	part_2
21	4.0	1.0			250.0	0.0	1.0							6.0	0.0	0.0	0.0	400.0	1.0	1.0	5.0	2.0	1.0	part_2
22	1.0	1.0			250.0	0.0	0.0							5.0	0.0	0.3133909883954402	5.0	450.0	1.0	2.0	1.0	4.0	0.0	part_2
23	1.0	1.0			250.0	0.0	0.0							5.0	0.0	0.6160446793955998	5.0	450.0	1.0	2.0	1.0	4.0	0.0	part_2
24	1.0	1.0			250.0	0.0	0.0							6.0	0.0	0.7519726806976905	6.0	450.0	4.0	8.0	4.0	3.0	0.0	part_2
25	1.0	1.0			250.0	0.0	0.0							6.0	0.0	0.6308002741870951	6.0	450.0	1.0	2.0	1.0	4.0	0.0	part_2
26	4.0	1.0			250.0	0.0	1.0							6.0	0.0	0.0	0.0	450.0	3.0	7.0	7.0	6.0	1.0	part_2
27	3.0	1.0			250.0	0.0	1.0							6.0	0.0	0.6428602118849085	6.0	500.0	3.0	7.0	7.0	6.0	1.0	part_2
28	1.0	1.0			250.0	0.0	1.0							6.0	0.0	0.7572488046971557	6.0	450.0	1.0	1.0	5.0	2.0	0.0	part_2
29	1.0	1.0			250.0	0.0	0.0							6.0	0.0	0.8015485160003664	6.0	450.0	4.0	8.0	4.0	3.0	0.0	part_2
30	1.0	1.0			250.0	0.0	0.0							6.0	0.0	0.9048722821871706	6.0	450.0	4.0	8.0	4.0	3.0	0.0	part_2
31	1.0	1.0			250.0	0.0	0.0							5.0	0.0	0.5911893105831041	5.0	450.0	4.0	8.0	4.0	3.0	0.0	part_2
32	4.0	1.0			250.0	0.0	1.0							6.0	0.0	0.0	0.0	450.0	3.0	7.0	7.0	6.0	1.0	part_2
33	4.0	1.0			250.0	0.0	1.0							5.0	0.0	0.0	0.0	500.0	3.0	7.0	7.0	6.0	1.0	part_2
34	4.0	1.0			300.0	0.0	1.0							5.0	0.0	0.0	0.0	500.0	4.0	3.0	8.0	7.0	1.0	part_2
35	1.0	1.0			350.0	0.0	1.0							6.0	0.0	0.5831123177913469	6.0	500.0	2.0	5.0	6.0	1.0	0.0	part_2
36	1.0	2.0			350.0	0.0	0.0							6.0	0.0	0.6324341088857182	6.0	500.0	4.0	8.0	4.0	3.0	0.0	part_2
37	1.0	2.0			350.0	0.0	0.0							6.0	0.0	0.39771572930203547	6.0	500.0	3.0	4.0	3.0	5.0	0.0	part_2
38	3.0	2.0			350.0	0.0	1.0							6.0	0.0	0.3187696389068151	6.0	500.0	1.0	1.0	5.0	2.0	1.0	part_2
39	1.0	2.0			350.0	0.0	0.0							6.0	0.0	0.3984909143964615	6.0	450.0	1.0	2.0	1.0	4.0	0.0	part_2
40	1.0	2.0			350.0	0.0	1.0							6.0	0.0	0.27485226939552376	6.0	450.0	1.0	1.0	5.0	2.0	0.0	part_2
41	1.0	2.0			350.0	0.0	0.0							5.0	0.0	0.4442593726971609	5.0	450.0	1.0	2.0	1.0	4.0	0.0	part_2
42	3.0	2.0			350.0	0.0	1.0							5.0	0.0	0.3888912164893554	5.0	450.0	4.0	3.0	8.0	7.0	1.0	part_2
43	3.0	2.0			300.0	0.0	1.0							6.0	0.0	0.42514481318721664	6.0	450.0	1.0	1.0	5.0	2.0	1.0	part_2
44	1.0	2.0			300.0	0.0	0.0							5.0	0.0	0.4243746853017001	5.0	400.0	3.0	4.0	3.0	5.0	0.0	part_2
45	1.0	2.0			300.0	0.0	0.0							6.0	0.0	0.4821075653017033	6.0	400.0	1.0	2.0	1.0	4.0	0.0	part_2
46	1.0	2.0			300.0	0.0	0.0							6.0	0.0	0.4954692299061208	6.0	400.0	2.0	6.0	2.0	8.0	0.0	part_2
47	1.0	2.0			300.0	0.0	0.0							6.0	0.0	0.34786023879132694	6.0	400.0	2.0	6.0	2.0	8.0	0.0	part_2
48	1.0	2.0			300.0	0.0	0.0							5.0	0.0	0.2710797333020309	5.0	400.0	2.0	6.0	2.0	8.0	0.0	part_2
49	1.0	2.0			300.0	0.0	0.0							6.0	0.0	0.6321682489997329	6.0	400.0	3.0	4.0	3.0	5.0	0.0	part_2
50	1.0	2.0			300.0	0.0	0.0							6.0	0.0	0.3284273873023267	6.0	400.0	2.0	6.0	2.0	8.0	0.0	part_2
51	3.0	2.0			300.0	0.0	1.0							6.0	0.0	0.3757466499992006	6.0	400.0	4.0	3.0	8.0	7.0	1.0	part_2
52	4.0	2.0			300.0	0.0	1.0							6.0	0.0	0.0	0.0	350.0	2.0	5.0	6.0	1.0	1.0	part_2
53	1.0	2.0			300.0	0.0	0.0							6.0	0.0	0.6236427163948974	6.0	400.0	2.0	6.0	2.0	8.0	0.0	part_2
54	3.0	2.0			300.0	0.0	1.0							6.0	0.0	0.3554987464885926	6.0	400.0	4.0	3.0	8.0	7.0	1.0	part_2
55	1.0	2.0			300.0	0.0	0.0							5.0	0.0	0.6252613770002426	5.0	350.0	1.0	2.0	1.0	4.0	0.0	part_2
56	1.0	2.0			300.0	0.0	0.0							5.0	0.0	0.35522490669791296	5.0	350.0	3.0	4.0	3.0	5.0	0.0	part_2
57	3.0	2.0			300.0	0.0	1.0							5.0	0.0	0.35742613839647674	5.0	350.0	1.0	1.0	5.0	2.0	1.0	part_2
58	3.0	2.0			250.0	0.0	1.0							6.0	0.0	0.4366585273965029	6.0	350.0	4.0	3.0	8.0	7.0	1.0	part_2
59	1.0	2.0			250.0	0.0	0.0							6.0	0.0	0.5502158063018214	6.0	300.0	3.0	4.0	3.0	5.0	0.0	part_2
60	4.0	2.0			250.0	0.0	1.0							5.0	0.0	0.0	0.0	300.0	4.0	3.0	8.0	7.0	1.0	part_2
61	1.0	2.0			300.0	0.0	0.0							5.0	0.0	0.4946543364894751	5.0	300.0	1.0	2.0	1.0	4.0	0.0	part_2
62	1.0	2.0			300.0	0.0	1.0							6.0	0.0	0.5973436408849011	6.0	300.0	3.0	7.0	7.0	6.0	0.0	part_2
63	1.0	2.0			300.0	0.0	0.0							6.0	0.0	0.6102200249060843	6.0	300.0	4.0	8.0	4.0	3.0	0.0	part_2
64	1.0	2.0			300.0	0.0	1.0							6.0	0.0	0.5195923413957644	6.0	300.0	2.0	5.0	6.0	1.0	0.0	part_2
65	3.0	2.0			300.0	0.0	1.0							5.0	0.0	0.5222175507915381	5.0	300.0	4.0	3.0	8.0	7.0	1.0	part_2
66	4.0	2.0			250.0	0.0	1.0							5.0	0.0	0.0	0.0	300.0	4.0	3.0	8.0	7.0	1.0	part_2
67	3.0	2.0			300.0	0.0	1.0							6.0	0.0	0.4328815597918947	6.0	300.0	2.0	5.0	6.0	1.0	1.0	part_2
68	1.0	2.0			300.0	0.0	0.0							5.0	0.0	0.5019779531876338	5.0	250.0	1.0	2.0	1.0	4.0	0.0	part_2
69	1.0	2.0			300.0	0.0	0.0							5.0	0.0	0.5012343968846835	5.0	250.0	1.0	2.0	1.0	4.0	0.0	part_2
70	1.0	2.0			300.0	0.0	0.0							6.0	0.0	0.6612769463017685	6.0	250.0	3.0	4.0	3.0	5.0	0.0	part_2
71	1.0	2.0			300.0	0.0	0.0							6.0	0.0	0.6058057853952049	6.0	250.0	1.0	2.0	1.0	4.0	0.0	part_2
72	1.0	3.0			300.0	0.0	0.0							5.0	0.0	0.5990575631867614	5.0	250.0	3.0	4.0	3.0	5.0	0.0	part_2
73	3.0	3.0			300.0	0.0	1.0							5.0	0.0	0.3300809327911338	5.0	250.0	1.0	1.0	5.0	2.0	1.0	part_2
74	1.0	3.0			250.0	0.0	0.0							6.0	0.0	0.3538839136981551	6.0	250.0	2.0	6.0	2.0	8.0	0.0	part_2
75	1.0	3.0			250.0	0.0	0.0							5.0	0.0	0.310062949884923	5.0	250.0	4.0	8.0	4.0	3.0	0.0	part_2
76	1.0	3.0			250.0	0.0	0.0							5.0	0.0	0.4113925454894343	5.0	250.0	3.0	4.0	3.0	5.0	0.0	part_2
77	4.0	3.0			250.0	0.0	1.0							5.0	0.0	0.0	0.0	250.0	3.0	7.0	7.0	6.0	1.0	part_2
78	1.0	3.0			300.0	0.0	0.0							6.0	0.0	0.4366628286043124	6.0	250.0	1.0	2.0	1.0	4.0	0.0	part_2
79	1.0	3.0			300.0	0.0	0.0							5.0	0.0	0.4695489549067133	5.0	250.0	1.0	2.0	1.0	4.0	0.0	part_2
80	1.0	3.0			300.0	0.0	0.0							5.0	0.0	0.4593554366983881	5.0	250.0	3.0	4.0	3.0	5.0	0.0	part_2
81	1.0	3.0			300.0	0.0	0.0							6.0	0.0	0.5270393721875735	6.0	250.0	4.0	8.0	4.0	3.0	0.0	part_2
82	1.0	3.0			300.0	0.0	0.0							5.0	0.0	0.3831724207911975	5.0	250.0	4.0	8.0	4.0	3.0	0.0	part_2
83	3.0	3.0			300.0	0.0	1.0							6.0	0.0	0.3601173930001096	6.0	250.0	2.0	5.0	6.0	1.0	1.0	part_2
84	4.0	3.0			300.0	0.0	1.0							6.0	0.0	0.0	0.0	200.0	2.0	5.0	6.0	1.0	1.0	part_2
85	1.0	3.0			300.0	0.0	1.0							5.0	0.0	0.29524256627973955	5.0	250.0	1.0	1.0	5.0	2.0	0.0	part_2
86	4.0	3.0			300.0	0.0	1.0							6.0	0.0	0.0	0.0	250.0	2.0	5.0	6.0	1.0	1.0	part_2
87	1.0	3.0			300.0	0.0	0.0							5.0	0.0	0.2859004181873388	5.0	300.0	2.0	6.0	2.0	8.0	0.0	part_2
88	4.0	3.0			300.0	0.0	1.0							5.0	0.0	0.0	0.0	300.0	2.0	5.0	6.0	1.0	1.0	part_2
89	4.0	3.0			350.0	0.0	1.0							6.0	0.0	0.0	0.0	300.0	3.0	7.0	7.0	6.0	1.0	part_2
90	1.0	3.0			350.0	0.0	0.0							5.0	0.0	0.38948042869742494	5.0	350.0	3.0	4.0	3.0	5.0	0.0	part_2
91	1.0	3.0			350.0	0.0	0.0							6.0	0.0	0.7610193394893939	6.0	350.0	4.0	8.0	4.0	3.0	0.0	part_2
92	3.0	3.0			350.0	0.0	1.0							5.0	0.0	0.482279204000406	5.0	350.0	1.0	1.0	5.0	2.0	1.0	part_2
93	3.0	3.0			300.0	0.0	1.0							6.0	0.0	0.5392024447910444	6.0	350.0	4.0	3.0	8.0	7.0	1.0	part_2
94	1.0	3.0			300.0	0.0	0.0							6.0	0.0	0.4816024754891259	6.0	300.0	4.0	8.0	4.0	3.0	0.0	part_2
95	4.0	3.0			300.0	0.0	1.0							5.0	0.0	0.0	0.0	300.0	2.0	5.0	6.0	1.0	1.0	part_2
96	1.0	3.0			350.0	0.0	0.0							6.0	0.0	0.495974358697822	6.0	300.0	4.0	8.0	4.0	3.0	0.0	part_2
97	1.0	3.0			350.0	0.0	0.0							5.0	0.0	0.8008319161872349	5.0	300.0	2.0	6.0	2.0	8.0	0.0	part_2
98	1.0	3.0			350.0	0.0	0.0							5.0	0.0	0.4634725707910548	5.0	300.0	2.0	6.0	2.0	8.0	0.0	part_2
99	1.0	3.0			350.0	0.0	0.0							5.0	0.0	0.5432644548845929	5.0	300.0	1.0	2.0	1.0	4.0	0.0	part_2
100	1.0	3.0			350.0	0.0	0.0							5.0	0.0	0.5881131510932391	5.0	300.0	4.0	8.0	4.0	3.0	0.0	part_2
101	1.0	3.0			350.0	0.0	1.0							5.0	0.0	0.3303641963957489	5.0	300.0	4.0	3.0	8.0	7.0	0.0	part_2
102	1.0	3.0			350.0	0.0	1.0							6.0	0.0	0.5787404263955978	6.0	300.0	4.0	3.0	8.0	7.0	0.0	part_2
103	3.0	3.0			350.0	0.0	1.0							5.0	0.0	0.4105394462803815	5.0	300.0	3.0	7.0	7.0	6.0	1.0	part_2
104	1.0	3.0			300.0	0.0	1.0							6.0	0.0	0.6267764124895621	6.0	300.0	1.0	1.0	5.0	2.0	0.0	part_2
105	4.0	3.0			300.0	0.0	1.0							5.0	0.0	0.0	0.0	300.0	1.0	1.0	5.0	2.0	1.0	part_2
106	1.0	3.0			350.0	0.0	0.0							5.0	0.0	0.5255617653956506	5.0	300.0	3.0	4.0	3.0	5.0	0.0	part_2
107	4.0	3.0			350.0	0.0	1.0							5.0	0.0	0.0	0.0	300.0	2.0	5.0	6.0	1.0	1.0	part_2
108	1.0	4.0			400.0	0.0	0.0							5.0	0.0	0.5752405881876257	5.0	300.0	4.0	8.0	4.0	3.0	0.0	part_2
109	1.0	4.0			400.0	0.0	0.0							6.0	0.0	0.4864500866979142	6.0	300.0	1.0	2.0	1.0	4.0	0.0	part_2
110	3.0	4.0			400.0	0.0	1.0							6.0	0.0	0.32913546409326955	6.0	300.0	1.0	1.0	5.0	2.0	1.0	part_2
111	4.0	4.0			400.0	0.0	1.0							6.0	0.0	0.0	0.0	250.0	3.0	7.0	7.0	6.0	1.0	part_2
112	1.0	4.0			400.0	0.0	0.0							6.0	0.0	0.4102880038844887	6.0	300.0	2.0	6.0	2.0	8.0	0.0	part_2
113	3.0	4.0			400.0	0.0	1.0							6.0	0.0	0.3431156271872169	6.0	300.0	2.0	5.0	6.0	1.0	1.0	part_2
114	4.0	4.0			400.0	0.0	1.0							6.0	0.0	0.0	0.0	250.0	2.0	5.0	6.0	1.0	1.0	part_2
115	1.0	4.0			400.0	0.0	0.0							6.0	0.0	0.3681045046978397	6.0	300.0	1.0	2.0	1.0	4.0	0.0	part_2
116	3.0	4.0			400.0	0.0	1.0							5.0	0.0	0.4923816760929185	5.0	300.0	1.0	1.0	5.0	2.0	1.0	part_2
117	1.0	4.0			350.0	0.0	0.0							6.0	0.0	0.5263721897918003	6.0	300.0	2.0	6.0	2.0	8.0	0.0	part_2
118	1.0	4.0			350.0	0.0	0.0							6.0	0.0	0.3916691303020343	6.0	300.0	4.0	8.0	4.0	3.0	0.0	part_2
119	1.0	4.0			350.0	0.0	0.0							5.0	0.0	0.6176104898850099	5.0	300.0	3.0	4.0	3.0	5.0	0.0	part_2
120	1.0	4.0			350.0	0.0	0.0							5.0	0.0	0.5620250358842895	5.0	300.0	2.0	6.0	2.0	8.0	0.0	part_2
121	1.0	4.0			350.0	0.0	0.0							6.0	0.0	0.5178460304896362	6.0	300.0	4.0	8.0	4.0	3.0	0.0	part_2
122	1.0	4.0			350.0	0.0	0.0							6.0	0.0	0.3724202027915453	6.0	300.0	3.0	4.0	3.0	5.0	0.0	part_2
123	4.0	4.0			350.0	0.0	1.0							5.0	0.0	0.0	0.0	300.0	3.0	7.0	7.0	6.0	1.0	part_2
124	1.0	4.0			400.0	0.0	0.0							5.0	0.0	0.6004426408853759	5.0	300.0	4.0	8.0	4.0	3.0	0.0	part_2
125	4.0	4.0			400.0	0.0	1.0							6.0	0.0	0.0	0.0	300.0	2.0	5.0	6.0	1.0	1.0	part_2
126	1.0	4.0			400.0	0.0	1.0							5.0	0.0	0.6343435401868192	5.0	350.0	3.0	7.0	7.0	6.0	0.0	part_2
127	3.0	4.0			400.0	0.0	1.0							6.0	0.0	0.4780963134890044	6.0	350.0	4.0	3.0	8.0	7.0	1.0	part_2
128	1.0	4.0			400.0	0.0	0.0							5.0	0.0	0.6269803491877609	5.0	300.0	4.0	8.0	4.0	3.0	0.0	part_2
129	1.0	4.0			400.0	0.0	0.0							5.0	0.0	0.5360001561866738	5.0	300.0	4.0	8.0	4.0	3.0	0.0	part_2
130	1.0	4.0			400.0	0.0	1.0							5.0	0.0	0.4585635447911045	5.0	300.0	4.0	3.0	8.0	7.0	0.0	part_2
131	1.0	4.0			400.0	0.0	1.0							5.0	0.0	0.7735625220939255	5.0	300.0	4.0	3.0	8.0	7.0	0.0	part_2
132	1.0	4.0			400.0	0.0	0.0							5.0	0.0	0.7085699323961308	5.0	300.0	2.0	6.0	2.0	8.0	0.0	part_2
133	4.0	4.0			400.0	0.0	1.0							5.0	0.0	0.0	0.0	300.0	4.0	3.0	8.0	7.0	1.0	part_2
134	1.0	4.0			450.0	0.0	0.0							6.0	0.0	0.5740499753956101	6.0	300.0	2.0	6.0	2.0	8.0	0.0	part_2
135	4.0	4.0			450.0	0.0	1.0							6.0	0.0	0.0	0.0	300.0	2.0	5.0	6.0	1.0	1.0	part_2
136	1.0	4.0			450.0	0.0	1.0							5.0	0.0	0.7233110408851644	5.0	350.0	2.0	5.0	6.0	1.0	0.0	part_2
137	1.0	4.0			450.0	0.0	0.0							5.0	0.0	0.6222868098848267	5.0	350.0	2.0	6.0	2.0	8.0	0.0	part_2
138	1.0	4.0			450.0	0.0	0.0							6.0	0.0	0.6119017004884881	6.0	350.0	3.0	4.0	3.0	5.0	0.0	part_2
139	3.0	4.0			450.0	0.0	1.0							5.0	0.0	0.55534200839611	5.0	350.0	4.0	3.0	8.0	7.0	1.0	part_2
140	1.0	4.0			400.0	0.0	0.0							6.0	0.0	0.5901426740938405	6.0	350.0	3.0	4.0	3.0	5.0	0.0	part_2
141	1.0	4.0			400.0	0.0	0.0							5.0	0.0	0.5244248685830826	5.0	350.0	2.0	6.0	2.0	8.0	0.0	part_2
142	1.0	4.0			400.0	0.0	0.0							6.0	0.0	0.7281468010942262	6.0	350.0	3.0	4.0	3.0	5.0	0.0	part_2
143	1.0	4.0			400.0	0.0	0.0							5.0	0.0	0.8300107033956009	5.0	350.0	3.0	4.0	3.0	5.0	0.0	part_2
144	3.0	5.0			400.0	0.0	1.0							5.0	0.0	0.480975211790792	5.0	350.0	1.0	1.0	5.0	2.0	1.0	part_2
145	4.0	5.0			350.0	0.0	1.0							6.0	0.0	0.0	0.0	350.0	2.0	5.0	6.0	1.0	1.0	part_2
146	3.0	5.0			350.0	0.0	1.0							5.0	0.0	0.4588827215829952	5.0	400.0	2.0	5.0	6.0	1.0	1.0	part_2
147	1.0	5.0			300.0	0.0	0.0							5.0	0.0	0.4935925145828151	5.0	400.0	4.0	8.0	4.0	3.0	0.0	part_2
148	1.0	5.0			300.0	0.0	0.0							6.0	0.0	0.4850667632790646	6.0	400.0	2.0	6.0	2.0	8.0	0.0	part_2
149	3.0	5.0			300.0	0.0	1.0							6.0	0.0	0.5525873753958876	6.0	400.0	1.0	1.0	5.0	2.0	1.0	part_2
150	4.0	5.0			300.0	0.0	1.0							6.0	0.0	0.0	0.0	350.0	3.0	7.0	7.0	6.0	1.0	part_2
151	4.0	5.0			300.0	0.0	1.0							5.0	0.0	0.0	0.0	400.0	3.0	7.0	7.0	6.0	1.0	part_2
152	1.0	5.0			350.0	0.0	0.0							6.0	0.0	0.38655329239554703	6.0	400.0	2.0	6.0	2.0	8.0	0.0	part_2
153	4.0	5.0			350.0	0.0	1.0							6.0	0.0	0.0	0.0	400.0	4.0	3.0	8.0	7.0	1.0	part_2
154	1.0	5.0			350.0	0.0	0.0							6.0	0.0	0.5674117353955808	6.0	450.0	4.0	8.0	4.0	3.0	0.0	part_2
155	1.0	5.0			350.0	0.0	0.0							6.0	0.0	0.6594327426983	6.0	450.0	4.0	8.0	4.0	3.0	0.0	part_2
156	1.0	5.0			350.0	0.0	0.0							5.0	0.0	0.6471661495834269	5.0	450.0	1.0	2.0	1.0	4.0	0.0	part_2
157	4.0	5.0			350.0	0.0	1.0							5.0	0.0	0.0	0.0	450.0	2.0	5.0	6.0	1.0	1.0	part_2
158	1.0	5.0			400.0	0.0	1.0							6.0	0.0	0.5250278568846625	6.0	450.0	4.0	3.0	8.0	7.0	0.0	part_2
159	1.0	5.0			400.0	0.0	0.0							5.0	0.0	0.6062654086981638	5.0	450.0	2.0	6.0	2.0	8.0	0.0	part_2
160	1.0	5.0			400.0	0.0	0.0							5.0	0.0	0.5948057216974121	5.0	450.0	3.0	4.0	3.0	5.0	0.0	part_2
161	1.0	5.0			400.0	0.0	0.0							6.0	0.0	0.6405141969999022	6.0	450.0	3.0	4.0	3.0	5.0	0.0	part_2
162	1.0	5.0			400.0	0.0	0.0							5.0	0.0	0.5746830235830203	5.0	450.0	2.0	6.0	2.0	8.0	0.0	part_2
163	4.0	5.0			400.0	0.0	1.0							5.0	0.0	0.0	0.0	450.0	1.0	1.0	5.0	2.0	1.0	part_2
164	1.0	5.0			450.0	0.0	0.0							6.0	0.0	0.6086466426977495	6.0	450.0	1.0	2.0	1.0	4.0	0.0	part_2
165	1.0	5.0			450.0	0.0	0.0							5.0	0.0	0.7222496284894078	5.0	450.0	4.0	8.0	4.0	3.0	0.0	part_2
166	1.0	5.0			450.0	0.0	1.0							5.0	0.0	0.7347360699995988	5.0	450.0	2.0	5.0	6.0	1.0	0.0	part_2
167	1.0	5.0			450.0	0.0	0.0							5.0	0.0	0.6128550694893421	5.0	450.0	2.0	6.0	2.0	8.0	0.0	part_2
168	1.0	5.0			450.0	0.0	1.0							5.0	0.0	0.6021873956979107	5.0	450.0	2.0	5.0	6.0	1.0	0.0	part_2
169	3.0	5.0			450.0	0.0	1.0							6.0	0.0	0.4439038840937428	6.0	450.0	3.0	7.0	7.0	6.0	1.0	part_2
170	4.0	5.0			450.0	0.0	1.0							6.0	0.0	0.0	0.0	400.0	3.0	7.0	7.0	6.0	1.0	part_2
171	1.0	5.0			450.0	0.0	0.0							6.0	0.0	0.6385903273021539	6.0	450.0	4.0	8.0	4.0	3.0	0.0	part_2
172	1.0	5.0			450.0	0.0	0.0							5.0	0.0	0.514462521094174	5.0	450.0	1.0	2.0	1.0	4.0	0.0	part_2
173	1.0	5.0			450.0	0.0	0.0							6.0	0.0	0.6278566120936375	6.0	450.0	1.0	2.0	1.0	4.0	0.0	part_2
174	1.0	5.0			450.0	0.0	0.0							6.0	0.0	0.5962129668851048	6.0	450.0	3.0	4.0	3.0	5.0	0.0	part_2
175	4.0	5.0			450.0	0.0	1.0							5.0	0.0	0.0	0.0	450.0	3.0	7.0	7.0	6.0	1.0	part_2
176	1.0	5.0			500.0	0.0	1.0							5.0	0.0	0.7199830190929788	5.0	450.0	2.0	5.0	6.0	1.0	0.0	part_2
177	1.0	5.0			500.0	0.0	0.0							5.0	0.0	0.5979371486982927	5.0	450.0	3.0	4.0	3.0	5.0	0.0	part_2
178	1.0	5.0			500.0	0.0	1.0							6.0	0.0	0.744110030000229	6.0	450.0	2.0	5.0	6.0	1.0	0.0	part_2
179	1.0	5.0			500.0	0.0	0.0							6.0	0.0	0.7357916311866575	6.0	450.0	1.0	2.0	1.0	4.0	0.0	part_2
180	3.0	6.0			500.0	0.0	1.0							5.0	0.0	0.6091948483954184	5.0	450.0	1.0	1.0	5.0	2.0	1.0	part_2
181	3.0	6.0			450.0	0.0	1.0							5.0	0.0	0.5197211923023133	5.0	450.0	1.0	1.0	5.0	2.0	1.0	part_2
182	4.0	6.0			400.0	0.0	1.0							5.0	0.0	0.0	0.0	450.0	4.0	3.0	8.0	7.0	1.0	part_2
183	1.0	6.0			450.0	0.0	0.0							5.0	0.0	0.4316495040930022	5.0	450.0	3.0	4.0	3.0	5.0	0.0	part_2
184	3.0	6.0			450.0	0.0	1.0							5.0	0.0	0.5003112203958153	5.0	450.0	2.0	5.0	6.0	1.0	1.0	part_2
185	1.0	6.0			400.0	0.0	0.0							6.0	0.0	0.4786018931872604	6.0	450.0	3.0	4.0	3.0	5.0	0.0	part_2
186	1.0	6.0			400.0	0.0	1.0							6.0	0.0	0.5694464511871047	6.0	450.0	1.0	1.0	5.0	2.0	0.0	part_2
187	1.0	6.0			400.0	0.0	0.0							5.0	0.0	0.40219218958282	5.0	450.0	3.0	4.0	3.0	5.0	0.0	part_2
188	1.0	6.0			400.0	0.0	1.0							5.0	0.0	0.6043686043949492	5.0	450.0	3.0	7.0	7.0	6.0	0.0	part_2
189	4.0	6.0			400.0	0.0	1.0							6.0	0.0	0.0	0.0	450.0	1.0	1.0	5.0	2.0	1.0	part_2
190	1.0	6.0			400.0	0.0	1.0							5.0	0.0	0.5048456918848387	5.0	500.0	1.0	1.0	5.0	2.0	0.0	part_2
191	3.0	6.0			400.0	0.0	1.0							6.0	0.0	0.6860961767915796	6.0	500.0	3.0	7.0	7.0	6.0	1.0	part_2
192	1.0	6.0			400.0	0.0	0.0							6.0	0.0	0.6413995253951725	6.0	450.0	2.0	6.0	2.0	8.0	0.0	part_2
193	3.0	6.0			400.0	0.0	1.0							5.0	0.0	0.6324424091872061	5.0	450.0	3.0	7.0	7.0	6.0	1.0	part_2
194	4.0	6.0			350.0	0.0	1.0							5.0	0.0	0.0	0.0	450.0	4.0	3.0	8.0	7.0	1.0	part_2
195	1.0	6.0			400.0	0.0	0.0							5.0	0.0	0.7119643166979586	5.0	450.0	1.0	2.0	1.0	4.0	0.0	part_2
196	4.0	6.0			400.0	0.0	1.0							5.0	0.0	0.0	0.0	450.0	4.0	3.0	8.0	7.0	1.0	part_2
197	1.0	6.0			450.0	0.0	0.0							5.0	0.0	0.8818717619060408	5.0	450.0	2.0	6.0	2.0	8.0	0.0	part_2
198	4.0	6.0			450.0	0.0	1.0							6.0	0.0	0.0	0.0	450.0	2.0	5.0	6.0	1.0	1.0	part_2
199	1.0	6.0			450.0	0.0	0.0							5.0	0.0	0.6151140271877011	5.0	500.0	1.0	2.0	1.0	4.0	0.0	part_2
200	1.0	6.0			450.0	0.0	0.0							5.0	0.0	0.5701287458850857	5.0	500.0	4.0	8.0	4.0	3.0	0.0	part_2
201	3.0	6.0			450.0	0.0	1.0							5.0	0.0	0.5831800769992697	5.0	500.0	1.0	1.0	5.0	2.0	1.0	part_2
202	4.0	6.0			400.0	0.0	1.0							5.0	0.0	0.0	0.0	500.0	2.0	5.0	6.0	1.0	1.0	part_2
203	4.0	6.0			450.0	0.0	1.0							5.0	0.0	0.0	0.0	500.0	3.0	7.0	7.0	6.0	1.0	part_2
204	1.0	6.0			500.0	0.0	0.0							5.0	0.0	0.4280351838842762	5.0	500.0	3.0	4.0	3.0	5.0	0.0	part_2
205	4.0	6.0			500.0	0.0	1.0							6.0	0.0	0.0	0.0	500.0	2.0	5.0	6.0	1.0	1.0	part_2
206	3.0	6.0			500.0	0.0	1.0							6.0	0.0	0.6417406735827171	6.0	550.0	1.0	1.0	5.0	2.0	1.0	part_2
207	4.0	6.0			500.0	0.0	1.0							5.0	0.0	0.0	0.0	500.0	2.0	5.0	6.0	1.0	1.0	part_2
208	1.0	6.0			550.0	0.0	0.0							6.0	0.0	0.4424475033956696	6.0	500.0	1.0	2.0	1.0	4.0	0.0	part_2
209	4.0	6.0			550.0	0.0	1.0							6.0	0.0	0.0	0.0	500.0	1.0	1.0	5.0	2.0	1.0	part_2
210	3.0	6.0			550.0	0.0	1.0							6.0	0.0	0.6680498496980363	6.0	550.0	2.0	5.0	6.0	1.0	1.0	part_2
211	1.0	6.0			550.0	0.0	0.0							6.0	0.0	0.8716293526040317	6.0	500.0	1.0	2.0	1.0	4.0	0.0	part_2
212	1.0	6.0			550.0	0.0	0.0							6.0	0.0	0.7593707484893457	6.0	500.0	1.0	2.0	1.0	4.0	0.0	part_2
213	4.0	6.0			550.0	0.0	1.0							5.0	0.0	0.0	0.0	500.0	1.0	1.0	5.0	2.0	1.0	part_2
214	1.0	6.0			600.0	0.0	0.0							5.0	0.0	0.8398228395826663	5.0	500.0	4.0	8.0	4.0	3.0	0.0	part_2
215	1.0	6.0			600.0	0.0	0.0							6.0	0.0	0.8860149204892878	6.0	500.0	4.0	8.0	4.0	3.0	0.0	part_2
216	1.0	7.0			600.0	0.0	0.0							5.0	0.0	0.6454106680930636	5.0	500.0	2.0	6.0	2.0	8.0	0.0	part_2
217	3.0	7.0			600.0	0.0	1.0							6.0	0.0	0.6349708691868727	6.0	500.0	2.0	5.0	6.0	1.0	1.0	part_2
218	4.0	7.0			600.0	0.0	1.0							6.0	0.0	0.0	0.0	450.0	4.0	3.0	8.0	7.0	1.0	part_2
219	1.0	7.0			600.0	0.0	0.0							5.0	0.0	0.5344752407918351	5.0	500.0	2.0	6.0	2.0	8.0	0.0	part_2
220	3.0	7.0			600.0	0.0	1.0							6.0	0.0	0.6710745733953445	6.0	500.0	3.0	7.0	7.0	6.0	1.0	part_2
221	1.0	7.0			600.0	0.0	1.0							5.0	0.0	0.7630711878846341	5.0	450.0	1.0	1.0	5.0	2.0	0.0	part_2
222	4.0	7.0			600.0	0.0	1.0							6.0	0.0	0.0	0.0	450.0	3.0	7.0	7.0	6.0	1.0	part_2
223	1.0	7.0			600.0	0.0	0.0							6.0	0.0	0.6293714921866922	6.0	500.0	2.0	6.0	2.0	8.0	0.0	part_2
224	1.0	7.0			600.0	0.0	1.0							5.0	0.0	0.9779656747914488	5.0	500.0	1.0	1.0	5.0	2.0	0.0	part_2
225	3.0	7.0			600.0	0.0	1.0							5.0	0.0	0.7892548111867654	5.0	500.0	3.0	7.0	7.0	6.0	1.0	part_2
226	4.0	7.0			550.0	0.0	1.0							5.0	0.0	0.0	0.0	500.0	2.0	5.0	6.0	1.0	1.0	part_2
227	4.0	7.0			600.0	0.0	1.0							5.0	0.0	0.0	0.0	500.0	1.0	1.0	5.0	2.0	1.0	part_2
228	1.0	7.0			650.0	0.0	1.0							5.0	0.0	0.4976627743963036	5.0	500.0	3.0	7.0	7.0	6.0	0.0	part_2
229	1.0	7.0			650.0	0.0	0.0							6.0	0.0	0.7247651742791277	6.0	500.0	1.0	2.0	1.0	4.0	0.0	part_2
230	3.0	7.0			650.0	0.0	1.0							5.0	0.0	0.6227459115825695	5.0	500.0	1.0	1.0	5.0	2.0	1.0	part_2
231	1.0	7.0			600.0	0.0	0.0							6.0	0.0	0.7476998848851508	6.0	500.0	3.0	4.0	3.0	5.0	0.0	part_2
232	3.0	7.0			600.0	0.0	1.0							5.0	0.0	0.7706620128847135	5.0	500.0	2.0	5.0	6.0	1.0	1.0	part_2
233	1.0	7.0			550.0	0.0	0.0							5.0	0.0	0.8405981954892923	5.0	500.0	1.0	2.0	1.0	4.0	0.0	part_2
234	4.0	7.0			550.0	0.0	1.0							5.0	0.0	0.0	0.0	500.0	1.0	1.0	5.0	2.0	1.0	part_2
235	1.0	7.0			600.0	0.0	0.0							6.0	0.0	0.9305782283017834	6.0	500.0	4.0	8.0	4.0	3.0	0.0	part_2
236	4.0	7.0			600.0	0.0	1.0							6.0	0.0	0.0	0.0	500.0	4.0	3.0	8.0	7.0	1.0	part_2
237	1.0	7.0			600.0	0.0	1.0							5.0	0.0	0.6398356984891507	5.0	550.0	3.0	7.0	7.0	6.0	0.0	part_2
238	4.0	7.0			600.0	0.0	1.0							6.0	0.0	0.0	0.0	550.0	1.0	1.0	5.0	2.0	1.0	part_2
239	1.0	7.0			600.0	0.0	0.0							6.0	0.0	0.3043361274894778	6.0	600.0	3.0	4.0	3.0	5.0	0.0	part_2
240	1.0	7.0			600.0	0.0	0.0							5.0	0.0	0.630754689999776	5.0	600.0	4.0	8.0	4.0	3.0	0.0	part_2
241	1.0	7.0			600.0	0.0	0.0							5.0	0.0	0.666827656093119	5.0	600.0	2.0	6.0	2.0	8.0	0.0	part_2
242	1.0	7.0			600.0	0.0	0.0							6.0	0.0	0.8361688293953193	6.0	600.0	3.0	4.0	3.0	5.0	0.0	part_2
243	1.0	7.0			600.0	0.0	1.0							5.0	0.0	0.8475420593022136	5.0	600.0	2.0	5.0	6.0	1.0	0.0	part_2
244	1.0	7.0			600.0	0.0	0.0							5.0	0.0	0.7480254386973684	5.0	600.0	2.0	6.0	2.0	8.0	0.0	part_2
245	3.0	7.0			600.0	0.0	1.0							6.0	0.0	0.7814605680005116	6.0	600.0	3.0	7.0	7.0	6.0	1.0	part_2
246	3.0	7.0			600.0	0.0	1.0							6.0	0.0	0.6811722186985207	6.0	550.0	4.0	3.0	8.0	7.0	1.0	part_2
247	4.0	7.0			600.0	0.0	1.0							6.0	0.0	0.0	0.0	500.0	4.0	3.0	8.0	7.0	1.0	part_2
248	1.0	7.0			600.0	0.0	0.0							5.0	0.0	0.6370952901870623	5.0	550.0	2.0	6.0	2.0	8.0	0.0	part_2
249	4.0	7.0			600.0	0.0	1.0							5.0	0.0	0.0	0.0	550.0	2.0	5.0	6.0	1.0	1.0	part_2
250	4.0	7.0			650.0	0.0	1.0							6.0	0.0	0.0	0.0	550.0	4.0	3.0	8.0	7.0	1.0	part_2
251	1.0	7.0			650.0	0.0	0.0							5.0	0.0	0.7750267393957984	5.0	600.0	1.0	2.0	1.0	4.0	0.0	part_2
252	3.0	8.0			650.0	0.0	1.0							5.0	0.0	0.6794561579999936	5.0	600.0	3.0	7.0	7.0	6.0	1.0	part_2
253	1.0	8.0			600.0	0.0	1.0							6.0	0.0	0.7249532087907937	6.0	600.0	4.0	3.0	8.0	7.0	0.0	part_2
254	1.0	8.0			600.0	0.0	0.0							6.0	0.0	0.7486005153959923	6.0	600.0	2.0	6.0	2.0	8.0	0.0	part_2
255	1.0	8.0			600.0	0.0	0.0							6.0	0.0	0.6936553744890261	6.0	600.0	2.0	6.0	2.0	8.0	0.0	part_2
256	1.0	8.0			600.0	0.0	1.0							5.0	0.0	0.6597846267914065	5.0	600.0	3.0	7.0	7.0	6.0	0.0	part_2
257	1.0	8.0			600.0	0.0	0.0							6.0	0.0	0.6943385356980798	6.0	600.0	3.0	4.0	3.0	5.0	0.0	part_2
258	3.0	8.0			600.0	0.0	1.0							6.0	0.0	0.6607417881868969	6.0	600.0	3.0	7.0	7.0	6.0	1.0	part_2
259	1.0	8.0			600.0	0.0	0.0							6.0	0.0	0.694970875697436	6.0	550.0	3.0	4.0	3.0	5.0	0.0	part_2
260	1.0	8.0			600.0	0.0	0.0							5.0	0.0	0.7410226550937296	5.0	550.0	4.0	8.0	4.0	3.0	0.0	part_2
261	1.0	8.0			600.0	0.0	0.0							6.0	0.0	0.8446366656980899	6.0	550.0	3.0	4.0	3.0	5.0	0.0	part_2
262	1.0	8.0			600.0	0.0	0.0							5.0	0.0	0.7554636206978103	5.0	550.0	1.0	2.0	1.0	4.0	0.0	part_2
263	1.0	8.0			600.0	0.0	1.0							6.0	0.0	0.4858113063955898	6.0	550.0	4.0	3.0	8.0	7.0	0.0	part_2
264	1.0	8.0			600.0	0.0	0.0							5.0	0.0	0.5886009323021426	5.0	550.0	3.0	4.0	3.0	5.0	0.0	part_2
265	1.0	8.0			600.0	0.0	1.0							5.0	0.0	0.6660659491872138	5.0	550.0	4.0	3.0	8.0	7.0	0.0	part_2
266	3.0	8.0			600.0	0.0	1.0							5.0	0.0	0.5447197583962406	5.0	550.0	4.0	3.0	8.0	7.0	1.0	part_2
267	1.0	8.0			550.0	0.0	1.0							5.0	0.0	0.9492478740939988	5.0	550.0	3.0	7.0	7.0	6.0	0.0	part_2
268	1.0	8.0			550.0	0.0	1.0							5.0	0.0	0.7144530425830453	5.0	550.0	3.0	7.0	7.0	6.0	0.0	part_2
269	4.0	8.0			550.0	0.0	1.0							5.0	0.0	0.0	0.0	550.0	4.0	3.0	8.0	7.0	1.0	part_2
270	1.0	8.0			600.0	0.0	0.0							5.0	0.0	0.5023625628846276	5.0	550.0	4.0	8.0	4.0	3.0	0.0	part_2
271	1.0	8.0			600.0	0.0	0.0							6.0	0.0	0.491898242697971	6.0	550.0	2.0	6.0	2.0	8.0	0.0	part_2
272	1.0	8.0			600.0	0.0	0.0							5.0	0.0	0.4928022266976768	5.0	550.0	4.0	8.0	4.0	3.0	0.0	part_2
273	4.0	8.0			600.0	0.0	1.0							6.0	0.0	0.0	0.0	550.0	1.0	1.0	5.0	2.0	1.0	part_2
274	1.0	8.0			600.0	0.0	1.0							6.0	0.0	0.6407841731870576	6.0	600.0	4.0	3.0	8.0	7.0	0.0	part_2
275	3.0	8.0			600.0	0.0	1.0							5.0	0.0	0.5508511330926922	5.0	600.0	4.0	3.0	8.0	7.0	1.0	part_2
276	3.0	8.0			550.0	0.0	1.0							6.0	0.0	0.6537460625831955	6.0	600.0	4.0	3.0	8.0	7.0	1.0	part_2
277	1.0	8.0			550.0	0.0	1.0							5.0	0.0	0.8676232984898888	5.0	550.0	2.0	5.0	6.0	1.0	0.0	part_2
278	1.0	8.0			550.0	0.0	0.0							6.0	0.0	0.8349364678851998	6.0	550.0	4.0	8.0	4.0	3.0	0.0	part_2
279	4.0	8.0			550.0	0.0	1.0							5.0	0.0	0.0	0.0	550.0	3.0	7.0	7.0	6.0	1.0	part_2
280	1.0	8.0			600.0	0.0	0.0							6.0	0.0	0.6113164683965806	6.0	550.0	2.0	6.0	2.0	8.0	0.0	part_2
281	4.0	8.0			600.0	0.0	1.0							5.0	0.0	0.0	0.0	550.0	2.0	5.0	6.0	1.0	1.0	part_2
282	3.0	8.0			650.0	0.0	1.0							5.0	0.0	0.760335143582779	5.0	550.0	4.0	3.0	8.0	7.0	1.0	part_2
283	1.0	8.0			600.0	0.0	0.0							6.0	0.0	0.8169074105826439	6.0	550.0	1.0	2.0	1.0	4.0	0.0	part_2
284	4.0	8.0			600.0	0.0	1.0							6.0	0.0	0.0	0.0	550.0	1.0	1.0	5.0	2.0	1.0	part_2
285	1.0	8.0			600.0	0.0	0.0							5.0	0.0	0.615647938582697	5.0	600.0	3.0	4.0	3.0	5.0	0.0	part_2
286	1.0	8.0			600.0	0.0	0.0							6.0	0.0	0.6278421967908798	6.0	600.0	2.0	6.0	2.0	8.0	0.0	part_2
287	1.0	8.0			600.0	0.0	1.0							6.0	0.0	0.7865756030932971	6.0	600.0	3.0	7.0	7.0	6.0	0.0	part_2
0	0.0	1.0	147.0	3.0	0.0	1.0	1.0	294.0	98.0	49.0	147.0	196.0	245.0	7.0	0.0	2.687737878528424	4.0	0.0	2.0	5.0	6.0	1.0	0.0	part_3
1	0.0	1.0	220.0	5.0	0.0	2.0	1.0	88.0	220.0	264.0	176.0	132.0	44.0	7.0	0.0	0.9689127985875529	2.0	0.0	2.0	5.0	6.0	1.0	0.0	part_3
2	0.0	1.0	147.0	3.0	0.0	1.0	0.0	196.0	147.0	294.0	245.0	98.0	49.0	7.0	0.0	2.0710465677930188	2.0	0.0	2.0	6.0	2.0	8.0	0.0	part_3
3	0.0	1.0	170.0	5.0	0.0	1.0	0.0	102.0	68.0	136.0	34.0	170.0	204.0	7.0	0.0	3.0406175175294266	5.0	0.0	3.0	4.0	3.0	5.0	0.0	part_3
4	0.0	1.0	245.0	5.0	0.0	1.0	1.0	98.0	49.0	294.0	147.0	245.0	196.0	7.0	0.0	2.9281316202641388	5.0	0.0	3.0	7.0	7.0	6.0	0.0	part_3
5	0.0	1.0	132.0	3.0	0.0	1.0	1.0	44.0	132.0	220.0	88.0	176.0	264.0	7.0	0.0	1.9283610728516576	2.0	0.0	4.0	3.0	8.0	7.0	0.0	part_3
6	0.0	1.0	234.0	6.0	0.0	1.0	1.0	195.0	78.0	117.0	234.0	156.0	39.0	7.0	0.0	2.4817077915877235	4.0	0.0	2.0	5.0	6.0	1.0	0.0	part_3
7	0.0	1.0	220.0	5.0	0.0	1.0	0.0	264.0	132.0	220.0	44.0	176.0	88.0	7.0	0.0	2.393736926528618	3.0	0.0	3.0	4.0	3.0	5.0	0.0	part_3
8	0.0	1.0	270.0	5.0	0.0	1.0	1.0	216.0	270.0	54.0	162.0	324.0	108.0	7.0	0.0	3.1360195428515	2.0	0.0	3.0	7.0	7.0	6.0	0.0	part_3
9	0.0	1.0	195.0	5.0	0.0	1.0	1.0	78.0	39.0	195.0	234.0	156.0	117.0	7.0	0.0	2.236724541264266	3.0	0.0	1.0	1.0	5.0	2.0	0.0	part_3
10	0.0	1.0	270.0	5.0	0.0	1.0	0.0	216.0	108.0	270.0	54.0	324.0	162.0	7.0	0.0	1.9915271873233	3.0	0.0	3.0	4.0	3.0	5.0	0.0	part_3
11	0.0	1.0	204.0	6.0	0.0	1.0	1.0	136.0	68.0	102.0	204.0	34.0	170.0	7.0	0.0	1.6104334815290713	4.0	0.0	1.0	1.0	5.0	2.0	0.0	part_3
12	0.0	1.0	162.0	3.0	0.0	1.0	1.0	324.0	108.0	270.0	162.0	54.0	216.0	7.0	0.0	2.3973980362643488	4.0	0.0	1.0	1.0	5.0	2.0	0.0	part_3
13	0.0	1.0	147.0	3.0	0.0	1.0	0.0	294.0	98.0	49.0	245.0	147.0	196.0	7.0	0.0	2.1738716060590377	5.0	0.0	1.0	2.0	1.0	4.0	0.0	part_3
14	0.0	1.0	245.0	5.0	0.0	1.0	0.0	196.0	49.0	294.0	98.0	245.0	147.0	7.0	0.0	2.107248004264875	5.0	0.0	3.0	4.0	3.0	5.0	0.0	part_3
15	0.0	1.0	220.0	5.0	0.0	1.0	0.0	220.0	176.0	132.0	264.0	44.0	88.0	7.0	0.0	1.7482656617939938	1.0	0.0	1.0	2.0	1.0	4.0	0.0	part_3
16	0.0	1.0	196.0	4.0	0.0	1.0	1.0	196.0	49.0	294.0	147.0	98.0	245.0	7.0	0.0	1.9866062995879477	1.0	0.0	1.0	1.0	5.0	2.0	0.0	part_3
17	0.0	1.0	270.0	5.0	0.0	1.0	1.0	162.0	270.0	324.0	54.0	216.0	108.0	7.0	0.0	2.335317555116489	2.0	0.0	4.0	3.0	8.0	7.0	0.0	part_3
18	0.0	1.0	162.0	3.0	0.0	1.0	0.0	270.0	324.0	216.0	108.0	54.0	162.0	7.0	0.0	2.4376714590589468	6.0	0.0	1.0	2.0	1.0	4.0	0.0	part_3
19	0.0	1.0	234.0	6.0	0.0	1.0	1.0	156.0	117.0	234.0	195.0	78.0	39.0	7.0	0.0	2.460784842852263	3.0	0.0	3.0	7.0	7.0	6.0	0.0	part_3
20	0.0	2.0	147.0	3.0	0.0	1.0	1.0	245.0	147.0	294.0	98.0	196.0	49.0	7.0	0.0	1.740597117116522	2.0	0.0	4.0	3.0	8.0	7.0	0.0	part_3
21	0.0	2.0	245.0	5.0	0.0	1.0	1.0	245.0	294.0	147.0	196.0	49.0	98.0	7.0	0.0	1.4372075807932558	1.0	0.0	3.0	7.0	7.0	6.0	0.0	part_3
22	0.0	2.0	245.0	5.0	0.0	1.0	0.0	245.0	147.0	196.0	294.0	98.0	49.0	7.0	0.0	1.438559165587321	1.0	0.0	3.0	4.0	3.0	5.0	0.0	part_3
23	0.0	2.0	68.0	2.0	0.0	1.0	0.0	68.0	204.0	34.0	136.0	170.0	102.0	7.0	0.0	2.374664957587811	1.0	0.0	4.0	8.0	4.0	3.0	0.0	part_3
24	0.0	2.0	102.0	3.0	0.0	1.0	1.0	34.0	68.0	204.0	170.0	136.0	102.0	7.0	0.0	2.240963916116925	6.0	0.0	2.0	5.0	6.0	1.0	0.0	part_3
25	0.0	2.0	234.0	6.0	0.0	1.0	0.0	78.0	39.0	117.0	234.0	156.0	195.0	7.0	0.0	1.7012582873230713	4.0	0.0	3.0	4.0	3.0	5.0	0.0	part_3
26	0.0	2.0	88.0	2.0	0.0	1.0	0.0	44.0	88.0	220.0	176.0	132.0	264.0	7.0	0.0	1.7710529485293591	2.0	0.0	4.0	8.0	4.0	3.0	0.0	part_3
27	0.0	2.0	176.0	4.0	0.0	1.0	0.0	220.0	132.0	264.0	44.0	176.0	88.0	7.0	0.0	1.8506028610581782	5.0	0.0	2.0	6.0	2.0	8.0	0.0	part_3
28	0.0	2.0	147.0	3.0	0.0	1.0	1.0	98.0	49.0	147.0	294.0	196.0	245.0	7.0	0.0	1.9075697235293771	3.0	0.0	4.0	3.0	8.0	7.0	0.0	part_3
29	0.0	2.0	270.0	5.0	0.0	1.0	0.0	162.0	270.0	324.0	216.0	54.0	108.0	7.0	0.0	2.8635168097935093	2.0	0.0	1.0	2.0	1.0	4.0	0.0	part_3
30	0.0	2.0	204.0	6.0	0.0	1.0	0.0	170.0	34.0	204.0	102.0	136.0	68.0	7.0	0.0	1.9082884720583024	3.0	0.0	2.0	6.0	2.0	8.0	0.0	part_3
31	0.0	2.0	220.0	5.0	0.0	1.0	0.0	176.0	132.0	220.0	264.0	44.0	88.0	7.0	0.0	2.575144810263737	3.0	0.0	1.0	2.0	1.0	4.0	0.0	part_3
32	0.0	2.0	156.0	4.0	0.0	1.0	1.0	39.0	78.0	156.0	195.0	117.0	234.0	7.0	0.0	2.4958104851166354	3.0	0.0	4.0	3.0	8.0	7.0	0.0	part_3
33	0.0	2.0	176.0	4.0	0.0	1.0	1.0	220.0	176.0	264.0	88.0	44.0	132.0	7.0	0.0	2.1375508323235413	2.0	0.0	2.0	5.0	6.0	1.0	0.0	part_3
34	0.0	2.0	108.0	2.0	0.0	1.0	0.0	162.0	216.0	324.0	270.0	108.0	54.0	7.0	0.0	2.5335721453811857	5.0	0.0	4.0	8.0	4.0	3.0	0.0	part_3
35	0.0	2.0	176.0	4.0	0.0	1.0	1.0	176.0	220.0	88.0	44.0	132.0	264.0	7.0	0.0	4.481241863116337	1.0	0.0	3.0	7.0	7.0	6.0	0.0	part_3
36	0.0	2.0	196.0	4.0	0.0	1.0	1.0	98.0	196.0	147.0	49.0	245.0	294.0	7.0	0.0	2.8440544565291934	2.0	0.0	2.0	5.0	6.0	1.0	0.0	part_3
37	0.0	2.0	88.0	2.0	0.0	1.0	0.0	132.0	264.0	88.0	44.0	220.0	176.0	7.0	0.0	3.003551235323357	3.0	0.0	4.0	8.0	4.0	3.0	0.0	part_3
38	0.0	2.0	176.0	4.0	0.0	1.0	1.0	220.0	264.0	176.0	44.0	132.0	88.0	7.0	0.0	2.5545965625287863	3.0	0.0	1.0	1.0	5.0	2.0	0.0	part_3
39	0.0	2.0	216.0	4.0	0.0	1.0	0.0	54.0	270.0	216.0	162.0	108.0	324.0	7.0	0.0	2.5560515911165567	3.0	0.0	3.0	4.0	3.0	5.0	0.0	part_3
40	0.0	3.0	216.0	4.0	0.0	1.0	1.0	216.0	108.0	324.0	54.0	162.0	270.0	7.0	0.0	1.5646063801159469	1.0	0.0	2.0	5.0	6.0	1.0	0.0	part_3
41	0.0	3.0	195.0	5.0	0.0	1.0	0.0	117.0	234.0	195.0	39.0	156.0	78.0	7.0	0.0	1.5432935843236921	3.0	0.0	2.0	6.0	2.0	8.0	0.0	part_3
42	0.0	3.0	204.0	6.0	0.0	1.0	1.0	102.0	204.0	136.0	170.0	34.0	68.0	7.0	0.0	3.1756756971162767	2.0	0.0	3.0	7.0	7.0	6.0	0.0	part_3
43	0.0	3.0	102.0	3.0	0.0	1.0	0.0	170.0	68.0	102.0	136.0	204.0	34.0	7.0	0.0	1.9841807190587133	3.0	0.0	4.0	8.0	4.0	3.0	0.0	part_3
44	0.0	3.0	220.0	5.0	0.0	1.0	0.0	44.0	88.0	220.0	176.0	264.0	132.0	7.0	0.0	1.4224947383227118	3.0	0.0	3.0	4.0	3.0	5.0	0.0	part_3
45	0.0	3.0	156.0	4.0	0.0	1.0	0.0	78.0	195.0	39.0	156.0	117.0	234.0	7.0	0.0	3.011575301793528	4.0	0.0	1.0	2.0	1.0	4.0	0.0	part_3
46	0.0	3.0	216.0	4.0	0.0	1.0	1.0	54.0	216.0	162.0	270.0	324.0	108.0	7.0	0.0	1.7530253408522185	2.0	0.0	2.0	5.0	6.0	1.0	0.0	part_3
47	0.0	3.0	108.0	2.0	0.0	1.0	0.0	162.0	270.0	216.0	54.0	108.0	324.0	7.0	0.0	2.2363277505291994	5.0	0.0	4.0	8.0	4.0	3.0	0.0	part_3
48	0.0	3.0	204.0	6.0	0.0	1.0	0.0	34.0	102.0	204.0	68.0	136.0	170.0	7.0	0.0	1.258396218323469	3.0	0.0	2.0	6.0	2.0	8.0	0.0	part_3
49	0.0	3.0	204.0	6.0	0.0	1.0	1.0	204.0	34.0	136.0	68.0	170.0	102.0	7.0	0.0	1.9121243455883812	1.0	0.0	2.0	5.0	6.0	1.0	0.0	part_3
50	0.0	3.0	117.0	3.0	0.0	1.0	0.0	195.0	156.0	234.0	39.0	117.0	78.0	7.0	0.0	1.8912338675290807	5.0	0.0	4.0	8.0	4.0	3.0	0.0	part_3
51	0.0	3.0	98.0	2.0	0.0	1.0	0.0	294.0	98.0	49.0	196.0	147.0	245.0	7.0	0.0	1.6445680943234038	2.0	0.0	4.0	8.0	4.0	3.0	0.0	part_3
52	0.0	3.0	136.0	4.0	0.0	1.0	0.0	102.0	34.0	170.0	136.0	68.0	204.0	7.0	0.0	3.5016232010584645	4.0	0.0	1.0	2.0	1.0	4.0	0.0	part_3
53	0.0	3.0	270.0	5.0	0.0	1.0	1.0	216.0	162.0	324.0	270.0	54.0	108.0	7.0	0.0	2.344586722529129	4.0	0.0	1.0	1.0	5.0	2.0	0.0	part_3
54	0.0	3.0	216.0	4.0	0.0	1.0	1.0	216.0	270.0	108.0	324.0	54.0	162.0	7.0	0.0	2.5245035238522178	1.0	0.0	3.0	7.0	7.0	6.0	0.0	part_3
55	0.0	3.0	195.0	5.0	0.0	1.0	1.0	156.0	78.0	117.0	39.0	195.0	234.0	7.0	0.0	1.6940707802641557	5.0	0.0	3.0	7.0	7.0	6.0	0.0	part_3
56	0.0	3.0	245.0	5.0	0.0	1.0	0.0	196.0	98.0	245.0	147.0	294.0	49.0	7.0	0.0	1.7059274085286231	3.0	0.0	1.0	2.0	1.0	4.0	0.0	part_3
57	0.0	3.0	270.0	5.0	0.0	1.0	1.0	54.0	108.0	270.0	216.0	162.0	324.0	7.0	0.0	2.1694107705288843	3.0	0.0	4.0	3.0	8.0	7.0	0.0	part_3
58	0.0	3.0	220.0	5.0	0.0	1.0	1.0	88.0	132.0	264.0	176.0	220.0	44.0	7.0	0.0	1.6970636403229946	5.0	0.0	1.0	1.0	5.0	2.0	0.0	part_3
59	0.0	3.0	170.0	5.0	0.0	1.0	0.0	68.0	136.0	170.0	34.0	102.0	204.0	7.0	0.0	3.5313952661172148	3.0	0.0	1.0	2.0	1.0	4.0	0.0	part_3
60	0.0	4.0	117.0	3.0	0.0	1.0	0.0	78.0	156.0	234.0	39.0	195.0	117.0	7.0	0.0	2.2949960882651794	6.0	0.0	4.0	8.0	4.0	3.0	0.0	part_3
61	0.0	4.0	220.0	5.0	0.0	1.0	1.0	220.0	44.0	132.0	176.0	264.0	88.0	7.0	0.0	1.720836303793476	1.0	0.0	3.0	7.0	7.0	6.0	0.0	part_3
62	0.0	4.0	195.0	5.0	0.0	1.0	0.0	39.0	117.0	78.0	156.0	195.0	234.0	7.0	0.0	3.1737673290590465	5.0	0.0	1.0	2.0	1.0	4.0	0.0	part_3
63	0.0	4.0	195.0	5.0	0.0	1.0	1.0	39.0	234.0	78.0	117.0	156.0	195.0	7.0	0.0	2.8027358982644732	6.0	0.0	2.0	5.0	6.0	1.0	0.0	part_3
64	0.0	4.0	170.0	5.0	0.0	1.0	0.0	204.0	34.0	136.0	102.0	170.0	68.0	7.0	0.0	3.3552162790583684	5.0	0.0	3.0	4.0	3.0	5.0	0.0	part_3
65	0.0	4.0	216.0	4.0	0.0	1.0	0.0	108.0	54.0	324.0	162.0	216.0	270.0	7.0	0.0	2.660401711323175	5.0	0.0	2.0	6.0	2.0	8.0	0.0	part_3
66	0.0	4.0	245.0	5.0	0.0	1.0	1.0	147.0	49.0	245.0	98.0	294.0	196.0	7.0	0.0	2.335352701058582	3.0	0.0	1.0	1.0	5.0	2.0	0.0	part_3
67	0.0	4.0	170.0	5.0	0.0	1.0	1.0	204.0	170.0	68.0	34.0	102.0	136.0	7.0	0.0	3.6636557071160496	2.0	0.0	1.0	1.0	5.0	2.0	0.0	part_3
68	0.0	4.0	156.0	4.0	0.0	1.0	1.0	195.0	234.0	39.0	78.0	117.0	156.0	7.0	0.0	3.281239037528393	6.0	0.0	1.0	1.0	5.0	2.0	0.0	part_3
69	0.0	4.0	234.0	6.0	0.0	1.0	0.0	234.0	39.0	195.0	78.0	156.0	117.0	7.0	0.0	4.510356874528952	1.0	0.0	3.0	4.0	3.0	5.0	0.0	part_3
70	0.0	4.0	195.0	5.0	0.0	1.0	0.0	195.0	156.0	234.0	39.0	78.0	117.0	7.0	0.0	1.7952591355287948	1.0	0.0	2.0	6.0	2.0	8.0	0.0	part_3
71	0.0	4.0	156.0	4.0	0.0	1.0	1.0	195.0	39.0	78.0	117.0	234.0	156.0	7.0	0.0	4.652826140323668	6.0	0.0	4.0	3.0	8.0	7.0	0.0	part_3
72	0.0	4.0	136.0	4.0	0.0	1.0	1.0	34.0	170.0	68.0	136.0	204.0	102.0	7.0	0.0	3.666469929793493	4.0	0.0	4.0	3.0	8.0	7.0	0.0	part_3
73	0.0	4.0	220.0	5.0	0.0	1.0	0.0	132.0	264.0	220.0	88.0	176.0	44.0	7.0	0.0	2.756870248323139	3.0	0.0	2.0	6.0	2.0	8.0	0.0	part_3
74	0.0	4.0	270.0	5.0	0.0	1.0	0.0	108.0	162.0	270.0	324.0	54.0	216.0	7.0	0.0	3.3758186495879268	3.0	0.0	2.0	6.0	2.0	8.0	0.0	part_3
75	0.0	4.0	176.0	4.0	0.0	1.0	1.0	88.0	132.0	264.0	44.0	176.0	220.0	7.0	0.0	3.6578752819996234	5.0	0.0	4.0	3.0	8.0	7.0	0.0	part_3
76	0.0	4.0	196.0	4.0	0.0	1.0	0.0	294.0	98.0	196.0	147.0	49.0	245.0	7.0	0.0	3.828612503852128	3.0	0.0	2.0	6.0	2.0	8.0	0.0	part_3
77	0.0	4.0	204.0	6.0	0.0	1.0	1.0	204.0	68.0	170.0	136.0	34.0	102.0	7.0	0.0	2.7612816730588747	1.0	0.0	3.0	7.0	7.0	6.0	0.0	part_3
78	0.0	4.0	170.0	5.0	0.0	1.0	1.0	170.0	34.0	68.0	136.0	204.0	102.0	7.0	0.0	2.6727679038522183	1.0	0.0	4.0	3.0	8.0	7.0	0.0	part_3
79	0.0	4.0	147.0	3.0	0.0	1.0	0.0	147.0	196.0	245.0	49.0	98.0	294.0	7.0	0.0	2.176785414587357	1.0	0.0	4.0	8.0	4.0	3.0	0.0	part_3
