	accuracy	block	chosen_bidding_amount	chosen_bidding_level	left_SSD	num_trial_presentations	paired_with_stopping	possible_bid_1	possible_bid_2	possible_bid_3	possible_bid_4	possible_bid_5	possible_bid_6	quadrant	raw_reward_magnitude	reaction_time	response	right_SSD	stepwise_reward_magnitude	stim_color	stim_reward	stim_shape	stop_signal_trial_type	which_part
0		1.0				1.0	0.0							4.0	79.0	0.4619269767244987	4.0		2.0	4.0	2.0	6.0		part_1
1		1.0				1.0	0.0							2.0	183.0	0.3048904715087701	2.0		3.0	5.0	3.0	8.0		part_1
2		1.0				1.0	0.0							1.0	48.0	0.3174530180767761	1.0		1.0	7.0	1.0	7.0		part_1
3		1.0				1.0	1.0							2.0	50.0	0.3510132442934264	2.0		1.0	1.0	5.0	2.0		part_1
4		1.0				1.0	0.0							3.0	398.0	0.3294091236457461	3.0		4.0	2.0	4.0	1.0		part_1
5		1.0				1.0	0.0							1.0	186.0	0.29568582286083256	1.0		3.0	5.0	3.0	8.0		part_1
6		1.0				1.0	1.0							4.0	218.0	0.34162778221616463	4.0		3.0	6.0	7.0	5.0		part_1
7		1.0				1.0	1.0							2.0	0.0	0.3533142905089335	2.0		0.0	1.0	5.0	2.0		part_1
8		1.0				1.0	1.0							3.0	96.0	0.33145508543202595	3.0		2.0	3.0	6.0	3.0		part_1
9		1.0				1.0	1.0							1.0	0.0	0.2982040740771481	1.0		0.0	8.0	8.0	4.0		part_1
10		1.0				1.0	0.0							3.0	67.0	0.3425202994312713	3.0		1.0	7.0	1.0	7.0		part_1
11		1.0				1.0	0.0							4.0	191.0	0.33204699364614504	4.0		3.0	5.0	3.0	8.0		part_1
12		1.0				1.0	1.0							3.0	218.0	0.3325371020782768	3.0		3.0	6.0	7.0	5.0		part_1
13		1.0				1.0	0.0							2.0	102.0	0.3230741560764727	2.0		2.0	4.0	2.0	6.0		part_1
14		1.0				1.0	1.0							1.0	405.0	0.3919019550776284	1.0		4.0	8.0	8.0	4.0		part_1
15		1.0				1.0	0.0							2.0	402.0	0.3230722644329944	2.0		4.0	2.0	4.0	1.0		part_1
16		1.0				1.0	0.0							4.0	184.0	0.3570457296464156	4.0		3.0	5.0	3.0	8.0		part_1
17		1.0				1.0	1.0							4.0	205.0	0.38033514543167257	4.0		3.0	6.0	7.0	5.0		part_1
18		1.0				1.0	1.0							1.0	102.0	0.4041153250000207	1.0		2.0	3.0	6.0	3.0		part_1
19		1.0				1.0	1.0							4.0	213.0	0.37228439164573496	4.0		3.0	6.0	7.0	5.0		part_1
20		1.0				1.0	0.0							1.0	0.0	0.29248030193775776	1.0		0.0	2.0	4.0	1.0		part_1
21		1.0				1.0	1.0							4.0	50.0	0.3716429399391927	4.0		1.0	1.0	5.0	2.0		part_1
22		1.0				1.0	0.0							1.0	100.0	0.3385492072939087	1.0		2.0	4.0	2.0	6.0		part_1
23		1.0				1.0	1.0							1.0	225.0	0.3279258138627483	1.0		3.0	6.0	7.0	5.0		part_1
24		1.0				1.0	0.0							3.0	29.0	0.3951827422151837	3.0		1.0	7.0	1.0	7.0		part_1
25		1.0				1.0	1.0							2.0	385.0	0.41895320221556176	2.0		4.0	8.0	8.0	4.0		part_1
26		1.0				1.0	1.0							2.0	0.0	0.4311699454319751	2.0		0.0	8.0	8.0	4.0		part_1
27		1.0				1.0	1.0							3.0	109.0	0.4084350936464034	3.0		2.0	3.0	6.0	3.0		part_1
28		1.0				1.0	0.0							4.0	66.0	0.364161806215634	4.0		1.0	7.0	1.0	7.0		part_1
29		1.0				1.0	0.0							4.0	27.0	0.3534343678602454	4.0		1.0	7.0	1.0	7.0		part_1
30		1.0				1.0	1.0							1.0	0.0	0.3774564695086156	1.0		0.0	6.0	7.0	5.0		part_1
31		1.0				1.0	1.0							2.0	76.0	0.3108758726466476	2.0		2.0	3.0	6.0	3.0		part_1
32		1.0				1.0	0.0							1.0	0.0	0.2997015434320929	1.0		0.0	2.0	4.0	1.0		part_1
33		1.0				1.0	0.0							1.0	390.0	0.2996846206442569	1.0		4.0	2.0	4.0	1.0		part_1
34		1.0				1.0	0.0							3.0	0.0	0.3801270317217131	3.0		0.0	4.0	2.0	6.0		part_1
35		1.0				1.0	0.0							3.0	30.0	0.3685556592154171	3.0		1.0	7.0	1.0	7.0		part_1
36		1.0				1.0	0.0							1.0	46.0	0.4926278148614074	1.0		1.0	7.0	1.0	7.0		part_1
37		1.0				1.0	1.0							1.0	0.0	0.3371657314310141	1.0		0.0	8.0	8.0	4.0		part_1
38		1.0				1.0	1.0							3.0	66.0	0.3689309458623029	3.0		1.0	1.0	5.0	2.0		part_1
39		1.0				1.0	0.0							1.0	392.0	0.292637953078156	1.0		4.0	2.0	4.0	1.0		part_1
40		1.0				1.0	1.0							3.0	46.0	0.3587214035087527	3.0		1.0	1.0	5.0	2.0		part_1
41		1.0				1.0	1.0							4.0	415.0	0.3275847778604657	4.0		4.0	8.0	8.0	4.0		part_1
42		1.0				2.0	0.0							4.0	0.0	0.33811794564462616	4.0		0.0	7.0	1.0	7.0		part_1
43		1.0				1.0	1.0							3.0	210.0	0.3509289352932683	3.0		3.0	6.0	7.0	5.0		part_1
44		1.0				1.0	1.0							4.0	389.0	0.3299526236460224	4.0		4.0	8.0	8.0	4.0		part_1
45		1.0				1.0	0.0							4.0	117.0	0.3405876007218467	4.0		2.0	4.0	2.0	6.0		part_1
46		1.0				1.0	1.0							2.0	76.0	0.3408163900003274	2.0		2.0	3.0	6.0	3.0		part_1
47		1.0				1.0	0.0							2.0	50.0	0.3318458890771581	2.0		1.0	7.0	1.0	7.0		part_1
48		1.0				1.0	1.0							4.0	421.0	0.3768622412935656	4.0		4.0	8.0	8.0	4.0		part_1
49		1.0				1.0	1.0							1.0	29.0	0.3874789580768265	1.0		1.0	1.0	5.0	2.0		part_1
50		1.0				1.0	1.0							3.0	77.0	0.4223994142939773	3.0		2.0	3.0	6.0	3.0		part_1
51		1.0				1.0	1.0							3.0	48.0	0.3662984520778991	3.0		1.0	1.0	5.0	2.0		part_1
52		1.0				1.0	0.0							1.0	206.0	0.35580799129456864	1.0		3.0	5.0	3.0	8.0		part_1
53		1.0				1.0	1.0							3.0	66.0	0.3777802672939288	3.0		1.0	1.0	5.0	2.0		part_1
54		1.0				1.0	1.0							3.0	63.0	0.3667824634321733	3.0		1.0	1.0	5.0	2.0		part_1
55		1.0				1.0	0.0							1.0	0.0	0.3125237582153204	1.0		0.0	7.0	1.0	7.0		part_1
56		1.0				1.0	1.0							4.0	0.0	0.3132437509993906	4.0		0.0	1.0	5.0	2.0		part_1
57		1.0				1.0	1.0							1.0	200.0	0.3811715888605249	1.0		3.0	6.0	7.0	5.0		part_1
58		1.0				1.0	0.0							3.0	381.0	0.5164064995078661	3.0		4.0	2.0	4.0	1.0		part_1
59		1.0				1.0	0.0							4.0	405.0	0.3697170770774392	4.0		4.0	2.0	4.0	1.0		part_1
60		1.0				1.0	1.0							4.0	122.0	0.3930736472921126	4.0		2.0	3.0	6.0	3.0		part_1
61		1.0				1.0	1.0							1.0	216.0	0.3273403270777635	1.0		3.0	6.0	7.0	5.0		part_1
62		1.0				1.0	0.0							4.0	0.0	0.33772533929186466	4.0		0.0	7.0	1.0	7.0		part_1
63		1.0				1.0	0.0							4.0	386.0	0.3383277448610897	4.0		4.0	2.0	4.0	1.0		part_1
64		1.0				1.0	1.0							3.0	205.0	0.3746016176446574	3.0		3.0	6.0	7.0	5.0		part_1
65		1.0				1.0	1.0							1.0	86.0	0.2955401242143125	1.0		2.0	3.0	6.0	3.0		part_1
66		1.0				1.0	1.0							4.0	72.0	0.3410592486452515	4.0		1.0	1.0	5.0	2.0		part_1
67		1.0				1.0	1.0							1.0	386.0	0.3406966146449122	1.0		4.0	8.0	8.0	4.0		part_1
68		1.0				1.0	0.0							4.0	188.0	0.41046031921723625	4.0		3.0	5.0	3.0	8.0		part_1
69		1.0				1.0	1.0							1.0	67.0	0.30863321899960283	1.0		1.0	1.0	5.0	2.0		part_1
70		1.0				1.0	1.0							4.0	414.0	0.33296711364528164	4.0		4.0	8.0	8.0	4.0		part_1
71		1.0				1.0	0.0							1.0	424.0	0.3338740576455166	1.0		4.0	2.0	4.0	1.0		part_1
72		1.0				1.0	0.0							2.0	401.0	0.3777490779993968	2.0		4.0	2.0	4.0	1.0		part_1
73		1.0				1.0	1.0							2.0	200.0	0.3669543989399244	2.0		3.0	6.0	7.0	5.0		part_1
74		1.0				1.0	0.0							2.0	35.0	0.3917053990771819	2.0		1.0	7.0	1.0	7.0		part_1
75		1.0				1.0	1.0							4.0	108.0	0.44738005186081853	4.0		2.0	3.0	6.0	3.0		part_1
76		1.0				1.0	1.0							4.0	114.0	0.3576773084314482	4.0		2.0	3.0	6.0	3.0		part_1
77		1.0				1.0	0.0							4.0	422.0	0.3462166396457178	4.0		4.0	2.0	4.0	1.0		part_1
78		1.0				1.0	0.0							4.0	35.0	0.4271296885090123	4.0		1.0	7.0	1.0	7.0		part_1
79		1.0				1.0	1.0							4.0	0.0	0.3591270506440196	4.0		0.0	3.0	6.0	3.0		part_1
80		1.0				1.0	0.0							4.0	56.0	0.3139125586458249	4.0		1.0	7.0	1.0	7.0		part_1
81		1.0				1.0	1.0							1.0	30.0	0.4280361090768565	1.0		1.0	1.0	5.0	2.0		part_1
82		1.0				1.0	1.0							2.0	419.0	0.3503466872316494	2.0		4.0	8.0	8.0	4.0		part_1
83		1.0				1.0	0.0							2.0	0.0	0.3964561536449765	2.0		0.0	5.0	3.0	8.0		part_1
84		1.0				1.0	0.0							4.0	391.0	0.4851617279382481	4.0		4.0	2.0	4.0	1.0		part_1
85		1.0				1.0	0.0							2.0	97.0	0.3863381794308225	2.0		2.0	4.0	2.0	6.0		part_1
86		1.0				1.0	0.0							2.0	55.0	0.3401759044318169	2.0		1.0	7.0	1.0	7.0		part_1
87		1.0				1.0	0.0							1.0	411.0	0.3198933579988079	1.0		4.0	2.0	4.0	1.0		part_1
88		1.0				1.0	1.0							4.0	215.0	0.3759264436448575	4.0		3.0	6.0	7.0	5.0		part_1
89		1.0				1.0	1.0							2.0	390.0	0.3547205767226842	2.0		4.0	8.0	8.0	4.0		part_1
90		1.0				1.0	1.0							3.0	417.0	0.3865553362938954	3.0		4.0	8.0	8.0	4.0		part_1
91		1.0				1.0	0.0							2.0	48.0	0.3764645720766566	2.0		1.0	7.0	1.0	7.0		part_1
92		1.0				1.0	0.0							2.0	0.0	0.33276524564462306	2.0		0.0	4.0	2.0	6.0		part_1
93		1.0				1.0	1.0							2.0	0.0	0.33397221429368074	2.0		0.0	1.0	5.0	2.0		part_1
94		1.0				1.0	0.0							1.0	114.0	0.3346472676439589	1.0		2.0	4.0	2.0	6.0		part_1
95		1.0				1.0	1.0							4.0	399.0	0.4239923136447032	4.0		4.0	8.0	8.0	4.0		part_1
96		1.0				1.0	0.0							2.0	106.0	0.39063519107730826	2.0		2.0	4.0	2.0	6.0		part_1
97		1.0				1.0	0.0							1.0	90.0	0.33493686843212345	1.0		2.0	4.0	2.0	6.0		part_1
98		1.0				1.0	0.0							1.0	121.0	0.4034828877229302	1.0		2.0	4.0	2.0	6.0		part_1
99		1.0				1.0	1.0							2.0	0.0	0.3246650994315132	2.0		0.0	8.0	8.0	4.0		part_1
100		2.0				1.0	0.0							3.0	419.0	0.4111973636463517	3.0		4.0	2.0	4.0	1.0		part_1
101		2.0				1.0	0.0							1.0	28.0	0.3114729326443921	1.0		1.0	7.0	1.0	7.0		part_1
102		2.0				1.0	1.0							1.0	379.0	0.3898601394321304	1.0		4.0	8.0	8.0	4.0		part_1
103		2.0				1.0	0.0							2.0	39.0	0.3222679490772862	2.0		1.0	7.0	1.0	7.0		part_1
104		2.0				1.0	1.0							2.0	110.0	0.3022896136444615	2.0		2.0	3.0	6.0	3.0		part_1
105		2.0				1.0	0.0							1.0	122.0	0.2790079585083731	1.0		2.0	4.0	2.0	6.0		part_1
106		2.0				1.0	0.0							1.0	72.0	0.3143698704316193	1.0		1.0	7.0	1.0	7.0		part_1
107		2.0				1.0	0.0							3.0	123.0	0.3471706625095976	3.0		2.0	4.0	2.0	6.0		part_1
108		2.0				1.0	0.0							2.0	122.0	0.3489649290768284	2.0		2.0	4.0	2.0	6.0		part_1
109		2.0				1.0	1.0							4.0	0.0	0.4262124085089454	4.0		0.0	6.0	7.0	5.0		part_1
110		2.0				1.0	1.0							3.0	28.0	0.3267440610779886	3.0		1.0	1.0	5.0	2.0		part_1
111		2.0				1.0	0.0							4.0	206.0	0.35981132321649056	4.0		3.0	5.0	3.0	8.0		part_1
112		2.0				1.0	1.0							3.0	383.0	0.3836841795073269	3.0		4.0	8.0	8.0	4.0		part_1
113		2.0				1.0	1.0							2.0	0.0	0.3742745026465855	2.0		0.0	1.0	5.0	2.0		part_1
114		2.0				1.0	1.0							4.0	86.0	0.3950982932910847	4.0		2.0	3.0	6.0	3.0		part_1
115		2.0				1.0	1.0							3.0	185.0	0.3617137126457237	3.0		3.0	6.0	7.0	5.0		part_1
116		2.0				1.0	0.0							3.0	210.0	0.3866071462907712	3.0		3.0	5.0	3.0	8.0		part_1
117		2.0				1.0	1.0							3.0	383.0	0.3403536706464365	3.0		4.0	8.0	8.0	4.0		part_1
118		2.0				1.0	1.0							4.0	0.0	0.35451426972213085	4.0		0.0	3.0	6.0	3.0		part_1
119		2.0				1.0	1.0							4.0	219.0	0.3311248537247593	4.0		3.0	6.0	7.0	5.0		part_1
120		2.0				1.0	1.0							1.0	208.0	0.35359014786445186	1.0		3.0	6.0	7.0	5.0		part_1
121		2.0				1.0	0.0							1.0	420.0	0.3326669649432006	1.0		4.0	2.0	4.0	1.0		part_1
122		2.0				1.0	0.0							1.0	405.0	0.3114243082127359	1.0		4.0	2.0	4.0	1.0		part_1
123		2.0				1.0	0.0							1.0	216.0	0.3232416032114997	1.0		3.0	5.0	3.0	8.0		part_1
124		2.0				1.0	0.0							1.0	185.0	0.2676120065079885	1.0		3.0	5.0	3.0	8.0		part_1
125		2.0				1.0	0.0							4.0	417.0	0.3919016662912327	4.0		4.0	2.0	4.0	1.0		part_1
126		2.0				1.0	0.0							2.0	0.0	0.3468522198636492	2.0		0.0	4.0	2.0	6.0		part_1
127		2.0				1.0	1.0							1.0	26.0	0.4385036067869805	1.0		1.0	1.0	5.0	2.0		part_1
128		2.0				1.0	0.0							2.0	0.0	0.3928183848656772	2.0		0.0	5.0	3.0	8.0		part_1
129		2.0				1.0	0.0							1.0	219.0	0.3491612487232487	1.0		3.0	5.0	3.0	8.0		part_1
130		2.0				1.0	0.0							1.0	42.0	0.33805846872201073	1.0		1.0	7.0	1.0	7.0		part_1
131		2.0				1.0	1.0							4.0	123.0	0.777765378861659	4.0		2.0	3.0	6.0	3.0		part_1
132		2.0				1.0	0.0							2.0	66.0	0.3605705060763285	2.0		1.0	7.0	1.0	7.0		part_1
133		2.0				1.0	1.0							3.0	0.0	0.4401662576456147	3.0		0.0	6.0	7.0	5.0		part_1
134		2.0				1.0	0.0							3.0	66.0	0.3399303035075718	3.0		1.0	7.0	1.0	7.0		part_1
135		2.0				1.0	0.0							3.0	114.0	0.3973731580772437	3.0		2.0	4.0	2.0	6.0		part_1
136		2.0				1.0	1.0							4.0	405.0	0.4296036974301387	4.0		4.0	8.0	8.0	4.0		part_1
137		2.0				1.0	1.0							4.0	0.0	0.4425682778637565	4.0		0.0	3.0	6.0	3.0		part_1
138		2.0				1.0	1.0							1.0	381.0	0.38660707629242097	1.0		4.0	8.0	8.0	4.0		part_1
139		2.0				1.0	0.0							2.0	200.0	0.4205487712897593	2.0		3.0	5.0	3.0	8.0		part_1
140		2.0				1.0	0.0							3.0	31.0	0.5456433134349936	3.0		1.0	7.0	1.0	7.0		part_1
141		2.0				1.0	0.0							1.0	196.0	0.3546159555080521	1.0		3.0	5.0	3.0	8.0		part_1
142		2.0				1.0	1.0							2.0	196.0	0.4016796656469523	2.0		3.0	6.0	7.0	5.0		part_1
143		2.0				1.0	0.0							4.0	33.0	0.6255073367246949	4.0		1.0	7.0	1.0	7.0		part_1
144		2.0				1.0	0.0							4.0	82.0	0.3667807377241843	4.0		2.0	4.0	2.0	6.0		part_1
145		2.0				1.0	0.0							1.0	0.0	0.4142632490002143	1.0		0.0	2.0	4.0	1.0		part_1
146		2.0				1.0	0.0							1.0	26.0	0.4022315688634989	1.0		1.0	7.0	1.0	7.0		part_1
147		2.0				1.0	1.0							3.0	88.0	0.514425497076445	3.0		2.0	3.0	6.0	3.0		part_1
148		2.0				1.0	1.0							4.0	222.0	0.4264240894299292	4.0		3.0	6.0	7.0	5.0		part_1
149		2.0				1.0	1.0							3.0	184.0	0.3928125640959479	3.0		3.0	6.0	7.0	5.0		part_1
150		2.0				1.0	1.0							1.0	42.0	0.3255185269554204	1.0		1.0	1.0	5.0	2.0		part_1
151		2.0				1.0	1.0							1.0	88.0	0.3263820506617776	1.0		2.0	3.0	6.0	3.0		part_1
152		2.0				1.0	1.0							1.0	0.0	0.2827227447414771	1.0		0.0	1.0	5.0	2.0		part_1
153		2.0				1.0	0.0							4.0	0.0	0.3621600950973516	4.0		0.0	5.0	3.0	8.0		part_1
154		2.0				1.0	1.0							1.0	30.0	0.2937582567392383	1.0		1.0	1.0	5.0	2.0		part_1
155		2.0				1.0	0.0							4.0	63.0	0.3859826275074738	4.0		1.0	7.0	1.0	7.0		part_1
156		2.0				1.0	1.0							4.0	119.0	0.3299857506463013	4.0		2.0	3.0	6.0	3.0		part_1
157		2.0				1.0	0.0							2.0	0.0	0.3633629850774014	2.0		0.0	2.0	4.0	1.0		part_1
158		2.0				1.0	1.0							3.0	388.0	0.3648637356454856	3.0		4.0	8.0	8.0	4.0		part_1
159		2.0				1.0	1.0							4.0	0.0	0.5772782145104429	4.0		0.0	1.0	5.0	2.0		part_1
160		2.0				1.0	0.0							3.0	58.0	0.3530614107221481	3.0		1.0	7.0	1.0	7.0		part_1
161		2.0				1.0	0.0							4.0	90.0	0.2856789230791037	4.0		2.0	4.0	2.0	6.0		part_1
162		2.0				1.0	0.0							1.0	75.0	0.3448117438601912	1.0		1.0	7.0	1.0	7.0		part_1
163		2.0				1.0	1.0							2.0	0.0	0.3437801614345517	2.0		0.0	3.0	6.0	3.0		part_1
164		2.0				1.0	0.0							4.0	88.0	0.3329252936455305	4.0		2.0	4.0	2.0	6.0		part_1
165		2.0				1.0	0.0							1.0	222.0	0.3577395444335707	1.0		3.0	5.0	3.0	8.0		part_1
166		2.0				1.0	1.0							1.0	392.0	0.3241302996466402	1.0		4.0	8.0	8.0	4.0		part_1
167		2.0				1.0	1.0							4.0	206.0	0.3908003412143444	4.0		3.0	6.0	7.0	5.0		part_1
168		2.0				1.0	1.0							4.0	97.0	0.4378417440784688	4.0		2.0	3.0	6.0	3.0		part_1
169		2.0				1.0	0.0							3.0	0.0	0.3809238618632662	3.0		0.0	7.0	1.0	7.0		part_1
170		2.0				1.0	1.0							2.0	42.0	0.39426726129022427	2.0		1.0	1.0	5.0	2.0		part_1
171		2.0				1.0	1.0							4.0	391.0	0.29131660386337893	4.0		4.0	8.0	8.0	4.0		part_1
172		2.0				1.0	1.0							4.0	114.0	0.31613967329030856	4.0		2.0	3.0	6.0	3.0		part_1
173		2.0				1.0	0.0							2.0	414.0	0.3155398394301301	2.0		4.0	2.0	4.0	1.0		part_1
174		2.0				1.0	1.0							3.0	399.0	0.3265716495116067	3.0		4.0	8.0	8.0	4.0		part_1
175		2.0				1.0	0.0							2.0	0.0	0.3842614620771201	2.0		0.0	7.0	1.0	7.0		part_1
176		2.0				1.0	0.0							2.0	0.0	0.4638456912143738	2.0		0.0	5.0	3.0	8.0		part_1
177		2.0				1.0	0.0							4.0	83.0	0.3059211050749582	4.0		2.0	4.0	2.0	6.0		part_1
178		2.0				1.0	0.0							2.0	0.0	0.3742260020771937	2.0		0.0	2.0	4.0	1.0		part_1
179		2.0				1.0	1.0							3.0	422.0	0.3518922106450191	3.0		4.0	8.0	8.0	4.0		part_1
180		2.0				1.0	0.0							2.0	76.0	0.28581018642944395	2.0		2.0	4.0	2.0	6.0		part_1
181		2.0				1.0	1.0							3.0	0.0	0.3765485302137677	3.0		0.0	8.0	8.0	4.0		part_1
182		2.0				1.0	0.0							3.0	220.0	0.3319242004326952	3.0		3.0	5.0	3.0	8.0		part_1
183		2.0				1.0	0.0							2.0	208.0	0.30027820886607515	2.0		3.0	5.0	3.0	8.0		part_1
184		2.0				1.0	1.0							2.0	198.0	0.3907835572899785	2.0		3.0	6.0	7.0	5.0		part_1
185		2.0				1.0	1.0							2.0	106.0	0.3896591192133201	2.0		2.0	3.0	6.0	3.0		part_1
186		2.0				1.0	1.0							3.0	79.0	0.5249025470766355	3.0		2.0	3.0	6.0	3.0		part_1
187		2.0				1.0	0.0							3.0	414.0	0.3690148312889505	3.0		4.0	2.0	4.0	1.0		part_1
188		2.0				1.0	0.0							3.0	111.0	0.43661747464648215	3.0		2.0	4.0	2.0	6.0		part_1
189		2.0				1.0	0.0							4.0	0.0	0.3353803142927063	4.0		0.0	4.0	2.0	6.0		part_1
190		2.0				1.0	1.0							4.0	0.0	0.3027060180756962	4.0		0.0	3.0	6.0	3.0		part_1
191		2.0				1.0	1.0							2.0	386.0	0.5388581638653704	2.0		4.0	8.0	8.0	4.0		part_1
192		2.0				1.0	0.0							2.0	65.0	0.39489266143209534	2.0		1.0	7.0	1.0	7.0		part_1
193		2.0				1.0	1.0							3.0	114.0	0.3707986690787948	3.0		2.0	3.0	6.0	3.0		part_1
194		2.0				1.0	1.0							4.0	0.0	0.4396171904299989	4.0		0.0	6.0	7.0	5.0		part_1
195		2.0				1.0	1.0							1.0	411.0	0.3622216282165027	1.0		4.0	8.0	8.0	4.0		part_1
196		2.0				1.0	1.0							1.0	86.0	0.3289293322886806	1.0		2.0	3.0	6.0	3.0		part_1
197		2.0				1.0	0.0							1.0	184.0	0.3181190388640971	1.0		3.0	5.0	3.0	8.0		part_1
198		2.0				1.0	1.0							1.0	200.0	0.3181819774290489	1.0		3.0	6.0	7.0	5.0		part_1
199		2.0				1.0	1.0							3.0	402.0	0.4197268679381523	3.0		4.0	8.0	8.0	4.0		part_1
200		3.0				1.0	0.0							3.0	383.0	0.3314035518633318	3.0		4.0	2.0	4.0	1.0		part_1
201		3.0				1.0	1.0							3.0	220.0	0.3315713102128939	3.0		3.0	6.0	7.0	5.0		part_1
202		3.0				1.0	1.0							1.0	186.0	0.2994143872165296	1.0		3.0	6.0	7.0	5.0		part_1
203		3.0				1.0	0.0							1.0	61.0	0.3996465725067537	1.0		1.0	7.0	1.0	7.0		part_1
204		3.0				1.0	0.0							1.0	0.0	0.3671982204323285	1.0		0.0	4.0	2.0	6.0		part_1
205		3.0				1.0	0.0							4.0	40.0	0.3450337882168242	4.0		1.0	7.0	1.0	7.0		part_1
206		3.0				1.0	1.0							4.0	414.0	0.3461580596449494	4.0		4.0	8.0	8.0	4.0		part_1
207		3.0				1.0	0.0							2.0	86.0	0.357322707077401	2.0		2.0	4.0	2.0	6.0		part_1
208		3.0				1.0	1.0							2.0	46.0	0.3913351210139808	2.0		1.0	1.0	5.0	2.0		part_1
209		3.0				1.0	0.0							4.0	178.0	0.3250410277832998	4.0		3.0	5.0	3.0	8.0		part_1
210		3.0				1.0	0.0							2.0	0.0	0.29162011286462075	2.0		0.0	4.0	2.0	6.0		part_1
211		3.0				1.0	1.0							4.0	82.0	0.3027184156489966	4.0		2.0	3.0	6.0	3.0		part_1
212		3.0				1.0	0.0							4.0	223.0	0.3713092204307032	4.0		3.0	5.0	3.0	8.0		part_1
213		3.0				1.0	0.0							2.0	190.0	0.3952724278606184	2.0		3.0	5.0	3.0	8.0		part_1
214		3.0				1.0	0.0							3.0	210.0	0.34910537186442525	3.0		3.0	5.0	3.0	8.0		part_1
215		3.0				1.0	0.0							1.0	86.0	0.4527584520765231	1.0		2.0	4.0	2.0	6.0		part_1
216		3.0				1.0	1.0							3.0	191.0	0.3402495840782649	3.0		3.0	6.0	7.0	5.0		part_1
217		3.0				1.0	1.0							4.0	178.0	0.5766622780793114	4.0		3.0	6.0	7.0	5.0		part_1
218		3.0				1.0	1.0							1.0	121.0	0.5335625700790843	1.0		2.0	3.0	6.0	3.0		part_1
219		3.0				1.0	1.0							3.0	403.0	0.3633673122894834	3.0		4.0	8.0	8.0	4.0		part_1
220		3.0				1.0	1.0							1.0	0.0	0.34307057164551225	1.0		0.0	6.0	7.0	5.0		part_1
221		3.0				1.0	1.0							2.0	188.0	0.3643616118642967	2.0		3.0	6.0	7.0	5.0		part_1
222		3.0				1.0	1.0							1.0	197.0	0.3997878294321709	1.0		3.0	6.0	7.0	5.0		part_1
223		3.0				1.0	1.0							2.0	75.0	0.33182743464567466	2.0		1.0	1.0	5.0	2.0		part_1
224		3.0				1.0	1.0							3.0	113.0	0.5798150392911339	3.0		2.0	3.0	6.0	3.0		part_1
225		3.0				1.0	0.0							3.0	210.0	0.479412861433957	3.0		3.0	5.0	3.0	8.0		part_1
226		3.0				1.0	1.0							1.0	80.0	0.3003261827216193	1.0		2.0	3.0	6.0	3.0		part_1
227		3.0				1.0	0.0							2.0	402.0	0.3339339142912649	2.0		4.0	2.0	4.0	1.0		part_1
228		3.0				1.0	1.0							2.0	185.0	0.2913859212130774	2.0		3.0	6.0	7.0	5.0		part_1
229		3.0				1.0	1.0							2.0	424.0	0.32540649107977515	2.0		4.0	8.0	8.0	4.0		part_1
230		3.0				1.0	0.0							2.0	200.0	0.32505017843141104	2.0		3.0	5.0	3.0	8.0		part_1
231		3.0				1.0	0.0							3.0	0.0	0.34670381943215034	3.0		0.0	5.0	3.0	8.0		part_1
232		3.0				1.0	1.0							2.0	420.0	0.3147662642913929	2.0		4.0	8.0	8.0	4.0		part_1
233		3.0				1.0	0.0							3.0	109.0	0.3483146160760953	3.0		2.0	4.0	2.0	6.0		part_1
234		3.0				1.0	1.0							4.0	117.0	0.3598622658646491	4.0		2.0	3.0	6.0	3.0		part_1
235		3.0				1.0	0.0							3.0	61.0	0.3940271907231363	3.0		1.0	7.0	1.0	7.0		part_1
236		3.0				1.0	1.0							1.0	190.0	0.3502313636454346	1.0		3.0	6.0	7.0	5.0		part_1
237		3.0				1.0	0.0							2.0	54.0	0.3073241475103714	2.0		1.0	7.0	1.0	7.0		part_1
238		3.0				1.0	0.0							2.0	415.0	0.33021914743221714	2.0		4.0	2.0	4.0	1.0		part_1
239		3.0				1.0	0.0							1.0	99.0	0.3073643529423862	1.0		2.0	4.0	2.0	6.0		part_1
240		3.0				1.0	0.0							3.0	181.0	0.3415806715056533	3.0		3.0	5.0	3.0	8.0		part_1
241		3.0				1.0	0.0							3.0	385.0	0.3182761742900766	3.0		4.0	2.0	4.0	1.0		part_1
242		3.0				1.0	0.0							3.0	50.0	0.3201989669978502	3.0		1.0	7.0	1.0	7.0		part_1
243		3.0				1.0	0.0							4.0	0.0	0.5237499392169411	4.0		0.0	2.0	4.0	1.0		part_1
244		3.0				1.0	0.0							1.0	424.0	0.3338374644336	1.0		4.0	2.0	4.0	1.0		part_1
245		3.0				1.0	1.0							4.0	409.0	0.4680270838616707	4.0		4.0	8.0	8.0	4.0		part_1
246		3.0				1.0	1.0							2.0	182.0	0.3339494928623026	2.0		3.0	6.0	7.0	5.0		part_1
247		3.0				1.0	1.0							1.0	382.0	0.2547432514329557	1.0		4.0	8.0	8.0	4.0		part_1
248		3.0				1.0	1.0							1.0	405.0	0.3116051076431177	1.0		4.0	8.0	8.0	4.0		part_1
249		3.0				1.0	1.0							2.0	378.0	0.28031722421292216	2.0		4.0	8.0	8.0	4.0		part_1
250		3.0				1.0	0.0							3.0	64.0	0.35775720786477905	3.0		1.0	7.0	1.0	7.0		part_1
251		3.0				1.0	1.0							2.0	183.0	0.3698318289389135	2.0		3.0	6.0	7.0	5.0		part_1
252		3.0				1.0	1.0							4.0	0.0	0.3818591764320445	4.0		0.0	1.0	5.0	2.0		part_1
253		3.0				1.0	1.0							3.0	184.0	0.3702270094290725	3.0		3.0	6.0	7.0	5.0		part_1
254		3.0				1.0	1.0							2.0	0.0	0.3374777095086756	2.0		0.0	3.0	6.0	3.0		part_1
255		3.0				1.0	1.0							2.0	401.0	0.4523632475065824	2.0		4.0	8.0	8.0	4.0		part_1
256		3.0				2.0	1.0							4.0	0.0	0.3289369379417621	4.0		0.0	8.0	8.0	4.0		part_1
257		3.0				1.0	0.0							2.0	198.0	0.3619937794319412	2.0		3.0	5.0	3.0	8.0		part_1
258		3.0				1.0	0.0							1.0	182.0	0.2842848287218658	1.0		3.0	5.0	3.0	8.0		part_1
259		3.0				1.0	0.0							1.0	0.0	0.342413613863755	1.0		0.0	4.0	2.0	6.0		part_1
260		3.0				1.0	1.0							2.0	78.0	0.30821758650563424	2.0		2.0	3.0	6.0	3.0		part_1
261		3.0				1.0	0.0							4.0	0.0	0.4314586228647386	4.0		0.0	5.0	3.0	8.0		part_1
262		3.0				1.0	1.0							2.0	210.0	0.3083880785088695	2.0		3.0	6.0	7.0	5.0		part_1
263		3.0				1.0	0.0							3.0	399.0	0.3655835144345474	3.0		4.0	2.0	4.0	1.0		part_1
264		3.0				2.0	0.0							4.0	197.0	0.34551860829014913	4.0		3.0	5.0	3.0	8.0		part_1
265		3.0				1.0	1.0							1.0	210.0	0.4350229038609541	1.0		3.0	6.0	7.0	5.0		part_1
266		3.0				1.0	1.0							1.0	104.0	0.3455584352122969	1.0		2.0	3.0	6.0	3.0		part_1
267		3.0				1.0	0.0							1.0	0.0	0.3679899668641156	1.0		0.0	5.0	3.0	8.0		part_1
268		3.0				1.0	1.0							2.0	90.0	0.3910419810781605	2.0		2.0	3.0	6.0	3.0		part_1
269		3.0				1.0	1.0							1.0	402.0	0.4042507096455665	1.0		4.0	8.0	8.0	4.0		part_1
270		3.0				2.0	0.0							3.0	88.0	0.34847193850873737	3.0		2.0	4.0	2.0	6.0		part_1
271		3.0				1.0	1.0							2.0	0.0	0.3616529972896387	2.0		0.0	1.0	5.0	2.0		part_1
272		3.0				1.0	1.0							3.0	206.0	0.4165033626486547	3.0		3.0	6.0	7.0	5.0		part_1
273		3.0				1.0	1.0							3.0	27.0	0.38387025807605824	3.0		1.0	1.0	5.0	2.0		part_1
274		3.0				1.0	0.0							2.0	218.0	0.3161381047211762	2.0		3.0	5.0	3.0	8.0		part_1
275		3.0				1.0	1.0							4.0	0.0	0.3964110975066433	4.0		0.0	6.0	7.0	5.0		part_1
276		3.0				1.0	0.0							3.0	108.0	0.3737283052905696	3.0		2.0	4.0	2.0	6.0		part_1
277		3.0				1.0	1.0							3.0	66.0	0.4522054162880522	3.0		1.0	1.0	5.0	2.0		part_1
278		3.0				1.0	1.0							1.0	58.0	0.4761499347223434	1.0		1.0	1.0	5.0	2.0		part_1
279		3.0				1.0	0.0							4.0	200.0	0.3633564164301788	4.0		3.0	5.0	3.0	8.0		part_1
280		3.0				1.0	1.0							2.0	117.0	0.4318246098628151	2.0		2.0	3.0	6.0	3.0		part_1
281		3.0				1.0	1.0							3.0	398.0	0.4552556905109668	3.0		4.0	8.0	8.0	4.0		part_1
282		3.0				1.0	1.0							4.0	183.0	0.3768106232928403	4.0		3.0	6.0	7.0	5.0		part_1
283		3.0				1.0	1.0							2.0	405.0	0.3562356382935832	2.0		4.0	8.0	8.0	4.0		part_1
284		3.0				1.0	1.0							1.0	58.0	0.4227375264345028	1.0		1.0	1.0	5.0	2.0		part_1
285		3.0				1.0	0.0							4.0	0.0	0.5585423764314328	4.0		0.0	5.0	3.0	8.0		part_1
286		3.0				1.0	1.0							4.0	0.0	0.5817492878632038	4.0		0.0	3.0	6.0	3.0		part_1
287		3.0				1.0	0.0							4.0	46.0	0.41458451007565605	4.0		1.0	7.0	1.0	7.0		part_1
288		3.0				1.0	0.0							2.0	386.0	0.4369803446425067	2.0		4.0	2.0	4.0	1.0		part_1
289		3.0				1.0	0.0							3.0	185.0	0.4261615582145168	3.0		3.0	5.0	3.0	8.0		part_1
290		3.0				1.0	1.0							1.0	99.0	0.4263010617250984	1.0		2.0	3.0	6.0	3.0		part_1
291		3.0				1.0	0.0							2.0	225.0	0.4166197976446711	2.0		3.0	5.0	3.0	8.0		part_1
292		3.0				1.0	0.0							1.0	96.0	0.3949178980765282	1.0		2.0	4.0	2.0	6.0		part_1
293		3.0				1.0	1.0							2.0	90.0	0.540693140723306	2.0		2.0	3.0	6.0	3.0		part_1
294		3.0				1.0	0.0							2.0	0.0	0.4739176376460818	2.0		0.0	7.0	1.0	7.0		part_1
295		3.0				1.0	1.0							3.0	35.0	0.37253540907840943	3.0		1.0	1.0	5.0	2.0		part_1
296		3.0				1.0	0.0							4.0	110.0	0.3841263479407644	4.0		2.0	4.0	2.0	6.0		part_1
297		3.0				1.0	0.0							2.0	178.0	0.31767972129091504	2.0		3.0	5.0	3.0	8.0		part_1
298		3.0				1.0	0.0							4.0	389.0	0.3861818192890496	4.0		4.0	2.0	4.0	1.0		part_1
299		3.0				1.0	0.0							2.0	78.0	0.34116113807976944	2.0		2.0	4.0	2.0	6.0		part_1
300		4.0				1.0	1.0							3.0	0.0	0.43029541121359216	3.0		0.0	1.0	5.0	2.0		part_1
301		4.0				1.0	0.0							1.0	73.0	0.3295071585089317	1.0		1.0	7.0	1.0	7.0		part_1
302		4.0				1.0	0.0							4.0	77.0	0.3070998058647092	4.0		2.0	4.0	2.0	6.0		part_1
303		4.0				1.0	0.0							4.0	26.0	0.3091492856437981	4.0		1.0	7.0	1.0	7.0		part_1
304		4.0				1.0	0.0							3.0	391.0	0.3658950347235077	3.0		4.0	2.0	4.0	1.0		part_1
305		4.0				1.0	1.0							3.0	0.0	0.36635710821428796	3.0		0.0	8.0	8.0	4.0		part_1
306		4.0				1.0	1.0							4.0	56.0	0.3775904527210514	4.0		1.0	1.0	5.0	2.0		part_1
307		4.0				1.0	0.0							2.0	86.0	0.3891666130002704	2.0		2.0	4.0	2.0	6.0		part_1
308		4.0				1.0	0.0							4.0	30.0	0.40141069007950136	4.0		1.0	7.0	1.0	7.0		part_1
309		4.0				2.0	0.0							1.0	405.0	0.3023441119985364	1.0		4.0	2.0	4.0	1.0		part_1
310		4.0				1.0	0.0							2.0	113.0	0.3240549488618853	2.0		2.0	4.0	2.0	6.0		part_1
311		4.0				1.0	1.0							2.0	100.0	0.31312980321308714	2.0		2.0	3.0	6.0	3.0		part_1
312		4.0				1.0	0.0							3.0	383.0	0.3703979452911881	3.0		4.0	2.0	4.0	1.0		part_1
313		4.0				1.0	0.0							3.0	58.0	0.38198106043273583	3.0		1.0	7.0	1.0	7.0		part_1
314		4.0				1.0	0.0							1.0	104.0	0.3601831244304776	1.0		2.0	4.0	2.0	6.0		part_1
315		4.0				1.0	1.0							3.0	40.0	0.3147757370752515	3.0		1.0	1.0	5.0	2.0		part_1
316		4.0				1.0	1.0							2.0	64.0	0.36160004186604056	2.0		1.0	1.0	5.0	2.0		part_1
317		4.0				1.0	1.0							3.0	380.0	0.4414970774305402	3.0		4.0	8.0	8.0	4.0		part_1
318		4.0				1.0	1.0							3.0	0.0	0.3732600902912964	3.0		0.0	8.0	8.0	4.0		part_1
319		4.0				2.0	0.0							4.0	0.0	0.2953292937236256	4.0		0.0	7.0	1.0	7.0		part_1
320		4.0				1.0	1.0							3.0	111.0	0.329881269724865	3.0		2.0	3.0	6.0	3.0		part_1
321		4.0				1.0	0.0							3.0	117.0	0.34278647072278545	3.0		2.0	4.0	2.0	6.0		part_1
322		4.0				1.0	0.0							2.0	0.0	0.35338216464515426	2.0		0.0	7.0	1.0	7.0		part_1
323		4.0				1.0	0.0							2.0	215.0	0.3102164456468017	2.0		3.0	5.0	3.0	8.0		part_1
324		4.0				2.0	1.0							4.0	0.0	0.3787369056444732	4.0		0.0	3.0	6.0	3.0		part_1
325		4.0				1.0	0.0							3.0	106.0	0.5239296296458633	3.0		2.0	4.0	2.0	6.0		part_1
326		4.0				1.0	1.0							2.0	75.0	0.4137447084322048	2.0		1.0	1.0	5.0	2.0		part_1
327		4.0				1.0	0.0							4.0	421.0	0.3905760894303967	4.0		4.0	2.0	4.0	1.0		part_1
328		4.0				1.0	1.0							2.0	187.0	0.3142335252923658	2.0		3.0	6.0	7.0	5.0		part_1
329		4.0				1.0	0.0							3.0	0.0	0.3700944590782456	3.0		0.0	5.0	3.0	8.0		part_1
330		4.0				1.0	1.0							2.0	0.0	0.3023290326455026	2.0		0.0	1.0	5.0	2.0		part_1
331		4.0				2.0	0.0							4.0	213.0	0.6299068065673055	4.0		3.0	5.0	3.0	8.0		part_1
332		4.0				1.0	0.0							1.0	0.0	0.5638081122124277	1.0		0.0	5.0	3.0	8.0		part_1
333		4.0				1.0	1.0							2.0	35.0	0.6997831784319715	2.0		1.0	1.0	5.0	2.0		part_1
334		4.0				1.0	0.0							4.0	0.0	0.5868673125078203	4.0		0.0	2.0	4.0	1.0		part_1
335		4.0				1.0	0.0							3.0	207.0	0.6992653914312541	3.0		3.0	5.0	3.0	8.0		part_1
336		4.0				1.0	0.0							2.0	76.0	0.8455309722121456	2.0		2.0	4.0	2.0	6.0		part_1
337		4.0				1.0	1.0							4.0	178.0	0.5202370812148729	4.0		3.0	6.0	7.0	5.0		part_1
338		4.0				1.0	0.0							2.0	0.0	0.40868020986090414	2.0		0.0	7.0	1.0	7.0		part_1
339		4.0				1.0	0.0							2.0	409.0	0.34322838686421164	2.0		4.0	2.0	4.0	1.0		part_1
340		4.0				2.0	1.0							2.0	104.0	0.3089082092919853	2.0		2.0	3.0	6.0	3.0		part_1
341		4.0				1.0	1.0							2.0	0.0	0.3892042074330675	2.0		0.0	6.0	7.0	5.0		part_1
342		4.0				1.0	1.0							4.0	26.0	0.33293352799955755	4.0		1.0	1.0	5.0	2.0		part_1
343		4.0				1.0	0.0							4.0	187.0	0.33302189529058523	4.0		3.0	5.0	3.0	8.0		part_1
344		4.0				1.0	0.0							1.0	0.0	0.3676765770796919	1.0		0.0	2.0	4.0	1.0		part_1
345		4.0				1.0	0.0							1.0	0.0	0.31329931786240195	1.0		0.0	4.0	2.0	6.0		part_1
346		4.0				2.0	1.0							3.0	0.0	0.3812693098625459	3.0		0.0	6.0	7.0	5.0		part_1
347		4.0				1.0	0.0							1.0	403.0	0.3823351482133148	1.0		4.0	2.0	4.0	1.0		part_1
348		4.0				1.0	1.0							3.0	207.0	0.33627650307971635	3.0		3.0	6.0	7.0	5.0		part_1
349		4.0				1.0	1.0							4.0	39.0	0.3702449852171412	4.0		1.0	1.0	5.0	2.0		part_1
350		4.0				1.0	0.0							2.0	0.0	0.4839248442149256	2.0		0.0	2.0	4.0	1.0		part_1
351		4.0				1.0	1.0							2.0	0.0	0.4617912574321963	2.0		0.0	3.0	6.0	3.0		part_1
352		4.0				2.0	1.0							3.0	0.0	0.3044201740776771	3.0		0.0	6.0	7.0	5.0		part_1
353		4.0				1.0	1.0							2.0	48.0	0.30644548072086764	2.0		1.0	1.0	5.0	2.0		part_1
354		4.0				1.0	1.0							4.0	61.0	0.3968294562146184	4.0		1.0	1.0	5.0	2.0		part_1
355		4.0				1.0	0.0							2.0	388.0	0.2974296100765059	2.0		4.0	2.0	4.0	1.0		part_1
356		4.0				1.0	1.0							3.0	106.0	0.35141155286328285	3.0		2.0	3.0	6.0	3.0		part_1
357		4.0				1.0	1.0							1.0	65.0	0.5215541742145433	1.0		1.0	1.0	5.0	2.0		part_1
358		4.0				1.0	1.0							1.0	383.0	0.7478804097227112	1.0		4.0	8.0	8.0	4.0		part_1
359		4.0				1.0	1.0							2.0	0.0	0.3649093004314636	2.0		0.0	6.0	7.0	5.0		part_1
360		4.0				1.0	1.0							1.0	223.0	0.32032079421696835	1.0		3.0	6.0	7.0	5.0		part_1
361		4.0				1.0	0.0							3.0	119.0	0.3449422298654099	3.0		2.0	4.0	2.0	6.0		part_1
362		4.0				1.0	1.0							4.0	50.0	0.3891835545073263	4.0		1.0	1.0	5.0	2.0		part_1
363		4.0				1.0	1.0							2.0	181.0	0.4009845567234152	2.0		3.0	6.0	7.0	5.0		part_1
364		4.0				1.0	1.0							1.0	0.0	0.5595373970791115	1.0		0.0	3.0	6.0	3.0		part_1
365		4.0				1.0	1.0							1.0	106.0	0.4586698944331147	1.0		2.0	3.0	6.0	3.0		part_1
366		4.0				1.0	0.0							3.0	205.0	0.4022455339436419	3.0		3.0	5.0	3.0	8.0		part_1
367		4.0				1.0	1.0							2.0	31.0	0.4272107617216534	2.0		1.0	1.0	5.0	2.0		part_1
368		4.0				1.0	1.0							3.0	122.0	0.4712034205113014	3.0		2.0	3.0	6.0	3.0		part_1
369		4.0				1.0	1.0							4.0	73.0	0.5620737470781023	4.0		1.0	1.0	5.0	2.0		part_1
370		4.0				1.0	0.0							1.0	42.0	0.7087405525089707	1.0		1.0	7.0	1.0	7.0		part_1
371		4.0				1.0	0.0							4.0	114.0	0.5184580606473901	4.0		2.0	4.0	2.0	6.0		part_1
372		4.0				1.0	0.0							1.0	0.0	0.3626077045082639	1.0		0.0	7.0	1.0	7.0		part_1
373		4.0				1.0	0.0							3.0	382.0	0.33949508329169475	3.0		4.0	2.0	4.0	1.0		part_1
374		4.0				1.0	0.0							2.0	0.0	0.3295578580764413	2.0		0.0	4.0	2.0	6.0		part_1
375		4.0				1.0	0.0							3.0	0.0	0.329141373076709	3.0		0.0	4.0	2.0	6.0		part_1
376		4.0				1.0	0.0							4.0	383.0	0.3415317285071069	4.0		4.0	2.0	4.0	1.0		part_1
377		4.0				1.0	1.0							1.0	33.0	0.4991830266444594	1.0		1.0	1.0	5.0	2.0		part_1
378		4.0				1.0	1.0							4.0	61.0	0.49939618800271995	4.0		1.0	1.0	5.0	2.0		part_1
379		4.0				1.0	1.0							2.0	424.0	0.41111270021428936	2.0		4.0	8.0	8.0	4.0		part_1
380		4.0				1.0	0.0							4.0	0.0	0.5698872626453522	4.0		0.0	2.0	4.0	1.0		part_1
381		4.0				1.0	1.0							2.0	54.0	0.5575202232903393	2.0		1.0	1.0	5.0	2.0		part_1
382		4.0				2.0	0.0							3.0	183.0	0.3225402585085249	3.0		3.0	5.0	3.0	8.0		part_1
383		4.0				1.0	0.0							2.0	50.0	0.4697570686439576	2.0		1.0	7.0	1.0	7.0		part_1
384		4.0				1.0	1.0							1.0	83.0	0.7290327355076442	1.0		2.0	3.0	6.0	3.0		part_1
385		4.0				1.0	0.0							1.0	218.0	0.3465623854317528	1.0		3.0	5.0	3.0	8.0		part_1
386		4.0				1.0	0.0							4.0	399.0	0.35774820907681715	4.0		4.0	2.0	4.0	1.0		part_1
387		4.0				1.0	0.0							2.0	405.0	0.3704113742132904	2.0		4.0	2.0	4.0	1.0		part_1
388		4.0				1.0	1.0							1.0	0.0	0.7190691266441718	1.0		0.0	8.0	8.0	4.0		part_1
389		4.0				1.0	1.0							2.0	0.0	0.36006671543145785	2.0		0.0	8.0	8.0	4.0		part_1
390		4.0				1.0	0.0							4.0	378.0	0.3827564750754391	4.0		4.0	2.0	4.0	1.0		part_1
391		4.0				1.0	1.0							4.0	55.0	0.4628866565071803	4.0		1.0	1.0	5.0	2.0		part_1
392		4.0				2.0	0.0							4.0	104.0	0.2717690728641173	4.0		2.0	4.0	2.0	6.0		part_1
393		4.0				1.0	1.0							4.0	391.0	0.3186373048629321	4.0		4.0	8.0	8.0	4.0		part_1
394		4.0				1.0	0.0							1.0	379.0	0.43159046064465656	1.0		4.0	2.0	4.0	1.0		part_1
395		4.0				1.0	0.0							2.0	380.0	0.375170099290699	2.0		4.0	2.0	4.0	1.0		part_1
396		4.0				1.0	0.0							1.0	80.0	0.3747866172125214	1.0		2.0	4.0	2.0	6.0		part_1
397		4.0				1.0	0.0							3.0	205.0	0.3882265046486282	3.0		3.0	5.0	3.0	8.0		part_1
398		4.0				1.0	0.0							3.0	106.0	0.5226989522925578	3.0		2.0	4.0	2.0	6.0		part_1
399		4.0				1.0	0.0							2.0	75.0	0.9060756702165236	2.0		1.0	7.0	1.0	7.0		part_1
0	1.0	1.0			250.0	0.0	0.0							5.0	0.0	0.39229153058477095	5.0	250.0	3.0	5.0	3.0	8.0	0.0	part_2
1	1.0	1.0			250.0	0.0	0.0							6.0	0.0	0.3592464567991556	6.0	250.0	4.0	2.0	4.0	1.0	0.0	part_2
2	3.0	1.0			250.0	0.0	1.0							6.0	0.0	0.5796643181893161	6.0	250.0	1.0	1.0	5.0	2.0	1.0	part_2
3	1.0	1.0			250.0	0.0	0.0							5.0	0.0	0.3604611559894693	5.0	200.0	1.0	7.0	1.0	7.0	0.0	part_2
4	1.0	1.0			250.0	0.0	0.0							5.0	0.0	0.4066862999898149	5.0	200.0	2.0	4.0	2.0	6.0	0.0	part_2
5	3.0	1.0			250.0	0.0	1.0							6.0	0.0	0.3052758961894142	6.0	200.0	1.0	1.0	5.0	2.0	1.0	part_2
6	1.0	1.0			250.0	0.0	0.0							6.0	0.0	0.3742632301909907	6.0	150.0	1.0	7.0	1.0	7.0	0.0	part_2
7	3.0	1.0			250.0	0.0	1.0							5.0	0.0	0.35425796278650523	5.0	150.0	4.0	8.0	8.0	4.0	1.0	part_2
8	1.0	1.0			200.0	0.0	0.0							6.0	0.0	0.3533449953829404	6.0	150.0	1.0	7.0	1.0	7.0	0.0	part_2
9	3.0	1.0			200.0	0.0	1.0							5.0	0.0	0.4230969570016896	5.0	150.0	4.0	8.0	8.0	4.0	1.0	part_2
10	1.0	1.0			150.0	0.0	0.0							5.0	0.0	0.4010722193852416	5.0	150.0	2.0	4.0	2.0	6.0	0.0	part_2
11	1.0	1.0			150.0	0.0	0.0							6.0	0.0	0.2996835525809729	6.0	150.0	4.0	2.0	4.0	1.0	0.0	part_2
12	1.0	1.0			150.0	0.0	0.0							6.0	0.0	0.3794751867862942	6.0	150.0	2.0	4.0	2.0	6.0	0.0	part_2
13	3.0	1.0			150.0	0.0	1.0							6.0	0.0	0.36955458118973183	6.0	150.0	1.0	1.0	5.0	2.0	1.0	part_2
14	1.0	1.0			150.0	0.0	0.0							6.0	0.0	0.3809053257864434	6.0	100.0	1.0	7.0	1.0	7.0	0.0	part_2
15	1.0	1.0			150.0	0.0	1.0							6.0	0.0	0.3472271141872625	6.0	100.0	4.0	8.0	8.0	4.0	0.0	part_2
16	1.0	1.0			150.0	0.0	0.0							5.0	0.0	0.33880080319795525	5.0	100.0	3.0	5.0	3.0	8.0	0.0	part_2
17	3.0	1.0			150.0	0.0	1.0							6.0	0.0	0.4856626679866167	6.0	100.0	1.0	1.0	5.0	2.0	1.0	part_2
18	1.0	1.0			150.0	0.0	1.0							6.0	0.0	0.3624671687903174	6.0	50.0	3.0	6.0	7.0	5.0	0.0	part_2
19	1.0	1.0			150.0	0.0	0.0							5.0	0.0	0.3059930616036581	5.0	50.0	3.0	5.0	3.0	8.0	0.0	part_2
20	1.0	1.0			150.0	0.0	0.0							6.0	0.0	0.3967449959891383	6.0	50.0	1.0	7.0	1.0	7.0	0.0	part_2
21	1.0	1.0			150.0	0.0	1.0							6.0	0.0	0.34320898559599294	6.0	50.0	1.0	1.0	5.0	2.0	0.0	part_2
22	1.0	1.0			150.0	0.0	0.0							6.0	0.0	0.3418453185840917	6.0	50.0	2.0	4.0	2.0	6.0	0.0	part_2
23	3.0	1.0			150.0	0.0	1.0							5.0	0.0	0.37836880380200455	5.0	50.0	4.0	8.0	8.0	4.0	1.0	part_2
24	1.0	1.0			100.0	0.0	0.0							6.0	0.0	0.3002281439876242	6.0	50.0	1.0	7.0	1.0	7.0	0.0	part_2
25	3.0	1.0			100.0	0.0	1.0							6.0	0.0	0.4013810903816193	6.0	50.0	2.0	3.0	6.0	3.0	1.0	part_2
26	1.0	1.0			100.0	0.0	0.0							5.0	0.0	0.34739102259482024	5.0	0.0	2.0	4.0	2.0	6.0	0.0	part_2
27	3.0	1.0			100.0	0.0	1.0							5.0	0.0	0.5507722855836619	5.0	0.0	2.0	3.0	6.0	3.0	1.0	part_2
28	1.0	1.0			50.0	0.0	1.0							5.0	0.0	0.3699663883926405	5.0	0.0	1.0	1.0	5.0	2.0	0.0	part_2
29	3.0	1.0			50.0	0.0	1.0							5.0	0.0	0.3704688961879583	5.0	0.0	3.0	6.0	7.0	5.0	1.0	part_2
30	3.0	1.0			0.0	0.0	1.0							6.0	0.0	0.4613696390006226	6.0	0.0	3.0	6.0	7.0	5.0	1.0	part_2
31	1.0	1.0			0.0	0.0	0.0							5.0	0.0	0.32899565780098783	5.0	0.0	4.0	2.0	4.0	1.0	0.0	part_2
32	1.0	1.0			0.0	0.0	1.0							5.0	0.0	0.5435244141917792	5.0	0.0	3.0	6.0	7.0	5.0	0.0	part_2
33	1.0	1.0			0.0	0.0	0.0							6.0	0.0	0.5422166529897368	6.0	0.0	1.0	7.0	1.0	7.0	0.0	part_2
34	3.0	1.0			0.0	0.0	1.0							6.0	0.0	0.39771893238139455	6.0	0.0	3.0	6.0	7.0	5.0	1.0	part_2
35	3.0	1.0			0.0	0.0	1.0							6.0	0.0	0.3322350151902356	6.0	0.0	1.0	1.0	5.0	2.0	1.0	part_2
36	3.0	2.0			0.0	0.0	1.0							6.0	0.0	0.38468412039583205	6.0	0.0	4.0	8.0	8.0	4.0	1.0	part_2
37	1.0	2.0			0.0	0.0	0.0							6.0	0.0	0.3174867205925693	6.0	0.0	1.0	7.0	1.0	7.0	0.0	part_2
38	1.0	2.0			0.0	0.0	0.0							6.0	0.0	0.4308080413975404	6.0	0.0	3.0	5.0	3.0	8.0	0.0	part_2
39	1.0	2.0			0.0	0.0	0.0							5.0	0.0	0.33176680459291674	5.0	0.0	1.0	7.0	1.0	7.0	0.0	part_2
40	1.0	2.0			0.0	0.0	1.0							6.0	0.0	0.3666974935840699	6.0	0.0	1.0	1.0	5.0	2.0	0.0	part_2
41	1.0	2.0			0.0	0.0	0.0							6.0	0.0	0.3427145719870168	6.0	0.0	4.0	2.0	4.0	1.0	0.0	part_2
42	1.0	2.0			0.0	0.0	1.0							5.0	0.0	0.2666745085844013	5.0	0.0	2.0	3.0	6.0	3.0	0.0	part_2
43	1.0	2.0			0.0	0.0	1.0							6.0	0.0	0.3121473056053219	6.0	0.0	1.0	1.0	5.0	2.0	0.0	part_2
44	3.0	2.0			0.0	0.0	1.0							5.0	0.0	0.2553202895942377	5.0	0.0	2.0	3.0	6.0	3.0	1.0	part_2
45	1.0	2.0			0.0	0.0	0.0							6.0	0.0	0.2907294592005201	6.0	0.0	3.0	5.0	3.0	8.0	0.0	part_2
46	1.0	2.0			0.0	0.0	0.0							5.0	0.0	0.28001210459842696	5.0	0.0	1.0	7.0	1.0	7.0	0.0	part_2
47	3.0	2.0			0.0	0.0	1.0							5.0	0.0	0.3371393835950585	5.0	0.0	4.0	8.0	8.0	4.0	1.0	part_2
48	1.0	2.0			0.0	0.0	0.0							6.0	0.0	0.27016881939562154	6.0	0.0	2.0	4.0	2.0	6.0	0.0	part_2
49	3.0	2.0			0.0	0.0	1.0							5.0	0.0	0.2487595293932827	5.0	0.0	3.0	6.0	7.0	5.0	1.0	part_2
50	1.0	2.0			0.0	0.0	0.0							5.0	0.0	0.6447730739891995	5.0	0.0	1.0	7.0	1.0	7.0	0.0	part_2
51	3.0	2.0			0.0	0.0	1.0							5.0	0.0	0.3419325998002023	5.0	0.0	3.0	6.0	7.0	5.0	1.0	part_2
52	3.0	2.0			0.0	0.0	1.0							5.0	0.0	0.30800193659524666	5.0	0.0	2.0	3.0	6.0	3.0	1.0	part_2
53	1.0	2.0			0.0	0.0	0.0							6.0	0.0	0.4317793214067933	6.0	0.0	3.0	5.0	3.0	8.0	0.0	part_2
54	1.0	2.0			0.0	0.0	0.0							6.0	0.0	0.4214987233826832	6.0	0.0	4.0	2.0	4.0	1.0	0.0	part_2
55	1.0	2.0			0.0	0.0	1.0							5.0	0.0	0.3210821675820625	5.0	0.0	4.0	8.0	8.0	4.0	0.0	part_2
56	1.0	2.0			0.0	0.0	0.0							6.0	0.0	0.33277903220368893	6.0	0.0	2.0	4.0	2.0	6.0	0.0	part_2
57	1.0	2.0			0.0	0.0	0.0							5.0	0.0	0.3803575121892209	5.0	0.0	4.0	2.0	4.0	1.0	0.0	part_2
58	3.0	2.0			0.0	0.0	1.0							5.0	0.0	0.4826107068001875	5.0	0.0	3.0	6.0	7.0	5.0	1.0	part_2
59	1.0	2.0			0.0	0.0	0.0							5.0	0.0	0.35856705399055494	5.0	0.0	3.0	5.0	3.0	8.0	0.0	part_2
60	3.0	2.0			0.0	0.0	1.0							6.0	0.0	0.3022187868009496	6.0	0.0	1.0	1.0	5.0	2.0	1.0	part_2
61	1.0	2.0			0.0	0.0	0.0							6.0	0.0	0.4739336391903634	6.0	0.0	1.0	7.0	1.0	7.0	0.0	part_2
62	1.0	2.0			0.0	0.0	0.0							5.0	0.0	0.3274215081983129	5.0	0.0	4.0	2.0	4.0	1.0	0.0	part_2
63	4.0	2.0			0.0	0.0	1.0							5.0	0.0	0.0	0.0	0.0	3.0	6.0	7.0	5.0	1.0	part_2
64	1.0	2.0			50.0	0.0	0.0							6.0	0.0	0.31696499219106045	6.0	0.0	1.0	7.0	1.0	7.0	0.0	part_2
65	1.0	2.0			50.0	0.0	0.0							5.0	0.0	0.3079824413835013	5.0	0.0	2.0	4.0	2.0	6.0	0.0	part_2
66	1.0	2.0			50.0	0.0	0.0							6.0	0.0	0.3426409025960311	6.0	0.0	4.0	2.0	4.0	1.0	0.0	part_2
67	1.0	2.0			50.0	0.0	0.0							6.0	0.0	0.3544953817872738	6.0	0.0	4.0	2.0	4.0	1.0	0.0	part_2
68	3.0	2.0			50.0	0.0	1.0							5.0	0.0	0.3109541473859281	5.0	0.0	3.0	6.0	7.0	5.0	1.0	part_2
69	1.0	2.0			0.0	0.0	0.0							6.0	0.0	0.25466205579868983	6.0	0.0	4.0	2.0	4.0	1.0	0.0	part_2
70	1.0	2.0			0.0	0.0	0.0							6.0	0.0	0.38954880059463903	6.0	0.0	2.0	4.0	2.0	6.0	0.0	part_2
71	3.0	2.0			0.0	0.0	1.0							5.0	0.0	0.3007795227895258	5.0	0.0	3.0	6.0	7.0	5.0	1.0	part_2
72	1.0	3.0			0.0	0.0	0.0							6.0	0.0	0.3751920715840241	6.0	0.0	2.0	4.0	2.0	6.0	0.0	part_2
73	1.0	3.0			0.0	0.0	1.0							5.0	0.0	0.3086802578000061	5.0	0.0	3.0	6.0	7.0	5.0	0.0	part_2
74	1.0	3.0			0.0	0.0	0.0							6.0	0.0	0.286503187395283	6.0	0.0	3.0	5.0	3.0	8.0	0.0	part_2
75	3.0	3.0			0.0	0.0	1.0							6.0	0.0	0.4455708365967439	6.0	0.0	3.0	6.0	7.0	5.0	1.0	part_2
76	4.0	3.0			0.0	0.0	1.0							5.0	0.0	0.0	0.0	0.0	1.0	1.0	5.0	2.0	1.0	part_2
77	1.0	3.0			50.0	0.0	0.0							5.0	0.0	0.4249561340002401	5.0	0.0	1.0	7.0	1.0	7.0	0.0	part_2
78	1.0	3.0			50.0	0.0	1.0							6.0	0.0	0.5053441499876499	6.0	0.0	4.0	8.0	8.0	4.0	0.0	part_2
79	4.0	3.0			50.0	0.0	1.0							6.0	0.0	0.0	0.0	0.0	4.0	8.0	8.0	4.0	1.0	part_2
80	4.0	3.0			50.0	0.0	1.0							6.0	0.0	0.0	0.0	50.0	2.0	3.0	6.0	3.0	1.0	part_2
81	1.0	3.0			50.0	0.0	0.0							5.0	0.0	0.3723408257865231	5.0	100.0	4.0	2.0	4.0	1.0	0.0	part_2
82	1.0	3.0			50.0	0.0	0.0							6.0	0.0	0.3288167883838469	6.0	100.0	2.0	4.0	2.0	6.0	0.0	part_2
83	4.0	3.0			50.0	0.0	1.0							5.0	0.0	0.0	0.0	100.0	3.0	6.0	7.0	5.0	1.0	part_2
84	4.0	3.0			100.0	0.0	1.0							5.0	0.0	0.0	0.0	100.0	1.0	1.0	5.0	2.0	1.0	part_2
85	1.0	3.0			150.0	0.0	0.0							5.0	0.0	0.44267760858201655	5.0	100.0	3.0	5.0	3.0	8.0	0.0	part_2
86	1.0	3.0			150.0	0.0	0.0							5.0	0.0	0.4208655057991564	5.0	100.0	2.0	4.0	2.0	6.0	0.0	part_2
87	1.0	3.0			150.0	0.0	0.0							6.0	0.0	0.5341866165981628	6.0	100.0	4.0	2.0	4.0	1.0	0.0	part_2
88	3.0	3.0			150.0	0.0	1.0							5.0	0.0	0.41088750879862346	5.0	100.0	1.0	1.0	5.0	2.0	1.0	part_2
89	1.0	3.0			100.0	0.0	1.0							5.0	0.0	0.45662486818037	5.0	100.0	4.0	8.0	8.0	4.0	0.0	part_2
90	1.0	3.0			100.0	0.0	0.0							5.0	0.0	0.4588768947869539	5.0	100.0	2.0	4.0	2.0	6.0	0.0	part_2
91	4.0	3.0			100.0	0.0	1.0							6.0	0.0	0.0	0.0	100.0	2.0	3.0	6.0	3.0	1.0	part_2
92	1.0	3.0			100.0	0.0	0.0							5.0	0.0	0.3919394177901268	5.0	150.0	2.0	4.0	2.0	6.0	0.0	part_2
93	4.0	3.0			100.0	0.0	1.0							5.0	0.0	0.0	0.0	150.0	3.0	6.0	7.0	5.0	1.0	part_2
94	1.0	3.0			150.0	0.0	0.0							5.0	0.0	0.4048993901888025	5.0	150.0	1.0	7.0	1.0	7.0	0.0	part_2
95	3.0	3.0			150.0	0.0	1.0							5.0	0.0	0.3943755089894694	5.0	150.0	1.0	1.0	5.0	2.0	1.0	part_2
96	1.0	3.0			100.0	0.0	0.0							5.0	0.0	0.4627074293821352	5.0	150.0	1.0	7.0	1.0	7.0	0.0	part_2
97	4.0	3.0			100.0	0.0	1.0							5.0	0.0	0.0	0.0	150.0	3.0	6.0	7.0	5.0	1.0	part_2
98	1.0	3.0			150.0	0.0	0.0							5.0	0.0	0.5446296007867204	5.0	150.0	3.0	5.0	3.0	8.0	0.0	part_2
99	1.0	3.0			150.0	0.0	0.0							6.0	0.0	0.3878743006061995	6.0	150.0	2.0	4.0	2.0	6.0	0.0	part_2
100	1.0	3.0			150.0	0.0	0.0							6.0	0.0	0.4103094372003397	6.0	150.0	2.0	4.0	2.0	6.0	0.0	part_2
101	4.0	3.0			150.0	0.0	1.0							6.0	0.0	0.0	0.0	150.0	1.0	1.0	5.0	2.0	1.0	part_2
102	1.0	3.0			150.0	0.0	0.0							6.0	0.0	0.4559371299910708	6.0	200.0	4.0	2.0	4.0	1.0	0.0	part_2
103	1.0	3.0			150.0	0.0	0.0							5.0	0.0	0.4586903053968854	5.0	200.0	4.0	2.0	4.0	1.0	0.0	part_2
104	1.0	3.0			150.0	0.0	0.0							6.0	0.0	0.515589613787597	6.0	200.0	3.0	5.0	3.0	8.0	0.0	part_2
105	1.0	3.0			150.0	0.0	1.0							6.0	0.0	0.4374259763826558	6.0	200.0	1.0	1.0	5.0	2.0	0.0	part_2
106	1.0	3.0			150.0	0.0	0.0							5.0	0.0	0.5061713813956885	5.0	200.0	2.0	4.0	2.0	6.0	0.0	part_2
107	4.0	3.0			150.0	0.0	1.0							5.0	0.0	0.0	0.0	200.0	4.0	8.0	8.0	4.0	1.0	part_2
108	3.0	4.0			200.0	0.0	1.0							6.0	0.0	0.4579232517899072	6.0	200.0	2.0	3.0	6.0	3.0	1.0	part_2
109	1.0	4.0			200.0	0.0	0.0							5.0	0.0	0.4237678281897388	5.0	150.0	1.0	7.0	1.0	7.0	0.0	part_2
110	1.0	4.0			200.0	0.0	0.0							6.0	0.0	0.4820155711895495	6.0	150.0	3.0	5.0	3.0	8.0	0.0	part_2
111	1.0	4.0			200.0	0.0	1.0							6.0	0.0	0.4152402912004618	6.0	150.0	3.0	6.0	7.0	5.0	0.0	part_2
112	1.0	4.0			200.0	0.0	0.0							5.0	0.0	0.3921313561913848	5.0	150.0	4.0	2.0	4.0	1.0	0.0	part_2
113	1.0	4.0			200.0	0.0	1.0							5.0	0.0	0.5073700503853615	5.0	150.0	1.0	1.0	5.0	2.0	0.0	part_2
114	4.0	4.0			200.0	0.0	1.0							6.0	0.0	0.0	0.0	150.0	4.0	8.0	8.0	4.0	1.0	part_2
115	4.0	4.0			200.0	0.0	1.0							6.0	0.0	0.0	0.0	200.0	1.0	1.0	5.0	2.0	1.0	part_2
116	4.0	4.0			200.0	0.0	1.0							6.0	0.0	0.0	0.0	250.0	2.0	3.0	6.0	3.0	1.0	part_2
117	1.0	4.0			200.0	0.0	0.0							5.0	0.0	0.3751176981895696	5.0	300.0	2.0	4.0	2.0	6.0	0.0	part_2
118	1.0	4.0			200.0	0.0	1.0							6.0	0.0	0.5320567538001342	6.0	300.0	2.0	3.0	6.0	3.0	0.0	part_2
119	4.0	4.0			200.0	0.0	1.0							5.0	0.0	0.0	0.0	300.0	1.0	1.0	5.0	2.0	1.0	part_2
120	3.0	4.0			250.0	0.0	1.0							6.0	0.0	0.4661431935855944	6.0	300.0	1.0	1.0	5.0	2.0	1.0	part_2
121	1.0	4.0			250.0	0.0	0.0							6.0	0.0	0.5120001938012138	6.0	250.0	2.0	4.0	2.0	6.0	0.0	part_2
122	1.0	4.0			250.0	0.0	0.0							6.0	0.0	0.4801902354047343	6.0	250.0	1.0	7.0	1.0	7.0	0.0	part_2
123	4.0	4.0			250.0	0.0	1.0							5.0	0.0	0.0	0.0	250.0	4.0	8.0	8.0	4.0	1.0	part_2
124	1.0	4.0			300.0	0.0	1.0							5.0	0.0	0.5160012583946809	5.0	250.0	1.0	1.0	5.0	2.0	0.0	part_2
125	1.0	4.0			300.0	0.0	0.0							5.0	0.0	0.7514541649907187	5.0	250.0	4.0	2.0	4.0	1.0	0.0	part_2
126	3.0	4.0			300.0	0.0	1.0							5.0	0.0	0.4374170629889704	5.0	250.0	2.0	3.0	6.0	3.0	1.0	part_2
127	4.0	4.0			250.0	0.0	1.0							5.0	0.0	0.0	0.0	250.0	1.0	1.0	5.0	2.0	1.0	part_2
128	1.0	4.0			300.0	0.0	1.0							5.0	0.0	0.7333564177861263	5.0	250.0	2.0	3.0	6.0	3.0	0.0	part_2
129	4.0	4.0			300.0	0.0	1.0							6.0	0.0	0.0	0.0	250.0	3.0	6.0	7.0	5.0	1.0	part_2
130	1.0	4.0			300.0	0.0	1.0							5.0	0.0	0.6224946477886988	5.0	300.0	3.0	6.0	7.0	5.0	0.0	part_2
131	1.0	4.0			300.0	0.0	0.0							5.0	0.0	0.7898860553941631	5.0	300.0	2.0	4.0	2.0	6.0	0.0	part_2
132	4.0	4.0			300.0	0.0	1.0							5.0	0.0	0.0	0.0	300.0	4.0	8.0	8.0	4.0	1.0	part_2
133	1.0	4.0			350.0	0.0	0.0							6.0	0.0	0.6686974997974175	6.0	300.0	3.0	5.0	3.0	8.0	0.0	part_2
134	1.0	4.0			350.0	0.0	0.0							5.0	0.0	0.7366459567965649	5.0	300.0	4.0	2.0	4.0	1.0	0.0	part_2
135	1.0	4.0			350.0	0.0	0.0							6.0	0.0	0.6248649655972258	6.0	300.0	2.0	4.0	2.0	6.0	0.0	part_2
136	1.0	4.0			350.0	0.0	1.0							5.0	0.0	0.6158142017884529	5.0	300.0	3.0	6.0	7.0	5.0	0.0	part_2
137	1.0	4.0			350.0	0.0	0.0							6.0	0.0	0.7286417695941054	6.0	300.0	4.0	2.0	4.0	1.0	0.0	part_2
138	1.0	4.0			350.0	0.0	0.0							5.0	0.0	0.4135378531791503	5.0	300.0	1.0	7.0	1.0	7.0	0.0	part_2
139	1.0	4.0			350.0	0.0	0.0							6.0	0.0	0.6412292081804479	6.0	300.0	2.0	4.0	2.0	6.0	0.0	part_2
140	1.0	4.0			350.0	0.0	0.0							6.0	0.0	0.5169892607882502	6.0	300.0	3.0	5.0	3.0	8.0	0.0	part_2
141	4.0	4.0			350.0	0.0	1.0							5.0	0.0	0.0	0.0	300.0	2.0	3.0	6.0	3.0	1.0	part_2
142	3.0	4.0			400.0	0.0	1.0							5.0	0.0	0.5519035735924263	5.0	300.0	3.0	6.0	7.0	5.0	1.0	part_2
143	1.0	4.0			350.0	0.0	0.0							6.0	0.0	0.7338281293814362	6.0	300.0	1.0	7.0	1.0	7.0	0.0	part_2
144	1.0	5.0			350.0	0.0	0.0							6.0	0.0	0.766602419593255	6.0	300.0	2.0	4.0	2.0	6.0	0.0	part_2
145	1.0	5.0			350.0	0.0	0.0							5.0	0.0	0.4857721029984532	5.0	300.0	3.0	5.0	3.0	8.0	0.0	part_2
146	4.0	5.0			350.0	0.0	1.0							6.0	0.0	0.0	0.0	300.0	3.0	6.0	7.0	5.0	1.0	part_2
147	4.0	5.0			350.0	0.0	1.0							6.0	0.0	0.0	0.0	350.0	2.0	3.0	6.0	3.0	1.0	part_2
148	1.0	5.0			350.0	0.0	0.0							6.0	0.0	0.6570508943950699	6.0	400.0	4.0	2.0	4.0	1.0	0.0	part_2
149	4.0	5.0			350.0	0.0	1.0							6.0	0.0	0.0	0.0	400.0	4.0	8.0	8.0	4.0	1.0	part_2
150	4.0	5.0			350.0	0.0	1.0							6.0	0.0	0.0	0.0	450.0	3.0	6.0	7.0	5.0	1.0	part_2
151	1.0	5.0			350.0	0.0	0.0							6.0	0.0	0.6699812327969994	6.0	500.0	3.0	5.0	3.0	8.0	0.0	part_2
152	1.0	5.0			350.0	0.0	0.0							6.0	0.0	0.6822706759921857	6.0	500.0	1.0	7.0	1.0	7.0	0.0	part_2
153	1.0	5.0			350.0	0.0	0.0							6.0	0.0	0.8072096543946827	6.0	500.0	1.0	7.0	1.0	7.0	0.0	part_2
154	4.0	5.0			350.0	0.0	1.0							6.0	0.0	0.0	0.0	500.0	1.0	1.0	5.0	2.0	1.0	part_2
155	1.0	5.0			350.0	0.0	0.0							5.0	0.0	0.6844527459907113	5.0	550.0	3.0	5.0	3.0	8.0	0.0	part_2
156	1.0	5.0			350.0	0.0	0.0							5.0	0.0	0.7644743786040635	5.0	550.0	1.0	7.0	1.0	7.0	0.0	part_2
157	1.0	5.0			350.0	0.0	1.0							5.0	0.0	0.6428971889872628	5.0	550.0	2.0	3.0	6.0	3.0	0.0	part_2
158	1.0	5.0			350.0	0.0	1.0							5.0	0.0	0.6527662553853588	5.0	550.0	4.0	8.0	8.0	4.0	0.0	part_2
159	3.0	5.0			350.0	0.0	1.0							6.0	0.0	0.7210852841890301	6.0	550.0	4.0	8.0	8.0	4.0	1.0	part_2
160	4.0	5.0			350.0	0.0	1.0							6.0	0.0	0.0	0.0	500.0	2.0	3.0	6.0	3.0	1.0	part_2
161	1.0	5.0			350.0	0.0	0.0							5.0	0.0	0.8144593047909439	5.0	550.0	2.0	4.0	2.0	6.0	0.0	part_2
162	1.0	5.0			350.0	0.0	0.0							6.0	0.0	0.9388752117993135	6.0	550.0	2.0	4.0	2.0	6.0	0.0	part_2
163	1.0	5.0			350.0	0.0	1.0							6.0	0.0	0.7697154755951487	6.0	550.0	4.0	8.0	8.0	4.0	0.0	part_2
164	4.0	5.0			350.0	0.0	1.0							6.0	0.0	0.0	0.0	550.0	4.0	8.0	8.0	4.0	1.0	part_2
165	1.0	5.0			350.0	0.0	1.0							5.0	0.0	1.0188573509913113	5.0	600.0	2.0	3.0	6.0	3.0	0.0	part_2
166	4.0	5.0			350.0	0.0	1.0							5.0	0.0	0.0	0.0	600.0	2.0	3.0	6.0	3.0	1.0	part_2
167	1.0	5.0			400.0	0.0	0.0							5.0	0.0	0.7519329361894052	5.0	600.0	3.0	5.0	3.0	8.0	0.0	part_2
168	1.0	5.0			400.0	0.0	0.0							6.0	0.0	0.8863611440028762	6.0	600.0	4.0	2.0	4.0	1.0	0.0	part_2
169	4.0	5.0			400.0	0.0	1.0							5.0	0.0	0.0	0.0	600.0	2.0	3.0	6.0	3.0	1.0	part_2
170	1.0	5.0			450.0	0.0	0.0							5.0	0.0	0.6977805259994057	5.0	600.0	4.0	2.0	4.0	1.0	0.0	part_2
171	4.0	5.0			450.0	0.0	1.0							6.0	0.0	0.0	0.0	600.0	4.0	8.0	8.0	4.0	1.0	part_2
172	1.0	5.0			450.0	0.0	0.0							5.0	0.0	0.8801763429873972	5.0	650.0	1.0	7.0	1.0	7.0	0.0	part_2
173	3.0	5.0			450.0	0.0	1.0							6.0	0.0	0.6207337863925204	6.0	650.0	4.0	8.0	8.0	4.0	1.0	part_2
174	1.0	5.0			450.0	0.0	0.0							5.0	0.0	1.1181864597965614	5.0	600.0	2.0	4.0	2.0	6.0	0.0	part_2
175	1.0	5.0			450.0	0.0	1.0							6.0	0.0	1.1735949515968969	6.0	600.0	2.0	3.0	6.0	3.0	0.0	part_2
176	1.0	5.0			450.0	0.0	1.0							6.0	0.0	0.9491441413956636	6.0	600.0	2.0	3.0	6.0	3.0	0.0	part_2
177	4.0	5.0			450.0	0.0	1.0							6.0	0.0	0.0	0.0	600.0	4.0	8.0	8.0	4.0	1.0	part_2
178	1.0	5.0			450.0	0.0	0.0							5.0	0.0	0.7259451443860598	5.0	650.0	3.0	5.0	3.0	8.0	0.0	part_2
179	1.0	5.0			450.0	0.0	0.0							6.0	0.0	1.0201140771896462	6.0	650.0	3.0	5.0	3.0	8.0	0.0	part_2
180	3.0	6.0			450.0	0.0	1.0							6.0	0.0	0.6971791383948585	6.0	650.0	3.0	6.0	7.0	5.0	1.0	part_2
181	4.0	6.0			450.0	0.0	1.0							6.0	0.0	0.0	0.0	600.0	3.0	6.0	7.0	5.0	1.0	part_2
182	3.0	6.0			450.0	0.0	1.0							6.0	0.0	0.7776616505871061	6.0	650.0	4.0	8.0	8.0	4.0	1.0	part_2
183	1.0	6.0			450.0	0.0	1.0							5.0	0.0	0.8133349227973667	5.0	600.0	4.0	8.0	8.0	4.0	0.0	part_2
184	1.0	6.0			450.0	0.0	0.0							6.0	0.0	0.7002085365929815	6.0	600.0	1.0	7.0	1.0	7.0	0.0	part_2
185	3.0	6.0			450.0	0.0	1.0							6.0	0.0	0.7576669835871144	6.0	600.0	3.0	6.0	7.0	5.0	1.0	part_2
186	4.0	6.0			450.0	0.0	1.0							5.0	0.0	0.0	0.0	550.0	1.0	1.0	5.0	2.0	1.0	part_2
187	1.0	6.0			500.0	0.0	0.0							6.0	0.0	0.8510819032017025	6.0	550.0	1.0	7.0	1.0	7.0	0.0	part_2
188	4.0	6.0			500.0	0.0	1.0							6.0	0.0	0.0	0.0	550.0	1.0	1.0	5.0	2.0	1.0	part_2
189	1.0	6.0			500.0	0.0	0.0							6.0	0.0	0.6706466235955304	6.0	600.0	4.0	2.0	4.0	1.0	0.0	part_2
190	1.0	6.0			500.0	0.0	0.0							5.0	0.0	0.7961650149991328	5.0	600.0	2.0	4.0	2.0	6.0	0.0	part_2
191	1.0	6.0			500.0	0.0	0.0							5.0	0.0	0.978014731190342	5.0	600.0	2.0	4.0	2.0	6.0	0.0	part_2
192	4.0	6.0			500.0	0.0	1.0							5.0	0.0	0.0	0.0	600.0	2.0	3.0	6.0	3.0	1.0	part_2
193	1.0	6.0			550.0	0.0	0.0							5.0	0.0	0.584119141989504	5.0	600.0	3.0	5.0	3.0	8.0	0.0	part_2
194	1.0	6.0			550.0	0.0	0.0							6.0	0.0	0.8097607483941829	6.0	600.0	2.0	4.0	2.0	6.0	0.0	part_2
195	4.0	6.0			550.0	0.0	1.0							5.0	0.0	0.0	0.0	600.0	4.0	8.0	8.0	4.0	1.0	part_2
196	1.0	6.0			600.0	0.0	0.0							5.0	0.0	0.5654746147883998	5.0	600.0	1.0	7.0	1.0	7.0	0.0	part_2
197	1.0	6.0			600.0	0.0	0.0							6.0	0.0	0.9365140240006441	6.0	600.0	4.0	2.0	4.0	1.0	0.0	part_2
198	4.0	6.0			600.0	0.0	1.0							6.0	0.0	0.0	0.0	600.0	2.0	3.0	6.0	3.0	1.0	part_2
199	4.0	6.0			600.0	0.0	1.0							6.0	0.0	0.0	0.0	650.0	4.0	8.0	8.0	4.0	1.0	part_2
200	1.0	6.0			600.0	0.0	0.0							5.0	0.0	0.5236322985947481	5.0	700.0	2.0	4.0	2.0	6.0	0.0	part_2
201	4.0	6.0			600.0	0.0	1.0							5.0	0.0	0.0	0.0	700.0	2.0	3.0	6.0	3.0	1.0	part_2
202	1.0	6.0			650.0	0.0	0.0							5.0	0.0	0.6936206505961309	5.0	700.0	4.0	2.0	4.0	1.0	0.0	part_2
203	1.0	6.0			650.0	0.0	0.0							5.0	0.0	0.5488450369557539	5.0	700.0	1.0	7.0	1.0	7.0	0.0	part_2
204	3.0	6.0			650.0	0.0	1.0							5.0	0.0	0.9089836435850884	5.0	700.0	1.0	1.0	5.0	2.0	1.0	part_2
205	1.0	6.0			600.0	0.0	0.0							6.0	0.0	0.5950147685834963	6.0	700.0	2.0	4.0	2.0	6.0	0.0	part_2
206	4.0	6.0			600.0	0.0	1.0							6.0	0.0	0.0	0.0	700.0	2.0	3.0	6.0	3.0	1.0	part_2
207	4.0	6.0			600.0	0.0	1.0							6.0	0.0	0.0	0.0	750.0	3.0	6.0	7.0	5.0	1.0	part_2
208	1.0	6.0			600.0	0.0	0.0							5.0	0.0	0.6975612315836769	5.0	800.0	2.0	4.0	2.0	6.0	0.0	part_2
209	4.0	6.0			600.0	0.0	1.0							6.0	0.0	0.0	0.0	800.0	2.0	3.0	6.0	3.0	1.0	part_2
210	1.0	6.0			600.0	0.0	1.0							6.0	0.0	1.207077420582209	6.0	850.0	4.0	8.0	8.0	4.0	0.0	part_2
211	1.0	6.0			600.0	0.0	1.0							5.0	0.0	1.0055881091902847	5.0	850.0	3.0	6.0	7.0	5.0	0.0	part_2
212	1.0	6.0			600.0	0.0	0.0							5.0	0.0	0.6687353213928873	5.0	850.0	4.0	2.0	4.0	1.0	0.0	part_2
213	4.0	6.0			600.0	0.0	1.0							6.0	0.0	0.0	0.0	850.0	1.0	1.0	5.0	2.0	1.0	part_2
214	1.0	6.0			600.0	0.0	0.0							5.0	0.0	0.4892213285856997	5.0	900.0	2.0	4.0	2.0	6.0	0.0	part_2
215	1.0	6.0			600.0	0.0	1.0							6.0	0.0	1.0536939623962098	6.0	900.0	2.0	3.0	6.0	3.0	0.0	part_2
216	3.0	7.0			600.0	0.0	1.0							5.0	0.0	0.38319454519296414	5.0	900.0	2.0	3.0	6.0	3.0	1.0	part_2
217	1.0	7.0			550.0	0.0	0.0							6.0	0.0	0.4642511503807327	6.0	900.0	2.0	4.0	2.0	6.0	0.0	part_2
218	3.0	7.0			550.0	0.0	1.0							6.0	0.0	0.9143530265500884	6.0	900.0	4.0	8.0	8.0	4.0	1.0	part_2
219	4.0	7.0			550.0	0.0	1.0							6.0	0.0	0.0	0.0	850.0	2.0	3.0	6.0	3.0	1.0	part_2
220	1.0	7.0			550.0	0.0	0.0							5.0	0.0	0.6244460545931361	5.0	900.0	4.0	2.0	4.0	1.0	0.0	part_2
221	4.0	7.0			550.0	0.0	1.0							6.0	0.0	0.0	0.0	900.0	2.0	3.0	6.0	3.0	1.0	part_2
222	4.0	7.0			550.0	0.0	1.0							5.0	0.0	0.0	0.0	950.0	2.0	3.0	6.0	3.0	1.0	part_2
223	1.0	7.0			600.0	0.0	0.0							6.0	0.0	0.4451321085944073	6.0	950.0	3.0	5.0	3.0	8.0	0.0	part_2
224	3.0	7.0			600.0	0.0	1.0							6.0	0.0	0.5152007479882741	6.0	950.0	3.0	6.0	7.0	5.0	1.0	part_2
225	1.0	7.0			600.0	0.0	0.0							5.0	0.0	0.5372219843957282	5.0	900.0	3.0	5.0	3.0	8.0	0.0	part_2
226	3.0	7.0			600.0	0.0	1.0							5.0	0.0	0.6169280165850068	5.0	900.0	1.0	1.0	5.0	2.0	1.0	part_2
227	3.0	7.0			550.0	0.0	1.0							6.0	0.0	1.0331446052005049	6.0	900.0	2.0	3.0	6.0	3.0	1.0	part_2
228	4.0	7.0			550.0	0.0	1.0							5.0	0.0	0.0	0.0	850.0	3.0	6.0	7.0	5.0	1.0	part_2
229	1.0	7.0			600.0	0.0	0.0							6.0	0.0	0.6305551803925482	6.0	850.0	3.0	5.0	3.0	8.0	0.0	part_2
230	1.0	7.0			600.0	0.0	0.0							5.0	0.0	0.5990264403953915	5.0	850.0	4.0	2.0	4.0	1.0	0.0	part_2
231	1.0	7.0			600.0	0.0	0.0							6.0	0.0	0.3843141509896668	6.0	850.0	3.0	5.0	3.0	8.0	0.0	part_2
232	4.0	7.0			600.0	0.0	1.0							5.0	0.0	0.0	0.0	850.0	4.0	8.0	8.0	4.0	1.0	part_2
233	1.0	7.0			650.0	0.0	0.0							6.0	0.0	0.4202088341880881	6.0	850.0	3.0	5.0	3.0	8.0	0.0	part_2
234	3.0	7.0			650.0	0.0	1.0							5.0	0.0	0.509978041798604	5.0	850.0	1.0	1.0	5.0	2.0	1.0	part_2
235	4.0	7.0			600.0	0.0	1.0							5.0	0.0	0.0	0.0	850.0	4.0	8.0	8.0	4.0	1.0	part_2
236	1.0	7.0			650.0	0.0	0.0							6.0	0.0	0.7604017593839671	6.0	850.0	4.0	2.0	4.0	1.0	0.0	part_2
237	1.0	7.0			650.0	0.0	1.0							6.0	0.0	1.1210169471996778	6.0	850.0	1.0	1.0	5.0	2.0	0.0	part_2
238	1.0	7.0			650.0	0.0	0.0							5.0	0.0	0.4804088105811388	5.0	850.0	3.0	5.0	3.0	8.0	0.0	part_2
239	4.0	7.0			650.0	0.0	1.0							5.0	0.0	0.0	0.0	850.0	1.0	1.0	5.0	2.0	1.0	part_2
240	4.0	7.0			700.0	0.0	1.0							5.0	0.0	0.0	0.0	850.0	1.0	1.0	5.0	2.0	1.0	part_2
241	4.0	7.0			750.0	0.0	1.0							5.0	0.0	0.0	0.0	850.0	4.0	8.0	8.0	4.0	1.0	part_2
242	1.0	7.0			800.0	0.0	0.0							5.0	0.0	0.4737205699893821	5.0	850.0	1.0	7.0	1.0	7.0	0.0	part_2
243	3.0	7.0			800.0	0.0	1.0							5.0	0.0	0.3398205457997392	5.0	850.0	3.0	6.0	7.0	5.0	1.0	part_2
244	1.0	7.0			750.0	0.0	1.0							6.0	0.0	0.9692809879998094	6.0	850.0	3.0	6.0	7.0	5.0	0.0	part_2
245	1.0	7.0			750.0	0.0	1.0							5.0	0.0	1.2627542061891293	5.0	850.0	1.0	1.0	5.0	2.0	0.0	part_2
246	1.0	7.0			750.0	0.0	0.0							6.0	0.0	0.4754912157986837	6.0	850.0	2.0	4.0	2.0	6.0	0.0	part_2
247	1.0	7.0			750.0	0.0	0.0							6.0	0.0	0.4764723261905601	6.0	850.0	1.0	7.0	1.0	7.0	0.0	part_2
248	1.0	7.0			750.0	0.0	0.0							6.0	0.0	0.3985498127876781	6.0	850.0	3.0	5.0	3.0	8.0	0.0	part_2
249	1.0	7.0			750.0	0.0	0.0							5.0	0.0	0.4331574809912127	5.0	850.0	1.0	7.0	1.0	7.0	0.0	part_2
250	4.0	7.0			750.0	0.0	1.0							5.0	0.0	0.0	0.0	850.0	1.0	1.0	5.0	2.0	1.0	part_2
251	1.0	7.0			800.0	0.0	0.0							5.0	0.0	0.4808131281897658	5.0	850.0	3.0	5.0	3.0	8.0	0.0	part_2
252	1.0	8.0			800.0	0.0	0.0							6.0	0.0	0.4669752821901056	6.0	850.0	3.0	5.0	3.0	8.0	0.0	part_2
253	1.0	8.0			800.0	0.0	0.0							6.0	0.0	0.6595173745845386	6.0	850.0	4.0	2.0	4.0	1.0	0.0	part_2
254	1.0	8.0			800.0	0.0	0.0							5.0	0.0	0.4582629515934968	5.0	850.0	4.0	2.0	4.0	1.0	0.0	part_2
255	1.0	8.0			800.0	0.0	1.0							5.0	0.0	1.177674779384688	5.0	850.0	4.0	8.0	8.0	4.0	0.0	part_2
256	4.0	8.0			800.0	0.0	1.0							5.0	0.0	0.0	0.0	850.0	4.0	8.0	8.0	4.0	1.0	part_2
257	1.0	8.0			850.0	0.0	0.0							5.0	0.0	0.5274794731994916	5.0	850.0	4.0	2.0	4.0	1.0	0.0	part_2
258	4.0	8.0			850.0	0.0	1.0							6.0	0.0	0.0	0.0	850.0	4.0	8.0	8.0	4.0	1.0	part_2
259	4.0	8.0			850.0	0.0	1.0							6.0	0.0	0.0	0.0	900.0	2.0	3.0	6.0	3.0	1.0	part_2
260	1.0	8.0			850.0	0.0	0.0							6.0	0.0	0.5303816711893887	6.0	950.0	4.0	2.0	4.0	1.0	0.0	part_2
261	1.0	8.0			850.0	0.0	1.0							6.0	0.0	1.2070373201895563	6.0	950.0	3.0	6.0	7.0	5.0	0.0	part_2
262	4.0	8.0			850.0	0.0	1.0							5.0	0.0	0.0	0.0	950.0	2.0	3.0	6.0	3.0	1.0	part_2
263	1.0	8.0			900.0	0.0	0.0							5.0	0.0	0.5671137317876855	5.0	950.0	3.0	5.0	3.0	8.0	0.0	part_2
264	4.0	8.0			900.0	0.0	1.0							6.0	0.0	0.0	0.0	950.0	1.0	1.0	5.0	2.0	1.0	part_2
265	1.0	8.0			900.0	0.0	0.0							5.0	0.0	0.5346718469882035	5.0	1000.0	3.0	5.0	3.0	8.0	0.0	part_2
266	4.0	8.0			900.0	0.0	1.0							6.0	0.0	0.0	0.0	1000.0	3.0	6.0	7.0	5.0	1.0	part_2
267	1.0	8.0			900.0	0.0	0.0							5.0	0.0	0.6252911959891208	5.0	1050.0	4.0	2.0	4.0	1.0	0.0	part_2
268	4.0	8.0			900.0	0.0	1.0							5.0	0.0	0.0	0.0	1050.0	4.0	8.0	8.0	4.0	1.0	part_2
269	1.0	8.0			950.0	0.0	0.0							6.0	0.0	0.4356689508022101	6.0	1050.0	3.0	5.0	3.0	8.0	0.0	part_2
270	4.0	8.0			950.0	0.0	1.0							6.0	0.0	0.0	0.0	1050.0	3.0	6.0	7.0	5.0	1.0	part_2
271	1.0	8.0			950.0	0.0	0.0							6.0	0.0	0.45911359238380106	6.0	1100.0	1.0	7.0	1.0	7.0	0.0	part_2
272	3.0	8.0			950.0	0.0	1.0							5.0	0.0	1.0900123987848929	5.0	1100.0	2.0	3.0	6.0	3.0	1.0	part_2
273	1.0	8.0			900.0	0.0	0.0							5.0	0.0	0.530220958404243	5.0	1100.0	4.0	2.0	4.0	1.0	0.0	part_2
274	1.0	8.0			900.0	0.0	0.0							5.0	0.0	0.4842059607981355	5.0	1100.0	4.0	2.0	4.0	1.0	0.0	part_2
275	1.0	8.0			900.0	0.0	0.0							6.0	0.0	0.5087376389892597	6.0	1100.0	4.0	2.0	4.0	1.0	0.0	part_2
276	1.0	8.0			900.0	0.0	0.0							5.0	0.0	0.4970231837978645	5.0	1100.0	1.0	7.0	1.0	7.0	0.0	part_2
277	1.0	8.0			900.0	0.0	0.0							5.0	0.0	0.4753602885975852	5.0	1100.0	2.0	4.0	2.0	6.0	0.0	part_2
278	1.0	8.0			900.0	0.0	0.0							6.0	0.0	0.4999665319883206	6.0	1100.0	3.0	5.0	3.0	8.0	0.0	part_2
279	1.0	8.0			900.0	0.0	1.0							5.0	0.0	1.3449219035828721	5.0	1100.0	2.0	3.0	6.0	3.0	0.0	part_2
280	4.0	8.0			900.0	0.0	1.0							5.0	0.0	0.0	0.0	1100.0	1.0	1.0	5.0	2.0	1.0	part_2
281	1.0	8.0			950.0	0.0	0.0							5.0	0.0	0.4233812473939905	5.0	1100.0	3.0	5.0	3.0	8.0	0.0	part_2
282	1.0	8.0			950.0	0.0	0.0							5.0	0.0	0.4687215584053774	5.0	1100.0	1.0	7.0	1.0	7.0	0.0	part_2
283	1.0	8.0			950.0	0.0	0.0							6.0	0.0	0.4710420147894183	6.0	1100.0	1.0	7.0	1.0	7.0	0.0	part_2
284	1.0	8.0			950.0	0.0	0.0							5.0	0.0	0.5265588521906466	5.0	1100.0	3.0	5.0	3.0	8.0	0.0	part_2
285	4.0	8.0			950.0	0.0	1.0							6.0	0.0	0.0	0.0	1100.0	4.0	8.0	8.0	4.0	1.0	part_2
286	3.0	8.0			950.0	0.0	1.0							6.0	0.0	1.2149714671795664	6.0	1150.0	3.0	6.0	7.0	5.0	1.0	part_2
287	1.0	8.0			950.0	0.0	0.0							5.0	0.0	0.4954523583837727	5.0	1100.0	1.0	7.0	1.0	7.0	0.0	part_2
0	0.0	1.0	245.0	5.0	0.0	1.0	1.0	245.0	49.0	147.0	98.0	196.0	294.0	7.0	0.0	1.7316499877742901	1.0	0.0	1.0	1.0	5.0	2.0	0.0	part_3
1	0.0	1.0	147.0	3.0	0.0	1.0	0.0	196.0	98.0	294.0	49.0	147.0	245.0	7.0	0.0	1.0793282511876896	5.0	0.0	4.0	2.0	4.0	1.0	0.0	part_3
2	0.0	1.0	78.0	2.0	0.0	1.0	1.0	156.0	234.0	117.0	78.0	39.0	195.0	7.0	0.0	1.5535149427742	4.0	0.0	4.0	8.0	8.0	4.0	0.0	part_3
3	0.0	1.0	270.0	5.0	0.0	1.0	0.0	162.0	270.0	216.0	108.0	324.0	54.0	7.0	0.0	1.0376513703231467	2.0	0.0	2.0	4.0	2.0	6.0	0.0	part_3
4	0.0	1.0	147.0	3.0	0.0	1.0	1.0	294.0	49.0	196.0	245.0	147.0	98.0	7.0	0.0	1.0488978574139765	5.0	0.0	3.0	6.0	7.0	5.0	0.0	part_3
5	0.0	1.0	176.0	4.0	0.0	1.0	1.0	132.0	88.0	176.0	44.0	220.0	264.0	7.0	0.0	1.499476300090464	3.0	0.0	1.0	1.0	5.0	2.0	0.0	part_3
6	0.0	1.0	204.0	6.0	0.0	1.0	0.0	170.0	68.0	34.0	102.0	136.0	204.0	7.0	0.0	1.5582468431894083	6.0	0.0	2.0	4.0	2.0	6.0	0.0	part_3
7	0.0	1.0	102.0	3.0	0.0	1.0	1.0	136.0	68.0	102.0	204.0	170.0	34.0	7.0	0.0	1.7279712430899965	3.0	0.0	2.0	3.0	6.0	3.0	0.0	part_3
8	0.0	1.0	68.0	2.0	0.0	1.0	1.0	102.0	170.0	136.0	204.0	34.0	68.0	7.0	0.0	1.2220546400894818	6.0	0.0	4.0	8.0	8.0	4.0	0.0	part_3
9	0.0	1.0	162.0	3.0	0.0	1.0	1.0	108.0	162.0	324.0	270.0	216.0	54.0	7.0	0.0	1.06687587009219	2.0	0.0	3.0	6.0	7.0	5.0	0.0	part_3
10	0.0	1.0	162.0	3.0	0.0	1.0	1.0	108.0	270.0	324.0	54.0	162.0	216.0	7.0	0.0	1.2352928748659906	5.0	0.0	1.0	1.0	5.0	2.0	0.0	part_3
11	0.0	1.0	49.0	1.0	0.0	1.0	1.0	294.0	98.0	245.0	49.0	196.0	147.0	7.0	0.0	1.1359389997742255	4.0	0.0	4.0	8.0	8.0	4.0	0.0	part_3
12	0.0	1.0	108.0	2.0	0.0	1.0	1.0	162.0	54.0	270.0	216.0	324.0	108.0	7.0	0.0	1.5539555543218742	6.0	0.0	3.0	6.0	7.0	5.0	0.0	part_3
13	0.0	1.0	147.0	3.0	0.0	1.0	1.0	294.0	98.0	196.0	147.0	49.0	245.0	7.0	0.0	1.194101122320717	4.0	0.0	1.0	1.0	5.0	2.0	0.0	part_3
14	0.0	1.0	270.0	5.0	0.0	1.0	0.0	54.0	270.0	108.0	324.0	162.0	216.0	7.0	0.0	1.1497242560908492	2.0	0.0	1.0	7.0	1.0	7.0	0.0	part_3
15	0.0	1.0	162.0	3.0	0.0	1.0	0.0	270.0	54.0	108.0	324.0	162.0	216.0	7.0	0.0	2.017228815544513	5.0	0.0	4.0	2.0	4.0	1.0	0.0	part_3
16	0.0	1.0	245.0	5.0	0.0	1.0	0.0	294.0	245.0	147.0	196.0	49.0	98.0	7.0	0.0	1.0057103110921162	2.0	0.0	3.0	5.0	3.0	8.0	0.0	part_3
17	0.0	1.0	220.0	5.0	0.0	1.0	0.0	264.0	220.0	88.0	176.0	44.0	132.0	7.0	0.0	1.7053524738657868	2.0	0.0	2.0	4.0	2.0	6.0	0.0	part_3
18	0.0	1.0	156.0	4.0	0.0	1.0	0.0	156.0	195.0	39.0	117.0	234.0	78.0	7.0	0.0	2.550424097640644	1.0	0.0	4.0	2.0	4.0	1.0	0.0	part_3
19	0.0	1.0	39.0	1.0	0.0	1.0	1.0	78.0	234.0	195.0	117.0	39.0	156.0	7.0	0.0	1.3241892203186578	5.0	0.0	2.0	3.0	6.0	3.0	0.0	part_3
20	0.0	2.0	34.0	1.0	0.0	1.0	0.0	102.0	34.0	204.0	136.0	170.0	68.0	7.0	0.0	1.1758081516418315	2.0	0.0	2.0	4.0	2.0	6.0	0.0	part_3
21	0.0	2.0	170.0	5.0	0.0	1.0	1.0	34.0	136.0	170.0	102.0	204.0	68.0	7.0	0.0	0.9189273199990566	3.0	0.0	3.0	6.0	7.0	5.0	0.0	part_3
22	0.0	2.0	54.0	1.0	0.0	1.0	1.0	54.0	108.0	270.0	324.0	216.0	162.0	7.0	0.0	1.0320667620944732	1.0	0.0	4.0	8.0	8.0	4.0	0.0	part_3
23	0.0	2.0	156.0	4.0	0.0	1.0	1.0	117.0	195.0	39.0	234.0	78.0	156.0	7.0	0.0	1.8429336551853341	6.0	0.0	1.0	1.0	5.0	2.0	0.0	part_3
24	0.0	2.0	170.0	5.0	0.0	1.0	0.0	68.0	136.0	204.0	170.0	102.0	34.0	7.0	0.0	2.475994176093081	4.0	0.0	4.0	2.0	4.0	1.0	0.0	part_3
25	0.0	2.0	49.0	1.0	0.0	1.0	1.0	147.0	98.0	294.0	245.0	49.0	196.0	7.0	0.0	1.183557145548548	5.0	0.0	4.0	8.0	8.0	4.0	0.0	part_3
26	0.0	2.0	156.0	4.0	0.0	1.0	1.0	234.0	78.0	156.0	117.0	195.0	39.0	7.0	0.0	1.2954934493209294	3.0	0.0	2.0	3.0	6.0	3.0	0.0	part_3
27	0.0	2.0	195.0	5.0	0.0	1.0	0.0	39.0	78.0	117.0	156.0	195.0	234.0	7.0	0.0	1.219516308639868	5.0	0.0	3.0	5.0	3.0	8.0	0.0	part_3
28	0.0	2.0	176.0	4.0	0.0	1.0	0.0	220.0	176.0	264.0	132.0	44.0	88.0	7.0	0.0	1.8273919831844976	2.0	0.0	1.0	7.0	1.0	7.0	0.0	part_3
29	0.0	2.0	147.0	3.0	0.0	1.0	1.0	294.0	196.0	49.0	98.0	245.0	147.0	7.0	0.0	2.153481363959145	6.0	0.0	2.0	3.0	6.0	3.0	0.0	part_3
30	0.0	2.0	117.0	3.0	0.0	1.0	1.0	78.0	195.0	156.0	234.0	117.0	39.0	7.0	0.0	1.3006960147722566	5.0	0.0	3.0	6.0	7.0	5.0	0.0	part_3
31	0.0	2.0	39.0	1.0	0.0	1.0	1.0	39.0	156.0	117.0	195.0	234.0	78.0	7.0	0.0	0.6267939265453606	1.0	0.0	4.0	8.0	8.0	4.0	0.0	part_3
32	0.0	2.0	196.0	4.0	0.0	1.0	0.0	98.0	147.0	196.0	49.0	245.0	294.0	7.0	0.0	1.515618697001628	3.0	0.0	2.0	4.0	2.0	6.0	0.0	part_3
33	0.0	2.0	132.0	3.0	0.0	1.0	1.0	220.0	88.0	264.0	44.0	176.0	132.0	7.0	0.0	2.1589266186383607	6.0	0.0	1.0	1.0	5.0	2.0	0.0	part_3
34	0.0	2.0	132.0	3.0	0.0	1.0	1.0	264.0	176.0	132.0	220.0	88.0	44.0	7.0	0.0	2.1151894587746938	3.0	0.0	3.0	6.0	7.0	5.0	0.0	part_3
35	0.0	2.0	136.0	4.0	0.0	1.0	1.0	136.0	170.0	102.0	34.0	68.0	204.0	7.0	0.0	1.9818176843218682	1.0	0.0	3.0	6.0	7.0	5.0	0.0	part_3
36	0.0	2.0	49.0	1.0	0.0	1.0	1.0	196.0	49.0	147.0	245.0	98.0	294.0	7.0	0.0	0.9143586185491586	2.0	0.0	3.0	6.0	7.0	5.0	0.0	part_3
37	0.0	2.0	132.0	3.0	0.0	1.0	0.0	132.0	88.0	44.0	264.0	176.0	220.0	7.0	0.0	0.9034248081843544	1.0	0.0	2.0	4.0	2.0	6.0	0.0	part_3
38	0.0	2.0	196.0	4.0	0.0	1.0	0.0	196.0	245.0	294.0	49.0	147.0	98.0	7.0	0.0	2.1189149424135394	1.0	0.0	4.0	2.0	4.0	1.0	0.0	part_3
39	0.0	2.0	132.0	3.0	0.0	1.0	1.0	132.0	220.0	44.0	176.0	264.0	88.0	7.0	0.0	1.0520623357733712	1.0	0.0	3.0	6.0	7.0	5.0	0.0	part_3
40	0.0	3.0	162.0	3.0	0.0	1.0	1.0	270.0	54.0	216.0	108.0	324.0	162.0	7.0	0.0	1.1574320540930785	6.0	0.0	2.0	3.0	6.0	3.0	0.0	part_3
41	0.0	3.0	162.0	3.0	0.0	1.0	1.0	324.0	162.0	54.0	270.0	108.0	216.0	7.0	0.0	1.2695862256368855	2.0	0.0	2.0	3.0	6.0	3.0	0.0	part_3
42	0.0	3.0	245.0	5.0	0.0	1.0	0.0	294.0	245.0	147.0	98.0	49.0	196.0	7.0	0.0	1.1132553343231848	2.0	0.0	1.0	7.0	1.0	7.0	0.0	part_3
43	0.0	3.0	245.0	5.0	0.0	1.0	1.0	98.0	245.0	147.0	294.0	196.0	49.0	7.0	0.0	1.2049677281866025	2.0	0.0	2.0	3.0	6.0	3.0	0.0	part_3
44	0.0	3.0	294.0	6.0	0.0	1.0	0.0	49.0	98.0	294.0	245.0	147.0	196.0	7.0	0.0	1.4660558145478717	3.0	0.0	3.0	5.0	3.0	8.0	0.0	part_3
45	0.0	3.0	270.0	5.0	0.0	1.0	0.0	324.0	216.0	108.0	54.0	270.0	162.0	7.0	0.0	1.7251811743226426	5.0	0.0	3.0	5.0	3.0	8.0	0.0	part_3
46	0.0	3.0	176.0	4.0	0.0	1.0	0.0	44.0	220.0	176.0	132.0	88.0	264.0	7.0	0.0	1.8396188858641835	3.0	0.0	1.0	7.0	1.0	7.0	0.0	part_3
47	0.0	3.0	245.0	5.0	0.0	1.0	0.0	147.0	294.0	49.0	98.0	245.0	196.0	7.0	0.0	1.625337560319167	5.0	0.0	1.0	7.0	1.0	7.0	0.0	part_3
48	0.0	3.0	234.0	6.0	0.0	1.0	0.0	234.0	117.0	39.0	156.0	195.0	78.0	7.0	0.0	1.5255416240906925	1.0	0.0	2.0	4.0	2.0	6.0	0.0	part_3
49	0.0	3.0	245.0	5.0	0.0	1.0	0.0	49.0	245.0	98.0	147.0	196.0	294.0	7.0	0.0	2.0433189548639348	2.0	0.0	2.0	4.0	2.0	6.0	0.0	part_3
50	0.0	3.0	270.0	5.0	0.0	1.0	0.0	54.0	216.0	108.0	162.0	270.0	324.0	7.0	0.0	2.6861986359581347	5.0	0.0	2.0	4.0	2.0	6.0	0.0	part_3
51	0.0	3.0	44.0	1.0	0.0	1.0	1.0	88.0	220.0	44.0	132.0	176.0	264.0	7.0	0.0	1.347853556409973	3.0	0.0	4.0	8.0	8.0	4.0	0.0	part_3
52	0.0	3.0	220.0	5.0	0.0	1.0	0.0	132.0	44.0	220.0	176.0	88.0	264.0	7.0	0.0	1.2255630403196849	3.0	0.0	3.0	5.0	3.0	8.0	0.0	part_3
53	0.0	3.0	204.0	6.0	0.0	1.0	0.0	68.0	136.0	34.0	170.0	204.0	102.0	7.0	0.0	1.4303703892255726	5.0	0.0	3.0	5.0	3.0	8.0	0.0	part_3
54	0.0	3.0	34.0	1.0	0.0	1.0	1.0	204.0	68.0	136.0	170.0	34.0	102.0	7.0	0.0	1.2067432846379234	5.0	0.0	4.0	8.0	8.0	4.0	0.0	part_3
55	0.0	3.0	176.0	4.0	0.0	1.0	0.0	44.0	88.0	176.0	132.0	220.0	264.0	7.0	0.0	1.4325192421856627	3.0	0.0	4.0	2.0	4.0	1.0	0.0	part_3
56	0.0	3.0	136.0	4.0	0.0	1.0	1.0	204.0	102.0	136.0	68.0	170.0	34.0	7.0	0.0	1.3318887189598172	3.0	0.0	1.0	1.0	5.0	2.0	0.0	part_3
57	0.0	3.0	234.0	6.0	0.0	1.0	0.0	195.0	234.0	78.0	39.0	117.0	156.0	7.0	0.0	0.8032819655491039	2.0	0.0	3.0	5.0	3.0	8.0	0.0	part_3
58	0.0	3.0	216.0	4.0	0.0	1.0	0.0	108.0	324.0	162.0	270.0	216.0	54.0	7.0	0.0	1.5924367027764674	5.0	0.0	1.0	7.0	1.0	7.0	0.0	part_3
59	0.0	3.0	176.0	4.0	0.0	1.0	0.0	176.0	44.0	132.0	220.0	88.0	264.0	7.0	0.0	2.2234372765451558	1.0	0.0	3.0	5.0	3.0	8.0	0.0	part_3
60	0.0	4.0	117.0	3.0	0.0	1.0	1.0	117.0	39.0	156.0	78.0	195.0	234.0	7.0	0.0	2.394533388636773	1.0	0.0	1.0	1.0	5.0	2.0	0.0	part_3
61	0.0	4.0	170.0	5.0	0.0	1.0	0.0	170.0	34.0	102.0	204.0	136.0	68.0	7.0	0.0	0.8434907275477599	1.0	0.0	4.0	2.0	4.0	1.0	0.0	part_3
62	0.0	4.0	195.0	5.0	0.0	1.0	0.0	78.0	234.0	39.0	156.0	117.0	195.0	7.0	0.0	1.6522162752262377	6.0	0.0	1.0	7.0	1.0	7.0	0.0	part_3
63	0.0	4.0	220.0	5.0	0.0	1.0	1.0	44.0	220.0	132.0	88.0	264.0	176.0	7.0	0.0	0.9913450473213744	2.0	0.0	2.0	3.0	6.0	3.0	0.0	part_3
64	0.0	4.0	44.0	1.0	0.0	1.0	1.0	132.0	88.0	220.0	264.0	176.0	44.0	7.0	0.0	1.5532771310899989	6.0	0.0	4.0	8.0	8.0	4.0	0.0	part_3
65	0.0	4.0	170.0	5.0	0.0	1.0	0.0	102.0	68.0	170.0	136.0	34.0	204.0	7.0	0.0	2.6253989311844634	3.0	0.0	1.0	7.0	1.0	7.0	0.0	part_3
66	0.0	4.0	170.0	5.0	0.0	1.0	0.0	204.0	102.0	34.0	136.0	68.0	170.0	7.0	0.0	1.285795143961877	6.0	0.0	1.0	7.0	1.0	7.0	0.0	part_3
67	0.0	4.0	324.0	6.0	0.0	1.0	0.0	54.0	108.0	216.0	162.0	270.0	324.0	7.0	0.0	0.18462503177215692	6.0	0.0	3.0	5.0	3.0	8.0	0.0	part_3
68	0.0	4.0	136.0	4.0	0.0	1.0	1.0	102.0	34.0	204.0	136.0	170.0	68.0	7.0	0.0	2.649700034638954	4.0	0.0	2.0	3.0	6.0	3.0	0.0	part_3
69	0.0	4.0	162.0	3.0	0.0	1.0	0.0	162.0	324.0	108.0	54.0	270.0	216.0	7.0	0.0	2.5267351157708617	1.0	0.0	4.0	2.0	4.0	1.0	0.0	part_3
70	0.0	4.0	117.0	3.0	0.0	1.0	1.0	234.0	78.0	156.0	195.0	39.0	117.0	7.0	0.0	1.7970377159581403	6.0	0.0	3.0	6.0	7.0	5.0	0.0	part_3
71	0.0	4.0	132.0	3.0	0.0	1.0	1.0	264.0	176.0	88.0	44.0	220.0	132.0	7.0	0.0	1.595360832186998	6.0	0.0	2.0	3.0	6.0	3.0	0.0	part_3
72	0.0	4.0	234.0	6.0	0.0	1.0	0.0	195.0	78.0	234.0	39.0	117.0	156.0	7.0	0.0	1.8446530661894942	3.0	0.0	2.0	4.0	2.0	6.0	0.0	part_3
73	0.0	4.0	234.0	6.0	0.0	1.0	0.0	78.0	156.0	117.0	195.0	39.0	234.0	7.0	0.0	1.6209989018643682	6.0	0.0	4.0	2.0	4.0	1.0	0.0	part_3
74	0.0	4.0	162.0	3.0	0.0	1.0	1.0	324.0	270.0	108.0	216.0	162.0	54.0	7.0	0.0	2.42143694686456	5.0	0.0	1.0	1.0	5.0	2.0	0.0	part_3
75	0.0	4.0	195.0	5.0	0.0	1.0	0.0	195.0	78.0	117.0	39.0	156.0	234.0	7.0	0.0	1.4084794200934994	1.0	0.0	1.0	7.0	1.0	7.0	0.0	part_3
76	0.0	4.0	136.0	4.0	0.0	1.0	1.0	68.0	204.0	170.0	34.0	136.0	102.0	7.0	0.0	1.240368125188979	5.0	0.0	1.0	1.0	5.0	2.0	0.0	part_3
77	0.0	4.0	54.0	1.0	0.0	1.0	1.0	216.0	108.0	162.0	270.0	54.0	324.0	7.0	0.0	1.2870710915485688	5.0	0.0	4.0	8.0	8.0	4.0	0.0	part_3
78	0.0	4.0	176.0	4.0	0.0	1.0	0.0	88.0	44.0	176.0	132.0	220.0	264.0	7.0	0.0	1.4453634760029672	3.0	0.0	4.0	2.0	4.0	1.0	0.0	part_3
79	0.0	4.0	170.0	5.0	0.0	1.0	0.0	170.0	136.0	204.0	34.0	102.0	68.0	7.0	0.0	1.2454094448657995	1.0	0.0	3.0	5.0	3.0	8.0	0.0	part_3
