	accuracy	block	chosen_bidding_amount	chosen_bidding_level	left_SSD	num_trial_presentations	paired_with_stopping	possible_bid_1	possible_bid_2	possible_bid_3	possible_bid_4	possible_bid_5	possible_bid_6	quadrant	raw_reward_magnitude	reaction_time	response	right_SSD	stepwise_reward_magnitude	stim_color	stim_reward	stim_shape	stop_signal_trial_type	which_part
0		1.0				1.0	1.0							4.0	50.0	0.3334939207416028	4.0		1.0	6.0	5.0	3.0		part_1
1		1.0				1.0	0.0							1.0	106.0	0.3898417872842401	1.0		2.0	2.0	2.0	4.0		part_1
2		1.0				1.0	1.0							3.0	25.0	0.33371794130653143	3.0		1.0	6.0	5.0	3.0		part_1
3		1.0				1.0	1.0							2.0	191.0	0.33522118884138763	2.0		3.0	3.0	7.0	7.0		part_1
4		1.0				1.0	0.0							2.0	0.0	0.336636422900483	2.0		0.0	2.0	2.0	4.0		part_1
5		1.0				1.0	1.0							3.0	111.0	0.4474032639991492	3.0		2.0	8.0	6.0	6.0		part_1
6		1.0				1.0	1.0							1.0	376.0	0.4159378434997052	1.0		4.0	5.0	8.0	2.0		part_1
7		1.0				1.0	0.0							3.0	110.0	0.3705807502847165	3.0		2.0	2.0	2.0	4.0		part_1
8		1.0				1.0	1.0							2.0	196.0	0.3259544288739562	2.0		3.0	3.0	7.0	7.0		part_1
9		1.0				1.0	1.0							1.0	122.0	0.3043223414570093	1.0		2.0	8.0	6.0	6.0		part_1
10		1.0				1.0	1.0							2.0	98.0	0.28392896335572004	2.0		2.0	8.0	6.0	6.0		part_1
11		1.0				1.0	0.0							2.0	50.0	0.2489250304643065	2.0		1.0	1.0	1.0	1.0		part_1
12		1.0				1.0	0.0							4.0	0.0	0.29517766647040844	4.0		0.0	4.0	3.0	8.0		part_1
13		1.0				1.0	0.0							3.0	108.0	0.350448876619339	3.0		2.0	2.0	2.0	4.0		part_1
14		1.0				1.0	1.0							1.0	410.0	0.2861497246194631	1.0		4.0	5.0	8.0	2.0		part_1
15		1.0				1.0	0.0							2.0	0.0	0.35258875228464603	2.0		0.0	1.0	1.0	1.0		part_1
16		1.0				1.0	1.0							3.0	110.0	0.33012536028400064	3.0		2.0	8.0	6.0	6.0		part_1
17		1.0				1.0	1.0							2.0	205.0	0.3087769043631852	2.0		3.0	3.0	7.0	7.0		part_1
18		1.0				1.0	1.0							1.0	69.0	0.34484052495099604	1.0		1.0	6.0	5.0	3.0		part_1
19		1.0				1.0	0.0							3.0	101.0	0.3214304624125361	3.0		2.0	2.0	2.0	4.0		part_1
20		1.0				1.0	0.0							1.0	26.0	0.3326775855384767	1.0		1.0	1.0	1.0	1.0		part_1
21		1.0				1.0	1.0							3.0	0.0	0.3568952379282564	3.0		0.0	5.0	8.0	2.0		part_1
22		1.0				1.0	0.0							1.0	384.0	0.4366086274385452	1.0		4.0	7.0	4.0	5.0		part_1
23		1.0				1.0	0.0							1.0	0.0	0.413070464739576	1.0		0.0	2.0	2.0	4.0		part_1
24		1.0				1.0	0.0							4.0	67.0	0.3803731361404061	4.0		1.0	1.0	1.0	1.0		part_1
25		1.0				1.0	1.0							4.0	91.0	0.33485305681824684	4.0		2.0	8.0	6.0	6.0		part_1
26		1.0				1.0	1.0							4.0	87.0	0.4385080102365464	4.0		2.0	8.0	6.0	6.0		part_1
27		1.0				1.0	0.0							3.0	0.0	0.290913536446169	3.0		0.0	7.0	4.0	5.0		part_1
28		1.0				1.0	1.0							4.0	0.0	0.41714167851023376	4.0		0.0	5.0	8.0	2.0		part_1
29		1.0				1.0	1.0							2.0	0.0	0.3729170607402921	2.0		0.0	6.0	5.0	3.0		part_1
30		1.0				1.0	0.0							2.0	99.0	0.33966977894306183	2.0		2.0	2.0	2.0	4.0		part_1
31		1.0				1.0	1.0							3.0	198.0	0.36130312643945217	3.0		3.0	3.0	7.0	7.0		part_1
32		1.0				1.0	0.0							3.0	0.0	0.4296681354753673	3.0		0.0	4.0	3.0	8.0		part_1
33		1.0				1.0	1.0							4.0	186.0	0.4199346462264657	4.0		3.0	3.0	7.0	7.0		part_1
34		1.0				2.0	1.0							3.0	113.0	0.341666171560064	3.0		2.0	8.0	6.0	6.0		part_1
35		1.0				1.0	0.0							2.0	102.0	0.3756696693599224	2.0		2.0	2.0	2.0	4.0		part_1
36		1.0				1.0	1.0							3.0	76.0	0.33040553447790444	3.0		2.0	8.0	6.0	6.0		part_1
37		1.0				1.0	0.0							4.0	98.0	0.3324919925071299	4.0		2.0	2.0	2.0	4.0		part_1
38		1.0				1.0	1.0							3.0	0.0	0.3426541907247156	3.0		0.0	8.0	6.0	6.0		part_1
39		1.0				1.0	0.0							3.0	0.0	0.3214618340134621	3.0		0.0	1.0	1.0	1.0		part_1
40		1.0				1.0	1.0							1.0	76.0	0.3560291293542832	1.0		2.0	8.0	6.0	6.0		part_1
41		1.0				1.0	0.0							4.0	76.0	0.35692222928628325	4.0		2.0	2.0	2.0	4.0		part_1
42		1.0				1.0	1.0							4.0	47.0	0.4349104654975236	4.0		1.0	6.0	5.0	3.0		part_1
43		1.0				1.0	0.0							2.0	0.0	0.33479245845228434	2.0		0.0	7.0	4.0	5.0		part_1
44		1.0				1.0	0.0							1.0	78.0	0.4139177708420903	1.0		2.0	2.0	2.0	4.0		part_1
45		1.0				2.0	1.0							1.0	179.0	0.34774766862392426	1.0		3.0	3.0	7.0	7.0		part_1
46		1.0				1.0	1.0							2.0	96.0	0.393826904008165	2.0		2.0	8.0	6.0	6.0		part_1
47		1.0				1.0	1.0							2.0	51.0	0.4389954609796405	2.0		1.0	6.0	5.0	3.0		part_1
48		1.0				1.0	0.0							1.0	414.0	0.4856320079416037	1.0		4.0	7.0	4.0	5.0		part_1
49		1.0				1.0	1.0							1.0	199.0	0.3623073818162084	1.0		3.0	3.0	7.0	7.0		part_1
50		1.0				1.0	0.0							3.0	391.0	0.4964189701713622	3.0		4.0	7.0	4.0	5.0		part_1
51		1.0				1.0	1.0							4.0	72.0	0.4408130228985101	4.0		1.0	6.0	5.0	3.0		part_1
52		1.0				1.0	0.0							3.0	400.0	0.4069251243490726	3.0		4.0	7.0	4.0	5.0		part_1
53		1.0				1.0	1.0							4.0	198.0	0.3414293141104281	4.0		3.0	3.0	7.0	7.0		part_1
54		1.0				1.0	0.0							2.0	74.0	0.4327825345098972	2.0		1.0	1.0	1.0	1.0		part_1
55		1.0				1.0	1.0							4.0	124.0	0.431386636570096	4.0		2.0	8.0	6.0	6.0		part_1
56		1.0				1.0	0.0							2.0	28.0	0.4099626354873181	2.0		1.0	1.0	1.0	1.0		part_1
57		1.0				1.0	0.0							3.0	40.0	0.3876956161111593	3.0		1.0	1.0	1.0	1.0		part_1
58		1.0				1.0	1.0							4.0	0.0	0.3214498800225556	4.0		0.0	5.0	8.0	2.0		part_1
59		1.0				1.0	0.0							4.0	119.0	0.4005470906849951	4.0		2.0	2.0	2.0	4.0		part_1
60		1.0				1.0	1.0							3.0	392.0	0.37769863847643137	3.0		4.0	5.0	8.0	2.0		part_1
61		1.0				1.0	0.0							4.0	122.0	0.3902529662009329	4.0		2.0	2.0	2.0	4.0		part_1
62		1.0				1.0	0.0							1.0	191.0	0.5262618924025446	1.0		3.0	4.0	3.0	8.0		part_1
63		1.0				1.0	0.0							2.0	0.0	0.36878722975961853	2.0		0.0	4.0	3.0	8.0		part_1
64		1.0				1.0	1.0							3.0	99.0	0.3594201698433608	3.0		2.0	8.0	6.0	6.0		part_1
65		1.0				1.0	1.0							2.0	405.0	0.3593024597503245	2.0		4.0	5.0	8.0	2.0		part_1
66		1.0				1.0	1.0							3.0	215.0	0.32606279640458524	3.0		3.0	3.0	7.0	7.0		part_1
67		1.0				1.0	0.0							3.0	52.0	0.3837278827559203	3.0		1.0	1.0	1.0	1.0		part_1
68		1.0				1.0	0.0							3.0	50.0	0.3608594296965748	3.0		1.0	1.0	1.0	1.0		part_1
69		1.0				1.0	1.0							2.0	81.0	0.5090068308636546	2.0		2.0	8.0	6.0	6.0		part_1
70		1.0				1.0	0.0							3.0	0.0	0.2832155167125165	3.0		0.0	2.0	2.0	4.0		part_1
71		1.0				1.0	1.0							3.0	0.0	0.37345381756313145	3.0		0.0	5.0	8.0	2.0		part_1
72		1.0				1.0	0.0							3.0	111.0	0.4193975022062659	3.0		2.0	2.0	2.0	4.0		part_1
73		1.0				1.0	1.0							1.0	57.0	0.3969989228062332	1.0		1.0	6.0	5.0	3.0		part_1
74		1.0				1.0	0.0							3.0	115.0	0.4764996282756329	3.0		2.0	2.0	2.0	4.0		part_1
75		1.0				1.0	1.0							4.0	225.0	0.3531454473268241	4.0		3.0	3.0	7.0	7.0		part_1
76		1.0				1.0	0.0							4.0	64.0	0.35411490546539426	4.0		1.0	1.0	1.0	1.0		part_1
77		1.0				1.0	0.0							4.0	397.0	0.38786420295946294	4.0		4.0	7.0	4.0	5.0		part_1
78		1.0				1.0	0.0							4.0	380.0	0.4334013948682696	4.0		4.0	7.0	4.0	5.0		part_1
79		1.0				1.0	1.0							3.0	190.0	0.4004898110870272	3.0		3.0	3.0	7.0	7.0		part_1
80		1.0				1.0	1.0							3.0	45.0	0.41189701249822974	3.0		1.0	6.0	5.0	3.0		part_1
81		1.0				1.0	1.0							4.0	0.0	0.3900818277616054	4.0		0.0	8.0	6.0	6.0		part_1
82		1.0				1.0	0.0							2.0	406.0	0.4811914924066514	2.0		4.0	7.0	4.0	5.0		part_1
83		1.0				1.0	0.0							1.0	215.0	0.4823678892571479	1.0		3.0	4.0	3.0	8.0		part_1
84		1.0				1.0	1.0							2.0	0.0	0.5061898950953037	2.0		0.0	5.0	8.0	2.0		part_1
85		1.0				1.0	0.0							2.0	112.0	0.4034483914729208	2.0		2.0	2.0	2.0	4.0		part_1
86		1.0				1.0	1.0							3.0	35.0	0.4829141271766275	3.0		1.0	6.0	5.0	3.0		part_1
87		1.0				1.0	1.0							2.0	0.0	0.41598802036605775	2.0		0.0	3.0	7.0	7.0		part_1
88		1.0				1.0	0.0							2.0	424.0	0.4165680787991733	2.0		4.0	7.0	4.0	5.0		part_1
89		1.0				1.0	1.0							2.0	193.0	0.4409204991534352	2.0		3.0	3.0	7.0	7.0		part_1
90		1.0				1.0	0.0							1.0	73.0	0.3731837102677673	1.0		1.0	1.0	1.0	1.0		part_1
91		1.0				1.0	1.0							4.0	379.0	0.3520029396750033	4.0		4.0	5.0	8.0	2.0		part_1
92		1.0				1.0	0.0							2.0	0.0	0.3749094775412232	2.0		0.0	1.0	1.0	1.0		part_1
93		1.0				1.0	0.0							2.0	87.0	0.4756094354670495	2.0		2.0	2.0	2.0	4.0		part_1
94		1.0				1.0	1.0							2.0	90.0	0.3745579072274268	2.0		2.0	8.0	6.0	6.0		part_1
95		1.0				1.0	0.0							3.0	99.0	0.3751432339195162	3.0		2.0	2.0	2.0	4.0		part_1
96		1.0				1.0	0.0							2.0	417.0	0.3759796959348023	2.0		4.0	7.0	4.0	5.0		part_1
97		1.0				1.0	0.0							2.0	0.0	0.3762369672767818	2.0		0.0	1.0	1.0	1.0		part_1
98		1.0				1.0	0.0							1.0	91.0	0.3883519452065229	1.0		2.0	2.0	2.0	4.0		part_1
99		1.0				1.0	0.0							1.0	208.0	0.5028628984000534	1.0		3.0	4.0	3.0	8.0		part_1
100		2.0				1.0	1.0							2.0	0.0	0.3629698106087744	2.0		0.0	3.0	7.0	7.0		part_1
101		2.0				1.0	1.0							1.0	411.0	0.3860220622736961	1.0		4.0	5.0	8.0	2.0		part_1
102		2.0				1.0	1.0							2.0	58.0	0.4426233819685877	2.0		1.0	6.0	5.0	3.0		part_1
103		2.0				1.0	1.0							2.0	0.0	0.3764667632058263	2.0		0.0	3.0	7.0	7.0		part_1
104		2.0				1.0	1.0							3.0	57.0	0.3989182244986296	3.0		1.0	6.0	5.0	3.0		part_1
105		2.0				1.0	0.0							3.0	205.0	0.3552748758811504	3.0		3.0	4.0	3.0	8.0		part_1
106		2.0				1.0	1.0							1.0	383.0	0.35485557606443763	1.0		4.0	5.0	8.0	2.0		part_1
107		2.0				1.0	0.0							4.0	419.0	0.32167038368061185	4.0		4.0	7.0	4.0	5.0		part_1
108		2.0				1.0	0.0							4.0	0.0	0.34600138338282704	4.0		0.0	1.0	1.0	1.0		part_1
109		2.0				1.0	0.0							4.0	69.0	0.4027504895348102	4.0		1.0	1.0	1.0	1.0		part_1
110		2.0				1.0	0.0							4.0	181.0	0.3809261871501803	4.0		3.0	4.0	3.0	8.0		part_1
111		2.0				1.0	1.0							4.0	401.0	0.5032481225207448	4.0		4.0	5.0	8.0	2.0		part_1
112		2.0				1.0	1.0							2.0	215.0	0.3701184510719031	2.0		3.0	3.0	7.0	7.0		part_1
113		2.0				1.0	0.0							1.0	202.0	0.5056264991872013	1.0		3.0	4.0	3.0	8.0		part_1
114		2.0				1.0	0.0							4.0	0.0	0.31371670751832426	4.0		0.0	1.0	1.0	1.0		part_1
115		2.0				1.0	0.0							2.0	186.0	0.4286332889460027	2.0		3.0	4.0	3.0	8.0		part_1
116		2.0				1.0	1.0							3.0	423.0	0.42790040327236056	3.0		4.0	5.0	8.0	2.0		part_1
117		2.0				1.0	0.0							1.0	67.0	0.4510661337990314	1.0		1.0	1.0	1.0	1.0		part_1
118		2.0				1.0	0.0							4.0	0.0	0.4067978775128722	4.0		0.0	4.0	3.0	8.0		part_1
119		2.0				1.0	0.0							3.0	63.0	0.4517552540637553	3.0		1.0	1.0	1.0	1.0		part_1
120		2.0				1.0	1.0							2.0	80.0	0.3977025288622825	2.0		2.0	8.0	6.0	6.0		part_1
121		2.0				1.0	1.0							2.0	0.0	0.4865215437021106	2.0		0.0	6.0	5.0	3.0		part_1
122		2.0				1.0	1.0							4.0	375.0	0.4889347257558256	4.0		4.0	5.0	8.0	2.0		part_1
123		2.0				2.0	1.0							1.0	46.0	0.35559188085608184	1.0		1.0	6.0	5.0	3.0		part_1
124		2.0				1.0	1.0							4.0	31.0	0.34459708142094314	4.0		1.0	6.0	5.0	3.0		part_1
125		2.0				1.0	1.0							4.0	424.0	0.3893842555116862	4.0		4.0	5.0	8.0	2.0		part_1
126		2.0				1.0	1.0							4.0	204.0	0.367284995270893	4.0		3.0	3.0	7.0	7.0		part_1
127		2.0				1.0	1.0							4.0	417.0	0.4013605092186481	4.0		4.0	5.0	8.0	2.0		part_1
128		2.0				1.0	1.0							3.0	0.0	0.41176623571664095	3.0		0.0	3.0	7.0	7.0		part_1
129		2.0				1.0	1.0							1.0	85.0	0.3585410711821169	1.0		2.0	8.0	6.0	6.0		part_1
130		2.0				1.0	0.0							1.0	63.0	0.4474825274664909	1.0		1.0	1.0	1.0	1.0		part_1
131		2.0				1.0	1.0							1.0	199.0	0.41451458632946014	1.0		3.0	3.0	7.0	7.0		part_1
132		2.0				1.0	1.0							1.0	68.0	0.392247932497412	1.0		1.0	6.0	5.0	3.0		part_1
133		2.0				1.0	1.0							2.0	409.0	0.3703825629781932	2.0		4.0	5.0	8.0	2.0		part_1
134		2.0				1.0	0.0							1.0	415.0	0.3712377552874386	1.0		4.0	7.0	4.0	5.0		part_1
135		2.0				1.0	0.0							1.0	0.0	0.5079043162986636	1.0		0.0	4.0	3.0	8.0		part_1
136		2.0				1.0	0.0							1.0	96.0	0.5758948659058659	1.0		2.0	2.0	2.0	4.0		part_1
137		2.0				1.0	1.0							2.0	195.0	0.3964227943215519	2.0		3.0	3.0	7.0	7.0		part_1
138		2.0				1.0	0.0							3.0	0.0	0.4634993982035666	3.0		0.0	1.0	1.0	1.0		part_1
139		2.0				2.0	0.0							3.0	195.0	0.3286032727919519	3.0		3.0	4.0	3.0	8.0		part_1
140		2.0				1.0	1.0							3.0	0.0	0.3522363733500242	3.0		0.0	5.0	8.0	2.0		part_1
141		2.0				1.0	1.0							1.0	213.0	0.4549131970852613	1.0		3.0	3.0	7.0	7.0		part_1
142		2.0				1.0	1.0							3.0	411.0	0.4659399488009512	3.0		4.0	5.0	8.0	2.0		part_1
143		2.0				1.0	1.0							2.0	93.0	0.5224367917980999	2.0		2.0	8.0	6.0	6.0		part_1
144		2.0				2.0	1.0							4.0	419.0	0.3673093346878886	4.0		4.0	5.0	8.0	2.0		part_1
145		2.0				1.0	1.0							4.0	400.0	0.3893146307673305	4.0		4.0	5.0	8.0	2.0		part_1
146		2.0				1.0	0.0							2.0	424.0	0.335351896006614	2.0		4.0	7.0	4.0	5.0		part_1
147		2.0				1.0	0.0							4.0	209.0	0.4799601749982685	4.0		3.0	4.0	3.0	8.0		part_1
148		2.0				1.0	1.0							3.0	28.0	0.4257329299580306	3.0		1.0	6.0	5.0	3.0		part_1
149		2.0				1.0	1.0							3.0	176.0	0.4023315969388932	3.0		3.0	3.0	7.0	7.0		part_1
150		2.0				1.0	0.0							1.0	181.0	0.4840406412258744	1.0		3.0	4.0	3.0	8.0		part_1
151		2.0				1.0	1.0							1.0	0.0	0.5956474053673446	1.0		0.0	8.0	6.0	6.0		part_1
152		2.0				1.0	1.0							2.0	0.0	0.5523353065364063	2.0		0.0	5.0	8.0	2.0		part_1
153		2.0				1.0	0.0							2.0	190.0	0.4957617996260524	2.0		3.0	4.0	3.0	8.0		part_1
154		2.0				1.0	0.0							2.0	193.0	0.4173339498229325	2.0		3.0	4.0	3.0	8.0		part_1
155		2.0				1.0	0.0							1.0	378.0	0.4622247787192464	1.0		4.0	7.0	4.0	5.0		part_1
156		2.0				1.0	1.0							2.0	181.0	0.4521946483291686	2.0		3.0	3.0	7.0	7.0		part_1
157		2.0				1.0	1.0							1.0	40.0	0.4521851290483028	1.0		1.0	6.0	5.0	3.0		part_1
158		2.0				1.0	1.0							1.0	108.0	0.4317884601186961	1.0		2.0	8.0	6.0	6.0		part_1
159		2.0				1.0	0.0							4.0	385.0	0.5097634627018124	4.0		4.0	7.0	4.0	5.0		part_1
160		2.0				1.0	1.0							1.0	415.0	0.6020495395641774	1.0		4.0	5.0	8.0	2.0		part_1
161		2.0				1.0	1.0							1.0	0.0	0.4431390340905637	1.0		0.0	5.0	8.0	2.0		part_1
162		2.0				1.0	0.0							1.0	0.0	0.3996701769065112	1.0		0.0	2.0	2.0	4.0		part_1
163		2.0				1.0	0.0							1.0	121.0	0.40060142683796585	1.0		2.0	2.0	2.0	4.0		part_1
164		2.0				2.0	0.0							3.0	76.0	0.42363126645796	3.0		2.0	2.0	2.0	4.0		part_1
165		2.0				1.0	0.0							1.0	38.0	0.4359070265199989	1.0		1.0	1.0	1.0	1.0		part_1
166		2.0				1.0	0.0							3.0	223.0	0.3679146221838892	3.0		3.0	4.0	3.0	8.0		part_1
167		2.0				1.0	1.0							3.0	115.0	0.4123889240436256	3.0		2.0	8.0	6.0	6.0		part_1
168		2.0				1.0	1.0							1.0	397.0	0.3700958420522511	1.0		4.0	5.0	8.0	2.0		part_1
169		2.0				1.0	1.0							1.0	0.0	0.39213691535405815	1.0		0.0	6.0	5.0	3.0		part_1
170		2.0				1.0	0.0							3.0	376.0	0.4035116347949952	3.0		4.0	7.0	4.0	5.0		part_1
171		2.0				1.0	1.0							4.0	82.0	0.3814206412062049	4.0		2.0	8.0	6.0	6.0		part_1
172		2.0				1.0	0.0							4.0	58.0	0.4163390926551074	4.0		1.0	1.0	1.0	1.0		part_1
173		2.0				1.0	1.0							1.0	384.0	0.41652123793028295	1.0		4.0	5.0	8.0	2.0		part_1
174		2.0				1.0	0.0							1.0	392.0	0.4070156558882445	1.0		4.0	7.0	4.0	5.0		part_1
175		2.0				1.0	0.0							1.0	68.0	0.3628987055271864	1.0		1.0	1.0	1.0	1.0		part_1
176		2.0				1.0	1.0							3.0	392.0	0.4068324356339872	3.0		4.0	5.0	8.0	2.0		part_1
177		2.0				1.0	1.0							1.0	85.0	0.4073415538296104	1.0		2.0	8.0	6.0	6.0		part_1
178		2.0				1.0	0.0							1.0	93.0	0.37472452875226736	1.0		2.0	2.0	2.0	4.0		part_1
179		2.0				1.0	0.0							4.0	225.0	0.4100804533809424	4.0		3.0	4.0	3.0	8.0		part_1
180		2.0				1.0	0.0							3.0	113.0	0.4542496260255575	3.0		2.0	2.0	2.0	4.0		part_1
181		2.0				1.0	1.0							3.0	406.0	0.4218881162814796	3.0		4.0	5.0	8.0	2.0		part_1
182		2.0				1.0	0.0							3.0	182.0	0.35363031551241875	3.0		3.0	4.0	3.0	8.0		part_1
183		2.0				1.0	1.0							2.0	409.0	0.37712382385507226	2.0		4.0	5.0	8.0	2.0		part_1
184		2.0				1.0	0.0							4.0	198.0	0.457312019309029	4.0		3.0	4.0	3.0	8.0		part_1
185		2.0				1.0	1.0							2.0	103.0	0.4688121920917183	2.0		2.0	8.0	6.0	6.0		part_1
186		2.0				1.0	1.0							4.0	54.0	0.3451073714531958	4.0		1.0	6.0	5.0	3.0		part_1
187		2.0				1.0	0.0							4.0	56.0	0.4028195308055729	4.0		1.0	1.0	1.0	1.0		part_1
188		2.0				1.0	0.0							2.0	192.0	0.3910792989190668	2.0		3.0	4.0	3.0	8.0		part_1
189		2.0				1.0	1.0							4.0	216.0	0.3250393613707274	4.0		3.0	3.0	7.0	7.0		part_1
190		2.0				1.0	0.0							4.0	199.0	0.3358766403980553	4.0		3.0	4.0	3.0	8.0		part_1
191		2.0				1.0	0.0							4.0	213.0	0.35906701534986496	4.0		3.0	4.0	3.0	8.0		part_1
192		2.0				1.0	0.0							4.0	72.0	0.8222847739234567	4.0		1.0	1.0	1.0	1.0		part_1
193		2.0				1.0	1.0							3.0	0.0	0.4719738350249827	3.0		0.0	3.0	7.0	7.0		part_1
194		2.0				1.0	1.0							2.0	67.0	0.4961017274763435	2.0		1.0	6.0	5.0	3.0		part_1
195		2.0				1.0	0.0							3.0	0.0	0.4072105898521841	3.0		0.0	7.0	4.0	5.0		part_1
196		2.0				1.0	0.0							2.0	82.0	0.40688351402059203	2.0		2.0	2.0	2.0	4.0		part_1
197		2.0				1.0	0.0							2.0	0.0	0.4072752834763378	2.0		0.0	7.0	4.0	5.0		part_1
198		2.0				1.0	0.0							1.0	223.0	0.3740882708225399	1.0		3.0	4.0	3.0	8.0		part_1
199		2.0				1.0	0.0							2.0	0.0	0.3523200824856758	2.0		0.0	7.0	4.0	5.0		part_1
200		3.0				1.0	0.0							4.0	28.0	0.3476040908135474	4.0		1.0	1.0	1.0	1.0		part_1
201		3.0				1.0	0.0							4.0	216.0	0.4388783378526568	4.0		3.0	4.0	3.0	8.0		part_1
202		3.0				1.0	0.0							4.0	423.0	0.32672645477578044	4.0		4.0	7.0	4.0	5.0		part_1
203		3.0				1.0	0.0							3.0	193.0	0.3164444344583899	3.0		3.0	4.0	3.0	8.0		part_1
204		3.0				1.0	0.0							1.0	422.0	0.2945020226761699	1.0		4.0	7.0	4.0	5.0		part_1
205		3.0				1.0	0.0							2.0	47.0	0.27354096504859626	2.0		1.0	1.0	1.0	1.0		part_1
206		3.0				1.0	0.0							3.0	405.0	0.3969540342222899	3.0		4.0	7.0	4.0	5.0		part_1
207		3.0				1.0	1.0							4.0	192.0	0.3634162128437311	4.0		3.0	3.0	7.0	7.0		part_1
208		3.0				1.0	0.0							2.0	401.0	0.2510443669743836	2.0		4.0	7.0	4.0	5.0		part_1
209		3.0				1.0	1.0							1.0	30.0	0.2634260472841561	1.0		1.0	6.0	5.0	3.0		part_1
210		3.0				1.0	0.0							4.0	203.0	0.2863259019795805	4.0		3.0	4.0	3.0	8.0		part_1
211		3.0				1.0	0.0							1.0	198.0	0.31093449820764363	1.0		3.0	4.0	3.0	8.0		part_1
212		3.0				1.0	1.0							2.0	395.0	0.37726744660176337	2.0		4.0	5.0	8.0	2.0		part_1
213		3.0				1.0	0.0							2.0	122.0	0.6819558716379106	2.0		2.0	2.0	2.0	4.0		part_1
214		3.0				1.0	0.0							1.0	103.0	0.322189771104604	1.0		2.0	2.0	2.0	4.0		part_1
215		3.0				1.0	0.0							4.0	405.0	0.3013820722699165	4.0		4.0	7.0	4.0	5.0		part_1
216		3.0				1.0	0.0							2.0	0.0	0.34773256885819137	2.0		0.0	2.0	2.0	4.0		part_1
217		3.0				1.0	0.0							1.0	0.0	0.32402376737445593	1.0		0.0	4.0	3.0	8.0		part_1
218		3.0				1.0	0.0							1.0	28.0	0.3239702482242137	1.0		1.0	1.0	1.0	1.0		part_1
219		3.0				1.0	1.0							4.0	223.0	0.38187533360905945	4.0		3.0	3.0	7.0	7.0		part_1
220		3.0				1.0	1.0							3.0	213.0	0.4385771949309856	3.0		3.0	3.0	7.0	7.0		part_1
221		3.0				1.0	1.0							4.0	100.0	0.3593438013922423	4.0		2.0	8.0	6.0	6.0		part_1
222		3.0				1.0	0.0							4.0	97.0	0.28111520176753396	4.0		2.0	2.0	2.0	4.0		part_1
223		3.0				1.0	1.0							2.0	203.0	0.3947721188887954	2.0		3.0	3.0	7.0	7.0		part_1
224		3.0				1.0	1.0							4.0	121.0	0.3951325458474457	4.0		2.0	8.0	6.0	6.0		part_1
225		3.0				1.0	0.0							4.0	407.0	0.39708540798164893	4.0		4.0	7.0	4.0	5.0		part_1
226		3.0				1.0	1.0							2.0	0.0	0.4202334864530712	2.0		0.0	8.0	6.0	6.0		part_1
227		3.0				1.0	0.0							2.0	100.0	0.4088838738389313	2.0		2.0	2.0	2.0	4.0		part_1
228		3.0				1.0	1.0							4.0	182.0	0.4776482433080673	4.0		3.0	3.0	7.0	7.0		part_1
229		3.0				1.0	1.0							1.0	223.0	0.3657826450653374	1.0		3.0	3.0	7.0	7.0		part_1
230		3.0				1.0	1.0							1.0	106.0	0.4678302479442209	1.0		2.0	8.0	6.0	6.0		part_1
231		3.0				1.0	1.0							4.0	119.0	0.3766291574575007	4.0		2.0	8.0	6.0	6.0		part_1
232		3.0				1.0	0.0							2.0	403.0	0.4110718343872577	2.0		4.0	7.0	4.0	5.0		part_1
233		3.0				1.0	1.0							1.0	122.0	0.5469380901195109	1.0		2.0	8.0	6.0	6.0		part_1
234		3.0				1.0	1.0							1.0	99.0	0.3577462527900934	1.0		2.0	8.0	6.0	6.0		part_1
235		3.0				1.0	1.0							3.0	74.0	0.44567544269375503	3.0		1.0	6.0	5.0	3.0		part_1
236		3.0				1.0	1.0							2.0	378.0	0.4261856970842928	2.0		4.0	5.0	8.0	2.0		part_1
237		3.0				1.0	1.0							4.0	385.0	0.6286196277942508	4.0		4.0	5.0	8.0	2.0		part_1
238		3.0				1.0	1.0							2.0	0.0	0.42564028152264655	2.0		0.0	8.0	6.0	6.0		part_1
239		3.0				1.0	1.0							3.0	391.0	0.4366289630997926	3.0		4.0	5.0	8.0	2.0		part_1
240		3.0				1.0	0.0							1.0	179.0	0.4831483163870871	1.0		3.0	4.0	3.0	8.0		part_1
241		3.0				1.0	0.0							2.0	0.0	0.5174906523898244	2.0		0.0	4.0	3.0	8.0		part_1
242		3.0				1.0	1.0							3.0	78.0	0.4050689954310656	3.0		2.0	8.0	6.0	6.0		part_1
243		3.0				1.0	1.0							1.0	26.0	0.4741231063380837	1.0		1.0	6.0	5.0	3.0		part_1
244		3.0				1.0	1.0							4.0	0.0	0.3955650385469198	4.0		0.0	5.0	8.0	2.0		part_1
245		3.0				1.0	1.0							2.0	424.0	0.3958061663433909	2.0		4.0	5.0	8.0	2.0		part_1
246		3.0				1.0	0.0							1.0	51.0	0.3747212586458773	1.0		1.0	1.0	1.0	1.0		part_1
247		3.0				1.0	1.0							2.0	34.0	0.4636905288789421	2.0		1.0	6.0	5.0	3.0		part_1
248		3.0				1.0	0.0							3.0	115.0	0.3747958755120635	3.0		2.0	2.0	2.0	4.0		part_1
249		3.0				1.0	0.0							1.0	80.0	0.4770995364524424	1.0		2.0	2.0	2.0	4.0		part_1
250		3.0				1.0	1.0							1.0	28.0	0.478343928232789	1.0		1.0	6.0	5.0	3.0		part_1
251		3.0				1.0	1.0							1.0	0.0	0.3988021849654615	1.0		0.0	8.0	6.0	6.0		part_1
252		3.0				1.0	0.0							1.0	176.0	0.4221308857668191	1.0		3.0	4.0	3.0	8.0		part_1
253		3.0				1.0	0.0							4.0	196.0	0.6360455693211406	4.0		3.0	4.0	3.0	8.0		part_1
254		3.0				1.0	0.0							4.0	83.0	0.5478880954906344	4.0		2.0	2.0	2.0	4.0		part_1
255		3.0				1.0	1.0							2.0	0.0	0.3903400537092239	2.0		0.0	3.0	7.0	7.0		part_1
256		3.0				1.0	0.0							2.0	0.0	0.3904390907846391	2.0		0.0	2.0	2.0	4.0		part_1
257		3.0				1.0	0.0							3.0	47.0	0.5946195654105395	3.0		1.0	1.0	1.0	1.0		part_1
258		3.0				1.0	0.0							3.0	0.0	0.4139751847833395	3.0		0.0	1.0	1.0	1.0		part_1
259		3.0				1.0	1.0							3.0	63.0	0.3812021964695305	3.0		1.0	6.0	5.0	3.0		part_1
260		3.0				1.0	1.0							2.0	0.0	0.5162553235422821	2.0		0.0	3.0	7.0	7.0		part_1
261		3.0				1.0	1.0							1.0	0.0	0.41585766710340977	1.0		0.0	6.0	5.0	3.0		part_1
262		3.0				1.0	0.0							2.0	218.0	0.405103653902188	2.0		3.0	4.0	3.0	8.0		part_1
263		3.0				1.0	1.0							1.0	118.0	0.4183999586384744	1.0		2.0	8.0	6.0	6.0		part_1
264		3.0				1.0	1.0							2.0	0.0	0.37273263395763934	2.0		0.0	3.0	7.0	7.0		part_1
265		3.0				1.0	0.0							3.0	389.0	0.36128137400373816	3.0		4.0	7.0	4.0	5.0		part_1
266		3.0				1.0	0.0							2.0	46.0	0.37465871847234666	2.0		1.0	1.0	1.0	1.0		part_1
267		3.0				1.0	0.0							1.0	409.0	0.3857270064763725	1.0		4.0	7.0	4.0	5.0		part_1
268		3.0				1.0	1.0							1.0	376.0	0.3643439956940711	1.0		4.0	5.0	8.0	2.0		part_1
269		3.0				1.0	0.0							1.0	213.0	0.3769211482722312	1.0		3.0	4.0	3.0	8.0		part_1
270		3.0				1.0	0.0							2.0	107.0	0.3873990618158132	2.0		2.0	2.0	2.0	4.0		part_1
271		3.0				1.0	0.0							4.0	0.0	0.4214928084984422	4.0		0.0	7.0	4.0	5.0		part_1
272		3.0				1.0	0.0							2.0	410.0	0.3996668453328312	2.0		4.0	7.0	4.0	5.0		part_1
273		3.0				1.0	0.0							3.0	0.0	0.4565811455249786	3.0		0.0	1.0	1.0	1.0		part_1
274		3.0				1.0	1.0							1.0	403.0	0.4902937754523009	1.0		4.0	5.0	8.0	2.0		part_1
275		3.0				1.0	0.0							2.0	391.0	0.4012235659174621	2.0		4.0	7.0	4.0	5.0		part_1
276		3.0				1.0	1.0							1.0	422.0	0.3899525904562324	1.0		4.0	5.0	8.0	2.0		part_1
277		3.0				1.0	1.0							2.0	0.0	0.34737217077054083	2.0		0.0	8.0	6.0	6.0		part_1
278		3.0				1.0	0.0							2.0	405.0	0.4374708372633904	2.0		4.0	7.0	4.0	5.0		part_1
279		3.0				1.0	0.0							2.0	57.0	0.5044538360089064	2.0		1.0	1.0	1.0	1.0		part_1
280		3.0				1.0	1.0							1.0	41.0	0.3806679572444409	1.0		1.0	6.0	5.0	3.0		part_1
281		3.0				1.0	1.0							3.0	58.0	0.4266237078700215	3.0		1.0	6.0	5.0	3.0		part_1
282		3.0				1.0	0.0							3.0	392.0	0.416551458183676	3.0		4.0	7.0	4.0	5.0		part_1
283		3.0				1.0	1.0							4.0	421.0	0.3387028898578137	4.0		4.0	5.0	8.0	2.0		part_1
284		3.0				1.0	0.0							4.0	215.0	0.339770317543298	4.0		3.0	4.0	3.0	8.0		part_1
285		3.0				1.0	0.0							4.0	411.0	0.3614116674289107	4.0		4.0	7.0	4.0	5.0		part_1
286		3.0				1.0	1.0							3.0	0.0	0.4966642174404114	3.0		0.0	8.0	6.0	6.0		part_1
287		3.0				1.0	1.0							1.0	101.0	0.3530950814019889	1.0		2.0	8.0	6.0	6.0		part_1
288		3.0				2.0	1.0							1.0	67.0	0.3412794223986566	1.0		1.0	6.0	5.0	3.0		part_1
289		3.0				1.0	0.0							3.0	180.0	0.3634249137248844	3.0		3.0	4.0	3.0	8.0		part_1
290		3.0				1.0	1.0							3.0	208.0	0.3542132405564189	3.0		3.0	3.0	7.0	7.0		part_1
291		3.0				1.0	1.0							2.0	0.0	0.2994266492314637	2.0		0.0	6.0	5.0	3.0		part_1
292		3.0				1.0	0.0							1.0	380.0	0.34503431036137044	1.0		4.0	7.0	4.0	5.0		part_1
293		3.0				1.0	0.0							4.0	0.0	0.6140790528152138	4.0		0.0	7.0	4.0	5.0		part_1
294		3.0				1.0	1.0							2.0	180.0	0.4362637388985604	2.0		3.0	3.0	7.0	7.0		part_1
295		3.0				1.0	1.0							2.0	0.0	0.4020263734273613	2.0		0.0	6.0	5.0	3.0		part_1
296		3.0				1.0	0.0							2.0	204.0	0.4242658475413919	2.0		3.0	4.0	3.0	8.0		part_1
297		3.0				1.0	0.0							3.0	383.0	0.4576183061581105	3.0		4.0	7.0	4.0	5.0		part_1
298		3.0				1.0	1.0							2.0	64.0	0.4255180191248655	2.0		1.0	6.0	5.0	3.0		part_1
299		3.0				1.0	1.0							3.0	0.0	0.3582436740398407	3.0		0.0	6.0	5.0	3.0		part_1
300		4.0				1.0	0.0							2.0	199.0	0.3783295373432338	2.0		3.0	4.0	3.0	8.0		part_1
301		4.0				1.0	0.0							1.0	411.0	0.4697004414629191	1.0		4.0	7.0	4.0	5.0		part_1
302		4.0				1.0	1.0							2.0	399.0	0.3780702273361385	2.0		4.0	5.0	8.0	2.0		part_1
303		4.0				1.0	0.0							3.0	0.0	0.3801086451858282	3.0		0.0	4.0	3.0	8.0		part_1
304		4.0				1.0	0.0							4.0	395.0	0.3460993634071201	4.0		4.0	7.0	4.0	5.0		part_1
305		4.0				1.0	0.0							4.0	118.0	0.3915357291698456	4.0		2.0	2.0	2.0	4.0		part_1
306		4.0				1.0	0.0							1.0	409.0	0.3810675414279103	1.0		4.0	7.0	4.0	5.0		part_1
307		4.0				1.0	1.0							2.0	73.0	0.4601445014122874	2.0		1.0	6.0	5.0	3.0		part_1
308		4.0				1.0	1.0							3.0	405.0	0.3817443470470607	3.0		4.0	5.0	8.0	2.0		part_1
309		4.0				1.0	0.0							1.0	31.0	0.3948127112817019	1.0		1.0	1.0	1.0	1.0		part_1
310		4.0				1.0	1.0							2.0	47.0	0.4737185463309288	2.0		1.0	6.0	5.0	3.0		part_1
311		4.0				1.0	0.0							3.0	421.0	0.4971257059369236	3.0		4.0	7.0	4.0	5.0		part_1
312		4.0				1.0	1.0							3.0	75.0	0.39445306127890944	3.0		2.0	8.0	6.0	6.0		part_1
313		4.0				1.0	0.0							2.0	0.0	0.4303353468421847	2.0		0.0	2.0	2.0	4.0		part_1
314		4.0				1.0	1.0							3.0	407.0	0.3965599637012929	3.0		4.0	5.0	8.0	2.0		part_1
315		4.0				1.0	1.0							3.0	199.0	0.3961492364760488	3.0		3.0	3.0	7.0	7.0		part_1
316		4.0				1.0	0.0							3.0	0.0	0.4869654111098498	3.0		0.0	4.0	3.0	8.0		part_1
317		4.0				1.0	0.0							3.0	205.0	0.4439940585289151	3.0		3.0	4.0	3.0	8.0		part_1
318		4.0				1.0	1.0							1.0	202.0	0.5579394327942282	1.0		3.0	3.0	7.0	7.0		part_1
319		4.0				1.0	0.0							2.0	90.0	0.4211665173061192	2.0		2.0	2.0	2.0	4.0		part_1
320		4.0				1.0	0.0							2.0	223.0	0.36603514244779933	2.0		3.0	4.0	3.0	8.0		part_1
321		4.0				1.0	1.0							2.0	405.0	0.4013181477785111	2.0		4.0	5.0	8.0	2.0		part_1
322		4.0				1.0	1.0							4.0	380.0	0.41186691145412624	4.0		4.0	5.0	8.0	2.0		part_1
323		4.0				2.0	1.0							2.0	414.0	0.4014185848645866	2.0		4.0	5.0	8.0	2.0		part_1
324		4.0				1.0	1.0							2.0	66.0	0.3804984439630061	2.0		1.0	6.0	5.0	3.0		part_1
325		4.0				1.0	1.0							3.0	83.0	0.4482725695706904	3.0		2.0	8.0	6.0	6.0		part_1
326		4.0				1.0	0.0							3.0	25.0	0.4366641161032021	3.0		1.0	1.0	1.0	1.0		part_1
327		4.0				1.0	0.0							3.0	175.0	0.41475496091879904	3.0		3.0	4.0	3.0	8.0		part_1
328		4.0				1.0	1.0							4.0	205.0	0.4263468696735799	4.0		3.0	3.0	7.0	7.0		part_1
329		4.0				1.0	1.0							3.0	0.0	0.4611553999129683	3.0		0.0	5.0	8.0	2.0		part_1
330		4.0				1.0	0.0							3.0	379.0	0.3946004549507052	3.0		4.0	7.0	4.0	5.0		part_1
331		4.0				1.0	1.0							4.0	56.0	0.4855501935817301	4.0		1.0	6.0	5.0	3.0		part_1
332		4.0				1.0	0.0							3.0	186.0	0.3845735208597034	3.0		3.0	4.0	3.0	8.0		part_1
333		4.0				1.0	1.0							3.0	52.0	0.44096327293664217	3.0		1.0	6.0	5.0	3.0		part_1
334		4.0				1.0	0.0							3.0	399.0	0.3293740125373006	3.0		4.0	7.0	4.0	5.0		part_1
335		4.0				1.0	0.0							3.0	35.0	0.4197047313209623	3.0		1.0	1.0	1.0	1.0		part_1
336		4.0				1.0	0.0							2.0	0.0	0.5121258865110576	2.0		0.0	7.0	4.0	5.0		part_1
337		4.0				1.0	0.0							4.0	376.0	0.420147716300562	4.0		4.0	7.0	4.0	5.0		part_1
338		4.0				1.0	1.0							3.0	97.0	0.36524666007608175	3.0		2.0	8.0	6.0	6.0		part_1
339		4.0				1.0	1.0							4.0	47.0	0.3882292655762285	4.0		1.0	6.0	5.0	3.0		part_1
340		4.0				1.0	0.0							2.0	202.0	0.4447188368067145	2.0		3.0	4.0	3.0	8.0		part_1
341		4.0				2.0	1.0							1.0	0.0	0.3912898583803326	1.0		0.0	6.0	5.0	3.0		part_1
342		4.0				1.0	1.0							2.0	107.0	0.694586151978001	2.0		2.0	8.0	6.0	6.0		part_1
343		4.0				1.0	1.0							2.0	38.0	0.852415936999023	2.0		1.0	6.0	5.0	3.0		part_1
344		4.0				1.0	0.0							2.0	204.0	0.7959895390085876	2.0		3.0	4.0	3.0	8.0		part_1
345		4.0				2.0	0.0							3.0	30.0	0.402822649339214	3.0		1.0	1.0	1.0	1.0		part_1
346		4.0				1.0	1.0							2.0	193.0	0.4499070951715112	2.0		3.0	3.0	7.0	7.0		part_1
347		4.0				1.0	1.0							2.0	28.0	0.438990309368819	2.0		1.0	6.0	5.0	3.0		part_1
348		4.0				1.0	1.0							4.0	112.0	0.4171875552274287	4.0		2.0	8.0	6.0	6.0		part_1
349		4.0				1.0	0.0							2.0	0.0	0.4286477444693446	2.0		0.0	7.0	4.0	5.0		part_1
350		4.0				1.0	1.0							2.0	0.0	0.41784096439369023	2.0		0.0	6.0	5.0	3.0		part_1
351		4.0				1.0	1.0							1.0	218.0	0.5088997073471546	1.0		3.0	3.0	7.0	7.0		part_1
352		4.0				1.0	1.0							1.0	0.0	0.3813858078792691	1.0		0.0	8.0	6.0	6.0		part_1
353		4.0				1.0	0.0							3.0	0.0	0.6224657001439482	3.0		0.0	2.0	2.0	4.0		part_1
354		4.0				1.0	0.0							4.0	41.0	0.4429156084079296	4.0		1.0	1.0	1.0	1.0		part_1
355		4.0				1.0	1.0							4.0	0.0	0.4090356284286827	4.0		0.0	6.0	5.0	3.0		part_1
356		4.0				1.0	0.0							3.0	199.0	0.3989460505545139	3.0		3.0	4.0	3.0	8.0		part_1
357		4.0				1.0	0.0							3.0	0.0	0.3990633869543672	3.0		0.0	4.0	3.0	8.0		part_1
358		4.0				1.0	1.0							3.0	202.0	0.4220716275740415	3.0		3.0	3.0	7.0	7.0		part_1
359		4.0				1.0	1.0							2.0	94.0	0.5033855000510812	2.0		2.0	8.0	6.0	6.0		part_1
360		4.0				1.0	1.0							4.0	50.0	0.4682977122720331	4.0		1.0	6.0	5.0	3.0		part_1
361		4.0				1.0	0.0							4.0	85.0	0.4575768867507577	4.0		2.0	2.0	2.0	4.0		part_1
362		4.0				1.0	1.0							1.0	175.0	0.4925043482799083	1.0		3.0	3.0	7.0	7.0		part_1
363		4.0				1.0	1.0							1.0	209.0	0.4596884537022561	1.0		3.0	3.0	7.0	7.0		part_1
364		4.0				1.0	1.0							3.0	223.0	0.5051027678418905	3.0		3.0	3.0	7.0	7.0		part_1
365		4.0				1.0	1.0							2.0	0.0	0.5165706193074584	2.0		0.0	3.0	7.0	7.0		part_1
366		4.0				1.0	0.0							2.0	47.0	0.4607557749841362	2.0		1.0	1.0	1.0	1.0		part_1
367		4.0				1.0	0.0							1.0	94.0	0.4280985172372312	1.0		2.0	2.0	2.0	4.0		part_1
368		4.0				1.0	0.0							4.0	106.0	0.4281275186222047	4.0		2.0	2.0	2.0	4.0		part_1
369		4.0				1.0	1.0							1.0	186.0	0.4529150240123272	1.0		3.0	3.0	7.0	7.0		part_1
370		4.0				1.0	1.0							3.0	63.0	0.4522226785775274	3.0		1.0	6.0	5.0	3.0		part_1
371		4.0				1.0	0.0							4.0	57.0	0.3962970895227045	4.0		1.0	1.0	1.0	1.0		part_1
372		4.0				1.0	0.0							3.0	45.0	0.5202010672073811	3.0		1.0	1.0	1.0	1.0		part_1
373		4.0				1.0	0.0							4.0	41.0	0.3647969679441303	4.0		1.0	1.0	1.0	1.0		part_1
374		4.0				1.0	0.0							4.0	0.0	0.4080783468671143	4.0		0.0	1.0	1.0	1.0		part_1
375		4.0				1.0	1.0							4.0	68.0	0.35323082259856164	4.0		1.0	6.0	5.0	3.0		part_1
376		4.0				1.0	1.0							2.0	0.0	0.5130057900678366	2.0		0.0	3.0	7.0	7.0		part_1
377		4.0				1.0	0.0							2.0	375.0	0.4105116014834493	2.0		4.0	7.0	4.0	5.0		part_1
378		4.0				1.0	0.0							2.0	75.0	0.3999861858319491	2.0		2.0	2.0	2.0	4.0		part_1
379		4.0				1.0	0.0							2.0	68.0	0.4006918924860656	2.0		1.0	1.0	1.0	1.0		part_1
380		4.0				1.0	0.0							1.0	0.0	0.5370328158605844	1.0		0.0	2.0	2.0	4.0		part_1
381		4.0				1.0	1.0							4.0	41.0	0.549342397833243	4.0		1.0	6.0	5.0	3.0		part_1
382		4.0				1.0	1.0							3.0	204.0	0.381430757464841	3.0		3.0	3.0	7.0	7.0		part_1
383		4.0				1.0	1.0							4.0	106.0	0.3237382739316672	4.0		2.0	8.0	6.0	6.0		part_1
384		4.0				1.0	1.0							3.0	389.0	0.3799464262556285	3.0		4.0	5.0	8.0	2.0		part_1
385		4.0				1.0	0.0							3.0	0.0	0.4149976202752441	3.0		0.0	7.0	4.0	5.0		part_1
386		4.0				1.0	0.0							3.0	66.0	0.38116471376270056	3.0		1.0	1.0	1.0	1.0		part_1
387		4.0				1.0	0.0							2.0	0.0	0.4397270563058555	2.0		0.0	2.0	2.0	4.0		part_1
388		4.0				1.0	0.0							2.0	34.0	0.4396610788535327	2.0		1.0	1.0	1.0	1.0		part_1
389		4.0				1.0	0.0							1.0	124.0	0.4188386513851583	1.0		2.0	2.0	2.0	4.0		part_1
390		4.0				1.0	1.0							2.0	391.0	0.4966983259655535	2.0		4.0	5.0	8.0	2.0		part_1
391		4.0				1.0	1.0							3.0	0.0	0.4975883276201785	3.0		0.0	8.0	6.0	6.0		part_1
392		4.0				1.0	1.0							2.0	115.0	0.3974937067832798	2.0		2.0	8.0	6.0	6.0		part_1
393		4.0				1.0	0.0							3.0	81.0	0.38596589071676135	3.0		2.0	2.0	2.0	4.0		part_1
394		4.0				1.0	1.0							3.0	380.0	0.39746142155490816	3.0		4.0	5.0	8.0	2.0		part_1
395		4.0				1.0	1.0							4.0	181.0	0.4534926633350551	4.0		3.0	3.0	7.0	7.0		part_1
396		4.0				1.0	0.0							2.0	54.0	0.3199589354917407	2.0		1.0	1.0	1.0	1.0		part_1
397		4.0				1.0	1.0							4.0	102.0	0.4670824939385057	4.0		2.0	8.0	6.0	6.0		part_1
398		4.0				1.0	0.0							4.0	85.0	0.36511269700713456	4.0		2.0	2.0	2.0	4.0		part_1
399		4.0				1.0	0.0							1.0	58.0	0.636949120555073	1.0		1.0	1.0	1.0	1.0		part_1
0	1.0	1.0			250.0	0.0	0.0							6.0	0.0	0.4060943815857172	6.0	250.0	2.0	2.0	2.0	4.0	0.0	part_2
1	4.0	1.0			250.0	0.0	1.0							5.0	0.0	0.0	0.0	250.0	4.0	5.0	8.0	2.0	1.0	part_2
2	1.0	1.0			300.0	0.0	0.0							6.0	0.0	0.5089417921844871	6.0	250.0	1.0	1.0	1.0	1.0	0.0	part_2
3	4.0	1.0			300.0	0.0	1.0							6.0	0.0	0.0	0.0	250.0	2.0	8.0	6.0	6.0	1.0	part_2
4	1.0	1.0			300.0	0.0	0.0							5.0	0.0	0.5216380681376904	5.0	300.0	4.0	7.0	4.0	5.0	0.0	part_2
5	1.0	1.0			300.0	0.0	0.0							6.0	0.0	0.5910942459013313	6.0	300.0	3.0	4.0	3.0	8.0	0.0	part_2
6	4.0	1.0			300.0	0.0	1.0							6.0	0.0	0.0	0.0	300.0	2.0	8.0	6.0	6.0	1.0	part_2
7	1.0	1.0			300.0	0.0	0.0							5.0	0.0	0.9530773672740906	5.0	350.0	1.0	1.0	1.0	1.0	0.0	part_2
8	4.0	1.0			300.0	0.0	1.0							6.0	0.0	0.0	0.0	350.0	4.0	5.0	8.0	2.0	1.0	part_2
9	1.0	1.0			300.0	0.0	0.0							5.0	0.0	0.7521980514284223	5.0	400.0	2.0	2.0	2.0	4.0	0.0	part_2
10	1.0	1.0			300.0	0.0	0.0							5.0	0.0	0.4815232257824391	5.0	400.0	1.0	1.0	1.0	1.0	0.0	part_2
11	1.0	1.0			300.0	0.0	0.0							6.0	0.0	0.5382521999999881	6.0	400.0	4.0	7.0	4.0	5.0	0.0	part_2
12	4.0	1.0			300.0	0.0	1.0							5.0	0.0	0.0	0.0	400.0	2.0	8.0	6.0	6.0	1.0	part_2
13	1.0	1.0			350.0	0.0	1.0							5.0	0.0	0.7987285908311605	5.0	400.0	3.0	3.0	7.0	7.0	0.0	part_2
14	1.0	1.0			350.0	0.0	0.0							5.0	0.0	0.43977809720672667	5.0	400.0	4.0	7.0	4.0	5.0	0.0	part_2
15	1.0	1.0			350.0	0.0	0.0							6.0	0.0	0.8350259868893772	6.0	400.0	4.0	7.0	4.0	5.0	0.0	part_2
16	4.0	1.0			350.0	0.0	1.0							5.0	0.0	0.0	0.0	400.0	3.0	3.0	7.0	7.0	1.0	part_2
17	4.0	1.0			400.0	0.0	1.0							5.0	0.0	0.0	0.0	400.0	2.0	8.0	6.0	6.0	1.0	part_2
18	3.0	1.0			450.0	0.0	1.0							6.0	0.0	0.3092456688173115	6.0	400.0	4.0	5.0	8.0	2.0	1.0	part_2
19	1.0	1.0			450.0	0.0	1.0							5.0	0.0	1.0401821003761142	5.0	350.0	3.0	3.0	7.0	7.0	0.0	part_2
20	4.0	1.0			450.0	0.0	1.0							6.0	0.0	0.0	0.0	350.0	4.0	5.0	8.0	2.0	1.0	part_2
21	4.0	1.0			450.0	0.0	1.0							5.0	0.0	0.0	0.0	400.0	2.0	8.0	6.0	6.0	1.0	part_2
22	1.0	1.0			500.0	0.0	0.0							5.0	0.0	0.7291748709976673	5.0	400.0	2.0	2.0	2.0	4.0	0.0	part_2
23	4.0	1.0			500.0	0.0	1.0							6.0	0.0	0.0	0.0	400.0	3.0	3.0	7.0	7.0	1.0	part_2
24	4.0	1.0			500.0	0.0	1.0							5.0	0.0	0.0	0.0	450.0	4.0	5.0	8.0	2.0	1.0	part_2
25	4.0	1.0			550.0	0.0	1.0							5.0	0.0	0.0	0.0	450.0	2.0	8.0	6.0	6.0	1.0	part_2
26	1.0	1.0			600.0	0.0	0.0							5.0	0.0	1.0916699108202008	5.0	450.0	3.0	4.0	3.0	8.0	0.0	part_2
27	4.0	1.0			600.0	0.0	1.0							6.0	0.0	0.0	0.0	450.0	4.0	5.0	8.0	2.0	1.0	part_2
28	4.0	1.0			600.0	0.0	1.0							5.0	0.0	0.0	0.0	500.0	3.0	3.0	7.0	7.0	1.0	part_2
29	1.0	1.0			650.0	0.0	0.0							6.0	0.0	0.8248072392307222	6.0	500.0	2.0	2.0	2.0	4.0	0.0	part_2
30	1.0	1.0			650.0	0.0	0.0							6.0	0.0	0.9723472371697426	6.0	500.0	1.0	1.0	1.0	1.0	0.0	part_2
31	1.0	1.0			650.0	0.0	0.0							5.0	0.0	0.75888502295129	5.0	500.0	2.0	2.0	2.0	4.0	0.0	part_2
32	1.0	1.0			650.0	0.0	0.0							6.0	0.0	0.7818607790395617	6.0	500.0	3.0	4.0	3.0	8.0	0.0	part_2
33	3.0	1.0			650.0	0.0	1.0							6.0	0.0	0.6035541077144444	6.0	500.0	4.0	5.0	8.0	2.0	1.0	part_2
34	1.0	1.0			650.0	0.0	1.0							6.0	0.0	0.8844479685649276	6.0	450.0	4.0	5.0	8.0	2.0	0.0	part_2
35	1.0	1.0			650.0	0.0	1.0							6.0	0.0	0.8400022853165865	6.0	450.0	4.0	5.0	8.0	2.0	0.0	part_2
36	1.0	2.0			650.0	0.0	0.0							5.0	0.0	0.4516805182211101	5.0	450.0	1.0	1.0	1.0	1.0	0.0	part_2
37	1.0	2.0			650.0	0.0	0.0							6.0	0.0	0.4525993911083788	6.0	450.0	3.0	4.0	3.0	8.0	0.0	part_2
38	3.0	2.0			650.0	0.0	1.0							5.0	0.0	0.4307178254239261	5.0	450.0	1.0	6.0	5.0	3.0	1.0	part_2
39	3.0	2.0			600.0	0.0	1.0							6.0	0.0	0.7472091880626976	6.0	450.0	2.0	8.0	6.0	6.0	1.0	part_2
40	1.0	2.0			600.0	0.0	0.0							5.0	0.0	0.6913242423906922	5.0	400.0	2.0	2.0	2.0	4.0	0.0	part_2
41	1.0	2.0			600.0	0.0	0.0							5.0	0.0	0.6920314980670811	5.0	400.0	2.0	2.0	2.0	4.0	0.0	part_2
42	1.0	2.0			600.0	0.0	1.0							6.0	0.0	0.4566481313668192	6.0	400.0	2.0	8.0	6.0	6.0	0.0	part_2
43	1.0	2.0			600.0	0.0	0.0							6.0	0.0	0.4914161751512438	6.0	400.0	1.0	1.0	1.0	1.0	0.0	part_2
44	1.0	2.0			600.0	0.0	0.0							6.0	0.0	0.8637651316821575	6.0	400.0	2.0	2.0	2.0	4.0	0.0	part_2
45	3.0	2.0			600.0	0.0	1.0							5.0	0.0	0.4484047740697861	5.0	400.0	1.0	6.0	5.0	3.0	1.0	part_2
46	1.0	2.0			550.0	0.0	0.0							5.0	0.0	0.7989340936765075	5.0	400.0	3.0	4.0	3.0	8.0	0.0	part_2
47	4.0	2.0			550.0	0.0	1.0							6.0	0.0	0.0	0.0	400.0	3.0	3.0	7.0	7.0	1.0	part_2
48	4.0	2.0			550.0	0.0	1.0							5.0	0.0	0.0	0.0	450.0	3.0	3.0	7.0	7.0	1.0	part_2
49	3.0	2.0			600.0	0.0	1.0							6.0	0.0	0.5410370780155063	6.0	450.0	3.0	3.0	7.0	7.0	1.0	part_2
50	1.0	2.0			600.0	0.0	0.0							6.0	0.0	0.6781775096897036	6.0	400.0	3.0	4.0	3.0	8.0	0.0	part_2
51	4.0	2.0			600.0	0.0	1.0							6.0	0.0	0.0	0.0	400.0	1.0	6.0	5.0	3.0	1.0	part_2
52	1.0	2.0			600.0	0.0	0.0							5.0	0.0	1.050437049008906	5.0	450.0	2.0	2.0	2.0	4.0	0.0	part_2
53	1.0	2.0			600.0	0.0	0.0							6.0	0.0	0.9393308323342352	6.0	450.0	4.0	7.0	4.0	5.0	0.0	part_2
54	1.0	2.0			600.0	0.0	0.0							5.0	0.0	0.8830611906014383	5.0	450.0	4.0	7.0	4.0	5.0	0.0	part_2
55	1.0	2.0			600.0	0.0	0.0							6.0	0.0	0.7271685858722776	6.0	450.0	4.0	7.0	4.0	5.0	0.0	part_2
56	1.0	2.0			600.0	0.0	0.0							6.0	0.0	0.7716617998667061	6.0	450.0	1.0	1.0	1.0	1.0	0.0	part_2
57	1.0	2.0			600.0	0.0	1.0							6.0	0.0	0.6161899950820953	6.0	450.0	4.0	5.0	8.0	2.0	0.0	part_2
58	1.0	2.0			600.0	0.0	0.0							5.0	0.0	0.6289884930010885	5.0	450.0	4.0	7.0	4.0	5.0	0.0	part_2
59	4.0	2.0			600.0	0.0	1.0							6.0	0.0	0.0	0.0	450.0	2.0	8.0	6.0	6.0	1.0	part_2
60	1.0	2.0			600.0	0.0	0.0							5.0	0.0	0.9120346361305564	5.0	500.0	3.0	4.0	3.0	8.0	0.0	part_2
61	1.0	2.0			600.0	0.0	0.0							6.0	0.0	0.9335519149899484	6.0	500.0	1.0	1.0	1.0	1.0	0.0	part_2
62	4.0	2.0			600.0	0.0	1.0							6.0	0.0	0.0	0.0	500.0	3.0	3.0	7.0	7.0	1.0	part_2
63	4.0	2.0			600.0	0.0	1.0							6.0	0.0	0.0	0.0	550.0	1.0	6.0	5.0	3.0	1.0	part_2
64	1.0	2.0			600.0	0.0	0.0							6.0	0.0	0.8930651599075645	6.0	600.0	1.0	1.0	1.0	1.0	0.0	part_2
65	4.0	2.0			600.0	0.0	1.0							5.0	0.0	0.0	0.0	600.0	1.0	6.0	5.0	3.0	1.0	part_2
66	1.0	2.0			650.0	0.0	1.0							5.0	0.0	1.0951695430558177	5.0	600.0	4.0	5.0	8.0	2.0	0.0	part_2
67	1.0	2.0			650.0	0.0	0.0							5.0	0.0	0.8721298750024289	5.0	600.0	2.0	2.0	2.0	4.0	0.0	part_2
68	1.0	2.0			650.0	0.0	0.0							6.0	0.0	0.4780075664166361	6.0	600.0	2.0	2.0	2.0	4.0	0.0	part_2
69	4.0	2.0			650.0	0.0	1.0							6.0	0.0	0.0	0.0	600.0	2.0	8.0	6.0	6.0	1.0	part_2
70	1.0	2.0			650.0	0.0	0.0							6.0	0.0	0.8186116314027458	6.0	650.0	3.0	4.0	3.0	8.0	0.0	part_2
71	1.0	2.0			650.0	0.0	0.0							6.0	0.0	0.5252227114979178	6.0	650.0	3.0	4.0	3.0	8.0	0.0	part_2
72	1.0	3.0			650.0	0.0	0.0							6.0	0.0	0.3717028645332903	6.0	650.0	2.0	2.0	2.0	4.0	0.0	part_2
73	1.0	3.0			650.0	0.0	0.0							6.0	0.0	0.3495904519222677	6.0	650.0	3.0	4.0	3.0	8.0	0.0	part_2
74	1.0	3.0			650.0	0.0	0.0							5.0	0.0	0.7111555135343224	5.0	650.0	1.0	1.0	1.0	1.0	0.0	part_2
75	4.0	3.0			650.0	0.0	1.0							5.0	0.0	0.0	0.0	650.0	4.0	5.0	8.0	2.0	1.0	part_2
76	1.0	3.0			700.0	0.0	0.0							5.0	0.0	0.6451185853220522	5.0	650.0	3.0	4.0	3.0	8.0	0.0	part_2
77	3.0	3.0			700.0	0.0	1.0							6.0	0.0	0.6613848649431021	6.0	650.0	2.0	8.0	6.0	6.0	1.0	part_2
78	3.0	3.0			700.0	0.0	1.0							5.0	0.0	0.8059860507491976	5.0	600.0	3.0	3.0	7.0	7.0	1.0	part_2
79	1.0	3.0			650.0	0.0	0.0							5.0	0.0	1.087737824767828	5.0	600.0	1.0	1.0	1.0	1.0	0.0	part_2
80	1.0	3.0			650.0	0.0	0.0							6.0	0.0	0.3568937282543629	6.0	600.0	1.0	1.0	1.0	1.0	0.0	part_2
81	1.0	3.0			650.0	0.0	1.0							6.0	0.0	0.5140473428182304	6.0	600.0	1.0	6.0	5.0	3.0	0.0	part_2
82	3.0	3.0			650.0	0.0	1.0							5.0	0.0	0.6950060797389597	5.0	600.0	1.0	6.0	5.0	3.0	1.0	part_2
83	4.0	3.0			600.0	0.0	1.0							6.0	0.0	0.0	0.0	600.0	4.0	5.0	8.0	2.0	1.0	part_2
84	1.0	3.0			600.0	0.0	1.0							5.0	0.0	0.7641499948222191	5.0	650.0	4.0	5.0	8.0	2.0	0.0	part_2
85	1.0	3.0			600.0	0.0	0.0							5.0	0.0	0.4965463543776423	5.0	650.0	1.0	1.0	1.0	1.0	0.0	part_2
86	1.0	3.0			600.0	0.0	0.0							6.0	0.0	0.3510429090820253	6.0	650.0	4.0	7.0	4.0	5.0	0.0	part_2
87	1.0	3.0			600.0	0.0	0.0							6.0	0.0	0.6324035320430994	6.0	650.0	4.0	7.0	4.0	5.0	0.0	part_2
88	3.0	3.0			600.0	0.0	1.0							5.0	0.0	0.3073644670657813	5.0	650.0	2.0	8.0	6.0	6.0	1.0	part_2
89	1.0	3.0			550.0	0.0	0.0							5.0	0.0	0.3631152964662761	5.0	650.0	1.0	1.0	1.0	1.0	0.0	part_2
90	1.0	3.0			550.0	0.0	0.0							5.0	0.0	0.7036098695825785	5.0	650.0	1.0	1.0	1.0	1.0	0.0	part_2
91	1.0	3.0			550.0	0.0	0.0							5.0	0.0	0.30837430711835623	5.0	650.0	4.0	7.0	4.0	5.0	0.0	part_2
92	3.0	3.0			550.0	0.0	1.0							5.0	0.0	0.40083335363306105	5.0	650.0	3.0	3.0	7.0	7.0	1.0	part_2
93	1.0	3.0			500.0	0.0	0.0							6.0	0.0	0.8727736598812044	6.0	650.0	4.0	7.0	4.0	5.0	0.0	part_2
94	1.0	3.0			500.0	0.0	0.0							6.0	0.0	0.70633605401963	6.0	650.0	4.0	7.0	4.0	5.0	0.0	part_2
95	1.0	3.0			500.0	0.0	0.0							5.0	0.0	0.7736163081135601	5.0	650.0	3.0	4.0	3.0	8.0	0.0	part_2
96	1.0	3.0			500.0	0.0	0.0							5.0	0.0	0.4379810215905309	5.0	650.0	2.0	2.0	2.0	4.0	0.0	part_2
97	3.0	3.0			500.0	0.0	1.0							5.0	0.0	0.4943933808244765	5.0	650.0	4.0	5.0	8.0	2.0	1.0	part_2
98	1.0	3.0			450.0	0.0	0.0							5.0	0.0	0.7197225522249937	5.0	650.0	2.0	2.0	2.0	4.0	0.0	part_2
99	3.0	3.0			450.0	0.0	1.0							6.0	0.0	0.5871970702428371	6.0	650.0	1.0	6.0	5.0	3.0	1.0	part_2
100	1.0	3.0			450.0	0.0	0.0							6.0	0.0	1.0606554746627808	6.0	600.0	2.0	2.0	2.0	4.0	0.0	part_2
101	4.0	3.0			450.0	0.0	1.0							5.0	0.0	0.0	0.0	600.0	3.0	3.0	7.0	7.0	1.0	part_2
102	3.0	3.0			500.0	0.0	1.0							6.0	0.0	0.6893964253831655	6.0	600.0	1.0	6.0	5.0	3.0	1.0	part_2
103	1.0	3.0			500.0	0.0	0.0							6.0	0.0	0.7589341434650123	6.0	550.0	4.0	7.0	4.0	5.0	0.0	part_2
104	1.0	3.0			500.0	0.0	0.0							5.0	0.0	0.771434381371364	5.0	550.0	3.0	4.0	3.0	8.0	0.0	part_2
105	1.0	3.0			500.0	0.0	0.0							5.0	0.0	0.9952192213386296	5.0	550.0	2.0	2.0	2.0	4.0	0.0	part_2
106	1.0	3.0			500.0	0.0	1.0							6.0	0.0	0.6470729655120522	6.0	550.0	3.0	3.0	7.0	7.0	0.0	part_2
107	3.0	3.0			500.0	0.0	1.0							5.0	0.0	1.1883074606303126	5.0	550.0	2.0	8.0	6.0	6.0	1.0	part_2
108	1.0	4.0			450.0	0.0	0.0							5.0	0.0	0.36254688003100455	5.0	550.0	2.0	2.0	2.0	4.0	0.0	part_2
109	3.0	4.0			450.0	0.0	1.0							5.0	0.0	0.3739350230898708	5.0	550.0	2.0	8.0	6.0	6.0	1.0	part_2
110	4.0	4.0			400.0	0.0	1.0							5.0	0.0	0.0	0.0	550.0	3.0	3.0	7.0	7.0	1.0	part_2
111	1.0	4.0			450.0	0.0	0.0							5.0	0.0	0.3303288926836103	5.0	550.0	3.0	4.0	3.0	8.0	0.0	part_2
112	1.0	4.0			450.0	0.0	0.0							5.0	0.0	0.3426551502197981	5.0	550.0	4.0	7.0	4.0	5.0	0.0	part_2
113	3.0	4.0			450.0	0.0	1.0							6.0	0.0	0.33195502171292895	6.0	550.0	2.0	8.0	6.0	6.0	1.0	part_2
114	1.0	4.0			450.0	0.0	0.0							5.0	0.0	0.2989181352313608	5.0	500.0	1.0	1.0	1.0	1.0	0.0	part_2
115	4.0	4.0			450.0	0.0	1.0							5.0	0.0	0.0	0.0	500.0	2.0	8.0	6.0	6.0	1.0	part_2
116	1.0	4.0			500.0	0.0	0.0							6.0	0.0	0.7615931862965226	6.0	500.0	4.0	7.0	4.0	5.0	0.0	part_2
117	1.0	4.0			500.0	0.0	0.0							6.0	0.0	0.6054477877914906	6.0	500.0	4.0	7.0	4.0	5.0	0.0	part_2
118	3.0	4.0			500.0	0.0	1.0							5.0	0.0	0.2815650997217745	5.0	500.0	4.0	5.0	8.0	2.0	1.0	part_2
119	1.0	4.0			450.0	0.0	0.0							5.0	0.0	0.7528298301622272	5.0	500.0	4.0	7.0	4.0	5.0	0.0	part_2
120	1.0	4.0			450.0	0.0	0.0							5.0	0.0	0.3611666797660291	5.0	500.0	1.0	1.0	1.0	1.0	0.0	part_2
121	3.0	4.0			450.0	0.0	1.0							6.0	0.0	0.31673216610215604	6.0	500.0	2.0	8.0	6.0	6.0	1.0	part_2
122	3.0	4.0			450.0	0.0	1.0							5.0	0.0	0.3859782901126891	5.0	450.0	1.0	6.0	5.0	3.0	1.0	part_2
123	1.0	4.0			400.0	0.0	1.0							5.0	0.0	0.3527674979995936	5.0	450.0	4.0	5.0	8.0	2.0	0.0	part_2
124	1.0	4.0			400.0	0.0	1.0							6.0	0.0	0.3971405071206391	6.0	450.0	1.0	6.0	5.0	3.0	0.0	part_2
125	1.0	4.0			400.0	0.0	0.0							6.0	0.0	0.4439007055480033	6.0	450.0	3.0	4.0	3.0	8.0	0.0	part_2
126	1.0	4.0			400.0	0.0	0.0							5.0	0.0	0.6237085512839258	5.0	450.0	3.0	4.0	3.0	8.0	0.0	part_2
127	1.0	4.0			400.0	0.0	0.0							6.0	0.0	0.3221873019356281	6.0	450.0	1.0	1.0	1.0	1.0	0.0	part_2
128	1.0	4.0			400.0	0.0	0.0							6.0	0.0	0.4005933508742601	6.0	450.0	3.0	4.0	3.0	8.0	0.0	part_2
129	1.0	4.0			400.0	0.0	0.0							5.0	0.0	0.35649006767198443	5.0	450.0	4.0	7.0	4.0	5.0	0.0	part_2
130	3.0	4.0			400.0	0.0	1.0							6.0	0.0	0.5149724944494665	6.0	450.0	1.0	6.0	5.0	3.0	1.0	part_2
131	1.0	4.0			400.0	0.0	0.0							5.0	0.0	0.5389777468517423	5.0	400.0	4.0	7.0	4.0	5.0	0.0	part_2
132	1.0	4.0			400.0	0.0	0.0							5.0	0.0	0.5503700734116137	5.0	400.0	4.0	7.0	4.0	5.0	0.0	part_2
133	3.0	4.0			400.0	0.0	1.0							5.0	0.0	0.3611475441139192	5.0	400.0	4.0	5.0	8.0	2.0	1.0	part_2
134	1.0	4.0			350.0	0.0	0.0							6.0	0.0	0.3506493063177913	6.0	400.0	2.0	2.0	2.0	4.0	0.0	part_2
135	4.0	4.0			350.0	0.0	1.0							6.0	0.0	0.0	0.0	400.0	3.0	3.0	7.0	7.0	1.0	part_2
136	1.0	4.0			350.0	0.0	0.0							6.0	0.0	0.5758462925441563	6.0	450.0	4.0	7.0	4.0	5.0	0.0	part_2
137	3.0	4.0			350.0	0.0	1.0							5.0	0.0	0.4432789881248027	5.0	450.0	1.0	6.0	5.0	3.0	1.0	part_2
138	1.0	4.0			300.0	0.0	1.0							5.0	0.0	0.6583602882456034	5.0	450.0	3.0	3.0	7.0	7.0	0.0	part_2
139	3.0	4.0			300.0	0.0	1.0							6.0	0.0	0.3655123992357403	6.0	450.0	2.0	8.0	6.0	6.0	1.0	part_2
140	1.0	4.0			300.0	0.0	0.0							5.0	0.0	0.8284098273143172	5.0	400.0	4.0	7.0	4.0	5.0	0.0	part_2
141	1.0	4.0			300.0	0.0	1.0							6.0	0.0	0.43425770895555615	6.0	400.0	3.0	3.0	7.0	7.0	0.0	part_2
142	1.0	4.0			300.0	0.0	0.0							6.0	0.0	0.5358424733858556	6.0	400.0	3.0	4.0	3.0	8.0	0.0	part_2
143	3.0	4.0			300.0	0.0	1.0							5.0	0.0	0.4581482473295182	5.0	400.0	4.0	5.0	8.0	2.0	1.0	part_2
144	3.0	5.0			250.0	0.0	1.0							5.0	0.0	0.3612944325432181	5.0	400.0	2.0	8.0	6.0	6.0	1.0	part_2
145	1.0	5.0			200.0	0.0	0.0							6.0	0.0	0.6209242548793554	6.0	400.0	1.0	1.0	1.0	1.0	0.0	part_2
146	1.0	5.0			200.0	0.0	0.0							6.0	0.0	0.4990234859287739	6.0	400.0	1.0	1.0	1.0	1.0	0.0	part_2
147	4.0	5.0			200.0	0.0	1.0							6.0	0.0	0.0	0.0	400.0	3.0	3.0	7.0	7.0	1.0	part_2
148	1.0	5.0			200.0	0.0	0.0							6.0	0.0	0.915051308227703	6.0	450.0	3.0	4.0	3.0	8.0	0.0	part_2
149	4.0	5.0			200.0	0.0	1.0							6.0	0.0	0.0	0.0	450.0	1.0	6.0	5.0	3.0	1.0	part_2
150	1.0	5.0			200.0	0.0	0.0							5.0	0.0	0.6586841433309019	5.0	500.0	3.0	4.0	3.0	8.0	0.0	part_2
151	4.0	5.0			200.0	0.0	1.0							6.0	0.0	0.0	0.0	500.0	4.0	5.0	8.0	2.0	1.0	part_2
152	4.0	5.0			200.0	0.0	1.0							5.0	0.0	0.0	0.0	550.0	1.0	6.0	5.0	3.0	1.0	part_2
153	1.0	5.0			250.0	0.0	0.0							5.0	0.0	0.7411044423934072	5.0	550.0	3.0	4.0	3.0	8.0	0.0	part_2
154	1.0	5.0			250.0	0.0	0.0							5.0	0.0	0.6614485029131174	5.0	550.0	4.0	7.0	4.0	5.0	0.0	part_2
155	1.0	5.0			250.0	0.0	0.0							6.0	0.0	0.7072992045432329	6.0	550.0	2.0	2.0	2.0	4.0	0.0	part_2
156	1.0	5.0			250.0	0.0	0.0							6.0	0.0	0.4273617330472917	6.0	550.0	2.0	2.0	2.0	4.0	0.0	part_2
157	3.0	5.0			250.0	0.0	1.0							6.0	0.0	0.6081851932685822	6.0	550.0	1.0	6.0	5.0	3.0	1.0	part_2
158	4.0	5.0			250.0	0.0	1.0							5.0	0.0	0.0	0.0	500.0	1.0	6.0	5.0	3.0	1.0	part_2
159	3.0	5.0			300.0	0.0	1.0							6.0	0.0	0.4756868404801935	6.0	500.0	4.0	5.0	8.0	2.0	1.0	part_2
160	1.0	5.0			300.0	0.0	0.0							6.0	0.0	0.8028286579065025	6.0	450.0	4.0	7.0	4.0	5.0	0.0	part_2
161	1.0	5.0			300.0	0.0	1.0							5.0	0.0	0.7345163305290043	5.0	450.0	1.0	6.0	5.0	3.0	0.0	part_2
162	4.0	5.0			300.0	0.0	1.0							6.0	0.0	0.0	0.0	450.0	4.0	5.0	8.0	2.0	1.0	part_2
163	1.0	5.0			300.0	0.0	0.0							5.0	0.0	0.9058357533067464	5.0	500.0	2.0	2.0	2.0	4.0	0.0	part_2
164	3.0	5.0			300.0	0.0	1.0							5.0	0.0	0.5796389703173189	5.0	500.0	3.0	3.0	7.0	7.0	1.0	part_2
165	1.0	5.0			250.0	0.0	0.0							5.0	0.0	0.6272973231971264	5.0	500.0	2.0	2.0	2.0	4.0	0.0	part_2
166	3.0	5.0			250.0	0.0	1.0							5.0	0.0	0.7513055829331279	5.0	500.0	4.0	5.0	8.0	2.0	1.0	part_2
167	1.0	5.0			200.0	0.0	0.0							6.0	0.0	0.4258638576138765	6.0	500.0	2.0	2.0	2.0	4.0	0.0	part_2
168	1.0	5.0			200.0	0.0	0.0							5.0	0.0	0.4386231997050345	5.0	500.0	1.0	1.0	1.0	1.0	0.0	part_2
169	1.0	5.0			200.0	0.0	0.0							5.0	0.0	0.4505000801291317	5.0	500.0	4.0	7.0	4.0	5.0	0.0	part_2
170	4.0	5.0			200.0	0.0	1.0							5.0	0.0	0.0	0.0	500.0	4.0	5.0	8.0	2.0	1.0	part_2
171	4.0	5.0			250.0	0.0	1.0							5.0	0.0	0.0	0.0	500.0	1.0	6.0	5.0	3.0	1.0	part_2
172	1.0	5.0			300.0	0.0	0.0							5.0	0.0	0.4969749297015369	5.0	500.0	3.0	4.0	3.0	8.0	0.0	part_2
173	4.0	5.0			300.0	0.0	1.0							5.0	0.0	0.0	0.0	500.0	4.0	5.0	8.0	2.0	1.0	part_2
174	4.0	5.0			350.0	0.0	1.0							5.0	0.0	0.0	0.0	500.0	2.0	8.0	6.0	6.0	1.0	part_2
175	1.0	5.0			400.0	0.0	0.0							6.0	0.0	0.6014378808904439	6.0	500.0	2.0	2.0	2.0	4.0	0.0	part_2
176	1.0	5.0			400.0	0.0	0.0							5.0	0.0	0.6683164848946035	5.0	500.0	2.0	2.0	2.0	4.0	0.0	part_2
177	1.0	5.0			400.0	0.0	0.0							5.0	0.0	0.3885889127850533	5.0	500.0	3.0	4.0	3.0	8.0	0.0	part_2
178	1.0	5.0			400.0	0.0	0.0							5.0	0.0	0.43547364114783693	5.0	500.0	4.0	7.0	4.0	5.0	0.0	part_2
179	1.0	5.0			400.0	0.0	0.0							6.0	0.0	0.3456720584072173	6.0	500.0	2.0	2.0	2.0	4.0	0.0	part_2
180	1.0	6.0			400.0	0.0	0.0							6.0	0.0	0.5286406122613698	6.0	500.0	4.0	7.0	4.0	5.0	0.0	part_2
181	3.0	6.0			400.0	0.0	1.0							6.0	0.0	0.5839410852640867	6.0	500.0	3.0	3.0	7.0	7.0	1.0	part_2
182	1.0	6.0			400.0	0.0	0.0							5.0	0.0	0.4613815438933671	5.0	450.0	1.0	1.0	1.0	1.0	0.0	part_2
183	1.0	6.0			400.0	0.0	1.0							5.0	0.0	0.643102448200807	5.0	450.0	3.0	3.0	7.0	7.0	0.0	part_2
184	1.0	6.0			400.0	0.0	0.0							6.0	0.0	0.3631463365163654	6.0	450.0	1.0	1.0	1.0	1.0	0.0	part_2
185	1.0	6.0			400.0	0.0	0.0							6.0	0.0	0.3636817061342299	6.0	450.0	3.0	4.0	3.0	8.0	0.0	part_2
186	3.0	6.0			400.0	0.0	1.0							5.0	0.0	0.398328771116212	5.0	450.0	1.0	6.0	5.0	3.0	1.0	part_2
187	1.0	6.0			350.0	0.0	0.0							5.0	0.0	0.6010509813204408	5.0	450.0	2.0	2.0	2.0	4.0	0.0	part_2
188	3.0	6.0			350.0	0.0	1.0							5.0	0.0	0.488960606046021	5.0	450.0	2.0	8.0	6.0	6.0	1.0	part_2
189	1.0	6.0			300.0	0.0	0.0							6.0	0.0	0.3994830066803843	6.0	450.0	1.0	1.0	1.0	1.0	0.0	part_2
190	1.0	6.0			300.0	0.0	1.0							5.0	0.0	0.4566455848980695	5.0	450.0	2.0	8.0	6.0	6.0	0.0	part_2
191	1.0	6.0			300.0	0.0	0.0							5.0	0.0	0.34645987930707633	5.0	450.0	4.0	7.0	4.0	5.0	0.0	part_2
192	3.0	6.0			300.0	0.0	1.0							6.0	0.0	0.3800233835354448	6.0	450.0	1.0	6.0	5.0	3.0	1.0	part_2
193	3.0	6.0			300.0	0.0	1.0							5.0	0.0	0.3579984782263637	5.0	400.0	4.0	5.0	8.0	2.0	1.0	part_2
194	1.0	6.0			250.0	0.0	0.0							6.0	0.0	0.7196107693016529	6.0	400.0	1.0	1.0	1.0	1.0	0.0	part_2
195	1.0	6.0			250.0	0.0	0.0							5.0	0.0	0.5962639125064015	5.0	400.0	3.0	4.0	3.0	8.0	0.0	part_2
196	1.0	6.0			250.0	0.0	0.0							6.0	0.0	0.5070929264184088	6.0	400.0	3.0	4.0	3.0	8.0	0.0	part_2
197	1.0	6.0			250.0	0.0	1.0							6.0	0.0	0.4061443479731679	6.0	400.0	2.0	8.0	6.0	6.0	0.0	part_2
198	3.0	6.0			250.0	0.0	1.0							5.0	0.0	0.3286248759832233	5.0	400.0	2.0	8.0	6.0	6.0	1.0	part_2
199	1.0	6.0			200.0	0.0	0.0							5.0	0.0	0.5994756538420916	5.0	400.0	3.0	4.0	3.0	8.0	0.0	part_2
200	1.0	6.0			200.0	0.0	1.0							6.0	0.0	0.6004173641558737	6.0	400.0	2.0	8.0	6.0	6.0	0.0	part_2
201	4.0	6.0			200.0	0.0	1.0							6.0	0.0	0.0	0.0	400.0	3.0	3.0	7.0	7.0	1.0	part_2
202	3.0	6.0			200.0	0.0	1.0							5.0	0.0	0.4002712741494179	5.0	450.0	2.0	8.0	6.0	6.0	1.0	part_2
203	1.0	6.0			150.0	0.0	0.0							6.0	0.0	0.3320082523860037	6.0	450.0	2.0	2.0	2.0	4.0	0.0	part_2
204	3.0	6.0			150.0	0.0	1.0							6.0	0.0	0.4023500576149672	6.0	450.0	2.0	8.0	6.0	6.0	1.0	part_2
205	3.0	6.0			150.0	0.0	1.0							5.0	0.0	0.3129122308455408	5.0	400.0	3.0	3.0	7.0	7.0	1.0	part_2
206	1.0	6.0			100.0	0.0	0.0							6.0	0.0	0.32449629134498537	6.0	400.0	3.0	4.0	3.0	8.0	0.0	part_2
207	3.0	6.0			100.0	0.0	1.0							6.0	0.0	0.41116297035478055	6.0	400.0	3.0	3.0	7.0	7.0	1.0	part_2
208	1.0	6.0			100.0	0.0	0.0							6.0	0.0	0.3713512697722763	6.0	350.0	4.0	7.0	4.0	5.0	0.0	part_2
209	4.0	6.0			100.0	0.0	1.0							6.0	0.0	0.0	0.0	350.0	4.0	5.0	8.0	2.0	1.0	part_2
210	4.0	6.0			100.0	0.0	1.0							6.0	0.0	0.0	0.0	400.0	3.0	3.0	7.0	7.0	1.0	part_2
211	4.0	6.0			100.0	0.0	1.0							6.0	0.0	0.0	0.0	450.0	3.0	3.0	7.0	7.0	1.0	part_2
212	1.0	6.0			100.0	0.0	0.0							5.0	0.0	0.7563240388408303	5.0	500.0	4.0	7.0	4.0	5.0	0.0	part_2
213	4.0	6.0			100.0	0.0	1.0							5.0	0.0	0.0	0.0	500.0	1.0	6.0	5.0	3.0	1.0	part_2
214	4.0	6.0			150.0	0.0	1.0							6.0	0.0	0.0	0.0	500.0	1.0	6.0	5.0	3.0	1.0	part_2
215	1.0	6.0			150.0	0.0	1.0							6.0	0.0	0.7597382816020399	6.0	550.0	1.0	6.0	5.0	3.0	0.0	part_2
216	4.0	7.0			150.0	0.0	1.0							5.0	0.0	0.0	0.0	550.0	3.0	3.0	7.0	7.0	1.0	part_2
217	3.0	7.0			200.0	0.0	1.0							6.0	0.0	0.4584503348451108	6.0	550.0	1.0	6.0	5.0	3.0	1.0	part_2
218	1.0	7.0			200.0	0.0	1.0							6.0	0.0	0.5613965666852891	6.0	500.0	2.0	8.0	6.0	6.0	0.0	part_2
219	1.0	7.0			200.0	0.0	1.0							5.0	0.0	0.4260942132677883	5.0	500.0	3.0	3.0	7.0	7.0	0.0	part_2
220	1.0	7.0			200.0	0.0	1.0							6.0	0.0	0.6971506923437119	6.0	500.0	1.0	6.0	5.0	3.0	0.0	part_2
221	3.0	7.0			200.0	0.0	1.0							5.0	0.0	0.3722604436334223	5.0	500.0	1.0	6.0	5.0	3.0	1.0	part_2
222	3.0	7.0			150.0	0.0	1.0							6.0	0.0	0.6440263330005109	6.0	500.0	2.0	8.0	6.0	6.0	1.0	part_2
223	1.0	7.0			150.0	0.0	0.0							5.0	0.0	0.7552619015332311	5.0	450.0	3.0	4.0	3.0	8.0	0.0	part_2
224	1.0	7.0			150.0	0.0	0.0							5.0	0.0	0.4640948888845742	5.0	450.0	1.0	1.0	1.0	1.0	0.0	part_2
225	1.0	7.0			150.0	0.0	0.0							6.0	0.0	0.4416475880425424	6.0	450.0	4.0	7.0	4.0	5.0	0.0	part_2
226	1.0	7.0			150.0	0.0	0.0							5.0	0.0	0.4768410502001643	5.0	450.0	3.0	4.0	3.0	8.0	0.0	part_2
227	1.0	7.0			150.0	0.0	1.0							5.0	0.0	0.5465222070924938	5.0	450.0	3.0	3.0	7.0	7.0	0.0	part_2
228	1.0	7.0			150.0	0.0	0.0							6.0	0.0	0.3888658711221069	6.0	450.0	3.0	4.0	3.0	8.0	0.0	part_2
229	3.0	7.0			150.0	0.0	1.0							6.0	0.0	0.355273301480338	6.0	450.0	1.0	6.0	5.0	3.0	1.0	part_2
230	1.0	7.0			150.0	0.0	1.0							6.0	0.0	0.458667557919398	6.0	400.0	1.0	6.0	5.0	3.0	0.0	part_2
231	1.0	7.0			150.0	0.0	0.0							5.0	0.0	0.8312548000831157	5.0	400.0	3.0	4.0	3.0	8.0	0.0	part_2
232	1.0	7.0			150.0	0.0	0.0							6.0	0.0	0.6390870853792876	6.0	400.0	1.0	1.0	1.0	1.0	0.0	part_2
233	1.0	7.0			150.0	0.0	1.0							5.0	0.0	0.5160613148473203	5.0	400.0	4.0	5.0	8.0	2.0	0.0	part_2
234	4.0	7.0			150.0	0.0	1.0							5.0	0.0	0.0	0.0	400.0	4.0	5.0	8.0	2.0	1.0	part_2
235	3.0	7.0			200.0	0.0	1.0							6.0	0.0	0.4392445266712457	6.0	400.0	3.0	3.0	7.0	7.0	1.0	part_2
236	4.0	7.0			200.0	0.0	1.0							5.0	0.0	0.0	0.0	350.0	3.0	3.0	7.0	7.0	1.0	part_2
237	1.0	7.0			250.0	0.0	0.0							6.0	0.0	0.386202682973817	6.0	350.0	4.0	7.0	4.0	5.0	0.0	part_2
238	1.0	7.0			250.0	0.0	1.0							5.0	0.0	0.7341640777885914	5.0	350.0	2.0	8.0	6.0	6.0	0.0	part_2
239	4.0	7.0			250.0	0.0	1.0							6.0	0.0	0.0	0.0	350.0	4.0	5.0	8.0	2.0	1.0	part_2
240	3.0	7.0			250.0	0.0	1.0							6.0	0.0	0.3868606821633875	6.0	400.0	3.0	3.0	7.0	7.0	1.0	part_2
241	1.0	7.0			250.0	0.0	0.0							5.0	0.0	0.44530165405012667	5.0	350.0	1.0	1.0	1.0	1.0	0.0	part_2
242	1.0	7.0			250.0	0.0	1.0							6.0	0.0	0.5356240265537053	6.0	350.0	4.0	5.0	8.0	2.0	0.0	part_2
243	4.0	7.0			250.0	0.0	1.0							6.0	0.0	0.0	0.0	350.0	4.0	5.0	8.0	2.0	1.0	part_2
244	1.0	7.0			250.0	0.0	0.0							5.0	0.0	0.6152510500978678	5.0	400.0	1.0	1.0	1.0	1.0	0.0	part_2
245	1.0	7.0			250.0	0.0	1.0							6.0	0.0	0.6283371346071362	6.0	400.0	4.0	5.0	8.0	2.0	0.0	part_2
246	4.0	7.0			250.0	0.0	1.0							5.0	0.0	0.0	0.0	400.0	3.0	3.0	7.0	7.0	1.0	part_2
247	1.0	7.0			300.0	0.0	0.0							6.0	0.0	0.5517986493650824	6.0	400.0	1.0	1.0	1.0	1.0	0.0	part_2
248	4.0	7.0			300.0	0.0	1.0							6.0	0.0	0.0	0.0	400.0	4.0	5.0	8.0	2.0	1.0	part_2
249	1.0	7.0			300.0	0.0	0.0							6.0	0.0	0.5866620822343975	6.0	450.0	2.0	2.0	2.0	4.0	0.0	part_2
250	4.0	7.0			300.0	0.0	1.0							5.0	0.0	0.0	0.0	450.0	4.0	5.0	8.0	2.0	1.0	part_2
251	1.0	7.0			350.0	0.0	1.0							5.0	0.0	0.6436795615591109	5.0	450.0	1.0	6.0	5.0	3.0	0.0	part_2
252	1.0	8.0			350.0	0.0	0.0							6.0	0.0	0.4767259387299418	6.0	450.0	3.0	4.0	3.0	8.0	0.0	part_2
253	4.0	8.0			350.0	0.0	1.0							5.0	0.0	0.0	0.0	450.0	4.0	5.0	8.0	2.0	1.0	part_2
254	1.0	8.0			400.0	0.0	0.0							5.0	0.0	0.6472025387920439	5.0	450.0	1.0	1.0	1.0	1.0	0.0	part_2
255	3.0	8.0			400.0	0.0	1.0							5.0	0.0	0.4240450784564018	5.0	450.0	2.0	8.0	6.0	6.0	1.0	part_2
256	3.0	8.0			350.0	0.0	1.0							6.0	0.0	0.6056339859496802	6.0	450.0	1.0	6.0	5.0	3.0	1.0	part_2
257	1.0	8.0			350.0	0.0	0.0							5.0	0.0	0.6616919706575572	5.0	400.0	2.0	2.0	2.0	4.0	0.0	part_2
258	4.0	8.0			350.0	0.0	1.0							6.0	0.0	0.0	0.0	400.0	3.0	3.0	7.0	7.0	1.0	part_2
259	1.0	8.0			350.0	0.0	1.0							5.0	0.0	0.6968171319458634	5.0	450.0	2.0	8.0	6.0	6.0	0.0	part_2
260	1.0	8.0			350.0	0.0	0.0							5.0	0.0	0.6528547895140946	5.0	450.0	4.0	7.0	4.0	5.0	0.0	part_2
261	1.0	8.0			350.0	0.0	0.0							5.0	0.0	0.6093668169341981	5.0	450.0	2.0	2.0	2.0	4.0	0.0	part_2
262	1.0	8.0			350.0	0.0	1.0							6.0	0.0	0.4972129184752703	6.0	450.0	1.0	6.0	5.0	3.0	0.0	part_2
263	1.0	8.0			350.0	0.0	1.0							6.0	0.0	0.5202648811973631	6.0	450.0	3.0	3.0	7.0	7.0	0.0	part_2
264	1.0	8.0			350.0	0.0	0.0							6.0	0.0	0.4656324838288128	6.0	450.0	2.0	2.0	2.0	4.0	0.0	part_2
265	4.0	8.0			350.0	0.0	1.0							5.0	0.0	0.0	0.0	450.0	1.0	6.0	5.0	3.0	1.0	part_2
266	1.0	8.0			400.0	0.0	0.0							5.0	0.0	0.7703786487691104	5.0	450.0	2.0	2.0	2.0	4.0	0.0	part_2
267	1.0	8.0			400.0	0.0	0.0							6.0	0.0	0.6243248949758708	6.0	450.0	1.0	1.0	1.0	1.0	0.0	part_2
268	1.0	8.0			400.0	0.0	0.0							6.0	0.0	0.4358118744567037	6.0	450.0	2.0	2.0	2.0	4.0	0.0	part_2
269	1.0	8.0			400.0	0.0	0.0							5.0	0.0	0.3675083613488823	5.0	450.0	1.0	1.0	1.0	1.0	0.0	part_2
270	1.0	8.0			400.0	0.0	1.0							6.0	0.0	0.3362025576643646	6.0	450.0	2.0	8.0	6.0	6.0	0.0	part_2
271	1.0	8.0			400.0	0.0	0.0							6.0	0.0	0.4493836513720453	6.0	450.0	2.0	2.0	2.0	4.0	0.0	part_2
272	3.0	8.0			400.0	0.0	1.0							5.0	0.0	0.3480197319295257	5.0	450.0	1.0	6.0	5.0	3.0	1.0	part_2
273	1.0	8.0			350.0	0.0	0.0							6.0	0.0	0.6753822264727205	6.0	450.0	4.0	7.0	4.0	5.0	0.0	part_2
274	1.0	8.0			350.0	0.0	1.0							5.0	0.0	0.6643608328886329	5.0	450.0	1.0	6.0	5.0	3.0	0.0	part_2
275	1.0	8.0			350.0	0.0	0.0							6.0	0.0	0.5092443686444312	6.0	450.0	1.0	1.0	1.0	1.0	0.0	part_2
276	1.0	8.0			350.0	0.0	0.0							6.0	0.0	0.3967086230404675	6.0	450.0	1.0	1.0	1.0	1.0	0.0	part_2
277	1.0	8.0			350.0	0.0	0.0							6.0	0.0	0.5426934745628387	6.0	450.0	3.0	4.0	3.0	8.0	0.0	part_2
278	3.0	8.0			350.0	0.0	1.0							5.0	0.0	0.4877970151137561	5.0	450.0	1.0	6.0	5.0	3.0	1.0	part_2
279	3.0	8.0			300.0	0.0	1.0							6.0	0.0	0.2965868930332363	6.0	450.0	3.0	3.0	7.0	7.0	1.0	part_2
280	1.0	8.0			300.0	0.0	0.0							5.0	0.0	0.6700720656663179	5.0	400.0	4.0	7.0	4.0	5.0	0.0	part_2
281	1.0	8.0			300.0	0.0	0.0							5.0	0.0	0.7393995907623321	5.0	400.0	3.0	4.0	3.0	8.0	0.0	part_2
282	1.0	8.0			300.0	0.0	0.0							5.0	0.0	0.492378048831597	5.0	400.0	1.0	1.0	1.0	1.0	0.0	part_2
283	1.0	8.0			300.0	0.0	1.0							6.0	0.0	0.7951335043180734	6.0	400.0	2.0	8.0	6.0	6.0	0.0	part_2
284	4.0	8.0			300.0	0.0	1.0							5.0	0.0	0.0	0.0	400.0	2.0	8.0	6.0	6.0	1.0	part_2
285	1.0	8.0			350.0	0.0	0.0							6.0	0.0	0.4379611655604094	6.0	400.0	2.0	2.0	2.0	4.0	0.0	part_2
286	4.0	8.0			350.0	0.0	1.0							6.0	0.0	0.0	0.0	400.0	2.0	8.0	6.0	6.0	1.0	part_2
287	1.0	8.0			350.0	0.0	0.0							6.0	0.0	0.7426315124612302	6.0	450.0	3.0	4.0	3.0	8.0	0.0	part_2
0	0.0	1.0	102.0	3.0	0.0	1.0	1.0	170.0	102.0	204.0	136.0	68.0	34.0	7.0	0.0	4.573008844628929	2.0	0.0	2.0	8.0	6.0	6.0	0.0	part_3
1	0.0	1.0	204.0	6.0	0.0	1.0	0.0	68.0	102.0	136.0	170.0	204.0	34.0	7.0	0.0	2.1808254285715516	5.0	0.0	2.0	2.0	2.0	4.0	0.0	part_3
2	0.0	1.0	324.0	6.0	0.0	1.0	0.0	54.0	162.0	216.0	108.0	324.0	270.0	7.0	0.0	2.46194856078364	5.0	0.0	4.0	7.0	4.0	5.0	0.0	part_3
3	0.0	1.0	78.0	2.0	0.0	1.0	1.0	156.0	117.0	195.0	39.0	78.0	234.0	7.0	0.0	2.046883083879948	5.0	0.0	2.0	8.0	6.0	6.0	0.0	part_3
4	0.0	1.0	98.0	2.0	0.0	1.0	1.0	147.0	98.0	294.0	49.0	196.0	245.0	7.0	0.0	1.9916171319782732	2.0	0.0	3.0	3.0	7.0	7.0	0.0	part_3
5	0.0	1.0	204.0	6.0	0.0	1.0	1.0	170.0	136.0	204.0	34.0	68.0	102.0	7.0	0.0	2.5905238937120885	3.0	0.0	4.0	5.0	8.0	2.0	0.0	part_3
6	0.0	1.0	34.0	1.0	0.0	1.0	1.0	68.0	34.0	170.0	204.0	102.0	136.0	7.0	0.0	1.241135361371562	2.0	0.0	1.0	6.0	5.0	3.0	0.0	part_3
7	0.0	1.0	204.0	6.0	0.0	1.0	0.0	102.0	34.0	170.0	136.0	204.0	68.0	7.0	0.0	2.4793415341991936	5.0	0.0	4.0	7.0	4.0	5.0	0.0	part_3
8	0.0	1.0	156.0	4.0	0.0	1.0	0.0	156.0	78.0	117.0	39.0	234.0	195.0	7.0	0.0	3.909204184310511	1.0	0.0	1.0	1.0	1.0	1.0	0.0	part_3
9	0.0	1.0	117.0	3.0	0.0	1.0	1.0	39.0	195.0	156.0	78.0	234.0	117.0	7.0	0.0	2.4919655066914856	6.0	0.0	3.0	3.0	7.0	7.0	0.0	part_3
10	0.0	1.0	108.0	2.0	0.0	1.0	0.0	216.0	108.0	54.0	270.0	324.0	162.0	7.0	0.0	3.2242290386930113	2.0	0.0	3.0	4.0	3.0	8.0	0.0	part_3
11	0.0	1.0	162.0	3.0	0.0	1.0	1.0	108.0	162.0	216.0	270.0	324.0	54.0	7.0	0.0	2.2805298690218483	2.0	0.0	3.0	3.0	7.0	7.0	0.0	part_3
12	0.0	1.0	156.0	4.0	0.0	1.0	0.0	234.0	117.0	156.0	195.0	39.0	78.0	7.0	0.0	1.5612289907876402	3.0	0.0	2.0	2.0	2.0	4.0	0.0	part_3
13	0.0	1.0	54.0	1.0	0.0	1.0	1.0	270.0	54.0	162.0	324.0	216.0	108.0	7.0	0.0	1.1912587953265756	2.0	0.0	2.0	8.0	6.0	6.0	0.0	part_3
14	0.0	1.0	162.0	3.0	0.0	2.0	0.0	270.0	162.0	324.0	108.0	216.0	54.0	7.0	0.0	0.6172117528039962	2.0	0.0	2.0	2.0	2.0	4.0	0.0	part_3
15	0.0	1.0	88.0	2.0	0.0	1.0	1.0	132.0	88.0	220.0	264.0	44.0	176.0	7.0	0.0	2.0899167242459957	2.0	0.0	1.0	6.0	5.0	3.0	0.0	part_3
16	0.0	1.0	234.0	6.0	0.0	1.0	0.0	234.0	39.0	117.0	195.0	78.0	156.0	7.0	0.0	2.283780068391934	1.0	0.0	4.0	7.0	4.0	5.0	0.0	part_3
17	0.0	1.0	102.0	3.0	0.0	1.0	1.0	204.0	170.0	34.0	102.0	68.0	136.0	7.0	0.0	2.093095120275393	4.0	0.0	3.0	3.0	7.0	7.0	0.0	part_3
18	0.0	1.0	294.0	6.0	0.0	1.0	0.0	98.0	245.0	196.0	49.0	147.0	294.0	7.0	0.0	2.0490969789680094	6.0	0.0	4.0	7.0	4.0	5.0	0.0	part_3
19	0.0	1.0	98.0	2.0	0.0	1.0	0.0	294.0	49.0	196.0	147.0	98.0	245.0	7.0	0.0	1.67799567617476	5.0	0.0	3.0	4.0	3.0	8.0	0.0	part_3
20	0.0	2.0	220.0	5.0	0.0	1.0	0.0	220.0	88.0	44.0	176.0	264.0	132.0	7.0	0.0	2.2584962882101536	1.0	0.0	1.0	1.0	1.0	1.0	0.0	part_3
21	0.0	2.0	220.0	5.0	0.0	1.0	1.0	88.0	132.0	264.0	176.0	220.0	44.0	7.0	0.0	2.3482366746757184	5.0	0.0	4.0	5.0	8.0	2.0	0.0	part_3
22	0.0	2.0	34.0	1.0	0.0	1.0	1.0	102.0	68.0	136.0	204.0	170.0	34.0	7.0	0.0	2.5076831041369587	6.0	0.0	1.0	6.0	5.0	3.0	0.0	part_3
23	0.0	2.0	98.0	2.0	0.0	1.0	1.0	245.0	147.0	196.0	294.0	98.0	49.0	7.0	0.0	2.205408640904352	5.0	0.0	2.0	8.0	6.0	6.0	0.0	part_3
24	0.0	2.0	88.0	2.0	0.0	1.0	0.0	132.0	44.0	88.0	176.0	220.0	264.0	7.0	0.0	1.440025765681639	3.0	0.0	2.0	2.0	2.0	4.0	0.0	part_3
25	0.0	2.0	234.0	6.0	0.0	1.0	1.0	39.0	234.0	156.0	117.0	195.0	78.0	7.0	0.0	3.1303859057370573	2.0	0.0	4.0	5.0	8.0	2.0	0.0	part_3
26	0.0	2.0	234.0	6.0	0.0	1.0	0.0	78.0	156.0	117.0	234.0	39.0	195.0	7.0	0.0	2.1413699176628143	4.0	0.0	2.0	2.0	2.0	4.0	0.0	part_3
27	0.0	2.0	170.0	5.0	0.0	1.0	0.0	68.0	204.0	136.0	102.0	170.0	34.0	7.0	0.0	1.510529477149248	5.0	0.0	1.0	1.0	1.0	1.0	0.0	part_3
28	0.0	2.0	34.0	1.0	0.0	1.0	1.0	136.0	34.0	102.0	170.0	68.0	204.0	7.0	0.0	2.1545254341326654	2.0	0.0	2.0	8.0	6.0	6.0	0.0	part_3
29	0.0	2.0	117.0	3.0	0.0	1.0	0.0	234.0	156.0	195.0	39.0	117.0	78.0	7.0	0.0	1.1084425812587142	5.0	0.0	1.0	1.0	1.0	1.0	0.0	part_3
30	0.0	2.0	324.0	6.0	0.0	1.0	0.0	324.0	108.0	54.0	270.0	216.0	162.0	7.0	0.0	1.5589929383713752	1.0	0.0	1.0	1.0	1.0	1.0	0.0	part_3
31	0.0	2.0	216.0	4.0	0.0	1.0	1.0	108.0	162.0	324.0	54.0	270.0	216.0	7.0	0.0	1.3574451496824622	6.0	0.0	2.0	8.0	6.0	6.0	0.0	part_3
32	0.0	2.0	204.0	6.0	0.0	1.0	0.0	170.0	204.0	34.0	102.0	68.0	136.0	7.0	0.0	2.0109548987820745	2.0	0.0	4.0	7.0	4.0	5.0	0.0	part_3
33	0.0	2.0	54.0	1.0	0.0	1.0	1.0	270.0	54.0	108.0	324.0	216.0	162.0	7.0	0.0	1.2717162605840713	2.0	0.0	1.0	6.0	5.0	3.0	0.0	part_3
34	0.0	2.0	108.0	2.0	0.0	1.0	0.0	162.0	216.0	324.0	108.0	54.0	270.0	7.0	0.0	2.0359349919017404	4.0	0.0	2.0	2.0	2.0	4.0	0.0	part_3
35	0.0	2.0	88.0	2.0	0.0	1.0	1.0	220.0	176.0	88.0	264.0	132.0	44.0	7.0	0.0	1.588029732229188	3.0	0.0	4.0	5.0	8.0	2.0	0.0	part_3
36	0.0	2.0	98.0	2.0	0.0	1.0	0.0	196.0	49.0	147.0	245.0	98.0	294.0	7.0	0.0	1.5207817293703556	5.0	0.0	4.0	7.0	4.0	5.0	0.0	part_3
37	0.0	2.0	98.0	2.0	0.0	1.0	1.0	245.0	196.0	147.0	294.0	98.0	49.0	7.0	0.0	1.737443508580327	5.0	0.0	3.0	3.0	7.0	7.0	0.0	part_3
38	0.0	2.0	44.0	1.0	0.0	1.0	0.0	264.0	220.0	132.0	44.0	88.0	176.0	7.0	0.0	3.098596030846238	4.0	0.0	2.0	2.0	2.0	4.0	0.0	part_3
39	0.0	2.0	78.0	2.0	0.0	1.0	0.0	78.0	156.0	39.0	195.0	117.0	234.0	7.0	0.0	1.8846838267054409	1.0	0.0	3.0	4.0	3.0	8.0	0.0	part_3
40	0.0	3.0	264.0	6.0	0.0	1.0	0.0	88.0	132.0	44.0	220.0	176.0	264.0	7.0	0.0	1.806696936488152	6.0	0.0	4.0	7.0	4.0	5.0	0.0	part_3
41	0.0	3.0	68.0	2.0	0.0	1.0	1.0	102.0	34.0	136.0	170.0	68.0	204.0	7.0	0.0	0.796333790756762	5.0	0.0	3.0	3.0	7.0	7.0	0.0	part_3
42	0.0	3.0	234.0	6.0	0.0	1.0	0.0	117.0	78.0	156.0	234.0	39.0	195.0	7.0	0.0	1.8544894855003804	4.0	0.0	4.0	7.0	4.0	5.0	0.0	part_3
43	0.0	3.0	49.0	1.0	0.0	1.0	1.0	245.0	196.0	49.0	98.0	147.0	294.0	7.0	0.0	1.449343022191897	3.0	0.0	1.0	6.0	5.0	3.0	0.0	part_3
44	0.0	3.0	54.0	1.0	0.0	1.0	1.0	54.0	324.0	108.0	270.0	216.0	162.0	7.0	0.0	1.8893551798537371	1.0	0.0	1.0	6.0	5.0	3.0	0.0	part_3
45	0.0	3.0	68.0	2.0	0.0	1.0	0.0	102.0	170.0	204.0	68.0	136.0	34.0	7.0	0.0	2.206916953669861	4.0	0.0	3.0	4.0	3.0	8.0	0.0	part_3
46	0.0	3.0	44.0	1.0	0.0	1.0	1.0	44.0	132.0	220.0	264.0	176.0	88.0	7.0	0.0	1.5549450754188	1.0	0.0	2.0	8.0	6.0	6.0	0.0	part_3
47	0.0	3.0	264.0	6.0	0.0	1.0	0.0	132.0	264.0	220.0	176.0	44.0	88.0	7.0	0.0	2.726473980816081	2.0	0.0	4.0	7.0	4.0	5.0	0.0	part_3
48	0.0	3.0	270.0	5.0	0.0	1.0	0.0	54.0	270.0	108.0	324.0	162.0	216.0	7.0	0.0	2.5691609433852136	2.0	0.0	3.0	4.0	3.0	8.0	0.0	part_3
49	0.0	3.0	54.0	1.0	0.0	1.0	0.0	324.0	108.0	270.0	162.0	54.0	216.0	7.0	0.0	4.393565769540147	5.0	0.0	1.0	1.0	1.0	1.0	0.0	part_3
50	0.0	3.0	39.0	1.0	0.0	1.0	1.0	117.0	234.0	39.0	78.0	156.0	195.0	7.0	0.0	1.9527229669038209	3.0	0.0	1.0	6.0	5.0	3.0	0.0	part_3
51	0.0	3.0	98.0	2.0	0.0	1.0	0.0	147.0	196.0	245.0	294.0	98.0	49.0	7.0	0.0	1.89671073644422	5.0	0.0	2.0	2.0	2.0	4.0	0.0	part_3
52	0.0	3.0	294.0	6.0	0.0	1.0	1.0	245.0	98.0	294.0	196.0	147.0	49.0	7.0	0.0	2.281489136861637	3.0	0.0	1.0	6.0	5.0	3.0	0.0	part_3
53	0.0	3.0	245.0	5.0	0.0	1.0	1.0	98.0	49.0	245.0	294.0	147.0	196.0	7.0	0.0	2.2719274300616235	3.0	0.0	4.0	5.0	8.0	2.0	0.0	part_3
54	0.0	3.0	117.0	3.0	0.0	1.0	0.0	195.0	234.0	156.0	78.0	117.0	39.0	7.0	0.0	1.6533044893294573	5.0	0.0	3.0	4.0	3.0	8.0	0.0	part_3
55	0.0	3.0	147.0	3.0	0.0	1.0	0.0	98.0	147.0	49.0	294.0	196.0	245.0	7.0	0.0	2.442248013103381	2.0	0.0	3.0	4.0	3.0	8.0	0.0	part_3
56	0.0	3.0	78.0	2.0	0.0	1.0	1.0	156.0	234.0	117.0	195.0	39.0	78.0	7.0	0.0	2.5548228784464304	6.0	0.0	1.0	6.0	5.0	3.0	0.0	part_3
57	0.0	3.0	88.0	2.0	0.0	1.0	1.0	44.0	264.0	132.0	88.0	176.0	220.0	7.0	0.0	1.3758728660177442	4.0	0.0	3.0	3.0	7.0	7.0	0.0	part_3
58	0.0	3.0	44.0	1.0	0.0	1.0	0.0	220.0	176.0	132.0	44.0	264.0	88.0	7.0	0.0	1.1849752359557897	4.0	0.0	3.0	4.0	3.0	8.0	0.0	part_3
59	0.0	3.0	176.0	4.0	0.0	1.0	0.0	44.0	264.0	88.0	176.0	132.0	220.0	7.0	0.0	0.9380726427771152	4.0	0.0	3.0	4.0	3.0	8.0	0.0	part_3
60	0.0	4.0	98.0	2.0	0.0	1.0	1.0	294.0	245.0	196.0	147.0	49.0	98.0	7.0	0.0	1.468339395010844	6.0	0.0	2.0	8.0	6.0	6.0	0.0	part_3
61	0.0	4.0	88.0	2.0	0.0	1.0	1.0	88.0	176.0	264.0	132.0	220.0	44.0	7.0	0.0	1.8626508975867184	1.0	0.0	3.0	3.0	7.0	7.0	0.0	part_3
62	0.0	4.0	294.0	6.0	0.0	1.0	1.0	196.0	294.0	98.0	245.0	147.0	49.0	7.0	0.0	2.6529904664494097	2.0	0.0	4.0	5.0	8.0	2.0	0.0	part_3
63	0.0	4.0	117.0	3.0	0.0	1.0	1.0	195.0	39.0	234.0	117.0	78.0	156.0	7.0	0.0	1.7301913821138442	4.0	0.0	3.0	3.0	7.0	7.0	0.0	part_3
64	0.0	4.0	234.0	6.0	0.0	1.0	1.0	156.0	39.0	117.0	78.0	195.0	234.0	7.0	0.0	2.272475002333522	6.0	0.0	4.0	5.0	8.0	2.0	0.0	part_3
65	0.0	4.0	102.0	3.0	0.0	1.0	0.0	136.0	102.0	34.0	204.0	170.0	68.0	7.0	0.0	2.0933369882404804	2.0	0.0	3.0	4.0	3.0	8.0	0.0	part_3
66	0.0	4.0	132.0	3.0	0.0	1.0	1.0	132.0	220.0	88.0	44.0	176.0	264.0	7.0	0.0	1.7328377442900091	1.0	0.0	1.0	6.0	5.0	3.0	0.0	part_3
67	0.0	4.0	44.0	1.0	0.0	1.0	1.0	132.0	176.0	264.0	220.0	88.0	44.0	7.0	0.0	1.8599605152849108	6.0	0.0	2.0	8.0	6.0	6.0	0.0	part_3
68	0.0	4.0	102.0	3.0	0.0	1.0	0.0	68.0	136.0	204.0	102.0	34.0	170.0	7.0	0.0	1.5557934746611863	4.0	0.0	1.0	1.0	1.0	1.0	0.0	part_3
69	0.0	4.0	324.0	6.0	0.0	1.0	0.0	162.0	54.0	270.0	108.0	216.0	324.0	7.0	0.0	1.9283982352353632	6.0	0.0	4.0	7.0	4.0	5.0	0.0	part_3
70	0.0	4.0	78.0	2.0	0.0	1.0	1.0	195.0	117.0	78.0	39.0	234.0	156.0	7.0	0.0	2.2548748964909464	3.0	0.0	2.0	8.0	6.0	6.0	0.0	part_3
71	0.0	4.0	49.0	1.0	0.0	1.0	0.0	49.0	196.0	294.0	147.0	245.0	98.0	7.0	0.0	1.6385733424685895	1.0	0.0	1.0	1.0	1.0	1.0	0.0	part_3
72	0.0	4.0	136.0	4.0	0.0	1.0	0.0	102.0	68.0	136.0	34.0	170.0	204.0	7.0	0.0	1.7964426113758236	3.0	0.0	2.0	2.0	2.0	4.0	0.0	part_3
73	0.0	4.0	44.0	1.0	0.0	1.0	0.0	88.0	264.0	132.0	176.0	220.0	44.0	7.0	0.0	2.856207297183573	6.0	0.0	1.0	1.0	1.0	1.0	0.0	part_3
74	0.0	4.0	98.0	2.0	0.0	1.0	0.0	245.0	294.0	98.0	49.0	147.0	196.0	7.0	0.0	1.1003176395315677	3.0	0.0	2.0	2.0	2.0	4.0	0.0	part_3
75	0.0	4.0	270.0	5.0	0.0	1.0	1.0	108.0	324.0	54.0	216.0	270.0	162.0	7.0	0.0	1.371537424158305	5.0	0.0	4.0	5.0	8.0	2.0	0.0	part_3
76	0.0	4.0	324.0	6.0	0.0	1.0	1.0	54.0	162.0	108.0	324.0	270.0	216.0	7.0	0.0	1.5317381068598481	4.0	0.0	4.0	5.0	8.0	2.0	0.0	part_3
77	0.0	4.0	204.0	6.0	0.0	1.0	1.0	136.0	170.0	102.0	34.0	68.0	204.0	7.0	0.0	1.8123673282098025	6.0	0.0	4.0	5.0	8.0	2.0	0.0	part_3
78	0.0	4.0	54.0	1.0	0.0	1.0	1.0	108.0	324.0	54.0	162.0	216.0	270.0	7.0	0.0	2.871222989168018	3.0	0.0	3.0	3.0	7.0	7.0	0.0	part_3
79	0.0	4.0	98.0	2.0	0.0	1.0	0.0	245.0	98.0	196.0	49.0	294.0	147.0	7.0	0.0	2.3676697437185794	2.0	0.0	1.0	1.0	1.0	1.0	0.0	part_3
