	accuracy	block	chosen_bidding_amount	chosen_bidding_level	left_SSD	num_trial_presentations	paired_with_stopping	possible_bid_1	possible_bid_2	possible_bid_3	possible_bid_4	possible_bid_5	possible_bid_6	quadrant	raw_reward_magnitude	reaction_time	response	right_SSD	stepwise_reward_magnitude	stim_color	stim_reward	stim_shape	stop_signal_trial_type	which_part
0		1.0				1.0	1.0							3.0	210.0	0.3550590184677276	3.0		3.0	1.0	7.0	4.0		part_1
1		1.0				1.0	1.0							3.0	0.0	0.3339404984653811	3.0		0.0	1.0	7.0	4.0		part_1
2		1.0				1.0	0.0							2.0	113.0	0.3678291571268346	2.0		2.0	7.0	2.0	1.0		part_1
3		1.0				1.0	1.0							1.0	214.0	0.33450957219611155	1.0		3.0	1.0	7.0	4.0		part_1
4		1.0				1.0	1.0							3.0	211.0	0.3452315136601101	3.0		3.0	1.0	7.0	4.0		part_1
5		1.0				1.0	1.0							2.0	416.0	0.3587969803993474	2.0		4.0	3.0	8.0	2.0		part_1
6		1.0				1.0	0.0							1.0	98.0	0.33776280200254405	1.0		2.0	7.0	2.0	1.0		part_1
7		1.0				1.0	1.0							4.0	382.0	0.31306395039428025	4.0		4.0	3.0	8.0	2.0		part_1
8		1.0				1.0	1.0							3.0	34.0	0.3484767261979869	3.0		1.0	6.0	5.0	7.0		part_1
9		1.0				1.0	1.0							1.0	179.0	0.39495950259879453	1.0		3.0	1.0	7.0	4.0		part_1
10		1.0				1.0	0.0							3.0	111.0	0.3376524258637801	3.0		2.0	7.0	2.0	1.0		part_1
11		1.0				1.0	1.0							4.0	35.0	0.29331654766428983	4.0		1.0	6.0	5.0	7.0		part_1
12		1.0				1.0	1.0							2.0	423.0	0.3294934814621229	2.0		4.0	3.0	8.0	2.0		part_1
13		1.0				1.0	1.0							3.0	393.0	0.32854174786189105	3.0		4.0	3.0	8.0	2.0		part_1
14		1.0				2.0	1.0							2.0	405.0	0.34175715692254016	2.0		4.0	3.0	8.0	2.0		part_1
15		1.0				1.0	1.0							4.0	47.0	0.3743261561976397	4.0		1.0	6.0	5.0	7.0		part_1
16		1.0				1.0	0.0							3.0	64.0	0.3873676417279057	3.0		1.0	8.0	1.0	3.0		part_1
17		1.0				1.0	1.0							2.0	0.0	0.3440498942654813	2.0		0.0	3.0	8.0	2.0		part_1
18		1.0				1.0	1.0							1.0	96.0	0.3552202699211193	1.0		2.0	4.0	6.0	5.0		part_1
19		1.0				1.0	0.0							1.0	413.0	0.3995983566637733	1.0		4.0	2.0	4.0	8.0		part_1
20		1.0				1.0	1.0							3.0	109.0	0.33213671499834163	3.0		2.0	4.0	6.0	5.0		part_1
21		1.0				1.0	1.0							1.0	46.0	0.3460095474656555	1.0		1.0	6.0	5.0	7.0		part_1
22		1.0				1.0	1.0							2.0	182.0	0.3792539179266896	2.0		3.0	1.0	7.0	4.0		part_1
23		1.0				1.0	0.0							1.0	0.0	0.2897431049277657	1.0		0.0	5.0	3.0	6.0		part_1
24		1.0				1.0	0.0							2.0	400.0	0.3481051856651902	2.0		4.0	2.0	4.0	8.0		part_1
25		1.0				1.0	1.0							3.0	420.0	0.4373627661989303	3.0		4.0	3.0	8.0	2.0		part_1
26		1.0				1.0	1.0							2.0	189.0	0.3132734859973425	2.0		3.0	1.0	7.0	4.0		part_1
27		1.0				1.0	1.0							2.0	200.0	0.3717152434692253	2.0		3.0	1.0	7.0	4.0		part_1
28		1.0				1.0	1.0							2.0	71.0	0.394692501926329	2.0		1.0	6.0	5.0	7.0		part_1
29		1.0				1.0	0.0							1.0	419.0	0.3618422963991179	1.0		4.0	2.0	4.0	8.0		part_1
30		1.0				1.0	0.0							4.0	0.0	0.3612273789258325	4.0		0.0	5.0	3.0	6.0		part_1
31		1.0				1.0	1.0							2.0	61.0	0.2829302113968879	2.0		1.0	6.0	5.0	7.0		part_1
32		1.0				1.0	0.0							3.0	0.0	0.2822574884703499	3.0		0.0	2.0	4.0	8.0		part_1
33		1.0				1.0	0.0							3.0	0.0	0.3958071294691763	3.0		0.0	2.0	4.0	8.0		part_1
34		1.0				1.0	1.0							3.0	39.0	0.3752327933980269	3.0		1.0	6.0	5.0	7.0		part_1
35		1.0				1.0	0.0							4.0	92.0	0.419749787200999	4.0		2.0	7.0	2.0	1.0		part_1
36		1.0				1.0	0.0							4.0	179.0	0.3414734486650559	4.0		3.0	5.0	3.0	6.0		part_1
37		1.0				1.0	0.0							1.0	389.0	0.3432739013951505	1.0		4.0	2.0	4.0	8.0		part_1
38		1.0				1.0	0.0							4.0	0.0	0.3193132264641463	4.0		0.0	5.0	3.0	6.0		part_1
39		1.0				1.0	0.0							3.0	400.0	0.3676085698607494	3.0		4.0	2.0	4.0	8.0		part_1
40		1.0				1.0	0.0							3.0	60.0	0.3664397263928549	3.0		1.0	8.0	1.0	3.0		part_1
41		1.0				1.0	1.0							3.0	215.0	0.2991542449963163	3.0		3.0	1.0	7.0	4.0		part_1
42		1.0				1.0	0.0							3.0	417.0	0.35642449546867283	3.0		4.0	2.0	4.0	8.0		part_1
43		1.0				1.0	0.0							3.0	399.0	0.34458804193127435	3.0		4.0	2.0	4.0	8.0		part_1
44		1.0				1.0	0.0							2.0	217.0	0.3904369951269473	2.0		3.0	5.0	3.0	6.0		part_1
45		1.0				1.0	1.0							2.0	75.0	0.39304176685982384	2.0		1.0	6.0	5.0	7.0		part_1
46		1.0				2.0	1.0							1.0	421.0	0.6402458306693006	1.0		4.0	3.0	8.0	2.0		part_1
47		1.0				1.0	0.0							2.0	0.0	0.540763168464764	2.0		0.0	5.0	3.0	6.0		part_1
48		1.0				1.0	0.0							4.0	210.0	0.3482251091991202	4.0		3.0	5.0	3.0	6.0		part_1
49		1.0				1.0	0.0							3.0	0.0	0.34962731420091586	3.0		0.0	8.0	1.0	3.0		part_1
50		1.0				1.0	0.0							3.0	0.0	0.4059216379246209	3.0		0.0	2.0	4.0	8.0		part_1
51		1.0				1.0	0.0							4.0	96.0	0.3957079069296015	4.0		2.0	7.0	2.0	1.0		part_1
52		1.0				1.0	0.0							1.0	0.0	0.3287353641935624	1.0		0.0	5.0	3.0	6.0		part_1
53		1.0				1.0	1.0							4.0	214.0	0.38509493446326815	4.0		3.0	1.0	7.0	4.0		part_1
54		1.0				1.0	1.0							4.0	0.0	0.37582580346497707	4.0		0.0	3.0	8.0	2.0		part_1
55		1.0				1.0	1.0							1.0	377.0	0.3864379421283957	1.0		4.0	3.0	8.0	2.0		part_1
56		1.0				1.0	1.0							1.0	41.0	0.3651217359220027	1.0		1.0	6.0	5.0	7.0		part_1
57		1.0				1.0	1.0							1.0	51.0	0.35363088938902365	1.0		1.0	6.0	5.0	7.0		part_1
58		1.0				1.0	1.0							4.0	209.0	0.3540653243981069	4.0		3.0	1.0	7.0	4.0		part_1
59		1.0				1.0	0.0							2.0	42.0	0.3902101668645628	2.0		1.0	8.0	1.0	3.0		part_1
60		1.0				1.0	0.0							3.0	388.0	0.40109676539577777	3.0		4.0	2.0	4.0	8.0		part_1
61		1.0				1.0	1.0							2.0	406.0	0.3221381126641063	2.0		4.0	3.0	8.0	2.0		part_1
62		1.0				1.0	0.0							4.0	178.0	0.4122931380043156	4.0		3.0	5.0	3.0	6.0		part_1
63		1.0				1.0	0.0							2.0	109.0	0.3699244327362976	2.0		2.0	7.0	2.0	1.0		part_1
64		1.0				1.0	0.0							4.0	41.0	0.3474713776668068	4.0		1.0	8.0	1.0	3.0		part_1
65		1.0				1.0	0.0							1.0	72.0	0.3359213321964489	1.0		1.0	8.0	1.0	3.0		part_1
66		1.0				1.0	1.0							4.0	0.0	0.3595454241221887	4.0		0.0	4.0	6.0	5.0		part_1
67		1.0				1.0	1.0							3.0	123.0	0.3831217941260547	3.0		2.0	4.0	6.0	5.0		part_1
68		1.0				1.0	1.0							1.0	222.0	0.3260073651254061	1.0		3.0	1.0	7.0	4.0		part_1
69		1.0				1.0	1.0							2.0	84.0	0.33809936372563243	2.0		2.0	4.0	6.0	5.0		part_1
70		1.0				1.0	0.0							2.0	393.0	0.3732412511308212	2.0		4.0	2.0	4.0	8.0		part_1
71		1.0				1.0	0.0							1.0	412.0	0.2820980388642056	1.0		4.0	2.0	4.0	8.0		part_1
72		1.0				1.0	0.0							2.0	0.0	0.4085165614014841	2.0		0.0	2.0	4.0	8.0		part_1
73		1.0				1.0	0.0							2.0	47.0	0.33045931312517496	2.0		1.0	8.0	1.0	3.0		part_1
74		1.0				1.0	0.0							1.0	65.0	0.29542730646790005	1.0		1.0	8.0	1.0	3.0		part_1
75		1.0				1.0	0.0							3.0	77.0	0.3852914117305773	3.0		2.0	7.0	2.0	1.0		part_1
76		1.0				1.0	0.0							1.0	0.0	0.365442927730328	1.0		0.0	7.0	2.0	1.0		part_1
77		1.0				1.0	1.0							4.0	0.0	0.2976668634728412	4.0		0.0	4.0	6.0	5.0		part_1
78		1.0				1.0	1.0							2.0	0.0	0.3210311577349785	2.0		0.0	6.0	5.0	7.0		part_1
79		1.0				1.0	1.0							3.0	80.0	0.3780008987305337	3.0		2.0	4.0	6.0	5.0		part_1
80		1.0				1.0	0.0							4.0	376.0	0.422359562398924	4.0		4.0	2.0	4.0	8.0		part_1
81		1.0				1.0	0.0							3.0	182.0	0.6143522679267335	3.0		3.0	5.0	3.0	6.0		part_1
82		1.0				1.0	1.0							2.0	47.0	0.33517935473355465	2.0		1.0	6.0	5.0	7.0		part_1
83		1.0				1.0	0.0							3.0	56.0	0.3231799616696662	3.0		1.0	8.0	1.0	3.0		part_1
84		1.0				1.0	1.0							3.0	86.0	0.3805718014700688	3.0		2.0	4.0	6.0	5.0		part_1
85		1.0				1.0	1.0							3.0	40.0	0.30112270612153225	3.0		1.0	6.0	5.0	7.0		part_1
86		1.0				1.0	0.0							2.0	116.0	0.4144720877302461	2.0		2.0	7.0	2.0	1.0		part_1
87		1.0				1.0	1.0							2.0	0.0	0.3592665236647008	2.0		0.0	3.0	8.0	2.0		part_1
88		1.0				1.0	0.0							4.0	61.0	0.3723822914689663	4.0		1.0	8.0	1.0	3.0		part_1
89		1.0				1.0	0.0							4.0	381.0	0.40535262746561773	4.0		4.0	2.0	4.0	8.0		part_1
90		1.0				1.0	0.0							3.0	69.0	0.3942443662017467	3.0		1.0	8.0	1.0	3.0		part_1
91		1.0				2.0	0.0							4.0	224.0	0.452193059194542	4.0		3.0	5.0	3.0	6.0		part_1
92		1.0				1.0	0.0							1.0	393.0	0.34125845166272484	1.0		4.0	2.0	4.0	8.0		part_1
93		1.0				1.0	0.0							2.0	98.0	0.34047066412313143	2.0		2.0	7.0	2.0	1.0		part_1
94		1.0				1.0	0.0							1.0	40.0	0.4082383499262505	1.0		1.0	8.0	1.0	3.0		part_1
95		1.0				1.0	1.0							3.0	399.0	0.3854653920061537	3.0		4.0	3.0	8.0	2.0		part_1
96		1.0				1.0	0.0							4.0	393.0	0.4316186793948873	4.0		4.0	2.0	4.0	8.0		part_1
97		1.0				1.0	1.0							3.0	72.0	0.39824890893214615	3.0		1.0	6.0	5.0	7.0		part_1
98		1.0				1.0	0.0							3.0	0.0	0.5338720398649457	3.0		0.0	7.0	2.0	1.0		part_1
99		1.0				1.0	0.0							3.0	0.0	0.3989241826639045	3.0		0.0	8.0	1.0	3.0		part_1
100		2.0				1.0	1.0							4.0	392.0	0.32988241186831146	4.0		4.0	3.0	8.0	2.0		part_1
101		2.0				1.0	1.0							1.0	0.0	0.3190043477297877	1.0		0.0	3.0	8.0	2.0		part_1
102		2.0				1.0	0.0							3.0	212.0	0.3085062053942238	3.0		3.0	5.0	3.0	6.0		part_1
103		2.0				1.0	0.0							2.0	66.0	0.27521286866249284	2.0		1.0	8.0	1.0	3.0		part_1
104		2.0				1.0	0.0							1.0	33.0	0.32257955019304063	1.0		1.0	8.0	1.0	3.0		part_1
105		2.0				1.0	1.0							2.0	178.0	0.3329005156629137	2.0		3.0	1.0	7.0	4.0		part_1
106		2.0				1.0	1.0							4.0	192.0	0.3551151964638848	4.0		3.0	1.0	7.0	4.0		part_1
107		2.0				1.0	1.0							1.0	412.0	0.3230715789322858	1.0		4.0	3.0	8.0	2.0		part_1
108		2.0				1.0	0.0							3.0	84.0	0.3332280064641964	3.0		2.0	7.0	2.0	1.0		part_1
109		2.0				1.0	1.0							4.0	201.0	0.323498913392541	4.0		3.0	1.0	7.0	4.0		part_1
110		2.0				1.0	0.0							2.0	46.0	0.2795432865896146	2.0		1.0	8.0	1.0	3.0		part_1
111		2.0				1.0	1.0							2.0	0.0	0.31338693619909463	2.0		0.0	3.0	8.0	2.0		part_1
112		2.0				1.0	1.0							3.0	389.0	0.3814773818594404	3.0		4.0	3.0	8.0	2.0		part_1
113		2.0				1.0	1.0							4.0	0.0	0.4158427934817155	4.0		0.0	1.0	7.0	4.0		part_1
114		2.0				1.0	0.0							3.0	196.0	0.35922211166325724	3.0		3.0	5.0	3.0	6.0		part_1
115		2.0				1.0	0.0							1.0	200.0	0.2928924071966321	1.0		3.0	5.0	3.0	6.0		part_1
116		2.0				1.0	0.0							1.0	401.0	0.4740600329314475	1.0		4.0	2.0	4.0	8.0		part_1
117		2.0				1.0	1.0							4.0	225.0	0.33912298866925994	4.0		3.0	1.0	7.0	4.0		part_1
118		2.0				1.0	0.0							2.0	116.0	0.2951688519970048	2.0		2.0	7.0	2.0	1.0		part_1
119		2.0				1.0	0.0							4.0	88.0	0.4188569676625775	4.0		2.0	7.0	2.0	1.0		part_1
120		2.0				1.0	1.0							1.0	0.0	0.5434829603982507	1.0		0.0	4.0	6.0	5.0		part_1
121		2.0				1.0	0.0							2.0	215.0	0.42014635939267453	2.0		3.0	5.0	3.0	6.0		part_1
122		2.0				1.0	1.0							1.0	196.0	0.3304712058597943	1.0		3.0	1.0	7.0	4.0		part_1
123		2.0				1.0	1.0							3.0	53.0	0.3420752518650261	3.0		1.0	6.0	5.0	7.0		part_1
124		2.0				1.0	1.0							1.0	403.0	0.2758481116616167	1.0		4.0	3.0	8.0	2.0		part_1
125		2.0				1.0	1.0							3.0	37.0	0.7713021234012558	3.0		1.0	6.0	5.0	7.0		part_1
126		2.0				1.0	1.0							2.0	178.0	0.29896544892835664	2.0		3.0	1.0	7.0	4.0		part_1
127		2.0				1.0	0.0							1.0	58.0	0.2889869804639602	1.0		1.0	8.0	1.0	3.0		part_1
128		2.0				1.0	0.0							2.0	27.0	0.3231519398614182	2.0		1.0	8.0	1.0	3.0		part_1
129		2.0				1.0	0.0							2.0	195.0	0.3020195431236061	2.0		3.0	5.0	3.0	6.0		part_1
130		2.0				1.0	0.0							3.0	390.0	0.3919973323936574	3.0		4.0	2.0	4.0	8.0		part_1
131		2.0				1.0	0.0							2.0	416.0	0.291301211269456	2.0		4.0	2.0	4.0	8.0		part_1
132		2.0				1.0	0.0							4.0	405.0	0.3366686856679735	4.0		4.0	2.0	4.0	8.0		part_1
133		2.0				1.0	1.0							2.0	183.0	0.2808401921283803	2.0		3.0	1.0	7.0	4.0		part_1
134		2.0				1.0	0.0							3.0	420.0	0.34848181746929185	3.0		4.0	2.0	4.0	8.0		part_1
135		2.0				2.0	1.0							4.0	58.0	0.4168578066673945	4.0		1.0	6.0	5.0	7.0		part_1
136		2.0				1.0	1.0							2.0	0.0	0.3164299976633629	2.0		0.0	6.0	5.0	7.0		part_1
137		2.0				1.0	1.0							4.0	200.0	0.3390173211955698	4.0		3.0	1.0	7.0	4.0		part_1
138		2.0				1.0	0.0							3.0	71.0	0.33978074366314104	3.0		1.0	8.0	1.0	3.0		part_1
139		2.0				1.0	0.0							2.0	399.0	0.3186446609252016	2.0		4.0	2.0	4.0	8.0		part_1
140		2.0				1.0	1.0							3.0	401.0	0.4202503490014351	3.0		4.0	3.0	8.0	2.0		part_1
141		2.0				2.0	1.0							2.0	50.0	0.42071027439669706	2.0		1.0	6.0	5.0	7.0		part_1
142		2.0				1.0	0.0							4.0	83.0	0.3761640381999314	4.0		2.0	7.0	2.0	1.0		part_1
143		2.0				1.0	1.0							1.0	201.0	0.3550113129313104	1.0		3.0	1.0	7.0	4.0		part_1
144		2.0				1.0	1.0							2.0	0.0	0.40004193592903897	2.0		0.0	4.0	6.0	5.0		part_1
145		2.0				1.0	1.0							3.0	54.0	0.47862050765979797	3.0		1.0	6.0	5.0	7.0		part_1
146		2.0				1.0	1.0							4.0	125.0	0.4579942354685045	4.0		2.0	4.0	6.0	5.0		part_1
147		2.0				1.0	1.0							4.0	0.0	0.5043662576645147	4.0		0.0	6.0	5.0	7.0		part_1
148		2.0				1.0	1.0							4.0	378.0	0.4364681478618877	4.0		4.0	3.0	8.0	2.0		part_1
149		2.0				1.0	1.0							4.0	0.0	0.4019352182003786	4.0		0.0	6.0	5.0	7.0		part_1
150		2.0				1.0	0.0							2.0	377.0	0.3701578772015637	2.0		4.0	2.0	4.0	8.0		part_1
151		2.0				1.0	1.0							1.0	98.0	0.3927311937295599	1.0		2.0	4.0	6.0	5.0		part_1
152		2.0				1.0	0.0							3.0	214.0	0.40354514812497655	3.0		3.0	5.0	3.0	6.0		part_1
153		2.0				1.0	1.0							3.0	83.0	0.471759228472365	3.0		2.0	4.0	6.0	5.0		part_1
154		2.0				1.0	0.0							1.0	215.0	0.31539209646871313	1.0		3.0	5.0	3.0	6.0		part_1
155		2.0				1.0	0.0							1.0	0.0	0.3962644924686174	1.0		0.0	2.0	4.0	8.0		part_1
156		2.0				1.0	1.0							3.0	78.0	0.361548288470658	3.0		2.0	4.0	6.0	5.0		part_1
157		2.0				1.0	0.0							1.0	179.0	0.4539857776326244	1.0		3.0	5.0	3.0	6.0		part_1
158		2.0				1.0	0.0							4.0	0.0	0.3630204517248785	4.0		0.0	5.0	3.0	6.0		part_1
159		2.0				1.0	1.0							2.0	97.0	0.3075014014684712	2.0		2.0	4.0	6.0	5.0		part_1
160		2.0				1.0	1.0							4.0	381.0	0.39822102292964706	4.0		4.0	3.0	8.0	2.0		part_1
161		2.0				1.0	1.0							1.0	203.0	0.2980123693923815	1.0		3.0	1.0	7.0	4.0		part_1
162		2.0				1.0	1.0							4.0	61.0	0.34155086539976764	4.0		1.0	6.0	5.0	7.0		part_1
163		2.0				1.0	1.0							1.0	122.0	0.3877916394631029	1.0		2.0	4.0	6.0	5.0		part_1
164		2.0				1.0	1.0							3.0	0.0	0.3652225087280385	3.0		0.0	3.0	8.0	2.0		part_1
165		2.0				1.0	0.0							3.0	0.0	0.3882624017278431	3.0		0.0	8.0	1.0	3.0		part_1
166		2.0				1.0	1.0							3.0	46.0	0.423448962130351	3.0		1.0	6.0	5.0	7.0		part_1
167		2.0				1.0	0.0							4.0	0.0	0.3791221607316402	4.0		0.0	2.0	4.0	8.0		part_1
168		2.0				1.0	1.0							1.0	113.0	0.3588032677289448	1.0		2.0	4.0	6.0	5.0		part_1
169		2.0				1.0	0.0							4.0	175.0	0.3357414311976754	4.0		3.0	5.0	3.0	6.0		part_1
170		2.0				1.0	1.0							3.0	0.0	0.3580750616602017	3.0		0.0	3.0	8.0	2.0		part_1
171		2.0				1.0	1.0							3.0	179.0	0.3817428211987135	3.0		3.0	1.0	7.0	4.0		part_1
172		2.0				1.0	1.0							4.0	33.0	0.3701485704659717	4.0		1.0	6.0	5.0	7.0		part_1
173		2.0				1.0	1.0							4.0	30.0	0.3942010719256359	4.0		1.0	6.0	5.0	7.0		part_1
174		2.0				1.0	0.0							3.0	0.0	0.4281809464664548	3.0		0.0	8.0	1.0	3.0		part_1
175		2.0				1.0	0.0							4.0	47.0	0.4499774882933707	4.0		1.0	8.0	1.0	3.0		part_1
176		2.0				1.0	0.0							2.0	86.0	0.3727081903925864	2.0		2.0	7.0	2.0	1.0		part_1
177		2.0				1.0	0.0							3.0	187.0	0.3281043293973198	3.0		3.0	5.0	3.0	6.0		part_1
178		2.0				1.0	1.0							2.0	108.0	0.3398884201233159	2.0		2.0	4.0	6.0	5.0		part_1
179		2.0				1.0	1.0							1.0	0.0	0.3418992554652505	1.0		0.0	1.0	7.0	4.0		part_1
180		2.0				1.0	0.0							2.0	93.0	0.3308551769296173	2.0		2.0	7.0	2.0	1.0		part_1
181		2.0				1.0	1.0							1.0	0.0	0.5781125339271966	1.0		0.0	6.0	5.0	7.0		part_1
182		2.0				1.0	0.0							1.0	200.0	0.4449219537345925	1.0		3.0	5.0	3.0	6.0		part_1
183		2.0				1.0	0.0							2.0	211.0	0.3656647448588046	2.0		3.0	5.0	3.0	6.0		part_1
184		2.0				1.0	1.0							2.0	56.0	0.35411835747072473	2.0		1.0	6.0	5.0	7.0		part_1
185		2.0				1.0	1.0							2.0	118.0	0.4122463869280182	2.0		2.0	4.0	6.0	5.0		part_1
186		2.0				1.0	1.0							1.0	69.0	0.333760969726427	1.0		1.0	6.0	5.0	7.0		part_1
187		2.0				1.0	1.0							4.0	0.0	0.40097861839603866	4.0		0.0	4.0	6.0	5.0		part_1
188		2.0				2.0	1.0							3.0	212.0	0.40220419792603934	3.0		3.0	1.0	7.0	4.0		part_1
189		2.0				1.0	1.0							3.0	0.0	0.4490806171961593	3.0		0.0	4.0	6.0	5.0		part_1
190		2.0				1.0	1.0							3.0	0.0	0.3473100967312348	3.0		0.0	4.0	6.0	5.0		part_1
191		2.0				1.0	0.0							3.0	118.0	0.4267914172014571	3.0		2.0	7.0	2.0	1.0		part_1
192		2.0				1.0	0.0							4.0	100.0	0.4721816671954002	4.0		2.0	7.0	2.0	1.0		part_1
193		2.0				1.0	0.0							4.0	29.0	0.4604592039322597	4.0		1.0	8.0	1.0	3.0		part_1
194		2.0				1.0	1.0							1.0	412.0	0.4183853979993728	1.0		4.0	3.0	8.0	2.0		part_1
195		2.0				1.0	1.0							2.0	58.0	0.32841064772946993	2.0		1.0	6.0	5.0	7.0		part_1
196		2.0				1.0	1.0							4.0	0.0	0.3495642799243797	4.0		0.0	4.0	6.0	5.0		part_1
197		2.0				1.0	1.0							2.0	0.0	0.3296614521968877	2.0		0.0	6.0	5.0	7.0		part_1
198		2.0				1.0	0.0							1.0	0.0	0.36416494846344	1.0		0.0	8.0	1.0	3.0		part_1
199		2.0				1.0	1.0							1.0	185.0	0.3632502095933887	1.0		3.0	1.0	7.0	4.0		part_1
200		3.0				1.0	1.0							2.0	393.0	0.3616001241316553	2.0		4.0	3.0	8.0	2.0		part_1
201		3.0				1.0	1.0							2.0	0.0	0.43144710593332997	2.0		0.0	4.0	6.0	5.0		part_1
202		3.0				1.0	0.0							4.0	194.0	0.3631072991920519	4.0		3.0	5.0	3.0	6.0		part_1
203		3.0				1.0	1.0							2.0	224.0	0.3085122303964454	2.0		3.0	1.0	7.0	4.0		part_1
204		3.0				1.0	0.0							1.0	406.0	0.33181845340004656	1.0		4.0	2.0	4.0	8.0		part_1
205		3.0				1.0	1.0							4.0	413.0	0.3755184191322769	4.0		4.0	3.0	8.0	2.0		part_1
206		3.0				1.0	1.0							3.0	187.0	0.3640665353959776	3.0		3.0	1.0	7.0	4.0		part_1
207		3.0				1.0	1.0							4.0	209.0	0.3871028109206236	4.0		3.0	1.0	7.0	4.0		part_1
208		3.0				1.0	0.0							1.0	201.0	0.30941786446783226	1.0		3.0	5.0	3.0	6.0		part_1
209		3.0				1.0	1.0							3.0	91.0	0.4447886561974883	3.0		2.0	4.0	6.0	5.0		part_1
210		3.0				1.0	0.0							4.0	0.0	0.43520402039575856	4.0		0.0	8.0	1.0	3.0		part_1
211		3.0				1.0	0.0							2.0	0.0	0.32410316346795304	2.0		0.0	7.0	2.0	1.0		part_1
212		3.0				1.0	1.0							4.0	197.0	0.3687192327342928	4.0		3.0	1.0	7.0	4.0		part_1
213		3.0				1.0	0.0							2.0	0.0	0.3692044875933789	2.0		0.0	5.0	3.0	6.0		part_1
214		3.0				1.0	1.0							4.0	224.0	0.3459110741969198	4.0		3.0	1.0	7.0	4.0		part_1
215		3.0				1.0	1.0							4.0	0.0	0.4719236183955218	4.0		0.0	4.0	6.0	5.0		part_1
216		3.0				1.0	1.0							2.0	39.0	0.3141499957346241	2.0		1.0	6.0	5.0	7.0		part_1
217		3.0				1.0	0.0							2.0	30.0	0.40477998519781977	2.0		1.0	8.0	1.0	3.0		part_1
218		3.0				1.0	1.0							4.0	407.0	0.34854676167014986	4.0		4.0	3.0	8.0	2.0		part_1
219		3.0				1.0	0.0							3.0	0.0	0.3150236733999918	3.0		0.0	7.0	2.0	1.0		part_1
220		3.0				1.0	0.0							3.0	0.0	0.4172066963947145	3.0		0.0	2.0	4.0	8.0		part_1
221		3.0				1.0	1.0							4.0	420.0	0.34054072839353466	4.0		4.0	3.0	8.0	2.0		part_1
222		3.0				1.0	1.0							4.0	389.0	0.4076552238620934	4.0		4.0	3.0	8.0	2.0		part_1
223		3.0				1.0	1.0							1.0	393.0	0.5994969691237202	1.0		4.0	3.0	8.0	2.0		part_1
224		3.0				1.0	1.0							3.0	0.0	0.3628812251990894	3.0		0.0	6.0	5.0	7.0		part_1
225		3.0				1.0	0.0							3.0	183.0	0.4313472801950411	3.0		3.0	5.0	3.0	6.0		part_1
226		3.0				1.0	1.0							2.0	400.0	0.3539611966625671	2.0		4.0	3.0	8.0	2.0		part_1
227		3.0				1.0	0.0							3.0	51.0	0.4206152031256352	3.0		1.0	8.0	1.0	3.0		part_1
228		3.0				1.0	1.0							3.0	192.0	0.3872190243928344	3.0		3.0	1.0	7.0	4.0		part_1
229		3.0				1.0	0.0							1.0	124.0	0.3567891579295974	1.0		2.0	7.0	2.0	1.0		part_1
230		3.0				1.0	0.0							3.0	46.0	0.35580786939681275	3.0		1.0	8.0	1.0	3.0		part_1
231		3.0				1.0	1.0							2.0	81.0	0.3109542773963767	2.0		2.0	4.0	6.0	5.0		part_1
232		3.0				1.0	0.0							3.0	108.0	0.4243059398650075	3.0		2.0	7.0	2.0	1.0		part_1
233		3.0				1.0	0.0							4.0	0.0	0.4022816204669653	4.0		0.0	8.0	1.0	3.0		part_1
234		3.0				1.0	1.0							3.0	224.0	0.3577079932001652	3.0		3.0	1.0	7.0	4.0		part_1
235		3.0				1.0	0.0							4.0	39.0	0.5149763546651229	4.0		1.0	8.0	1.0	3.0		part_1
236		3.0				1.0	1.0							2.0	400.0	0.3367985809236416	2.0		4.0	3.0	8.0	2.0		part_1
237		3.0				1.0	1.0							4.0	92.0	0.42714237373002106	4.0		2.0	4.0	6.0	5.0		part_1
238		3.0				1.0	1.0							2.0	194.0	0.3275219291972462	2.0		3.0	1.0	7.0	4.0		part_1
239		3.0				1.0	1.0							3.0	0.0	0.3933322051234427	3.0		0.0	1.0	7.0	4.0		part_1
240		3.0				1.0	0.0							4.0	96.0	0.3952869782006019	4.0		2.0	7.0	2.0	1.0		part_1
241		3.0				2.0	0.0							1.0	0.0	0.4293433676648419	1.0		0.0	7.0	2.0	1.0		part_1
242		3.0				1.0	0.0							2.0	420.0	0.32953073112730635	2.0		4.0	2.0	4.0	8.0		part_1
243		3.0				1.0	0.0							2.0	403.0	0.3524231569244876	2.0		4.0	2.0	4.0	8.0		part_1
244		3.0				1.0	1.0							1.0	91.0	0.5116912802041043	1.0		2.0	4.0	6.0	5.0		part_1
245		3.0				1.0	0.0							3.0	192.0	0.3409496261228924	3.0		3.0	5.0	3.0	6.0		part_1
246		3.0				1.0	0.0							2.0	225.0	0.3534356611926341	2.0		3.0	5.0	3.0	6.0		part_1
247		3.0				1.0	0.0							3.0	399.0	0.3874333297353587	3.0		4.0	2.0	4.0	8.0		part_1
248		3.0				1.0	1.0							4.0	124.0	0.3222724695951911	4.0		2.0	4.0	6.0	5.0		part_1
249		3.0				1.0	0.0							2.0	53.0	0.3104727675963659	2.0		1.0	8.0	1.0	3.0		part_1
250		3.0				1.0	1.0							4.0	93.0	0.4133181797296857	4.0		2.0	4.0	6.0	5.0		part_1
251		3.0				1.0	0.0							2.0	0.0	0.39134965092671337	2.0		0.0	8.0	1.0	3.0		part_1
252		3.0				1.0	0.0							3.0	0.0	0.37869018986384617	3.0		0.0	8.0	1.0	3.0		part_1
253		3.0				1.0	0.0							1.0	415.0	0.4358302939945133	1.0		4.0	2.0	4.0	8.0		part_1
254		3.0				1.0	0.0							3.0	97.0	0.39296201540128095	3.0		2.0	7.0	2.0	1.0		part_1
255		3.0				1.0	0.0							2.0	81.0	0.3361211381998146	2.0		2.0	7.0	2.0	1.0		part_1
256		3.0				1.0	0.0							2.0	0.0	0.3269386514657526	2.0		0.0	7.0	2.0	1.0		part_1
257		3.0				1.0	1.0							1.0	47.0	0.4383378594720853	1.0		1.0	6.0	5.0	7.0		part_1
258		3.0				1.0	0.0							1.0	0.0	0.4616312048674445	1.0		0.0	8.0	1.0	3.0		part_1
259		3.0				1.0	0.0							3.0	224.0	0.3273884159279987	3.0		3.0	5.0	3.0	6.0		part_1
260		3.0				1.0	1.0							1.0	217.0	0.4400308363910881	1.0		3.0	1.0	7.0	4.0		part_1
261		3.0				1.0	1.0							2.0	105.0	0.3853521027267561	2.0		2.0	4.0	6.0	5.0		part_1
262		3.0				1.0	1.0							4.0	103.0	0.3744599811980152	4.0		2.0	4.0	6.0	5.0		part_1
263		3.0				1.0	1.0							2.0	0.0	0.34212586419744184	2.0		0.0	1.0	7.0	4.0		part_1
264		3.0				1.0	0.0							3.0	0.0	0.28388284766697325	3.0		0.0	5.0	3.0	6.0		part_1
265		3.0				1.0	0.0							2.0	0.0	0.3430660227313638	2.0		0.0	2.0	4.0	8.0		part_1
266		3.0				1.0	0.0							2.0	0.0	0.3324544378629071	2.0		0.0	7.0	2.0	1.0		part_1
267		3.0				1.0	1.0							1.0	399.0	0.3443188059682143	1.0		4.0	3.0	8.0	2.0		part_1
268		3.0				1.0	1.0							2.0	0.0	0.3782303957268596	2.0		0.0	6.0	5.0	7.0		part_1
269		3.0				1.0	0.0							1.0	178.0	0.4224340998625848	1.0		3.0	5.0	3.0	6.0		part_1
270		3.0				1.0	1.0							3.0	113.0	0.3226082677283557	3.0		2.0	4.0	6.0	5.0		part_1
271		3.0				1.0	0.0							1.0	35.0	0.4473155003943248	1.0		1.0	8.0	1.0	3.0		part_1
272		3.0				1.0	1.0							1.0	108.0	0.39046984012384206	1.0		2.0	4.0	6.0	5.0		part_1
273		3.0				1.0	1.0							3.0	381.0	0.3683013108602609	3.0		4.0	3.0	8.0	2.0		part_1
274		3.0				1.0	0.0							1.0	378.0	0.4475270359253045	1.0		4.0	2.0	4.0	8.0		part_1
275		3.0				1.0	1.0							1.0	51.0	0.4050566516598337	1.0		1.0	6.0	5.0	7.0		part_1
276		3.0				1.0	1.0							1.0	49.0	0.4164196275960421	1.0		1.0	6.0	5.0	7.0		part_1
277		3.0				1.0	0.0							1.0	51.0	0.33833335119561525	1.0		1.0	8.0	1.0	3.0		part_1
278		3.0				1.0	1.0							3.0	0.0	0.437775559927104	3.0		0.0	1.0	7.0	4.0		part_1
279		3.0				1.0	0.0							2.0	185.0	0.5074159324722132	2.0		3.0	5.0	3.0	6.0		part_1
280		3.0				1.0	1.0							4.0	66.0	0.428572797391098	4.0		1.0	6.0	5.0	7.0		part_1
281		3.0				1.0	0.0							1.0	201.0	0.329122222661681	1.0		3.0	5.0	3.0	6.0		part_1
282		3.0				1.0	1.0							4.0	88.0	0.3960295779252192	4.0		2.0	4.0	6.0	5.0		part_1
283		3.0				1.0	1.0							1.0	399.0	0.36296158572804416	1.0		4.0	3.0	8.0	2.0		part_1
284		3.0				1.0	0.0							4.0	0.0	0.4095920858671889	4.0		0.0	7.0	2.0	1.0		part_1
285		3.0				1.0	1.0							1.0	0.0	0.5662385132018244	1.0		0.0	6.0	5.0	7.0		part_1
286		3.0				1.0	1.0							2.0	88.0	0.3648133501264965	2.0		2.0	4.0	6.0	5.0		part_1
287		3.0				1.0	1.0							2.0	34.0	0.41138764446805	2.0		1.0	6.0	5.0	7.0		part_1
288		3.0				1.0	0.0							2.0	0.0	0.3993949226714904	2.0		0.0	7.0	2.0	1.0		part_1
289		3.0				1.0	0.0							2.0	192.0	0.3677705697336933	2.0		3.0	5.0	3.0	6.0		part_1
290		3.0				1.0	0.0							2.0	393.0	0.33295698599977186	2.0		4.0	2.0	4.0	8.0		part_1
291		3.0				1.0	1.0							2.0	69.0	0.40065822619362734	2.0		1.0	6.0	5.0	7.0		part_1
292		3.0				1.0	0.0							2.0	88.0	0.36768152346485294	2.0		2.0	7.0	2.0	1.0		part_1
293		3.0				1.0	0.0							1.0	0.0	0.33542489112733165	1.0		0.0	5.0	3.0	6.0		part_1
294		3.0				1.0	0.0							1.0	39.0	0.4830119087273488	1.0		1.0	8.0	1.0	3.0		part_1
295		3.0				1.0	1.0							4.0	119.0	0.4027866413962329	4.0		2.0	4.0	6.0	5.0		part_1
296		3.0				1.0	0.0							2.0	185.0	0.2913855610022438	2.0		3.0	5.0	3.0	6.0		part_1
297		3.0				1.0	0.0							3.0	113.0	0.3252083069237415	3.0		2.0	7.0	2.0	1.0		part_1
298		3.0				1.0	1.0							1.0	0.0	0.3263953556670458	1.0		0.0	3.0	8.0	2.0		part_1
299		3.0				1.0	1.0							1.0	100.0	0.38289026066922816	1.0		2.0	4.0	6.0	5.0		part_1
300		4.0				1.0	0.0							2.0	39.0	0.2864741711309762	2.0		1.0	8.0	1.0	3.0		part_1
301		4.0				1.0	1.0							1.0	388.0	0.3550361071975203	1.0		4.0	3.0	8.0	2.0		part_1
302		4.0				1.0	1.0							1.0	65.0	0.3440341678651748	1.0		1.0	6.0	5.0	7.0		part_1
303		4.0				1.0	0.0							4.0	412.0	0.4230348551936913	4.0		4.0	2.0	4.0	8.0		part_1
304		4.0				1.0	1.0							4.0	29.0	0.4476085268615861	4.0		1.0	6.0	5.0	7.0		part_1
305		4.0				1.0	0.0							1.0	209.0	0.3343779769274988	1.0		3.0	5.0	3.0	6.0		part_1
306		4.0				1.0	0.0							3.0	0.0	0.32315753086732	3.0		0.0	2.0	4.0	8.0		part_1
307		4.0				1.0	1.0							1.0	116.0	0.3132616513976245	1.0		2.0	4.0	6.0	5.0		part_1
308		4.0				2.0	0.0							1.0	203.0	0.3720623501940281	1.0		3.0	5.0	3.0	6.0		part_1
309		4.0				1.0	0.0							3.0	37.0	0.35935799392609624	3.0		1.0	8.0	1.0	3.0		part_1
310		4.0				1.0	0.0							4.0	197.0	0.3491881479276344	4.0		3.0	5.0	3.0	6.0		part_1
311		4.0				1.0	1.0							1.0	39.0	0.33985915446828585	1.0		1.0	6.0	5.0	7.0		part_1
312		4.0				1.0	0.0							1.0	381.0	0.4406353372032754	1.0		4.0	2.0	4.0	8.0		part_1
313		4.0				1.0	1.0							4.0	417.0	0.31723267772758845	4.0		4.0	3.0	8.0	2.0		part_1
314		4.0				2.0	1.0							3.0	195.0	0.4192302158626262	3.0		3.0	1.0	7.0	4.0		part_1
315		4.0				1.0	1.0							3.0	42.0	0.3964234543891507	3.0		1.0	6.0	5.0	7.0		part_1
316		4.0				1.0	0.0							2.0	396.0	0.3309830016660271	2.0		4.0	2.0	4.0	8.0		part_1
317		4.0				1.0	0.0							1.0	69.0	0.38884659139148425	1.0		1.0	8.0	1.0	3.0		part_1
318		4.0				1.0	1.0							2.0	96.0	0.3890179041263764	2.0		2.0	4.0	6.0	5.0		part_1
319		4.0				1.0	1.0							2.0	79.0	0.4107371439313283	2.0		2.0	4.0	6.0	5.0		part_1
320		4.0				1.0	1.0							2.0	0.0	0.40172087139217183	2.0		0.0	1.0	7.0	4.0		part_1
321		4.0				1.0	0.0							3.0	103.0	0.5121819739288185	3.0		2.0	7.0	2.0	1.0		part_1
322		4.0				1.0	0.0							4.0	105.0	0.4343211321247509	4.0		2.0	7.0	2.0	1.0		part_1
323		4.0				1.0	1.0							1.0	80.0	0.3355013278633123	1.0		2.0	4.0	6.0	5.0		part_1
324		4.0				1.0	0.0							3.0	421.0	0.4478849080041982	3.0		4.0	2.0	4.0	8.0		part_1
325		4.0				1.0	1.0							2.0	380.0	0.301901300859754	2.0		4.0	3.0	8.0	2.0		part_1
326		4.0				1.0	0.0							1.0	0.0	0.3695793017323013	1.0		0.0	2.0	4.0	8.0		part_1
327		4.0				1.0	0.0							4.0	392.0	0.3484080281195929	4.0		4.0	2.0	4.0	8.0		part_1
328		4.0				1.0	1.0							4.0	0.0	0.35979176266118884	4.0		0.0	3.0	8.0	2.0		part_1
329		4.0				1.0	0.0							2.0	187.0	0.3825777396632475	2.0		3.0	5.0	3.0	6.0		part_1
330		4.0				1.0	0.0							1.0	91.0	0.39595600619213656	1.0		2.0	7.0	2.0	1.0		part_1
331		4.0				1.0	0.0							1.0	80.0	0.3947956207266543	1.0		2.0	7.0	2.0	1.0		part_1
332		4.0				1.0	0.0							3.0	404.0	0.4743920924665872	3.0		4.0	2.0	4.0	8.0		part_1
333		4.0				1.0	1.0							4.0	113.0	0.3840712766614161	4.0		2.0	4.0	6.0	5.0		part_1
334		4.0				1.0	0.0							3.0	119.0	0.5081085521233035	3.0		2.0	7.0	2.0	1.0		part_1
335		4.0				1.0	1.0							3.0	111.0	0.4077037031238433	3.0		2.0	4.0	6.0	5.0		part_1
336		4.0				1.0	0.0							4.0	75.0	0.4102767984659295	4.0		1.0	8.0	1.0	3.0		part_1
337		4.0				1.0	1.0							2.0	390.0	0.309998761928	2.0		4.0	3.0	8.0	2.0		part_1
338		4.0				1.0	1.0							4.0	0.0	0.3887480107296142	4.0		0.0	1.0	7.0	4.0		part_1
339		4.0				1.0	0.0							1.0	125.0	0.3089997192000737	1.0		2.0	7.0	2.0	1.0		part_1
340		4.0				1.0	1.0							4.0	419.0	0.3771127779982635	4.0		4.0	3.0	8.0	2.0		part_1
341		4.0				1.0	1.0							1.0	175.0	0.3552713608660269	1.0		3.0	1.0	7.0	4.0		part_1
342		4.0				1.0	0.0							4.0	61.0	0.3223889798609889	4.0		1.0	8.0	1.0	3.0		part_1
343		4.0				1.0	0.0							3.0	224.0	0.3894161067291861	3.0		3.0	5.0	3.0	6.0		part_1
344		4.0				1.0	1.0							4.0	27.0	0.36824247286858736	4.0		1.0	6.0	5.0	7.0		part_1
345		4.0				1.0	1.0							1.0	215.0	0.3814079216681421	1.0		3.0	1.0	7.0	4.0		part_1
346		4.0				1.0	0.0							2.0	416.0	0.3246973942004843	2.0		4.0	2.0	4.0	8.0		part_1
347		4.0				1.0	0.0							4.0	58.0	0.3485364754669717	4.0		1.0	8.0	1.0	3.0		part_1
348		4.0				1.0	0.0							3.0	0.0	0.31482206446526106	3.0		0.0	5.0	3.0	6.0		part_1
349		4.0				1.0	1.0							2.0	187.0	0.2929284064666717	2.0		3.0	1.0	7.0	4.0		part_1
350		4.0				1.0	0.0							4.0	80.0	0.4388304199237609	4.0		2.0	7.0	2.0	1.0		part_1
351		4.0				1.0	0.0							3.0	190.0	0.36085112873115577	3.0		3.0	5.0	3.0	6.0		part_1
352		4.0				1.0	1.0							1.0	393.0	0.31767979192954954	1.0		4.0	3.0	8.0	2.0		part_1
353		4.0				1.0	1.0							3.0	416.0	0.3057626009322121	3.0		4.0	3.0	8.0	2.0		part_1
354		4.0				1.0	1.0							4.0	0.0	0.4635548731312156	4.0		0.0	1.0	7.0	4.0		part_1
355		4.0				1.0	1.0							2.0	396.0	0.3647510448645335	2.0		4.0	3.0	8.0	2.0		part_1
356		4.0				1.0	1.0							3.0	59.0	0.35170274146366864	3.0		1.0	6.0	5.0	7.0		part_1
357		4.0				1.0	0.0							4.0	214.0	0.3747300961986184	4.0		3.0	5.0	3.0	6.0		part_1
358		4.0				1.0	0.0							3.0	49.0	0.35370441320264945	3.0		1.0	8.0	1.0	3.0		part_1
359		4.0				1.0	0.0							3.0	34.0	0.4214654784736922	3.0		1.0	8.0	1.0	3.0		part_1
360		4.0				1.0	0.0							1.0	78.0	0.34323316439258633	1.0		2.0	7.0	2.0	1.0		part_1
361		4.0				1.0	0.0							1.0	0.0	0.3663204395998037	1.0		0.0	7.0	2.0	1.0		part_1
362		4.0				1.0	1.0							4.0	123.0	0.3441348339256365	4.0		2.0	4.0	6.0	5.0		part_1
363		4.0				1.0	0.0							1.0	50.0	0.4128317569338833	1.0		1.0	8.0	1.0	3.0		part_1
364		4.0				1.0	1.0							1.0	77.0	0.3349167357300757	1.0		2.0	4.0	6.0	5.0		part_1
365		4.0				1.0	0.0							4.0	389.0	0.3801013266638621	4.0		4.0	2.0	4.0	8.0		part_1
366		4.0				1.0	0.0							4.0	224.0	0.39279924047150416	4.0		3.0	5.0	3.0	6.0		part_1
367		4.0				1.0	1.0							3.0	224.0	0.4595922694643377	3.0		3.0	1.0	7.0	4.0		part_1
368		4.0				1.0	0.0							4.0	423.0	0.37048303039773606	4.0		4.0	2.0	4.0	8.0		part_1
369		4.0				1.0	1.0							3.0	404.0	0.33800942312518606	3.0		4.0	3.0	8.0	2.0		part_1
370		4.0				1.0	0.0							2.0	34.0	0.3618220443968312	2.0		1.0	8.0	1.0	3.0		part_1
371		4.0				1.0	1.0							3.0	415.0	0.32725576066150097	3.0		4.0	3.0	8.0	2.0		part_1
372		4.0				1.0	1.0							4.0	185.0	0.3619118697242811	4.0		3.0	1.0	7.0	4.0		part_1
373		4.0				1.0	0.0							4.0	382.0	0.3844783426684444	4.0		4.0	2.0	4.0	8.0		part_1
374		4.0				1.0	1.0							2.0	0.0	0.3413001411972801	2.0		0.0	6.0	5.0	7.0		part_1
375		4.0				1.0	0.0							4.0	91.0	0.3408784699277021	4.0		2.0	7.0	2.0	1.0		part_1
376		4.0				1.0	1.0							2.0	0.0	0.3414102115930291	2.0		0.0	1.0	7.0	4.0		part_1
377		4.0				1.0	0.0							1.0	209.0	0.3638632697256981	1.0		3.0	5.0	3.0	6.0		part_1
378		4.0				1.0	0.0							4.0	59.0	0.41090675919258507	4.0		1.0	8.0	1.0	3.0		part_1
379		4.0				2.0	0.0							1.0	113.0	0.3998412185173947	1.0		2.0	7.0	2.0	1.0		part_1
380		4.0				1.0	0.0							2.0	54.0	0.3326528919278644	2.0		1.0	8.0	1.0	3.0		part_1
381		4.0				1.0	1.0							2.0	116.0	0.4244007487286581	2.0		2.0	4.0	6.0	5.0		part_1
382		4.0				1.0	1.0							2.0	190.0	0.2996328191948123	2.0		3.0	1.0	7.0	4.0		part_1
383		4.0				1.0	0.0							2.0	222.0	0.3337825691996841	2.0		3.0	5.0	3.0	6.0		part_1
384		4.0				1.0	0.0							4.0	189.0	0.4360746917300276	4.0		3.0	5.0	3.0	6.0		part_1
385		4.0				1.0	0.0							3.0	123.0	0.6272958103945712	3.0		2.0	7.0	2.0	1.0		part_1
386		4.0				1.0	1.0							3.0	91.0	0.3584253294611699	3.0		2.0	4.0	6.0	5.0		part_1
387		4.0				2.0	0.0							4.0	47.0	0.4044110227259807	4.0		1.0	8.0	1.0	3.0		part_1
388		4.0				1.0	1.0							2.0	0.0	0.37183199619175866	2.0		0.0	3.0	8.0	2.0		part_1
389		4.0				1.0	0.0							2.0	108.0	0.4282739514674177	2.0		2.0	7.0	2.0	1.0		part_1
390		4.0				1.0	0.0							1.0	79.0	0.4852415407294757	1.0		2.0	7.0	2.0	1.0		part_1
391		4.0				1.0	1.0							3.0	376.0	0.3174348304673913	3.0		4.0	3.0	8.0	2.0		part_1
392		4.0				1.0	1.0							4.0	60.0	0.440339319400664	4.0		1.0	6.0	5.0	7.0		part_1
393		4.0				1.0	1.0							4.0	98.0	0.35148458292678697	4.0		2.0	4.0	6.0	5.0		part_1
394		4.0				1.0	0.0							1.0	91.0	0.4984072291990742	1.0		2.0	7.0	2.0	1.0		part_1
395		4.0				1.0	0.0							4.0	407.0	0.3748196187298163	4.0		4.0	2.0	4.0	8.0		part_1
396		4.0				1.0	0.0							3.0	380.0	0.4543937269991147	3.0		4.0	2.0	4.0	8.0		part_1
397		4.0				1.0	0.0							1.0	123.0	0.3323068031240837	1.0		2.0	7.0	2.0	1.0		part_1
398		4.0				1.0	1.0							1.0	64.0	0.433919712122588	1.0		1.0	6.0	5.0	7.0		part_1
399		4.0				1.0	0.0							4.0	122.0	0.38764922686095815	4.0		2.0	7.0	2.0	1.0		part_1
0	4.0	1.0			250.0	0.0	1.0							6.0	0.0	0.0	0.0	250.0	3.0	1.0	7.0	4.0	1.0	part_2
1	1.0	1.0			250.0	0.0	0.0							5.0	0.0	0.5474942898945301	5.0	300.0	2.0	7.0	2.0	1.0	0.0	part_2
2	1.0	1.0			250.0	0.0	0.0							5.0	0.0	0.6737036131089553	5.0	300.0	4.0	2.0	4.0	8.0	0.0	part_2
3	1.0	1.0			250.0	0.0	0.0							6.0	0.0	0.5047760361558176	6.0	300.0	1.0	8.0	1.0	3.0	0.0	part_2
4	4.0	1.0			250.0	0.0	1.0							5.0	0.0	0.0	0.0	300.0	2.0	4.0	6.0	5.0	1.0	part_2
5	1.0	1.0			300.0	0.0	0.0							6.0	0.0	0.6518334262582357	6.0	300.0	3.0	5.0	3.0	6.0	0.0	part_2
6	1.0	1.0			300.0	0.0	1.0							6.0	0.0	0.7315081722117611	6.0	300.0	3.0	1.0	7.0	4.0	0.0	part_2
7	4.0	1.0			300.0	0.0	1.0							5.0	0.0	0.0	0.0	300.0	3.0	1.0	7.0	4.0	1.0	part_2
8	1.0	1.0			350.0	0.0	1.0							5.0	0.0	0.8027650833682856	5.0	300.0	3.0	1.0	7.0	4.0	0.0	part_2
9	1.0	1.0			350.0	0.0	0.0							5.0	0.0	0.7228559468931053	5.0	300.0	1.0	8.0	1.0	3.0	0.0	part_2
10	4.0	1.0			350.0	0.0	1.0							6.0	0.0	0.0	0.0	300.0	2.0	4.0	6.0	5.0	1.0	part_2
11	1.0	1.0			350.0	0.0	0.0							6.0	0.0	0.7715465872606728	6.0	350.0	4.0	2.0	4.0	8.0	0.0	part_2
12	1.0	1.0			350.0	0.0	0.0							6.0	0.0	1.0085035201555002	6.0	350.0	1.0	8.0	1.0	3.0	0.0	part_2
13	4.0	1.0			350.0	0.0	1.0							5.0	0.0	0.0	0.0	350.0	3.0	1.0	7.0	4.0	1.0	part_2
14	4.0	1.0			400.0	0.0	1.0							5.0	0.0	0.0	0.0	350.0	3.0	1.0	7.0	4.0	1.0	part_2
15	4.0	1.0			450.0	0.0	1.0							6.0	0.0	0.0	0.0	350.0	4.0	3.0	8.0	2.0	1.0	part_2
16	1.0	1.0			450.0	0.0	0.0							6.0	0.0	0.8311493891087594	6.0	400.0	2.0	7.0	2.0	1.0	0.0	part_2
17	1.0	1.0			450.0	0.0	0.0							5.0	0.0	0.7758326694165589	5.0	400.0	1.0	8.0	1.0	3.0	0.0	part_2
18	3.0	1.0			450.0	0.0	1.0							5.0	0.0	0.6518163780565374	5.0	400.0	1.0	6.0	5.0	7.0	1.0	part_2
19	1.0	1.0			400.0	0.0	0.0							6.0	0.0	0.8224351112075965	6.0	400.0	4.0	2.0	4.0	8.0	0.0	part_2
20	4.0	1.0			400.0	0.0	1.0							6.0	0.0	0.0	0.0	400.0	4.0	3.0	8.0	2.0	1.0	part_2
21	4.0	1.0			400.0	0.0	1.0							5.0	0.0	0.0	0.0	450.0	3.0	1.0	7.0	4.0	1.0	part_2
22	1.0	1.0			450.0	0.0	0.0							5.0	0.0	0.6450358949514339	5.0	450.0	2.0	7.0	2.0	1.0	0.0	part_2
23	4.0	1.0			450.0	0.0	1.0							5.0	0.0	0.0	0.0	450.0	2.0	4.0	6.0	5.0	1.0	part_2
24	1.0	1.0			500.0	0.0	0.0							5.0	0.0	0.8934390744179836	5.0	450.0	3.0	5.0	3.0	6.0	0.0	part_2
25	1.0	1.0			500.0	0.0	1.0							6.0	0.0	0.8155046562096686	6.0	450.0	1.0	6.0	5.0	7.0	0.0	part_2
26	4.0	1.0			500.0	0.0	1.0							5.0	0.0	0.0	0.0	450.0	4.0	3.0	8.0	2.0	1.0	part_2
27	1.0	1.0			550.0	0.0	0.0							6.0	0.0	0.8634151793667115	6.0	450.0	1.0	8.0	1.0	3.0	0.0	part_2
28	1.0	1.0			550.0	0.0	1.0							6.0	0.0	1.0661267679461162	6.0	450.0	1.0	6.0	5.0	7.0	0.0	part_2
29	4.0	1.0			550.0	0.0	1.0							6.0	0.0	0.0	0.0	450.0	4.0	3.0	8.0	2.0	1.0	part_2
30	3.0	1.0			550.0	0.0	1.0							6.0	0.0	0.7627763101554592	6.0	500.0	1.0	6.0	5.0	7.0	1.0	part_2
31	4.0	1.0			550.0	0.0	1.0							5.0	0.0	0.0	0.0	450.0	3.0	1.0	7.0	4.0	1.0	part_2
32	1.0	1.0			600.0	0.0	1.0							6.0	0.0	0.7663646384244203	6.0	450.0	2.0	4.0	6.0	5.0	0.0	part_2
33	1.0	1.0			600.0	0.0	0.0							5.0	0.0	0.9241302622031072	5.0	450.0	4.0	2.0	4.0	8.0	0.0	part_2
34	4.0	1.0			600.0	0.0	1.0							6.0	0.0	0.0	0.0	450.0	1.0	6.0	5.0	7.0	1.0	part_2
35	4.0	1.0			600.0	0.0	1.0							6.0	0.0	0.0	0.0	500.0	3.0	1.0	7.0	4.0	1.0	part_2
36	4.0	2.0			600.0	0.0	1.0							5.0	0.0	0.0	0.0	550.0	1.0	6.0	5.0	7.0	1.0	part_2
37	1.0	2.0			650.0	0.0	1.0							5.0	0.0	0.5104511601020931	5.0	550.0	3.0	1.0	7.0	4.0	0.0	part_2
38	1.0	2.0			650.0	0.0	0.0							6.0	0.0	0.2978041180467699	6.0	550.0	2.0	7.0	2.0	1.0	0.0	part_2
39	1.0	2.0			650.0	0.0	0.0							6.0	0.0	0.3451179432595381	6.0	550.0	1.0	8.0	1.0	3.0	0.0	part_2
40	1.0	2.0			650.0	0.0	1.0							5.0	0.0	0.3221988771110773	5.0	550.0	4.0	3.0	8.0	2.0	0.0	part_2
41	1.0	2.0			650.0	0.0	1.0							5.0	0.0	0.5924644771585008	5.0	550.0	3.0	1.0	7.0	4.0	0.0	part_2
42	3.0	2.0			650.0	0.0	1.0							6.0	0.0	0.3347808162070578	6.0	550.0	1.0	6.0	5.0	7.0	1.0	part_2
43	4.0	2.0			650.0	0.0	1.0							6.0	0.0	0.0	0.0	500.0	4.0	3.0	8.0	2.0	1.0	part_2
44	1.0	2.0			650.0	0.0	0.0							6.0	0.0	0.6193479242065223	6.0	550.0	4.0	2.0	4.0	8.0	0.0	part_2
45	1.0	2.0			650.0	0.0	0.0							6.0	0.0	0.4273268584147445	6.0	550.0	4.0	2.0	4.0	8.0	0.0	part_2
46	3.0	2.0			650.0	0.0	1.0							5.0	0.0	0.597416513315693	5.0	550.0	3.0	1.0	7.0	4.0	1.0	part_2
47	1.0	2.0			600.0	0.0	1.0							5.0	0.0	0.857981183056836	5.0	550.0	3.0	1.0	7.0	4.0	0.0	part_2
48	1.0	2.0			600.0	0.0	1.0							6.0	0.0	0.5540305641115992	6.0	550.0	2.0	4.0	6.0	5.0	0.0	part_2
49	3.0	2.0			600.0	0.0	1.0							6.0	0.0	0.4080153833710938	6.0	550.0	4.0	3.0	8.0	2.0	1.0	part_2
50	1.0	2.0			600.0	0.0	0.0							5.0	0.0	0.532516730891075	5.0	500.0	1.0	8.0	1.0	3.0	0.0	part_2
51	1.0	2.0			600.0	0.0	0.0							5.0	0.0	0.6347276823144057	5.0	500.0	3.0	5.0	3.0	6.0	0.0	part_2
52	3.0	2.0			600.0	0.0	1.0							6.0	0.0	0.4558381523165736	6.0	500.0	1.0	6.0	5.0	7.0	1.0	part_2
53	1.0	2.0			600.0	0.0	0.0							6.0	0.0	0.6025033139449079	6.0	450.0	2.0	7.0	2.0	1.0	0.0	part_2
54	1.0	2.0			600.0	0.0	1.0							6.0	0.0	0.7161534322585794	6.0	450.0	1.0	6.0	5.0	7.0	0.0	part_2
55	1.0	2.0			600.0	0.0	1.0							5.0	0.0	0.5827691181038972	5.0	450.0	1.0	6.0	5.0	7.0	0.0	part_2
56	3.0	2.0			600.0	0.0	1.0							5.0	0.0	0.39159430521249305	5.0	450.0	2.0	4.0	6.0	5.0	1.0	part_2
57	1.0	2.0			550.0	0.0	1.0							6.0	0.0	0.5061641750507988	6.0	450.0	3.0	1.0	7.0	4.0	0.0	part_2
58	1.0	2.0			550.0	0.0	1.0							5.0	0.0	0.5737526470547891	5.0	450.0	2.0	4.0	6.0	5.0	0.0	part_2
59	1.0	2.0			550.0	0.0	0.0							5.0	0.0	0.3711122791573871	5.0	450.0	1.0	8.0	1.0	3.0	0.0	part_2
60	3.0	2.0			550.0	0.0	1.0							6.0	0.0	0.35099956394697074	6.0	450.0	3.0	1.0	7.0	4.0	1.0	part_2
61	3.0	2.0			550.0	0.0	1.0							5.0	0.0	0.6778175842046039	5.0	400.0	4.0	3.0	8.0	2.0	1.0	part_2
62	3.0	2.0			500.0	0.0	1.0							5.0	0.0	0.6556394012586679	5.0	400.0	2.0	4.0	6.0	5.0	1.0	part_2
63	1.0	2.0			450.0	0.0	0.0							6.0	0.0	0.7472012870566687	6.0	400.0	2.0	7.0	2.0	1.0	0.0	part_2
64	1.0	2.0			450.0	0.0	0.0							6.0	0.0	0.7032430342005682	6.0	400.0	4.0	2.0	4.0	8.0	0.0	part_2
65	1.0	2.0			450.0	0.0	0.0							6.0	0.0	0.7030977820541011	6.0	400.0	1.0	8.0	1.0	3.0	0.0	part_2
66	3.0	2.0			450.0	0.0	1.0							6.0	0.0	0.4222283071649144	6.0	400.0	3.0	1.0	7.0	4.0	1.0	part_2
67	1.0	2.0			450.0	0.0	0.0							6.0	0.0	0.8951981119971606	6.0	350.0	3.0	5.0	3.0	6.0	0.0	part_2
68	4.0	2.0			450.0	0.0	1.0							6.0	0.0	0.0	0.0	350.0	3.0	1.0	7.0	4.0	1.0	part_2
69	1.0	2.0			450.0	0.0	0.0							6.0	0.0	0.7300821494209231	6.0	400.0	3.0	5.0	3.0	6.0	0.0	part_2
70	1.0	2.0			450.0	0.0	0.0							5.0	0.0	0.6628124171111267	5.0	400.0	1.0	8.0	1.0	3.0	0.0	part_2
71	1.0	2.0			450.0	0.0	0.0							5.0	0.0	0.6412924291580566	5.0	400.0	1.0	8.0	1.0	3.0	0.0	part_2
72	1.0	3.0			450.0	0.0	0.0							6.0	0.0	0.5054128762058099	6.0	400.0	4.0	2.0	4.0	8.0	0.0	part_2
73	1.0	3.0			450.0	0.0	0.0							6.0	0.0	0.5750661841593683	6.0	400.0	3.0	5.0	3.0	6.0	0.0	part_2
74	1.0	3.0			450.0	0.0	0.0							6.0	0.0	0.4059993721093633	6.0	400.0	2.0	7.0	2.0	1.0	0.0	part_2
75	1.0	3.0			450.0	0.0	0.0							5.0	0.0	0.5305173321612529	5.0	400.0	4.0	2.0	4.0	8.0	0.0	part_2
76	3.0	3.0			450.0	0.0	1.0							5.0	0.0	0.5538128758926177	5.0	400.0	1.0	6.0	5.0	7.0	1.0	part_2
77	4.0	3.0			400.0	0.0	1.0							6.0	0.0	0.0	0.0	400.0	3.0	1.0	7.0	4.0	1.0	part_2
78	3.0	3.0			400.0	0.0	1.0							5.0	0.0	0.4876318759997957	5.0	450.0	4.0	3.0	8.0	2.0	1.0	part_2
79	1.0	3.0			350.0	0.0	0.0							6.0	0.0	0.44365319200005615	6.0	450.0	4.0	2.0	4.0	8.0	0.0	part_2
80	1.0	3.0			350.0	0.0	0.0							5.0	0.0	0.7597055051592179	5.0	450.0	2.0	7.0	2.0	1.0	0.0	part_2
81	1.0	3.0			350.0	0.0	1.0							6.0	0.0	0.8858555512051679	6.0	450.0	4.0	3.0	8.0	2.0	0.0	part_2
82	3.0	3.0			350.0	0.0	1.0							6.0	0.0	0.333756846106553	6.0	450.0	2.0	4.0	6.0	5.0	1.0	part_2
83	1.0	3.0			350.0	0.0	0.0							5.0	0.0	0.537540785051533	5.0	400.0	3.0	5.0	3.0	6.0	0.0	part_2
84	3.0	3.0			350.0	0.0	1.0							5.0	0.0	0.4932459679985186	5.0	400.0	4.0	3.0	8.0	2.0	1.0	part_2
85	1.0	3.0			300.0	0.0	0.0							5.0	0.0	0.6848244739958318	5.0	400.0	1.0	8.0	1.0	3.0	0.0	part_2
86	1.0	3.0			300.0	0.0	0.0							6.0	0.0	0.6970324971553055	6.0	400.0	3.0	5.0	3.0	6.0	0.0	part_2
87	3.0	3.0			300.0	0.0	1.0							5.0	0.0	0.5624356861590059	5.0	400.0	1.0	6.0	5.0	7.0	1.0	part_2
88	4.0	3.0			250.0	0.0	1.0							6.0	0.0	0.0	0.0	400.0	2.0	4.0	6.0	5.0	1.0	part_2
89	1.0	3.0			250.0	0.0	1.0							6.0	0.0	0.5537141604218051	6.0	450.0	4.0	3.0	8.0	2.0	0.0	part_2
90	1.0	3.0			250.0	0.0	0.0							6.0	0.0	0.6114842281604069	6.0	450.0	3.0	5.0	3.0	6.0	0.0	part_2
91	4.0	3.0			250.0	0.0	1.0							6.0	0.0	0.0	0.0	450.0	2.0	4.0	6.0	5.0	1.0	part_2
92	1.0	3.0			250.0	0.0	0.0							6.0	0.0	0.8494419102644315	6.0	500.0	1.0	8.0	1.0	3.0	0.0	part_2
93	1.0	3.0			250.0	0.0	0.0							5.0	0.0	0.6242710840524524	5.0	500.0	4.0	2.0	4.0	8.0	0.0	part_2
94	1.0	3.0			250.0	0.0	0.0							6.0	0.0	0.5907692794207833	6.0	500.0	3.0	5.0	3.0	6.0	0.0	part_2
95	4.0	3.0			250.0	0.0	1.0							6.0	0.0	0.0	0.0	500.0	3.0	1.0	7.0	4.0	1.0	part_2
96	1.0	3.0			250.0	0.0	0.0							5.0	0.0	0.5944624793119146	5.0	550.0	4.0	2.0	4.0	8.0	0.0	part_2
97	4.0	3.0			250.0	0.0	1.0							5.0	0.0	0.0	0.0	550.0	2.0	4.0	6.0	5.0	1.0	part_2
98	1.0	3.0			300.0	0.0	0.0							5.0	0.0	0.3915383313651546	5.0	550.0	2.0	7.0	2.0	1.0	0.0	part_2
99	3.0	3.0			300.0	0.0	1.0							6.0	0.0	0.3811542652620119	6.0	550.0	4.0	3.0	8.0	2.0	1.0	part_2
100	1.0	3.0			300.0	0.0	0.0							6.0	0.0	0.5744437261673738	6.0	500.0	4.0	2.0	4.0	8.0	0.0	part_2
101	4.0	3.0			300.0	0.0	1.0							5.0	0.0	0.0	0.0	500.0	1.0	6.0	5.0	7.0	1.0	part_2
102	1.0	3.0			350.0	0.0	0.0							6.0	0.0	0.29398390620190185	6.0	500.0	4.0	2.0	4.0	8.0	0.0	part_2
103	1.0	3.0			350.0	0.0	0.0							6.0	0.0	0.6212724521028576	6.0	500.0	2.0	7.0	2.0	1.0	0.0	part_2
104	4.0	3.0			350.0	0.0	1.0							5.0	0.0	0.0	0.0	500.0	1.0	6.0	5.0	7.0	1.0	part_2
105	4.0	3.0			400.0	0.0	1.0							5.0	0.0	0.0	0.0	500.0	2.0	4.0	6.0	5.0	1.0	part_2
106	1.0	3.0			450.0	0.0	0.0							6.0	0.0	0.5014787673644605	6.0	500.0	1.0	8.0	1.0	3.0	0.0	part_2
107	4.0	3.0			450.0	0.0	1.0							6.0	0.0	0.0	0.0	500.0	2.0	4.0	6.0	5.0	1.0	part_2
108	3.0	4.0			450.0	0.0	1.0							5.0	0.0	0.35997455189499306	5.0	550.0	2.0	4.0	6.0	5.0	1.0	part_2
109	1.0	4.0			400.0	0.0	0.0							6.0	0.0	0.3174321632104693	6.0	550.0	2.0	7.0	2.0	1.0	0.0	part_2
110	4.0	4.0			400.0	0.0	1.0							5.0	0.0	0.0	0.0	550.0	4.0	3.0	8.0	2.0	1.0	part_2
111	1.0	4.0			450.0	0.0	0.0							6.0	0.0	0.4991324038928724	6.0	550.0	1.0	8.0	1.0	3.0	0.0	part_2
112	1.0	4.0			450.0	0.0	0.0							6.0	0.0	0.5004008833129774	6.0	550.0	3.0	5.0	3.0	6.0	0.0	part_2
113	3.0	4.0			450.0	0.0	1.0							6.0	0.0	0.5112682661056169	6.0	550.0	3.0	1.0	7.0	4.0	1.0	part_2
114	4.0	4.0			450.0	0.0	1.0							5.0	0.0	0.0	0.0	500.0	4.0	3.0	8.0	2.0	1.0	part_2
115	1.0	4.0			500.0	0.0	0.0							6.0	0.0	0.4222283290509949	6.0	500.0	3.0	5.0	3.0	6.0	0.0	part_2
116	1.0	4.0			500.0	0.0	0.0							5.0	0.0	0.44748176926077576	5.0	500.0	4.0	2.0	4.0	8.0	0.0	part_2
117	1.0	4.0			500.0	0.0	0.0							6.0	0.0	0.5606978272044216	6.0	500.0	3.0	5.0	3.0	6.0	0.0	part_2
118	1.0	4.0			500.0	0.0	0.0							5.0	0.0	0.5833651689463295	5.0	500.0	1.0	8.0	1.0	3.0	0.0	part_2
119	4.0	4.0			500.0	0.0	1.0							5.0	0.0	0.0	0.0	500.0	4.0	3.0	8.0	2.0	1.0	part_2
120	4.0	4.0			550.0	0.0	1.0							5.0	0.0	0.0	0.0	500.0	4.0	3.0	8.0	2.0	1.0	part_2
121	1.0	4.0			600.0	0.0	1.0							6.0	0.0	1.1926110261119902	6.0	500.0	3.0	1.0	7.0	4.0	0.0	part_2
122	3.0	4.0			600.0	0.0	1.0							6.0	0.0	0.7881154634742416	6.0	500.0	3.0	1.0	7.0	4.0	1.0	part_2
123	4.0	4.0			600.0	0.0	1.0							5.0	0.0	0.0	0.0	450.0	2.0	4.0	6.0	5.0	1.0	part_2
124	4.0	4.0			650.0	0.0	1.0							6.0	0.0	0.0	0.0	450.0	3.0	1.0	7.0	4.0	1.0	part_2
125	1.0	4.0			650.0	0.0	0.0							5.0	0.0	0.3631168080537464	5.0	500.0	4.0	2.0	4.0	8.0	0.0	part_2
126	4.0	4.0			650.0	0.0	1.0							6.0	0.0	0.0	0.0	500.0	4.0	3.0	8.0	2.0	1.0	part_2
127	1.0	4.0			650.0	0.0	0.0							5.0	0.0	0.5797044742066646	5.0	550.0	1.0	8.0	1.0	3.0	0.0	part_2
128	1.0	4.0			650.0	0.0	0.0							6.0	0.0	0.5342767681577243	6.0	550.0	2.0	7.0	2.0	1.0	0.0	part_2
129	1.0	4.0			650.0	0.0	0.0							6.0	0.0	0.5238603893158142	6.0	550.0	3.0	5.0	3.0	6.0	0.0	part_2
130	4.0	4.0			650.0	0.0	1.0							5.0	0.0	0.0	0.0	550.0	1.0	6.0	5.0	7.0	1.0	part_2
131	1.0	4.0			700.0	0.0	0.0							6.0	0.0	0.5370570323138963	6.0	550.0	1.0	8.0	1.0	3.0	0.0	part_2
132	4.0	4.0			700.0	0.0	1.0							6.0	0.0	0.0	0.0	550.0	4.0	3.0	8.0	2.0	1.0	part_2
133	1.0	4.0			700.0	0.0	0.0							6.0	0.0	0.5612709903653013	6.0	600.0	4.0	2.0	4.0	8.0	0.0	part_2
134	1.0	4.0			700.0	0.0	0.0							5.0	0.0	0.5844464232068276	5.0	600.0	2.0	7.0	2.0	1.0	0.0	part_2
135	1.0	4.0			700.0	0.0	0.0							6.0	0.0	0.4955762881072587	6.0	600.0	4.0	2.0	4.0	8.0	0.0	part_2
136	1.0	4.0			700.0	0.0	0.0							6.0	0.0	0.5860017581580905	6.0	600.0	1.0	8.0	1.0	3.0	0.0	part_2
137	4.0	4.0			700.0	0.0	1.0							6.0	0.0	0.0	0.0	600.0	3.0	1.0	7.0	4.0	1.0	part_2
138	4.0	4.0			700.0	0.0	1.0							5.0	0.0	0.0	0.0	650.0	2.0	4.0	6.0	5.0	1.0	part_2
139	1.0	4.0			750.0	0.0	1.0							5.0	0.0	0.9599276310545974	5.0	650.0	4.0	3.0	8.0	2.0	0.0	part_2
140	1.0	4.0			750.0	0.0	1.0							6.0	0.0	0.8371968922074302	6.0	650.0	4.0	3.0	8.0	2.0	0.0	part_2
141	1.0	4.0			750.0	0.0	0.0							5.0	0.0	0.5000475840570289	5.0	650.0	4.0	2.0	4.0	8.0	0.0	part_2
142	4.0	4.0			750.0	0.0	1.0							6.0	0.0	0.0	0.0	650.0	4.0	3.0	8.0	2.0	1.0	part_2
143	1.0	4.0			750.0	0.0	0.0							6.0	0.0	0.5583405020588543	6.0	700.0	1.0	8.0	1.0	3.0	0.0	part_2
144	4.0	5.0			750.0	0.0	1.0							5.0	0.0	0.0	0.0	700.0	4.0	3.0	8.0	2.0	1.0	part_2
145	1.0	5.0			800.0	0.0	0.0							5.0	0.0	0.3590623384152423	5.0	700.0	4.0	2.0	4.0	8.0	0.0	part_2
146	1.0	5.0			800.0	0.0	0.0							5.0	0.0	0.3696578612580197	5.0	700.0	4.0	2.0	4.0	8.0	0.0	part_2
147	1.0	5.0			800.0	0.0	0.0							5.0	0.0	0.3596694234729512	5.0	700.0	2.0	7.0	2.0	1.0	0.0	part_2
148	1.0	5.0			800.0	0.0	1.0							6.0	0.0	0.6875550032636966	6.0	700.0	3.0	1.0	7.0	4.0	0.0	part_2
149	1.0	5.0			800.0	0.0	0.0							5.0	0.0	0.4844842871098081	5.0	700.0	3.0	5.0	3.0	6.0	0.0	part_2
150	3.0	5.0			800.0	0.0	1.0							5.0	0.0	0.3284162080526585	5.0	700.0	3.0	1.0	7.0	4.0	1.0	part_2
151	1.0	5.0			750.0	0.0	0.0							6.0	0.0	0.6334021722650505	6.0	700.0	1.0	8.0	1.0	3.0	0.0	part_2
152	3.0	5.0			750.0	0.0	1.0							6.0	0.0	0.8033602363648242	6.0	700.0	1.0	6.0	5.0	7.0	1.0	part_2
153	1.0	5.0			750.0	0.0	0.0							5.0	0.0	0.6354008452544804	5.0	650.0	1.0	8.0	1.0	3.0	0.0	part_2
154	3.0	5.0			750.0	0.0	1.0							6.0	0.0	0.6797598504199414	6.0	650.0	4.0	3.0	8.0	2.0	1.0	part_2
155	4.0	5.0			750.0	0.0	1.0							6.0	0.0	0.0	0.0	600.0	1.0	6.0	5.0	7.0	1.0	part_2
156	1.0	5.0			750.0	0.0	0.0							5.0	0.0	0.4115336923132418	5.0	650.0	4.0	2.0	4.0	8.0	0.0	part_2
157	3.0	5.0			750.0	0.0	1.0							5.0	0.0	0.9411945942556486	5.0	650.0	4.0	3.0	8.0	2.0	1.0	part_2
158	5.0	5.0			700.0	0.0	1.0							6.0	0.0	0.0	0.0	650.0	2.0	4.0	6.0	5.0	0.0	part_2
159	1.0	5.0			700.0	0.0	0.0							5.0	0.0	0.6171206332583097	5.0	650.0	3.0	5.0	3.0	6.0	0.0	part_2
160	3.0	5.0			700.0	0.0	1.0							5.0	0.0	0.6740161079942482	5.0	650.0	2.0	4.0	6.0	5.0	1.0	part_2
161	4.0	5.0			650.0	0.0	1.0							6.0	0.0	0.0	0.0	650.0	1.0	6.0	5.0	7.0	1.0	part_2
162	1.0	5.0			650.0	0.0	0.0							6.0	0.0	0.5306676813124795	6.0	700.0	2.0	7.0	2.0	1.0	0.0	part_2
163	4.0	5.0			650.0	0.0	1.0							5.0	0.0	0.0	0.0	700.0	4.0	3.0	8.0	2.0	1.0	part_2
164	1.0	5.0			700.0	0.0	0.0							5.0	0.0	0.5195253284182401	5.0	700.0	4.0	2.0	4.0	8.0	0.0	part_2
165	1.0	5.0			700.0	0.0	0.0							6.0	0.0	0.5444764653148013	6.0	700.0	1.0	8.0	1.0	3.0	0.0	part_2
166	1.0	5.0			700.0	0.0	0.0							6.0	0.0	0.5223957022608374	6.0	700.0	4.0	2.0	4.0	8.0	0.0	part_2
167	4.0	5.0			700.0	0.0	1.0							5.0	0.0	0.0	0.0	700.0	2.0	4.0	6.0	5.0	1.0	part_2
168	1.0	5.0			750.0	0.0	1.0							6.0	0.0	1.0304904864678974	6.0	700.0	1.0	6.0	5.0	7.0	0.0	part_2
169	1.0	5.0			750.0	0.0	0.0							6.0	0.0	0.4341816963133169	6.0	700.0	2.0	7.0	2.0	1.0	0.0	part_2
170	1.0	5.0			750.0	0.0	0.0							6.0	0.0	0.3554076651635114	6.0	700.0	2.0	7.0	2.0	1.0	0.0	part_2
171	1.0	5.0			750.0	0.0	0.0							5.0	0.0	0.5606495784231811	5.0	700.0	2.0	7.0	2.0	1.0	0.0	part_2
172	3.0	5.0			750.0	0.0	1.0							6.0	0.0	0.3144725914680748	6.0	700.0	2.0	4.0	6.0	5.0	1.0	part_2
173	1.0	5.0			750.0	0.0	0.0							5.0	0.0	0.5273810153667	5.0	650.0	3.0	5.0	3.0	6.0	0.0	part_2
174	1.0	5.0			750.0	0.0	0.0							5.0	0.0	0.4835217140498571	5.0	650.0	2.0	7.0	2.0	1.0	0.0	part_2
175	1.0	5.0			750.0	0.0	0.0							5.0	0.0	0.4394930081543862	5.0	650.0	3.0	5.0	3.0	6.0	0.0	part_2
176	1.0	5.0			750.0	0.0	0.0							5.0	0.0	0.3837411470522056	5.0	650.0	1.0	8.0	1.0	3.0	0.0	part_2
177	3.0	5.0			750.0	0.0	1.0							6.0	0.0	0.7232392610021634	6.0	650.0	1.0	6.0	5.0	7.0	1.0	part_2
178	1.0	5.0			750.0	0.0	0.0							6.0	0.0	0.4880758154249634	6.0	600.0	1.0	8.0	1.0	3.0	0.0	part_2
179	1.0	5.0			750.0	0.0	0.0							6.0	0.0	0.4759927992636222	6.0	600.0	3.0	5.0	3.0	6.0	0.0	part_2
180	3.0	6.0			750.0	0.0	1.0							6.0	0.0	0.6844526491622673	6.0	600.0	1.0	6.0	5.0	7.0	1.0	part_2
181	1.0	6.0			750.0	0.0	1.0							5.0	0.0	0.8766842901604832	5.0	550.0	2.0	4.0	6.0	5.0	0.0	part_2
182	1.0	6.0			750.0	0.0	0.0							5.0	0.0	0.4162479110600543	5.0	550.0	4.0	2.0	4.0	8.0	0.0	part_2
183	3.0	6.0			750.0	0.0	1.0							5.0	0.0	0.4185159384214785	5.0	550.0	3.0	1.0	7.0	4.0	1.0	part_2
184	1.0	6.0			700.0	0.0	0.0							6.0	0.0	0.4079611791603384	6.0	550.0	1.0	8.0	1.0	3.0	0.0	part_2
185	1.0	6.0			700.0	0.0	0.0							5.0	0.0	0.4857333020045189	5.0	550.0	4.0	2.0	4.0	8.0	0.0	part_2
186	4.0	6.0			700.0	0.0	1.0							5.0	0.0	0.0	0.0	550.0	4.0	3.0	8.0	2.0	1.0	part_2
187	1.0	6.0			750.0	0.0	1.0							6.0	0.0	0.9488108481018572	6.0	550.0	2.0	4.0	6.0	5.0	0.0	part_2
188	1.0	6.0			750.0	0.0	0.0							5.0	0.0	0.43222247689118376	5.0	550.0	2.0	7.0	2.0	1.0	0.0	part_2
189	3.0	6.0			750.0	0.0	1.0							5.0	0.0	0.8150933263095794	5.0	550.0	1.0	6.0	5.0	7.0	1.0	part_2
190	1.0	6.0			700.0	0.0	0.0							5.0	0.0	0.5361668701079907	5.0	550.0	3.0	5.0	3.0	6.0	0.0	part_2
191	1.0	6.0			700.0	0.0	1.0							5.0	0.0	0.9651159860513872	5.0	550.0	1.0	6.0	5.0	7.0	0.0	part_2
192	1.0	6.0			700.0	0.0	0.0							5.0	0.0	0.482137699102168	5.0	550.0	2.0	7.0	2.0	1.0	0.0	part_2
193	1.0	6.0			700.0	0.0	0.0							6.0	0.0	0.3593100303114625	6.0	550.0	4.0	2.0	4.0	8.0	0.0	part_2
194	3.0	6.0			700.0	0.0	1.0							6.0	0.0	0.3923986393128871	6.0	550.0	3.0	1.0	7.0	4.0	1.0	part_2
195	1.0	6.0			700.0	0.0	1.0							6.0	0.0	0.9456702673123801	6.0	500.0	4.0	3.0	8.0	2.0	0.0	part_2
196	1.0	6.0			700.0	0.0	0.0							6.0	0.0	0.5512107812610338	6.0	500.0	1.0	8.0	1.0	3.0	0.0	part_2
197	1.0	6.0			700.0	0.0	0.0							6.0	0.0	0.5414548152621137	6.0	500.0	2.0	7.0	2.0	1.0	0.0	part_2
198	4.0	6.0			700.0	0.0	1.0							6.0	0.0	0.0	0.0	500.0	3.0	1.0	7.0	4.0	1.0	part_2
199	1.0	6.0			700.0	0.0	0.0							5.0	0.0	0.5207628053685767	5.0	550.0	3.0	5.0	3.0	6.0	0.0	part_2
200	1.0	6.0			700.0	0.0	0.0							6.0	0.0	0.3404087801100104	6.0	550.0	4.0	2.0	4.0	8.0	0.0	part_2
201	1.0	6.0			700.0	0.0	0.0							5.0	0.0	0.5570382733130828	5.0	550.0	3.0	5.0	3.0	6.0	0.0	part_2
202	1.0	6.0			700.0	0.0	1.0							6.0	0.0	0.9394153841058142	6.0	550.0	1.0	6.0	5.0	7.0	0.0	part_2
203	1.0	6.0			700.0	0.0	1.0							6.0	0.0	0.4232934632091201	6.0	550.0	2.0	4.0	6.0	5.0	0.0	part_2
204	1.0	6.0			700.0	0.0	0.0							5.0	0.0	0.3458509504707763	5.0	550.0	2.0	7.0	2.0	1.0	0.0	part_2
205	3.0	6.0			700.0	0.0	1.0							5.0	0.0	0.6050344524192042	5.0	550.0	1.0	6.0	5.0	7.0	1.0	part_2
206	4.0	6.0			650.0	0.0	1.0							6.0	0.0	0.0	0.0	550.0	1.0	6.0	5.0	7.0	1.0	part_2
207	1.0	6.0			650.0	0.0	0.0							5.0	0.0	0.4484362941075233	5.0	600.0	1.0	8.0	1.0	3.0	0.0	part_2
208	1.0	6.0			650.0	0.0	0.0							6.0	0.0	0.35906527216138784	6.0	600.0	1.0	8.0	1.0	3.0	0.0	part_2
209	1.0	6.0			650.0	0.0	0.0							6.0	0.0	0.4164316670576227	6.0	600.0	4.0	2.0	4.0	8.0	0.0	part_2
210	3.0	6.0			650.0	0.0	1.0							5.0	0.0	0.3604193733117427	5.0	600.0	2.0	4.0	6.0	5.0	1.0	part_2
211	4.0	6.0			600.0	0.0	1.0							5.0	0.0	0.0	0.0	600.0	3.0	1.0	7.0	4.0	1.0	part_2
212	1.0	6.0			650.0	0.0	0.0							5.0	0.0	0.5650131740549114	5.0	600.0	3.0	5.0	3.0	6.0	0.0	part_2
213	1.0	6.0			650.0	0.0	1.0							6.0	0.0	0.9266831250497488	6.0	600.0	1.0	6.0	5.0	7.0	0.0	part_2
214	4.0	6.0			650.0	0.0	1.0							6.0	0.0	0.0	0.0	600.0	2.0	4.0	6.0	5.0	1.0	part_2
215	1.0	6.0			650.0	0.0	0.0							5.0	0.0	0.5108927940527792	5.0	650.0	2.0	7.0	2.0	1.0	0.0	part_2
216	1.0	7.0			650.0	0.0	0.0							5.0	0.0	0.6410701072090887	5.0	650.0	1.0	8.0	1.0	3.0	0.0	part_2
217	3.0	7.0			650.0	0.0	1.0							6.0	0.0	0.5522001241042744	6.0	650.0	2.0	4.0	6.0	5.0	1.0	part_2
218	1.0	7.0			650.0	0.0	0.0							5.0	0.0	0.3498772832608665	5.0	600.0	2.0	7.0	2.0	1.0	0.0	part_2
219	1.0	7.0			650.0	0.0	0.0							5.0	0.0	0.3397419028406148	5.0	600.0	2.0	7.0	2.0	1.0	0.0	part_2
220	1.0	7.0			650.0	0.0	1.0							5.0	0.0	0.8255690204241546	5.0	600.0	4.0	3.0	8.0	2.0	0.0	part_2
221	3.0	7.0			650.0	0.0	1.0							6.0	0.0	0.5326830403719214	6.0	600.0	2.0	4.0	6.0	5.0	1.0	part_2
222	4.0	7.0			650.0	0.0	1.0							5.0	0.0	0.0	0.0	550.0	2.0	4.0	6.0	5.0	1.0	part_2
223	1.0	7.0			700.0	0.0	0.0							6.0	0.0	0.5471300683639129	6.0	550.0	3.0	5.0	3.0	6.0	0.0	part_2
224	1.0	7.0			700.0	0.0	0.0							5.0	0.0	0.4803275010563084	5.0	550.0	3.0	5.0	3.0	6.0	0.0	part_2
225	1.0	7.0			700.0	0.0	1.0							5.0	0.0	0.5707564420008566	5.0	550.0	4.0	3.0	8.0	2.0	0.0	part_2
226	1.0	7.0			700.0	0.0	1.0							6.0	0.0	0.583345701052167	6.0	550.0	4.0	3.0	8.0	2.0	0.0	part_2
227	3.0	7.0			700.0	0.0	1.0							6.0	0.0	0.4718166951060994	6.0	550.0	4.0	3.0	8.0	2.0	1.0	part_2
228	4.0	7.0			700.0	0.0	1.0							6.0	0.0	0.0	0.0	500.0	2.0	4.0	6.0	5.0	1.0	part_2
229	1.0	7.0			700.0	0.0	0.0							6.0	0.0	0.6410847154693329	6.0	550.0	2.0	7.0	2.0	1.0	0.0	part_2
230	3.0	7.0			700.0	0.0	1.0							5.0	0.0	0.3942542464719736	5.0	550.0	1.0	6.0	5.0	7.0	1.0	part_2
231	1.0	7.0			650.0	0.0	0.0							5.0	0.0	0.4974688711081399	5.0	550.0	3.0	5.0	3.0	6.0	0.0	part_2
232	4.0	7.0			650.0	0.0	1.0							5.0	0.0	0.0	0.0	550.0	2.0	4.0	6.0	5.0	1.0	part_2
233	4.0	7.0			700.0	0.0	1.0							5.0	0.0	0.0	0.0	550.0	2.0	4.0	6.0	5.0	1.0	part_2
234	1.0	7.0			750.0	0.0	1.0							5.0	0.0	1.0612904093140971	5.0	550.0	3.0	1.0	7.0	4.0	0.0	part_2
235	1.0	7.0			750.0	0.0	1.0							6.0	0.0	0.9507325241065698	6.0	550.0	2.0	4.0	6.0	5.0	0.0	part_2
236	1.0	7.0			750.0	0.0	0.0							6.0	0.0	0.389291507206508	6.0	550.0	2.0	7.0	2.0	1.0	0.0	part_2
237	3.0	7.0			750.0	0.0	1.0							5.0	0.0	0.7592119081091369	5.0	550.0	2.0	4.0	6.0	5.0	1.0	part_2
238	1.0	7.0			700.0	0.0	0.0							5.0	0.0	0.40081962116528297	5.0	550.0	1.0	8.0	1.0	3.0	0.0	part_2
239	1.0	7.0			700.0	0.0	0.0							5.0	0.0	0.4121804030583007	5.0	550.0	2.0	7.0	2.0	1.0	0.0	part_2
240	3.0	7.0			700.0	0.0	1.0							5.0	0.0	0.7297750442085089	5.0	550.0	1.0	6.0	5.0	7.0	1.0	part_2
241	3.0	7.0			650.0	0.0	1.0							5.0	0.0	0.719363823052845	5.0	550.0	3.0	1.0	7.0	4.0	1.0	part_2
242	1.0	7.0			600.0	0.0	0.0							6.0	0.0	0.5291887672574376	6.0	550.0	3.0	5.0	3.0	6.0	0.0	part_2
243	4.0	7.0			600.0	0.0	1.0							6.0	0.0	0.0	0.0	550.0	1.0	6.0	5.0	7.0	1.0	part_2
244	1.0	7.0			600.0	0.0	0.0							5.0	0.0	0.4969332152104471	5.0	600.0	3.0	5.0	3.0	6.0	0.0	part_2
245	1.0	7.0			600.0	0.0	0.0							5.0	0.0	0.4530320871053846	5.0	600.0	3.0	5.0	3.0	6.0	0.0	part_2
246	4.0	7.0			600.0	0.0	1.0							6.0	0.0	0.0	0.0	600.0	3.0	1.0	7.0	4.0	1.0	part_2
247	1.0	7.0			600.0	0.0	0.0							5.0	0.0	0.5316500641056336	5.0	650.0	3.0	5.0	3.0	6.0	0.0	part_2
248	1.0	7.0			600.0	0.0	0.0							6.0	0.0	0.3974116883182433	6.0	650.0	3.0	5.0	3.0	6.0	0.0	part_2
249	1.0	7.0			600.0	0.0	0.0							6.0	0.0	0.3541955224209232	6.0	650.0	3.0	5.0	3.0	6.0	0.0	part_2
250	3.0	7.0			600.0	0.0	1.0							5.0	0.0	0.3989524841017555	5.0	650.0	4.0	3.0	8.0	2.0	1.0	part_2
251	1.0	7.0			550.0	0.0	0.0							5.0	0.0	0.3666899882082362	5.0	650.0	4.0	2.0	4.0	8.0	0.0	part_2
252	1.0	8.0			550.0	0.0	0.0							6.0	0.0	0.5530439270587522	6.0	650.0	4.0	2.0	4.0	8.0	0.0	part_2
253	1.0	8.0			550.0	0.0	0.0							5.0	0.0	0.4626970842582523	5.0	650.0	2.0	7.0	2.0	1.0	0.0	part_2
254	1.0	8.0			550.0	0.0	0.0							6.0	0.0	0.30624384705151897	6.0	650.0	4.0	2.0	4.0	8.0	0.0	part_2
255	4.0	8.0			550.0	0.0	1.0							5.0	0.0	0.0	0.0	650.0	1.0	6.0	5.0	7.0	1.0	part_2
256	3.0	8.0			600.0	0.0	1.0							6.0	0.0	0.32050139916100306	6.0	650.0	2.0	4.0	6.0	5.0	1.0	part_2
257	1.0	8.0			600.0	0.0	0.0							5.0	0.0	0.3202192193639348	5.0	600.0	2.0	7.0	2.0	1.0	0.0	part_2
258	4.0	8.0			600.0	0.0	1.0							6.0	0.0	0.0	0.0	600.0	1.0	6.0	5.0	7.0	1.0	part_2
259	1.0	8.0			600.0	0.0	0.0							6.0	0.0	0.5028350640495773	6.0	650.0	4.0	2.0	4.0	8.0	0.0	part_2
260	3.0	8.0			600.0	0.0	1.0							5.0	0.0	0.3572210132042528	5.0	650.0	1.0	6.0	5.0	7.0	1.0	part_2
261	4.0	8.0			550.0	0.0	1.0							5.0	0.0	0.0	0.0	650.0	3.0	1.0	7.0	4.0	1.0	part_2
262	1.0	8.0			600.0	0.0	0.0							5.0	0.0	0.5263619343677419	5.0	650.0	4.0	2.0	4.0	8.0	0.0	part_2
263	1.0	8.0			600.0	0.0	0.0							6.0	0.0	0.5945416831600596	6.0	650.0	2.0	7.0	2.0	1.0	0.0	part_2
264	4.0	8.0			600.0	0.0	1.0							5.0	0.0	0.0	0.0	650.0	3.0	1.0	7.0	4.0	1.0	part_2
265	4.0	8.0			650.0	0.0	1.0							6.0	0.0	0.0	0.0	650.0	4.0	3.0	8.0	2.0	1.0	part_2
266	3.0	8.0			650.0	0.0	1.0							6.0	0.0	0.6996338741082582	6.0	700.0	4.0	3.0	8.0	2.0	1.0	part_2
267	1.0	8.0			650.0	0.0	0.0							5.0	0.0	0.508855632317136	5.0	650.0	1.0	8.0	1.0	3.0	0.0	part_2
268	1.0	8.0			650.0	0.0	0.0							6.0	0.0	0.4643218713099486	6.0	650.0	3.0	5.0	3.0	6.0	0.0	part_2
269	1.0	8.0			650.0	0.0	0.0							5.0	0.0	0.3082979553146288	5.0	650.0	3.0	5.0	3.0	6.0	0.0	part_2
270	1.0	8.0			650.0	0.0	0.0							6.0	0.0	0.3087257061561104	6.0	650.0	3.0	5.0	3.0	6.0	0.0	part_2
271	1.0	8.0			650.0	0.0	0.0							5.0	0.0	0.511029280423827	5.0	650.0	1.0	8.0	1.0	3.0	0.0	part_2
272	3.0	8.0			650.0	0.0	1.0							5.0	0.0	0.3895095330008189	5.0	650.0	1.0	6.0	5.0	7.0	1.0	part_2
273	1.0	8.0			600.0	0.0	0.0							6.0	0.0	0.3661914202093613	6.0	650.0	2.0	7.0	2.0	1.0	0.0	part_2
274	1.0	8.0			600.0	0.0	0.0							5.0	0.0	0.4803347662600572	5.0	650.0	2.0	7.0	2.0	1.0	0.0	part_2
275	1.0	8.0			600.0	0.0	0.0							6.0	0.0	0.2672821513697272	6.0	650.0	2.0	7.0	2.0	1.0	0.0	part_2
276	1.0	8.0			600.0	0.0	0.0							5.0	0.0	0.39124338405235903	5.0	650.0	4.0	2.0	4.0	8.0	0.0	part_2
277	1.0	8.0			600.0	0.0	0.0							6.0	0.0	0.2913150823151227	6.0	650.0	2.0	7.0	2.0	1.0	0.0	part_2
278	4.0	8.0			600.0	0.0	1.0							5.0	0.0	0.0	0.0	650.0	3.0	1.0	7.0	4.0	1.0	part_2
279	1.0	8.0			650.0	0.0	0.0							5.0	0.0	0.3615133441635408	5.0	650.0	1.0	8.0	1.0	3.0	0.0	part_2
280	3.0	8.0			650.0	0.0	1.0							5.0	0.0	0.3728448622568976	5.0	650.0	4.0	3.0	8.0	2.0	1.0	part_2
281	1.0	8.0			600.0	0.0	1.0							6.0	0.0	0.351003594318172	6.0	650.0	2.0	4.0	6.0	5.0	0.0	part_2
282	1.0	8.0			600.0	0.0	0.0							5.0	0.0	0.3750507282093167	5.0	650.0	1.0	8.0	1.0	3.0	0.0	part_2
283	4.0	8.0			600.0	0.0	1.0							5.0	0.0	0.0	0.0	650.0	1.0	6.0	5.0	7.0	1.0	part_2
284	1.0	8.0			650.0	0.0	0.0							6.0	0.0	0.3638449694190058	6.0	650.0	1.0	8.0	1.0	3.0	0.0	part_2
285	1.0	8.0			650.0	0.0	0.0							5.0	0.0	0.3086442268904648	5.0	650.0	3.0	5.0	3.0	6.0	0.0	part_2
286	1.0	8.0			650.0	0.0	1.0							5.0	0.0	0.3881724163147737	5.0	650.0	1.0	6.0	5.0	7.0	0.0	part_2
287	1.0	8.0			650.0	0.0	0.0							5.0	0.0	0.4002676161544514	5.0	650.0	4.0	2.0	4.0	8.0	0.0	part_2
0	0.0	1.0	270.0	5.0	0.0	2.0	1.0	108.0	54.0	270.0	324.0	162.0	216.0	7.0	0.0	1.8090664490009656	3.0	0.0	2.0	4.0	6.0	5.0	0.0	part_3
1	0.0	1.0	162.0	3.0	0.0	1.0	0.0	54.0	108.0	270.0	162.0	216.0	324.0	7.0	0.0	1.8551210622536016	4.0	0.0	1.0	8.0	1.0	3.0	0.0	part_3
2	0.0	1.0	162.0	3.0	0.0	1.0	1.0	162.0	108.0	270.0	324.0	216.0	54.0	7.0	0.0	1.0570430892475997	1.0	0.0	1.0	6.0	5.0	7.0	0.0	part_3
3	0.0	1.0	245.0	5.0	0.0	1.0	0.0	245.0	98.0	147.0	49.0	294.0	196.0	7.0	0.0	1.5861285987484737	1.0	0.0	4.0	2.0	4.0	8.0	0.0	part_3
4	0.0	1.0	195.0	5.0	0.0	1.0	1.0	39.0	234.0	117.0	195.0	156.0	78.0	7.0	0.0	1.969068375990901	4.0	0.0	3.0	1.0	7.0	4.0	0.0	part_3
5	0.0	1.0	98.0	2.0	0.0	1.0	0.0	49.0	98.0	294.0	196.0	147.0	245.0	7.0	0.0	1.2629720559853013	2.0	0.0	1.0	8.0	1.0	3.0	0.0	part_3
6	0.0	1.0	78.0	2.0	0.0	1.0	0.0	78.0	195.0	234.0	39.0	156.0	117.0	7.0	0.0	1.6683217012468958	1.0	0.0	1.0	8.0	1.0	3.0	0.0	part_3
7	0.0	1.0	156.0	4.0	0.0	1.0	1.0	156.0	117.0	195.0	39.0	234.0	78.0	7.0	0.0	2.4226077792482097	1.0	0.0	3.0	1.0	7.0	4.0	0.0	part_3
8	0.0	1.0	98.0	2.0	0.0	1.0	1.0	49.0	147.0	196.0	294.0	98.0	245.0	7.0	0.0	1.7260346012408263	5.0	0.0	1.0	6.0	5.0	7.0	0.0	part_3
9	0.0	1.0	34.0	1.0	0.0	1.0	0.0	68.0	102.0	136.0	204.0	34.0	170.0	7.0	0.0	1.873726487494423	5.0	0.0	4.0	2.0	4.0	8.0	0.0	part_3
10	0.0	1.0	170.0	5.0	0.0	1.0	1.0	136.0	34.0	102.0	170.0	204.0	68.0	7.0	0.0	2.1116007044838625	4.0	0.0	1.0	6.0	5.0	7.0	0.0	part_3
11	0.0	1.0	196.0	4.0	0.0	1.0	1.0	49.0	196.0	147.0	294.0	245.0	98.0	7.0	0.0	2.169163585742353	2.0	0.0	2.0	4.0	6.0	5.0	0.0	part_3
12	0.0	1.0	196.0	4.0	0.0	1.0	1.0	245.0	147.0	294.0	196.0	98.0	49.0	7.0	0.0	1.4619918619937382	4.0	0.0	3.0	1.0	7.0	4.0	0.0	part_3
13	0.0	1.0	78.0	2.0	0.0	1.0	1.0	234.0	195.0	39.0	117.0	156.0	78.0	7.0	0.0	1.821652794489637	6.0	0.0	1.0	6.0	5.0	7.0	0.0	part_3
14	0.0	1.0	204.0	6.0	0.0	1.0	1.0	68.0	102.0	204.0	34.0	136.0	170.0	7.0	0.0	1.7000314787437674	3.0	0.0	4.0	3.0	8.0	2.0	0.0	part_3
15	0.0	1.0	196.0	4.0	0.0	1.0	1.0	49.0	294.0	147.0	245.0	98.0	196.0	7.0	0.0	2.7580222779943138	6.0	0.0	4.0	3.0	8.0	2.0	0.0	part_3
16	0.0	1.0	204.0	6.0	0.0	1.0	0.0	136.0	204.0	68.0	170.0	34.0	102.0	7.0	0.0	2.4663202269875906	2.0	0.0	4.0	2.0	4.0	8.0	0.0	part_3
17	0.0	1.0	102.0	3.0	0.0	1.0	0.0	204.0	68.0	102.0	170.0	34.0	136.0	7.0	0.0	1.939807121241756	3.0	0.0	1.0	8.0	1.0	3.0	0.0	part_3
18	0.0	1.0	78.0	2.0	0.0	1.0	1.0	39.0	234.0	195.0	78.0	117.0	156.0	7.0	0.0	1.1754604437446687	4.0	0.0	2.0	4.0	6.0	5.0	0.0	part_3
19	0.0	1.0	234.0	6.0	0.0	1.0	0.0	156.0	78.0	195.0	39.0	234.0	117.0	7.0	0.0	1.8299597982404519	5.0	0.0	4.0	2.0	4.0	8.0	0.0	part_3
20	0.0	2.0	98.0	2.0	0.0	1.0	0.0	245.0	294.0	147.0	49.0	196.0	98.0	7.0	0.0	2.436217495240271	6.0	0.0	1.0	8.0	1.0	3.0	0.0	part_3
21	0.0	2.0	147.0	3.0	0.0	1.0	0.0	98.0	147.0	294.0	245.0	49.0	196.0	7.0	0.0	1.7268569629959534	2.0	0.0	3.0	5.0	3.0	6.0	0.0	part_3
22	0.0	2.0	68.0	2.0	0.0	1.0	0.0	68.0	102.0	136.0	170.0	34.0	204.0	7.0	0.0	1.5477736559914774	1.0	0.0	2.0	7.0	2.0	1.0	0.0	part_3
23	0.0	2.0	88.0	2.0	0.0	1.0	0.0	176.0	132.0	44.0	220.0	88.0	264.0	7.0	0.0	1.0767938699937076	5.0	0.0	2.0	7.0	2.0	1.0	0.0	part_3
24	0.0	2.0	220.0	5.0	0.0	1.0	0.0	220.0	264.0	132.0	176.0	44.0	88.0	7.0	0.0	1.7092970124940619	1.0	0.0	3.0	5.0	3.0	6.0	0.0	part_3
25	0.0	2.0	88.0	2.0	0.0	1.0	1.0	44.0	88.0	264.0	220.0	176.0	132.0	7.0	0.0	1.4291157654952258	2.0	0.0	1.0	6.0	5.0	7.0	0.0	part_3
26	0.0	2.0	270.0	5.0	0.0	1.0	0.0	162.0	54.0	216.0	270.0	324.0	108.0	7.0	0.0	2.227606011489115	4.0	0.0	4.0	2.0	4.0	8.0	0.0	part_3
27	0.0	2.0	204.0	6.0	0.0	1.0	1.0	136.0	170.0	204.0	102.0	34.0	68.0	7.0	0.0	1.8231495107538649	3.0	0.0	4.0	3.0	8.0	2.0	0.0	part_3
28	0.0	2.0	54.0	1.0	0.0	1.0	0.0	270.0	216.0	108.0	54.0	324.0	162.0	7.0	0.0	1.509424400246644	4.0	0.0	2.0	7.0	2.0	1.0	0.0	part_3
29	0.0	2.0	195.0	5.0	0.0	1.0	0.0	78.0	195.0	156.0	117.0	234.0	39.0	7.0	0.0	1.9058399059867952	2.0	0.0	3.0	5.0	3.0	6.0	0.0	part_3
30	0.0	2.0	78.0	2.0	0.0	1.0	1.0	195.0	117.0	39.0	78.0	156.0	234.0	7.0	0.0	1.7481434779911067	4.0	0.0	1.0	6.0	5.0	7.0	0.0	part_3
31	0.0	2.0	204.0	6.0	0.0	1.0	1.0	68.0	170.0	136.0	204.0	34.0	102.0	7.0	0.0	1.953033178244368	4.0	0.0	3.0	1.0	7.0	4.0	0.0	part_3
32	0.0	2.0	270.0	5.0	0.0	1.0	1.0	108.0	162.0	216.0	270.0	54.0	324.0	7.0	0.0	1.3356279752406408	4.0	0.0	4.0	3.0	8.0	2.0	0.0	part_3
33	0.0	2.0	216.0	4.0	0.0	1.0	1.0	108.0	54.0	270.0	162.0	216.0	324.0	7.0	0.0	1.8758401279919779	5.0	0.0	4.0	3.0	8.0	2.0	0.0	part_3
34	0.0	2.0	98.0	2.0	0.0	1.0	0.0	49.0	245.0	147.0	98.0	294.0	196.0	7.0	0.0	1.3704557662495065	4.0	0.0	2.0	7.0	2.0	1.0	0.0	part_3
35	0.0	2.0	220.0	5.0	0.0	1.0	1.0	264.0	132.0	44.0	220.0	176.0	88.0	7.0	0.0	2.1136501047512866	4.0	0.0	3.0	1.0	7.0	4.0	0.0	part_3
36	0.0	2.0	264.0	6.0	0.0	1.0	0.0	264.0	132.0	88.0	176.0	44.0	220.0	7.0	0.0	2.317601202237711	1.0	0.0	4.0	2.0	4.0	8.0	0.0	part_3
37	0.0	2.0	147.0	3.0	0.0	1.0	1.0	98.0	294.0	196.0	245.0	147.0	49.0	7.0	0.0	1.6331724484916776	5.0	0.0	2.0	4.0	6.0	5.0	0.0	part_3
38	0.0	2.0	156.0	4.0	0.0	1.0	0.0	117.0	156.0	78.0	39.0	195.0	234.0	7.0	0.0	1.5891883704825889	2.0	0.0	2.0	7.0	2.0	1.0	0.0	part_3
39	0.0	2.0	136.0	4.0	0.0	1.0	1.0	204.0	136.0	102.0	34.0	170.0	68.0	7.0	0.0	1.454253581490775	2.0	0.0	2.0	4.0	6.0	5.0	0.0	part_3
40	0.0	3.0	68.0	2.0	0.0	1.0	0.0	34.0	136.0	102.0	68.0	170.0	204.0	7.0	0.0	1.151051041240862	4.0	0.0	2.0	7.0	2.0	1.0	0.0	part_3
41	0.0	3.0	156.0	4.0	0.0	1.0	1.0	234.0	195.0	78.0	39.0	156.0	117.0	7.0	0.0	2.4476358842439367	5.0	0.0	4.0	3.0	8.0	2.0	0.0	part_3
42	0.0	3.0	44.0	1.0	0.0	1.0	0.0	132.0	176.0	220.0	88.0	44.0	264.0	7.0	0.0	1.5254260549918401	5.0	0.0	1.0	8.0	1.0	3.0	0.0	part_3
43	0.0	3.0	78.0	2.0	0.0	1.0	0.0	78.0	234.0	117.0	39.0	195.0	156.0	7.0	0.0	1.3027760204931838	1.0	0.0	2.0	7.0	2.0	1.0	0.0	part_3
44	0.0	3.0	108.0	2.0	0.0	1.0	1.0	54.0	216.0	162.0	108.0	324.0	270.0	7.0	0.0	1.0551290939984028	4.0	0.0	2.0	4.0	6.0	5.0	0.0	part_3
45	0.0	3.0	117.0	3.0	0.0	1.0	1.0	78.0	117.0	234.0	156.0	195.0	39.0	7.0	0.0	1.023216922993015	2.0	0.0	2.0	4.0	6.0	5.0	0.0	part_3
46	0.0	3.0	170.0	5.0	0.0	1.0	0.0	204.0	170.0	68.0	136.0	34.0	102.0	7.0	0.0	1.158583189244382	2.0	0.0	3.0	5.0	3.0	6.0	0.0	part_3
47	0.0	3.0	54.0	1.0	0.0	1.0	1.0	108.0	270.0	216.0	162.0	54.0	324.0	7.0	0.0	1.8920257529898663	5.0	0.0	1.0	6.0	5.0	7.0	0.0	part_3
48	0.0	3.0	147.0	3.0	0.0	1.0	0.0	147.0	245.0	49.0	294.0	98.0	196.0	7.0	0.0	1.9155880694961525	1.0	0.0	3.0	5.0	3.0	6.0	0.0	part_3
49	0.0	3.0	88.0	2.0	0.0	1.0	0.0	44.0	132.0	264.0	88.0	220.0	176.0	7.0	0.0	1.2282982309843646	4.0	0.0	4.0	2.0	4.0	8.0	0.0	part_3
50	0.0	3.0	54.0	1.0	0.0	1.0	0.0	162.0	324.0	54.0	108.0	270.0	216.0	7.0	0.0	1.1746440184942912	3.0	0.0	2.0	7.0	2.0	1.0	0.0	part_3
51	0.0	3.0	245.0	5.0	0.0	1.0	1.0	98.0	245.0	147.0	196.0	294.0	49.0	7.0	0.0	1.5123169324870105	2.0	0.0	3.0	1.0	7.0	4.0	0.0	part_3
52	0.0	3.0	176.0	4.0	0.0	1.0	0.0	44.0	176.0	88.0	220.0	264.0	132.0	7.0	0.0	1.9298394277502664	2.0	0.0	3.0	5.0	3.0	6.0	0.0	part_3
53	0.0	3.0	162.0	3.0	0.0	1.0	0.0	270.0	108.0	324.0	54.0	162.0	216.0	7.0	0.0	2.0318441237468505	5.0	0.0	3.0	5.0	3.0	6.0	0.0	part_3
54	0.0	3.0	34.0	1.0	0.0	1.0	0.0	136.0	170.0	34.0	68.0	102.0	204.0	7.0	0.0	1.0989657559912305	3.0	0.0	1.0	8.0	1.0	3.0	0.0	part_3
55	0.0	3.0	54.0	1.0	0.0	1.0	0.0	270.0	108.0	216.0	54.0	324.0	162.0	7.0	0.0	1.4604380734817823	4.0	0.0	1.0	8.0	1.0	3.0	0.0	part_3
56	0.0	3.0	270.0	5.0	0.0	1.0	1.0	270.0	108.0	54.0	216.0	162.0	324.0	7.0	0.0	1.6989633022385533	1.0	0.0	3.0	1.0	7.0	4.0	0.0	part_3
57	0.0	3.0	117.0	3.0	0.0	1.0	0.0	78.0	39.0	234.0	117.0	195.0	156.0	7.0	0.0	1.880447169998661	4.0	0.0	3.0	5.0	3.0	6.0	0.0	part_3
58	0.0	3.0	264.0	6.0	0.0	1.0	1.0	132.0	176.0	88.0	264.0	220.0	44.0	7.0	0.0	2.1399828297435306	4.0	0.0	3.0	1.0	7.0	4.0	0.0	part_3
59	0.0	3.0	245.0	5.0	0.0	1.0	0.0	245.0	147.0	294.0	196.0	49.0	98.0	7.0	0.0	2.534058300749166	1.0	0.0	4.0	2.0	4.0	8.0	0.0	part_3
60	0.0	4.0	270.0	5.0	0.0	1.0	0.0	324.0	216.0	54.0	162.0	270.0	108.0	7.0	0.0	2.169181693236169	5.0	0.0	4.0	2.0	4.0	8.0	0.0	part_3
61	0.0	4.0	44.0	1.0	0.0	1.0	0.0	176.0	132.0	44.0	264.0	220.0	88.0	7.0	0.0	1.1365290844914853	3.0	0.0	2.0	7.0	2.0	1.0	0.0	part_3
62	0.0	4.0	49.0	1.0	0.0	1.0	0.0	49.0	98.0	245.0	147.0	294.0	196.0	7.0	0.0	1.2377101622405462	1.0	0.0	2.0	7.0	2.0	1.0	0.0	part_3
63	0.0	4.0	245.0	5.0	0.0	1.0	1.0	196.0	147.0	49.0	245.0	98.0	294.0	7.0	0.0	1.823353541483812	4.0	0.0	4.0	3.0	8.0	2.0	0.0	part_3
64	0.0	4.0	136.0	4.0	0.0	1.0	1.0	204.0	136.0	68.0	102.0	170.0	34.0	7.0	0.0	1.4771001169938245	2.0	0.0	2.0	4.0	6.0	5.0	0.0	part_3
65	0.0	4.0	117.0	3.0	0.0	1.0	0.0	234.0	195.0	156.0	39.0	117.0	78.0	7.0	0.0	1.3310022224904972	5.0	0.0	1.0	8.0	1.0	3.0	0.0	part_3
66	0.0	4.0	270.0	5.0	0.0	1.0	1.0	216.0	108.0	324.0	54.0	270.0	162.0	7.0	0.0	1.8827055099973224	5.0	0.0	3.0	1.0	7.0	4.0	0.0	part_3
67	0.0	4.0	132.0	3.0	0.0	1.0	1.0	88.0	176.0	264.0	44.0	220.0	132.0	7.0	0.0	1.3444651112513384	6.0	0.0	2.0	4.0	6.0	5.0	0.0	part_3
68	0.0	4.0	49.0	1.0	0.0	1.0	1.0	147.0	245.0	98.0	49.0	294.0	196.0	7.0	0.0	0.9511298932484352	4.0	0.0	1.0	6.0	5.0	7.0	0.0	part_3
69	0.0	4.0	162.0	3.0	0.0	1.0	0.0	324.0	216.0	270.0	54.0	162.0	108.0	7.0	0.0	1.8649527249945093	5.0	0.0	3.0	5.0	3.0	6.0	0.0	part_3
70	0.0	4.0	220.0	5.0	0.0	1.0	1.0	264.0	88.0	132.0	176.0	44.0	220.0	7.0	0.0	2.0116037004845566	6.0	0.0	4.0	3.0	8.0	2.0	0.0	part_3
71	0.0	4.0	132.0	3.0	0.0	1.0	1.0	176.0	132.0	44.0	88.0	220.0	264.0	7.0	0.0	1.3146032729928263	2.0	0.0	2.0	4.0	6.0	5.0	0.0	part_3
72	0.0	4.0	204.0	6.0	0.0	1.0	1.0	102.0	34.0	68.0	204.0	170.0	136.0	7.0	0.0	1.7784837309882278	4.0	0.0	3.0	1.0	7.0	4.0	0.0	part_3
73	0.0	4.0	44.0	1.0	0.0	1.0	1.0	176.0	88.0	220.0	264.0	44.0	132.0	7.0	0.0	2.1849172534930403	5.0	0.0	1.0	6.0	5.0	7.0	0.0	part_3
74	0.0	4.0	195.0	5.0	0.0	1.0	1.0	156.0	117.0	195.0	78.0	39.0	234.0	7.0	0.0	3.0284943907463457	3.0	0.0	4.0	3.0	8.0	2.0	0.0	part_3
75	0.0	4.0	68.0	2.0	0.0	1.0	1.0	68.0	102.0	170.0	34.0	136.0	204.0	7.0	0.0	1.128356128494488	1.0	0.0	1.0	6.0	5.0	7.0	0.0	part_3
76	0.0	4.0	170.0	5.0	0.0	1.0	0.0	204.0	102.0	136.0	68.0	34.0	170.0	7.0	0.0	1.4218251112470168	6.0	0.0	3.0	5.0	3.0	6.0	0.0	part_3
77	0.0	4.0	234.0	6.0	0.0	1.0	0.0	39.0	234.0	117.0	78.0	195.0	156.0	7.0	0.0	2.670931442989968	2.0	0.0	4.0	2.0	4.0	8.0	0.0	part_3
78	0.0	4.0	220.0	5.0	0.0	1.0	1.0	88.0	220.0	44.0	264.0	176.0	132.0	7.0	0.0	1.525374450495292	2.0	0.0	4.0	3.0	8.0	2.0	0.0	part_3
79	0.0	4.0	220.0	5.0	0.0	1.0	0.0	264.0	176.0	44.0	132.0	220.0	88.0	7.0	0.0	1.9544575127438293	5.0	0.0	1.0	8.0	1.0	3.0	0.0	part_3
