	accuracy	block	chosen_bidding_amount	chosen_bidding_level	left_SSD	num_trial_presentations	paired_with_stopping	possible_bid_1	possible_bid_2	possible_bid_3	possible_bid_4	possible_bid_5	possible_bid_6	quadrant	raw_reward_magnitude	reaction_time	response	right_SSD	stepwise_reward_magnitude	stim_color	stim_reward	stim_shape	stop_signal_trial_type	which_part
0		1.0				1.0	1.0							1.0	75.0	0.4784469937440008	1.0		1.0	1.0	5.0	7.0		part_1
1		1.0				1.0	0.0							2.0	188.0	0.4332960417959839	2.0		3.0	6.0	3.0	8.0		part_1
2		1.0				1.0	0.0							3.0	178.0	0.3443552171811461	3.0		3.0	6.0	3.0	8.0		part_1
3		1.0				1.0	0.0							4.0	78.0	0.2887842992786318	4.0		2.0	5.0	2.0	1.0		part_1
4		1.0				1.0	1.0							2.0	118.0	0.3116261539980769	2.0		2.0	4.0	6.0	4.0		part_1
5		1.0				1.0	1.0							4.0	399.0	0.3007831757422537	4.0		4.0	2.0	8.0	3.0		part_1
6		1.0				1.0	1.0							1.0	86.0	0.3021883238106966	1.0		2.0	4.0	6.0	4.0		part_1
7		1.0				1.0	1.0							3.0	0.0	0.3122820353601128	3.0		0.0	1.0	5.0	7.0		part_1
8		1.0				1.0	1.0							2.0	0.0	0.3476767954416573	2.0		0.0	2.0	8.0	3.0		part_1
9		1.0				1.0	0.0							1.0	0.0	0.32467407430522144	1.0		0.0	5.0	2.0	1.0		part_1
10		1.0				1.0	0.0							2.0	52.0	0.3499541222117841	2.0		1.0	3.0	1.0	2.0		part_1
11		1.0				1.0	0.0							2.0	0.0	0.3387923049740493	2.0		0.0	8.0	4.0	6.0		part_1
12		1.0				1.0	0.0							3.0	419.0	0.32735519437119365	3.0		4.0	8.0	4.0	6.0		part_1
13		1.0				1.0	0.0							3.0	125.0	0.351118047721684	3.0		2.0	5.0	2.0	1.0		part_1
14		1.0				1.0	1.0							3.0	51.0	0.3509790229145437	3.0		1.0	1.0	5.0	7.0		part_1
15		1.0				1.0	1.0							4.0	58.0	0.3052727207541466	4.0		1.0	1.0	5.0	7.0		part_1
16		1.0				2.0	0.0							1.0	214.0	0.3527728400658816	1.0		3.0	6.0	3.0	8.0		part_1
17		1.0				1.0	0.0							2.0	63.0	0.3418693128041923	2.0		1.0	3.0	1.0	2.0		part_1
18		1.0				1.0	1.0							3.0	58.0	0.3299513629171997	3.0		1.0	1.0	5.0	7.0		part_1
19		1.0				1.0	0.0							2.0	124.0	0.377591700758785	2.0		2.0	5.0	2.0	1.0		part_1
20		1.0				1.0	1.0							3.0	82.0	0.3660202734172344	3.0		2.0	4.0	6.0	4.0		part_1
21		1.0				1.0	1.0							2.0	30.0	0.3658853492233902	2.0		1.0	1.0	5.0	7.0		part_1
22		1.0				1.0	0.0							1.0	379.0	0.3452243490610272	1.0		4.0	8.0	4.0	6.0		part_1
23		1.0				1.0	1.0							4.0	100.0	0.2998675829730928	4.0		2.0	4.0	6.0	4.0		part_1
24		1.0				1.0	1.0							1.0	33.0	0.3008209683466703	1.0		1.0	1.0	5.0	7.0		part_1
25		1.0				1.0	0.0							3.0	45.0	0.29980408726260066	3.0		1.0	3.0	1.0	2.0		part_1
26		1.0				1.0	1.0							3.0	423.0	0.3686832063831389	3.0		4.0	2.0	8.0	3.0		part_1
27		1.0				1.0	0.0							1.0	396.0	0.3813064466230571	1.0		4.0	8.0	4.0	6.0		part_1
28		1.0				1.0	1.0							4.0	0.0	0.29241607524454594	4.0		0.0	4.0	6.0	4.0		part_1
29		1.0				1.0	0.0							2.0	61.0	0.4392252145335078	2.0		1.0	3.0	1.0	2.0		part_1
30		1.0				1.0	1.0							2.0	384.0	0.3262163470499217	2.0		4.0	2.0	8.0	3.0		part_1
31		1.0				1.0	1.0							3.0	0.0	0.3938525298144668	3.0		0.0	7.0	7.0	5.0		part_1
32		1.0				1.0	1.0							2.0	402.0	0.31642476515844464	2.0		4.0	2.0	8.0	3.0		part_1
33		1.0				1.0	1.0							2.0	105.0	0.3275744465645403	2.0		2.0	4.0	6.0	4.0		part_1
34		1.0				1.0	0.0							4.0	194.0	0.2612041630782187	4.0		3.0	6.0	3.0	8.0		part_1
35		1.0				1.0	0.0							4.0	38.0	0.2960514142177999	4.0		1.0	3.0	1.0	2.0		part_1
36		1.0				1.0	0.0							2.0	0.0	0.3633638750761747	2.0		0.0	3.0	1.0	2.0		part_1
37		1.0				1.0	1.0							4.0	191.0	0.2734207205940038	4.0		3.0	7.0	7.0	5.0		part_1
38		1.0				1.0	0.0							4.0	220.0	0.3075495075900108	4.0		3.0	6.0	3.0	8.0		part_1
39		1.0				1.0	1.0							2.0	202.0	0.3197992732748389	2.0		3.0	7.0	7.0	5.0		part_1
40		1.0				1.0	0.0							1.0	0.0	0.4006446083076298	1.0		0.0	5.0	2.0	1.0		part_1
41		1.0				1.0	0.0							4.0	0.0	0.3339893806260079	4.0		0.0	8.0	4.0	6.0		part_1
42		1.0				2.0	1.0							2.0	45.0	0.35625946638174355	2.0		1.0	1.0	5.0	7.0		part_1
43		1.0				1.0	1.0							1.0	0.0	0.3230585271958262	1.0		0.0	4.0	6.0	4.0		part_1
44		1.0				1.0	0.0							4.0	390.0	0.4033407315146178	4.0		4.0	8.0	4.0	6.0		part_1
45		1.0				1.0	0.0							4.0	187.0	0.3461469891481101	4.0		3.0	6.0	3.0	8.0		part_1
46		1.0				1.0	0.0							1.0	188.0	0.2802962136920541	1.0		3.0	6.0	3.0	8.0		part_1
47		1.0				1.0	1.0							3.0	38.0	0.2916969645302743	3.0		1.0	1.0	5.0	7.0		part_1
48		1.0				1.0	0.0							3.0	69.0	0.3365909594576806	3.0		1.0	3.0	1.0	2.0		part_1
49		1.0				1.0	0.0							2.0	82.0	0.31558958860114217	2.0		2.0	5.0	2.0	1.0		part_1
50		1.0				1.0	0.0							4.0	191.0	0.4505503226537258	4.0		3.0	6.0	3.0	8.0		part_1
51		1.0				1.0	1.0							3.0	0.0	0.3938685082830489	3.0		0.0	1.0	5.0	7.0		part_1
52		1.0				1.0	0.0							4.0	103.0	0.30488911597058177	4.0		2.0	5.0	2.0	1.0		part_1
53		1.0				1.0	0.0							4.0	78.0	0.40690081170760095	4.0		2.0	5.0	2.0	1.0		part_1
54		1.0				1.0	1.0							1.0	33.0	0.32910612621344626	1.0		1.0	1.0	5.0	7.0		part_1
55		1.0				1.0	1.0							2.0	0.0	0.3416728402953595	2.0		0.0	7.0	7.0	5.0		part_1
56		1.0				1.0	0.0							1.0	195.0	0.3088859810959548	1.0		3.0	6.0	3.0	8.0		part_1
57		1.0				2.0	1.0							2.0	178.0	0.3096554593648761	2.0		3.0	7.0	7.0	5.0		part_1
58		1.0				1.0	1.0							1.0	0.0	0.2752116536721587	1.0		0.0	7.0	7.0	5.0		part_1
59		1.0				1.0	0.0							1.0	0.0	0.2979266652837396	1.0		0.0	5.0	2.0	1.0		part_1
60		1.0				1.0	1.0							3.0	188.0	0.3876994280144572	3.0		3.0	7.0	7.0	5.0		part_1
61		1.0				1.0	0.0							2.0	109.0	0.2988555850461125	2.0		2.0	5.0	2.0	1.0		part_1
62		1.0				1.0	1.0							3.0	0.0	0.3671934322919697	3.0		0.0	7.0	7.0	5.0		part_1
63		1.0				1.0	1.0							2.0	208.0	0.457797886338085	2.0		3.0	7.0	7.0	5.0		part_1
64		1.0				1.0	1.0							1.0	223.0	0.2683280298952013	1.0		3.0	7.0	7.0	5.0		part_1
65		1.0				1.0	0.0							2.0	0.0	0.3020455783698708	2.0		0.0	8.0	4.0	6.0		part_1
66		1.0				1.0	1.0							2.0	0.0	0.3472274888772517	2.0		0.0	4.0	6.0	4.0		part_1
67		1.0				2.0	1.0							4.0	0.0	0.5169900963082911	4.0		0.0	4.0	6.0	4.0		part_1
68		1.0				1.0	0.0							4.0	44.0	0.3601867123506963	4.0		1.0	3.0	1.0	2.0		part_1
69		1.0				1.0	1.0							1.0	124.0	0.3380726515315473	1.0		2.0	4.0	6.0	4.0		part_1
70		1.0				1.0	1.0							1.0	90.0	0.3739071940071881	1.0		2.0	4.0	6.0	4.0		part_1
71		1.0				1.0	0.0							3.0	50.0	0.3160000292118639	3.0		1.0	3.0	1.0	2.0		part_1
72		1.0				1.0	1.0							4.0	124.0	0.2263773400336504	4.0		2.0	4.0	6.0	4.0		part_1
73		1.0				1.0	0.0							1.0	100.0	0.2742191830184311	1.0		2.0	5.0	2.0	1.0		part_1
74		1.0				1.0	1.0							4.0	28.0	0.2851944658905268	4.0		1.0	1.0	5.0	7.0		part_1
75		1.0				1.0	1.0							4.0	396.0	0.28498259698972106	4.0		4.0	2.0	8.0	3.0		part_1
76		1.0				1.0	1.0							4.0	0.0	0.31971120345406234	4.0		0.0	7.0	7.0	5.0		part_1
77		1.0				1.0	0.0							3.0	124.0	0.2631773985922337	3.0		2.0	5.0	2.0	1.0		part_1
78		1.0				1.0	1.0							1.0	103.0	0.35442405659705395	1.0		2.0	4.0	6.0	4.0		part_1
79		1.0				1.0	1.0							2.0	34.0	0.29891356360167265	2.0		1.0	1.0	5.0	7.0		part_1
80		1.0				1.0	0.0							4.0	383.0	0.2532607838511467	4.0		4.0	8.0	4.0	6.0		part_1
81		1.0				1.0	0.0							2.0	178.0	0.31106163607910275	2.0		3.0	6.0	3.0	8.0		part_1
82		1.0				1.0	0.0							3.0	0.0	0.3120183665305376	3.0		0.0	6.0	3.0	8.0		part_1
83		1.0				1.0	0.0							1.0	0.0	0.3122496472205967	1.0		0.0	6.0	3.0	8.0		part_1
84		1.0				1.0	1.0							2.0	61.0	0.3362979772500694	2.0		1.0	1.0	5.0	7.0		part_1
85		1.0				1.0	1.0							4.0	406.0	0.2568125219549984	4.0		4.0	2.0	8.0	3.0		part_1
86		1.0				1.0	0.0							4.0	377.0	0.27912335889413953	4.0		4.0	8.0	4.0	6.0		part_1
87		1.0				1.0	1.0							4.0	187.0	0.35862750140950084	4.0		3.0	7.0	7.0	5.0		part_1
88		1.0				1.0	1.0							4.0	0.0	0.2589606670662761	4.0		0.0	7.0	7.0	5.0		part_1
89		1.0				1.0	0.0							1.0	189.0	0.3842020025476813	1.0		3.0	6.0	3.0	8.0		part_1
90		1.0				1.0	1.0							4.0	80.0	0.27147791790775955	4.0		2.0	4.0	6.0	4.0		part_1
91		1.0				1.0	1.0							4.0	63.0	0.3055593341123313	4.0		1.0	1.0	5.0	7.0		part_1
92		1.0				2.0	1.0							3.0	89.0	0.2959592614788562	3.0		2.0	4.0	6.0	4.0		part_1
93		1.0				1.0	0.0							1.0	48.0	0.30729021900333464	1.0		1.0	3.0	1.0	2.0		part_1
94		1.0				1.0	1.0							3.0	106.0	0.2747129101771861	3.0		2.0	4.0	6.0	4.0		part_1
95		1.0				1.0	1.0							3.0	392.0	0.2965285701211542	3.0		4.0	2.0	8.0	3.0		part_1
96		1.0				1.0	0.0							3.0	86.0	0.3319307502824813	3.0		2.0	5.0	2.0	1.0		part_1
97		1.0				1.0	1.0							1.0	188.0	0.2988435188308358	1.0		3.0	7.0	7.0	5.0		part_1
98		1.0				1.0	0.0							1.0	59.0	0.32221671380102634	1.0		1.0	3.0	1.0	2.0		part_1
99		1.0				1.0	1.0							3.0	99.0	0.3448487697169185	3.0		2.0	4.0	6.0	4.0		part_1
100		2.0				1.0	1.0							1.0	78.0	0.41086707985959947	1.0		2.0	4.0	6.0	4.0		part_1
101		2.0				1.0	1.0							3.0	418.0	0.27493289508856833	3.0		4.0	2.0	8.0	3.0		part_1
102		2.0				1.0	1.0							4.0	395.0	0.2769601005129516	4.0		4.0	2.0	8.0	3.0		part_1
103		2.0				2.0	0.0							1.0	0.0	0.2885280237533152	1.0		0.0	8.0	4.0	6.0		part_1
104		2.0				1.0	0.0							3.0	213.0	0.3009646008722484	3.0		3.0	6.0	3.0	8.0		part_1
105		2.0				1.0	1.0							4.0	0.0	0.2891744202934205	4.0		0.0	4.0	6.0	4.0		part_1
106		2.0				1.0	0.0							3.0	423.0	0.2902659978717565	3.0		4.0	8.0	4.0	6.0		part_1
107		2.0				1.0	0.0							1.0	182.0	0.29218342970125377	1.0		3.0	6.0	3.0	8.0		part_1
108		2.0				1.0	1.0							3.0	183.0	0.2573488296475261	3.0		3.0	7.0	7.0	5.0		part_1
109		2.0				1.0	0.0							4.0	99.0	0.2351710859220475	4.0		2.0	5.0	2.0	1.0		part_1
110		2.0				1.0	1.0							4.0	42.0	0.3162336947862059	4.0		1.0	1.0	5.0	7.0		part_1
111		2.0				1.0	1.0							2.0	218.0	0.3152707796543837	2.0		3.0	7.0	7.0	5.0		part_1
112		2.0				2.0	1.0							3.0	184.0	0.40712381759658456	3.0		3.0	7.0	7.0	5.0		part_1
113		2.0				1.0	0.0							3.0	87.0	0.3165663746185601	3.0		2.0	5.0	2.0	1.0		part_1
114		2.0				1.0	0.0							3.0	28.0	0.3399792911950499	3.0		1.0	3.0	1.0	2.0		part_1
115		2.0				1.0	1.0							4.0	116.0	0.27303849207237363	4.0		2.0	4.0	6.0	4.0		part_1
116		2.0				1.0	1.0							4.0	59.0	0.4088463697116822	4.0		1.0	1.0	5.0	7.0		part_1
117		2.0				1.0	1.0							2.0	203.0	0.3085301402024925	2.0		3.0	7.0	7.0	5.0		part_1
118		2.0				1.0	1.0							3.0	92.0	0.3092758555430919	3.0		2.0	4.0	6.0	4.0		part_1
119		2.0				1.0	1.0							1.0	114.0	0.4781856478657574	1.0		2.0	4.0	6.0	4.0		part_1
120		2.0				1.0	0.0							2.0	383.0	0.3885014657862485	2.0		4.0	8.0	4.0	6.0		part_1
121		2.0				1.0	1.0							4.0	194.0	0.3096855466719717	4.0		3.0	7.0	7.0	5.0		part_1
122		2.0				1.0	1.0							2.0	0.0	0.33501636399887497	2.0		0.0	1.0	5.0	7.0		part_1
123		2.0				1.0	0.0							1.0	34.0	0.3241105938795954	1.0		1.0	3.0	1.0	2.0		part_1
124		2.0				1.0	0.0							2.0	418.0	0.42595100426115096	2.0		4.0	8.0	4.0	6.0		part_1
125		2.0				1.0	1.0							3.0	383.0	0.34693678258918226	3.0		4.0	2.0	8.0	3.0		part_1
126		2.0				1.0	1.0							2.0	176.0	0.3598135893698782	2.0		3.0	7.0	7.0	5.0		part_1
127		2.0				1.0	1.0							4.0	70.0	0.33618872123770416	4.0		1.0	1.0	5.0	7.0		part_1
128		2.0				1.0	1.0							1.0	202.0	0.4058451435994357	1.0		3.0	7.0	7.0	5.0		part_1
129		2.0				1.0	0.0							3.0	406.0	0.3251455056015402	3.0		4.0	8.0	4.0	6.0		part_1
130		2.0				1.0	0.0							4.0	207.0	0.32721942430362105	4.0		3.0	6.0	3.0	8.0		part_1
131		2.0				1.0	0.0							1.0	424.0	0.32705892669036984	1.0		4.0	8.0	4.0	6.0		part_1
132		2.0				1.0	0.0							2.0	0.0	0.3845995485316962	2.0		0.0	5.0	2.0	1.0		part_1
133		2.0				1.0	0.0							4.0	30.0	0.3166732252575457	4.0		1.0	3.0	1.0	2.0		part_1
134		2.0				1.0	1.0							2.0	206.0	0.3749005612917245	2.0		3.0	7.0	7.0	5.0		part_1
135		2.0				1.0	1.0							1.0	0.0	0.32958317990414804	1.0		0.0	2.0	8.0	3.0		part_1
136		2.0				1.0	0.0							2.0	117.0	0.35225355345755816	2.0		2.0	5.0	2.0	1.0		part_1
137		2.0				1.0	0.0							3.0	0.0	0.533360700821504	3.0		0.0	5.0	2.0	1.0		part_1
138		2.0				1.0	1.0							1.0	392.0	0.3316816498991102	1.0		4.0	2.0	8.0	3.0		part_1
139		2.0				1.0	0.0							4.0	221.0	0.5784915965050459	4.0		3.0	6.0	3.0	8.0		part_1
140		2.0				1.0	1.0							4.0	45.0	0.3892630455084145	4.0		1.0	1.0	5.0	7.0		part_1
141		2.0				1.0	0.0							2.0	55.0	0.3562897320371121	2.0		1.0	3.0	1.0	2.0		part_1
142		2.0				1.0	1.0							1.0	62.0	0.3124638176523149	1.0		1.0	1.0	5.0	7.0		part_1
143		2.0				1.0	1.0							4.0	195.0	0.3337660413235426	4.0		3.0	7.0	7.0	5.0		part_1
144		2.0				1.0	0.0							3.0	219.0	0.4017354915849865	3.0		3.0	6.0	3.0	8.0		part_1
145		2.0				1.0	1.0							2.0	0.0	0.3241948240902275	2.0		0.0	1.0	5.0	7.0		part_1
146		2.0				1.0	0.0							1.0	0.0	0.3470115759409964	1.0		0.0	6.0	3.0	8.0		part_1
147		2.0				1.0	1.0							3.0	379.0	0.35784877580590546	3.0		4.0	2.0	8.0	3.0		part_1
148		2.0				1.0	0.0							3.0	78.0	0.3709276432637125	3.0		2.0	5.0	2.0	1.0		part_1
149		2.0				1.0	0.0							1.0	0.0	0.3817342668771744	1.0		0.0	3.0	1.0	2.0		part_1
150		2.0				1.0	1.0							3.0	69.0	0.40576603170484304	3.0		1.0	1.0	5.0	7.0		part_1
151		2.0				1.0	1.0							4.0	93.0	0.32717034686356783	4.0		2.0	4.0	6.0	4.0		part_1
152		2.0				1.0	1.0							2.0	85.0	0.3164333312306553	2.0		2.0	4.0	6.0	4.0		part_1
153		2.0				1.0	1.0							2.0	419.0	0.3408929219003767	2.0		4.0	2.0	8.0	3.0		part_1
154		2.0				1.0	0.0							2.0	202.0	0.3641841739881784	2.0		3.0	6.0	3.0	8.0		part_1
155		2.0				1.0	1.0							2.0	111.0	0.32901449012570083	2.0		2.0	4.0	6.0	4.0		part_1
156		2.0				1.0	1.0							4.0	214.0	0.29634742555208504	4.0		3.0	7.0	7.0	5.0		part_1
157		2.0				1.0	0.0							4.0	414.0	0.3858776716515422	4.0		4.0	8.0	4.0	6.0		part_1
158		2.0				1.0	0.0							3.0	423.0	0.3095744166057557	3.0		4.0	8.0	4.0	6.0		part_1
159		2.0				1.0	1.0							2.0	106.0	0.33253742498345673	2.0		2.0	4.0	6.0	4.0		part_1
160		2.0				1.0	1.0							2.0	392.0	0.34353632992133504	2.0		4.0	2.0	8.0	3.0		part_1
161		2.0				1.0	1.0							4.0	423.0	0.3782913244795054	4.0		4.0	2.0	8.0	3.0		part_1
162		2.0				1.0	1.0							1.0	377.0	0.3669801417272538	1.0		4.0	2.0	8.0	3.0		part_1
163		2.0				1.0	0.0							4.0	0.0	0.2996334091294557	4.0		0.0	3.0	1.0	2.0		part_1
164		2.0				1.0	1.0							4.0	0.0	0.4462709832005203	4.0		0.0	2.0	8.0	3.0		part_1
165		2.0				1.0	0.0							1.0	195.0	0.3231259642634541	1.0		3.0	6.0	3.0	8.0		part_1
166		2.0				1.0	0.0							1.0	118.0	0.3708127136342228	1.0		2.0	5.0	2.0	1.0		part_1
167		2.0				1.0	1.0							3.0	0.0	0.2900141265708953	3.0		0.0	4.0	6.0	4.0		part_1
168		2.0				1.0	0.0							2.0	183.0	0.3715407098643482	2.0		3.0	6.0	3.0	8.0		part_1
169		2.0				1.0	1.0							4.0	0.0	0.34927989123389125	4.0		0.0	1.0	5.0	7.0		part_1
170		2.0				1.0	0.0							1.0	0.0	0.3489065223839134	1.0		0.0	5.0	2.0	1.0		part_1
171		2.0				1.0	0.0							1.0	104.0	0.8561334086116403	1.0		2.0	5.0	2.0	1.0		part_1
172		2.0				1.0	0.0							3.0	71.0	0.4622188389766961	3.0		1.0	3.0	1.0	2.0		part_1
173		2.0				1.0	1.0							4.0	418.0	0.4532532102894038	4.0		4.0	2.0	8.0	3.0		part_1
174		2.0				1.0	1.0							2.0	220.0	0.4746574375312776	2.0		3.0	7.0	7.0	5.0		part_1
175		2.0				1.0	1.0							2.0	418.0	0.340610533952713	2.0		4.0	2.0	8.0	3.0		part_1
176		2.0				1.0	0.0							3.0	424.0	0.3749874390196055	3.0		4.0	8.0	4.0	6.0		part_1
177		2.0				1.0	1.0							4.0	395.0	0.34071948658674955	4.0		4.0	2.0	8.0	3.0		part_1
178		2.0				1.0	1.0							4.0	106.0	0.2850570932496339	4.0		2.0	4.0	6.0	4.0		part_1
179		2.0				1.0	1.0							1.0	117.0	0.2980383704416454	1.0		2.0	4.0	6.0	4.0		part_1
180		2.0				1.0	1.0							1.0	99.0	0.2979456747416407	1.0		2.0	4.0	6.0	4.0		part_1
181		2.0				1.0	1.0							1.0	183.0	0.5008063707500696	1.0		3.0	7.0	7.0	5.0		part_1
182		2.0				1.0	1.0							2.0	118.0	0.37813880294561386	2.0		2.0	4.0	6.0	4.0		part_1
183		2.0				1.0	1.0							3.0	215.0	0.2885281518101692	3.0		3.0	7.0	7.0	5.0		part_1
184		2.0				1.0	0.0							2.0	45.0	0.33543219370767474	2.0		1.0	3.0	1.0	2.0		part_1
185		2.0				1.0	0.0							3.0	0.0	0.4924596326891333	3.0		0.0	6.0	3.0	8.0		part_1
186		2.0				1.0	0.0							2.0	211.0	0.3475789555814117	2.0		3.0	6.0	3.0	8.0		part_1
187		2.0				1.0	1.0							1.0	0.0	0.38252401491627097	1.0		0.0	2.0	8.0	3.0		part_1
188		2.0				1.0	1.0							3.0	59.0	0.3241767429281026	3.0		1.0	1.0	5.0	7.0		part_1
189		2.0				1.0	0.0							2.0	400.0	0.36049814382568	2.0		4.0	8.0	4.0	6.0		part_1
190		2.0				1.0	0.0							1.0	392.0	0.3504227362573147	1.0		4.0	8.0	4.0	6.0		part_1
191		2.0				1.0	0.0							4.0	89.0	0.3151282232720405	4.0		2.0	5.0	2.0	1.0		part_1
192		2.0				1.0	1.0							1.0	0.0	0.3282122812233865	1.0		0.0	1.0	5.0	7.0		part_1
193		2.0				1.0	1.0							2.0	406.0	0.32927820016629994	2.0		4.0	2.0	8.0	3.0		part_1
194		2.0				1.0	1.0							2.0	60.0	0.3169550276361406	2.0		1.0	1.0	5.0	7.0		part_1
195		2.0				1.0	0.0							3.0	38.0	0.4411848373711109	3.0		1.0	3.0	1.0	2.0		part_1
196		2.0				1.0	0.0							3.0	380.0	0.4082138000521809	3.0		4.0	8.0	4.0	6.0		part_1
197		2.0				1.0	1.0							2.0	0.0	0.3520133465062827	2.0		0.0	2.0	8.0	3.0		part_1
198		2.0				1.0	0.0							2.0	99.0	0.3540908771101385	2.0		2.0	5.0	2.0	1.0		part_1
199		2.0				2.0	0.0							1.0	114.0	0.3657043925486505	1.0		2.0	5.0	2.0	1.0		part_1
200		3.0				1.0	0.0							2.0	36.0	0.7097941520623863	2.0		1.0	3.0	1.0	2.0		part_1
201		3.0				1.0	0.0							3.0	379.0	0.3267937279306352	3.0		4.0	8.0	4.0	6.0		part_1
202		3.0				1.0	1.0							1.0	27.0	0.2837327118031681	1.0		1.0	1.0	5.0	7.0		part_1
203		3.0				1.0	1.0							1.0	423.0	0.3056601758580655	1.0		4.0	2.0	8.0	3.0		part_1
204		3.0				1.0	1.0							2.0	0.0	0.3851908158976585	2.0		0.0	1.0	5.0	7.0		part_1
205		3.0				1.0	1.0							4.0	414.0	0.41999353352002794	4.0		4.0	2.0	8.0	3.0		part_1
206		3.0				1.0	0.0							1.0	27.0	0.4210586766712368	1.0		1.0	3.0	1.0	2.0		part_1
207		3.0				1.0	0.0							1.0	60.0	0.26327402726747096	1.0		1.0	3.0	1.0	2.0		part_1
208		3.0				1.0	0.0							3.0	111.0	0.3656440472695977	3.0		2.0	5.0	2.0	1.0		part_1
209		3.0				1.0	0.0							1.0	58.0	0.3419823565054685	1.0		1.0	3.0	1.0	2.0		part_1
210		3.0				1.0	0.0							4.0	412.0	0.27485326235182583	4.0		4.0	8.0	4.0	6.0		part_1
211		3.0				1.0	0.0							2.0	0.0	0.3096266090869904	2.0		0.0	6.0	3.0	8.0		part_1
212		3.0				1.0	0.0							1.0	0.0	0.3903018811251968	1.0		0.0	5.0	2.0	1.0		part_1
213		3.0				1.0	1.0							1.0	0.0	0.4134578960947693	1.0		0.0	2.0	8.0	3.0		part_1
214		3.0				1.0	0.0							1.0	40.0	0.3568245694041252	1.0		1.0	3.0	1.0	2.0		part_1
215		3.0				2.0	0.0							2.0	0.0	0.3692489385139197	2.0		0.0	8.0	4.0	6.0		part_1
216		3.0				1.0	0.0							4.0	124.0	0.34728431957773864	4.0		2.0	5.0	2.0	1.0		part_1
217		3.0				1.0	0.0							2.0	204.0	0.3707944548223168	2.0		3.0	6.0	3.0	8.0		part_1
218		3.0				1.0	1.0							2.0	400.0	0.394037535879761	2.0		4.0	2.0	8.0	3.0		part_1
219		3.0				1.0	0.0							2.0	85.0	0.3384511820040643	2.0		2.0	5.0	2.0	1.0		part_1
220		3.0				1.0	1.0							1.0	52.0	0.3508942467160523	1.0		1.0	1.0	5.0	7.0		part_1
221		3.0				1.0	0.0							2.0	402.0	0.3730270431842655	2.0		4.0	8.0	4.0	6.0		part_1
222		3.0				1.0	1.0							3.0	195.0	0.3717435982543975	3.0		3.0	7.0	7.0	5.0		part_1
223		3.0				1.0	0.0							3.0	203.0	0.5650763895828277	3.0		3.0	6.0	3.0	8.0		part_1
224		3.0				1.0	0.0							2.0	106.0	0.3629334629513323	2.0		2.0	5.0	2.0	1.0		part_1
225		3.0				1.0	1.0							3.0	418.0	0.43101518880575895	3.0		4.0	2.0	8.0	3.0		part_1
226		3.0				1.0	0.0							1.0	0.0	0.3752625151537359	1.0		0.0	6.0	3.0	8.0		part_1
227		3.0				1.0	1.0							2.0	109.0	0.331632794579491	2.0		2.0	4.0	6.0	4.0		part_1
228		3.0				1.0	1.0							4.0	87.0	0.3757633303757757	4.0		2.0	4.0	6.0	4.0		part_1
229		3.0				1.0	0.0							4.0	105.0	0.3316674956586212	4.0		2.0	5.0	2.0	1.0		part_1
230		3.0				1.0	1.0							3.0	55.0	0.4787277097348124	3.0		1.0	1.0	5.0	7.0		part_1
231		3.0				1.0	1.0							4.0	42.0	0.4459563912823796	4.0		1.0	1.0	5.0	7.0		part_1
232		3.0				1.0	0.0							1.0	101.0	0.32328585255891085	1.0		2.0	5.0	2.0	1.0		part_1
233		3.0				1.0	1.0							1.0	101.0	0.3227146544959396	1.0		2.0	4.0	6.0	4.0		part_1
234		3.0				1.0	1.0							2.0	0.0	0.35672838403843343	2.0		0.0	4.0	6.0	4.0		part_1
235		3.0				1.0	1.0							1.0	0.0	0.413894034223631	1.0		0.0	2.0	8.0	3.0		part_1
236		3.0				1.0	0.0							4.0	58.0	0.6512851074803621	4.0		1.0	3.0	1.0	2.0		part_1
237		3.0				1.0	0.0							1.0	0.0	0.5051176669076085	1.0		0.0	5.0	2.0	1.0		part_1
238		3.0				1.0	1.0							4.0	78.0	0.7865277652163059	4.0		2.0	4.0	6.0	4.0		part_1
239		3.0				1.0	0.0							2.0	0.0	0.43800225923769176	2.0		0.0	3.0	1.0	2.0		part_1
240		3.0				1.0	0.0							3.0	70.0	0.3939880135003477	3.0		1.0	3.0	1.0	2.0		part_1
241		3.0				1.0	0.0							4.0	118.0	0.6198987257666886	4.0		2.0	5.0	2.0	1.0		part_1
242		3.0				1.0	1.0							3.0	213.0	0.360958666075021	3.0		3.0	7.0	7.0	5.0		part_1
243		3.0				1.0	1.0							4.0	221.0	0.31599199888296425	4.0		3.0	7.0	7.0	5.0		part_1
244		3.0				1.0	1.0							3.0	390.0	0.3621757463552058	3.0		4.0	2.0	8.0	3.0		part_1
245		3.0				1.0	0.0							4.0	382.0	0.3060300529468805	4.0		4.0	8.0	4.0	6.0		part_1
246		3.0				1.0	0.0							2.0	191.0	0.5659423070028424	2.0		3.0	6.0	3.0	8.0		part_1
247		3.0				1.0	0.0							3.0	183.0	0.4535172225441784	3.0		3.0	6.0	3.0	8.0		part_1
248		3.0				1.0	1.0							1.0	221.0	0.3654812332242727	1.0		3.0	7.0	7.0	5.0		part_1
249		3.0				1.0	0.0							3.0	208.0	0.34295038040727377	3.0		3.0	6.0	3.0	8.0		part_1
250		3.0				1.0	0.0							1.0	389.0	0.35414415993727744	1.0		4.0	8.0	4.0	6.0		part_1
251		3.0				1.0	0.0							1.0	106.0	0.3453597635962069	1.0		2.0	5.0	2.0	1.0		part_1
252		3.0				1.0	1.0							4.0	0.0	0.4672004682943225	4.0		0.0	7.0	7.0	5.0		part_1
253		3.0				1.0	0.0							4.0	0.0	0.3560351526830345	4.0		0.0	6.0	3.0	8.0		part_1
254		3.0				1.0	1.0							4.0	424.0	0.3106719763018191	4.0		4.0	2.0	8.0	3.0		part_1
255		3.0				1.0	0.0							4.0	182.0	0.48024121904745704	4.0		3.0	6.0	3.0	8.0		part_1
256		3.0				1.0	0.0							4.0	410.0	0.3568628241773695	4.0		4.0	8.0	4.0	6.0		part_1
257		3.0				1.0	0.0							3.0	80.0	0.3695003483444452	3.0		2.0	5.0	2.0	1.0		part_1
258		3.0				1.0	1.0							3.0	219.0	0.4381982744671405	3.0		3.0	7.0	7.0	5.0		part_1
259		3.0				1.0	0.0							2.0	224.0	0.3713331918697804	2.0		3.0	6.0	3.0	8.0		part_1
260		3.0				1.0	0.0							1.0	218.0	0.30359880765900016	1.0		3.0	6.0	3.0	8.0		part_1
261		3.0				1.0	1.0							1.0	389.0	0.3725979379378259	1.0		4.0	2.0	8.0	3.0		part_1
262		3.0				1.0	1.0							2.0	0.0	0.4848471956793219	2.0		0.0	1.0	5.0	7.0		part_1
263		3.0				1.0	0.0							2.0	193.0	0.3618897625710815	2.0		3.0	6.0	3.0	8.0		part_1
264		3.0				1.0	0.0							1.0	0.0	0.3731930104549974	1.0		0.0	8.0	4.0	6.0		part_1
265		3.0				1.0	0.0							2.0	392.0	0.5087334669660777	2.0		4.0	8.0	4.0	6.0		part_1
266		3.0				1.0	0.0							3.0	57.0	0.7138455915264785	3.0		1.0	3.0	1.0	2.0		part_1
267		3.0				1.0	0.0							4.0	223.0	0.5887859272770584	4.0		3.0	6.0	3.0	8.0		part_1
268		3.0				1.0	0.0							3.0	116.0	0.4648703143466264	3.0		2.0	5.0	2.0	1.0		part_1
269		3.0				1.0	0.0							2.0	0.0	0.3326303549110889	2.0		0.0	5.0	2.0	1.0		part_1
270		3.0				1.0	0.0							3.0	0.0	0.32058514817617834	3.0		0.0	3.0	1.0	2.0		part_1
271		3.0				1.0	0.0							1.0	87.0	0.3559027696028352	1.0		2.0	5.0	2.0	1.0		part_1
272		3.0				1.0	0.0							1.0	0.0	0.3099382126238197	1.0		0.0	8.0	4.0	6.0		part_1
273		3.0				1.0	0.0							3.0	106.0	0.2760067628696561	3.0		2.0	5.0	2.0	1.0		part_1
274		3.0				1.0	1.0							1.0	0.0	0.2995127344038337	1.0		0.0	1.0	5.0	7.0		part_1
275		3.0				1.0	1.0							3.0	424.0	0.3348063253797591	3.0		4.0	2.0	8.0	3.0		part_1
276		3.0				1.0	1.0							3.0	44.0	0.3585867877118289	3.0		1.0	1.0	5.0	7.0		part_1
277		3.0				1.0	1.0							4.0	69.0	0.27972737047821283	4.0		1.0	1.0	5.0	7.0		part_1
278		3.0				1.0	0.0							4.0	44.0	0.31501738820225	4.0		1.0	3.0	1.0	2.0		part_1
279		3.0				1.0	1.0							2.0	40.0	0.3928949194960296	2.0		1.0	1.0	5.0	7.0		part_1
280		3.0				1.0	1.0							1.0	71.0	0.3382731815800071	1.0		1.0	1.0	5.0	7.0		part_1
281		3.0				1.0	0.0							4.0	176.0	0.4726623594760895	4.0		3.0	6.0	3.0	8.0		part_1
282		3.0				1.0	0.0							1.0	90.0	0.3719576552975923	1.0		2.0	5.0	2.0	1.0		part_1
283		3.0				1.0	1.0							4.0	379.0	0.4287591048050672	4.0		4.0	2.0	8.0	3.0		part_1
284		3.0				1.0	1.0							4.0	0.0	0.3179771639406681	4.0		0.0	7.0	7.0	5.0		part_1
285		3.0				1.0	0.0							1.0	395.0	0.4316495133098215	1.0		4.0	8.0	4.0	6.0		part_1
286		3.0				1.0	1.0							1.0	57.0	0.36235290858894587	1.0		1.0	1.0	5.0	7.0		part_1
287		3.0				1.0	1.0							3.0	114.0	0.3635291513055563	3.0		2.0	4.0	6.0	4.0		part_1
288		3.0				1.0	0.0							1.0	401.0	0.35415831790305674	1.0		4.0	8.0	4.0	6.0		part_1
289		3.0				1.0	1.0							3.0	69.0	0.421641276916489	3.0		1.0	1.0	5.0	7.0		part_1
290		3.0				1.0	0.0							4.0	399.0	0.4109634067863226	4.0		4.0	8.0	4.0	6.0		part_1
291		3.0				1.0	1.0							4.0	0.0	0.4102592542767525	4.0		0.0	4.0	6.0	4.0		part_1
292		3.0				2.0	0.0							3.0	0.0	0.3432982456870377	3.0		0.0	5.0	2.0	1.0		part_1
293		3.0				1.0	1.0							2.0	50.0	0.4140256561804563	2.0		1.0	1.0	5.0	7.0		part_1
294		3.0				1.0	1.0							3.0	111.0	0.6493302865419537	3.0		2.0	4.0	6.0	4.0		part_1
295		3.0				1.0	1.0							1.0	382.0	0.5602527817245573	1.0		4.0	2.0	8.0	3.0		part_1
296		3.0				1.0	0.0							3.0	202.0	0.5143448561429977	3.0		3.0	6.0	3.0	8.0		part_1
297		3.0				1.0	1.0							4.0	0.0	0.33569848886691034	4.0		0.0	2.0	8.0	3.0		part_1
298		3.0				1.0	0.0							4.0	69.0	0.3365921082440764	4.0		1.0	3.0	1.0	2.0		part_1
299		3.0				1.0	1.0							4.0	0.0	0.3032259037718177	4.0		0.0	1.0	5.0	7.0		part_1
300		4.0				1.0	0.0							3.0	423.0	0.4677662178874016	3.0		4.0	8.0	4.0	6.0		part_1
301		4.0				1.0	1.0							1.0	0.0	0.3098960919305682	1.0		0.0	2.0	8.0	3.0		part_1
302		4.0				1.0	0.0							1.0	94.0	0.2875809639226645	1.0		2.0	5.0	2.0	1.0		part_1
303		4.0				1.0	1.0							3.0	38.0	0.2766559442970902	3.0		1.0	1.0	5.0	7.0		part_1
304		4.0				1.0	1.0							3.0	44.0	0.36663820780813694	3.0		1.0	1.0	5.0	7.0		part_1
305		4.0				1.0	1.0							3.0	125.0	0.3560883526224643	3.0		2.0	4.0	6.0	4.0		part_1
306		4.0				1.0	0.0							1.0	80.0	0.30082511133514345	1.0		2.0	5.0	2.0	1.0		part_1
307		4.0				1.0	1.0							1.0	191.0	0.3019556144718081	1.0		3.0	7.0	7.0	5.0		part_1
308		4.0				1.0	1.0							3.0	124.0	0.2678952419664711	3.0		2.0	4.0	6.0	4.0		part_1
309		4.0				1.0	1.0							1.0	0.0	0.3031342490576208	1.0		0.0	7.0	7.0	5.0		part_1
310		4.0				1.0	1.0							3.0	401.0	0.29209125228226185	3.0		4.0	2.0	8.0	3.0		part_1
311		4.0				1.0	1.0							1.0	80.0	0.28110555093735456	1.0		2.0	4.0	6.0	4.0		part_1
312		4.0				2.0	1.0							1.0	390.0	0.31661086855456233	1.0		4.0	2.0	8.0	3.0		part_1
313		4.0				1.0	1.0							1.0	189.0	0.3179779765196145	1.0		3.0	7.0	7.0	5.0		part_1
314		4.0				1.0	0.0							1.0	384.0	0.25013088691048324	1.0		4.0	8.0	4.0	6.0		part_1
315		4.0				1.0	0.0							2.0	221.0	0.3868415681645274	2.0		3.0	6.0	3.0	8.0		part_1
316		4.0				1.0	0.0							3.0	75.0	0.32919971505179996	3.0		1.0	3.0	1.0	2.0		part_1
317		4.0				1.0	0.0							4.0	114.0	0.29709787340834737	4.0		2.0	5.0	2.0	1.0		part_1
318		4.0				1.0	1.0							3.0	183.0	0.2751027613412589	3.0		3.0	7.0	7.0	5.0		part_1
319		4.0				1.0	0.0							2.0	78.0	0.30901303724385804	2.0		2.0	5.0	2.0	1.0		part_1
320		4.0				1.0	0.0							3.0	202.0	0.32095738989301026	3.0		3.0	6.0	3.0	8.0		part_1
321		4.0				1.0	0.0							2.0	93.0	0.35535934870131314	2.0		2.0	5.0	2.0	1.0		part_1
322		4.0				1.0	0.0							3.0	183.0	0.27700413507409394	3.0		3.0	6.0	3.0	8.0		part_1
323		4.0				1.0	0.0							3.0	390.0	0.2989319982007146	3.0		4.0	8.0	4.0	6.0		part_1
324		4.0				1.0	0.0							3.0	42.0	0.44681350979954	3.0		1.0	3.0	1.0	2.0		part_1
325		4.0				1.0	1.0							2.0	412.0	0.3927713986486197	2.0		4.0	2.0	8.0	3.0		part_1
326		4.0				1.0	1.0							4.0	224.0	0.3142580222338438	4.0		3.0	7.0	7.0	5.0		part_1
327		4.0				1.0	0.0							2.0	74.0	0.5393171922769397	2.0		1.0	3.0	1.0	2.0		part_1
328		4.0				1.0	0.0							2.0	392.0	0.3719098684377968	2.0		4.0	8.0	4.0	6.0		part_1
329		4.0				1.0	1.0							2.0	39.0	0.3487787956837565	2.0		1.0	1.0	5.0	7.0		part_1
330		4.0				1.0	0.0							1.0	0.0	0.34897776297293603	1.0		0.0	3.0	1.0	2.0		part_1
331		4.0				1.0	1.0							1.0	388.0	0.3715000208467245	1.0		4.0	2.0	8.0	3.0		part_1
332		4.0				1.0	0.0							1.0	0.0	0.4174055061303079	1.0		0.0	3.0	1.0	2.0		part_1
333		4.0				1.0	0.0							3.0	206.0	0.3495299159549177	3.0		3.0	6.0	3.0	8.0		part_1
334		4.0				1.0	0.0							1.0	0.0	0.3847913814242929	1.0		0.0	8.0	4.0	6.0		part_1
335		4.0				1.0	0.0							4.0	33.0	0.27222108421847224	4.0		1.0	3.0	1.0	2.0		part_1
336		4.0				1.0	0.0							4.0	0.0	0.3071447839029133	4.0		0.0	6.0	3.0	8.0		part_1
337		4.0				1.0	1.0							3.0	207.0	0.3194706796202809	3.0		3.0	7.0	7.0	5.0		part_1
338		4.0				1.0	1.0							2.0	48.0	0.3323904408607632	2.0		1.0	1.0	5.0	7.0		part_1
339		4.0				1.0	0.0							2.0	0.0	0.3892823113128543	2.0		0.0	3.0	1.0	2.0		part_1
340		4.0				1.0	0.0							4.0	189.0	0.2769388686865568	4.0		3.0	6.0	3.0	8.0		part_1
341		4.0				2.0	1.0							1.0	178.0	0.2781947636976838	1.0		3.0	7.0	7.0	5.0		part_1
342		4.0				1.0	0.0							4.0	62.0	0.3334890571422875	4.0		1.0	3.0	1.0	2.0		part_1
343		4.0				1.0	0.0							3.0	0.0	0.3118324356619269	3.0		0.0	3.0	1.0	2.0		part_1
344		4.0				1.0	1.0							1.0	410.0	0.4132994038518518	1.0		4.0	2.0	8.0	3.0		part_1
345		4.0				1.0	1.0							4.0	204.0	0.3251034419517964	4.0		3.0	7.0	7.0	5.0		part_1
346		4.0				1.0	0.0							3.0	111.0	0.26855354593135417	3.0		2.0	5.0	2.0	1.0		part_1
347		4.0				1.0	1.0							2.0	104.0	0.29303278983570635	2.0		2.0	4.0	6.0	4.0		part_1
348		4.0				1.0	0.0							2.0	418.0	0.26868410338647664	2.0		4.0	8.0	4.0	6.0		part_1
349		4.0				1.0	1.0							4.0	74.0	0.25967065361328423	4.0		1.0	1.0	5.0	7.0		part_1
350		4.0				1.0	1.0							1.0	0.0	0.36027884925715625	1.0		0.0	7.0	7.0	5.0		part_1
351		4.0				1.0	0.0							3.0	0.0	0.248199155787006	3.0		0.0	6.0	3.0	8.0		part_1
352		4.0				1.0	1.0							2.0	202.0	0.35068299761042	2.0		3.0	7.0	7.0	5.0		part_1
353		4.0				1.0	1.0							2.0	101.0	0.30559642636217177	2.0		2.0	4.0	6.0	4.0		part_1
354		4.0				1.0	1.0							4.0	78.0	0.3179527947213501	4.0		2.0	4.0	6.0	4.0		part_1
355		4.0				1.0	0.0							2.0	39.0	0.35163265466690063	2.0		1.0	3.0	1.0	2.0		part_1
356		4.0				1.0	1.0							3.0	87.0	0.3516496082302183	3.0		2.0	4.0	6.0	4.0		part_1
357		4.0				1.0	0.0							3.0	0.0	0.3650200045667589	3.0		0.0	6.0	3.0	8.0		part_1
358		4.0				1.0	0.0							1.0	406.0	0.5013901460915804	1.0		4.0	8.0	4.0	6.0		part_1
359		4.0				1.0	0.0							1.0	33.0	0.33173585729673505	1.0		1.0	3.0	1.0	2.0		part_1
360		4.0				1.0	0.0							1.0	221.0	0.3777797715738416	1.0		3.0	6.0	3.0	8.0		part_1
361		4.0				1.0	1.0							4.0	0.0	0.31028763530775905	4.0		0.0	2.0	8.0	3.0		part_1
362		4.0				1.0	1.0							4.0	78.0	0.34586823056451976	4.0		2.0	4.0	6.0	4.0		part_1
363		4.0				1.0	1.0							4.0	0.0	0.2675662916153669	4.0		0.0	4.0	6.0	4.0		part_1
364		4.0				1.0	1.0							2.0	36.0	0.34510719776153564	2.0		1.0	1.0	5.0	7.0		part_1
365		4.0				1.0	1.0							1.0	33.0	0.32501332834362984	1.0		1.0	1.0	5.0	7.0		part_1
366		4.0				1.0	0.0							4.0	399.0	0.3366629818920046	4.0		4.0	8.0	4.0	6.0		part_1
367		4.0				1.0	0.0							2.0	418.0	0.4164684538263828	2.0		4.0	8.0	4.0	6.0		part_1
368		4.0				1.0	1.0							1.0	383.0	0.33658094168640673	1.0		4.0	2.0	8.0	3.0		part_1
369		4.0				1.0	1.0							4.0	221.0	0.4043910491745919	4.0		3.0	7.0	7.0	5.0		part_1
370		4.0				1.0	0.0							2.0	51.0	0.32594728004187346	2.0		1.0	3.0	1.0	2.0		part_1
371		4.0				1.0	1.0							2.0	0.0	0.2813383375760168	2.0		0.0	4.0	6.0	4.0		part_1
372		4.0				1.0	0.0							2.0	384.0	0.2835231753997505	2.0		4.0	8.0	4.0	6.0		part_1
373		4.0				1.0	0.0							1.0	184.0	0.3284898274578154	1.0		3.0	6.0	3.0	8.0		part_1
374		4.0				1.0	1.0							4.0	182.0	0.36217549024149776	4.0		3.0	7.0	7.0	5.0		part_1
375		4.0				1.0	0.0							1.0	215.0	0.4860730634536594	1.0		3.0	6.0	3.0	8.0		part_1
376		4.0				1.0	0.0							4.0	33.0	0.32978757191449404	4.0		1.0	3.0	1.0	2.0		part_1
377		4.0				1.0	0.0							2.0	69.0	0.4310972117818892	2.0		1.0	3.0	1.0	2.0		part_1
378		4.0				1.0	1.0							2.0	406.0	0.376102100359276	2.0		4.0	2.0	8.0	3.0		part_1
379		4.0				1.0	0.0							1.0	59.0	0.3668762005399913	1.0		1.0	3.0	1.0	2.0		part_1
380		4.0				1.0	1.0							3.0	380.0	0.3542284013237804	3.0		4.0	2.0	8.0	3.0		part_1
381		4.0				1.0	1.0							1.0	193.0	0.27662915317341685	1.0		3.0	7.0	7.0	5.0		part_1
382		4.0				1.0	0.0							3.0	0.0	0.33426440064795315	3.0		0.0	8.0	4.0	6.0		part_1
383		4.0				2.0	0.0							2.0	388.0	0.3231244161725044	2.0		4.0	8.0	4.0	6.0		part_1
384		4.0				1.0	0.0							2.0	101.0	0.32289419579319656	2.0		2.0	5.0	2.0	1.0		part_1
385		4.0				1.0	0.0							1.0	40.0	0.2913950353395194	1.0		1.0	3.0	1.0	2.0		part_1
386		4.0				1.0	1.0							2.0	211.0	0.3254943233914673	2.0		3.0	7.0	7.0	5.0		part_1
387		4.0				1.0	1.0							1.0	384.0	0.2922234106808901	1.0		4.0	2.0	8.0	3.0		part_1
388		4.0				1.0	0.0							4.0	406.0	0.3381874435581267	4.0		4.0	8.0	4.0	6.0		part_1
389		4.0				1.0	1.0							2.0	399.0	0.3274347910191864	2.0		4.0	2.0	8.0	3.0		part_1
390		4.0				1.0	0.0							3.0	395.0	0.38326644827611744	3.0		4.0	8.0	4.0	6.0		part_1
391		4.0				1.0	0.0							4.0	92.0	0.2945944753009826	4.0		2.0	5.0	2.0	1.0		part_1
392		4.0				1.0	0.0							2.0	0.0	0.31828654487617314	2.0		0.0	3.0	1.0	2.0		part_1
393		4.0				1.0	0.0							4.0	42.0	0.3395532798022032	4.0		1.0	3.0	1.0	2.0		part_1
394		4.0				1.0	0.0							4.0	0.0	0.3518866668455303	4.0		0.0	8.0	4.0	6.0		part_1
395		4.0				1.0	0.0							1.0	418.0	0.3858840845059604	1.0		4.0	8.0	4.0	6.0		part_1
396		4.0				1.0	1.0							1.0	182.0	0.2868558755144477	1.0		3.0	7.0	7.0	5.0		part_1
397		4.0				1.0	1.0							3.0	189.0	0.33090979675762355	3.0		3.0	7.0	7.0	5.0		part_1
398		4.0				1.0	1.0							2.0	94.0	0.4337449688464403	2.0		2.0	4.0	6.0	4.0		part_1
399		4.0				1.0	1.0							1.0	40.0	0.28832131065428257	1.0		1.0	1.0	5.0	7.0		part_1
0	1.0	1.0			250.0	0.0	0.0							6.0	0.0	0.4533677101135254	6.0	250.0	4.0	8.0	4.0	6.0	0.0	part_2
1	1.0	1.0			250.0	0.0	0.0							5.0	0.0	0.3534221053123474	5.0	250.0	4.0	8.0	4.0	6.0	0.0	part_2
2	4.0	1.0			250.0	0.0	1.0							5.0	0.0	0.0	0.0	250.0	4.0	2.0	8.0	3.0	1.0	part_2
3	4.0	1.0			300.0	0.0	1.0							5.0	0.0	0.0	0.0	250.0	2.0	4.0	6.0	4.0	1.0	part_2
4	4.0	1.0			350.0	0.0	1.0							5.0	0.0	0.0	0.0	250.0	4.0	2.0	8.0	3.0	1.0	part_2
5	1.0	1.0			400.0	0.0	0.0							5.0	0.0	0.5829399970825762	5.0	250.0	3.0	6.0	3.0	8.0	0.0	part_2
6	4.0	1.0			400.0	0.0	1.0							6.0	0.0	0.0	0.0	250.0	2.0	4.0	6.0	4.0	1.0	part_2
7	4.0	1.0			400.0	0.0	1.0							6.0	0.0	0.0	0.0	300.0	3.0	7.0	7.0	5.0	1.0	part_2
8	1.0	1.0			400.0	0.0	0.0							6.0	0.0	0.7532853661105037	6.0	350.0	4.0	8.0	4.0	6.0	0.0	part_2
9	4.0	1.0			400.0	0.0	1.0							5.0	0.0	0.0	0.0	350.0	3.0	7.0	7.0	5.0	1.0	part_2
10	1.0	1.0			450.0	0.0	0.0							6.0	0.0	0.9009285201318562	6.0	350.0	1.0	3.0	1.0	2.0	0.0	part_2
11	4.0	1.0			450.0	0.0	1.0							6.0	0.0	0.0	0.0	350.0	2.0	4.0	6.0	4.0	1.0	part_2
12	1.0	1.0			450.0	0.0	0.0							6.0	0.0	0.6333403352182359	6.0	400.0	4.0	8.0	4.0	6.0	0.0	part_2
13	3.0	1.0			450.0	0.0	1.0							5.0	0.0	0.3081224584020674	5.0	400.0	1.0	1.0	5.0	7.0	1.0	part_2
14	4.0	1.0			400.0	0.0	1.0							5.0	0.0	0.0	0.0	400.0	4.0	2.0	8.0	3.0	1.0	part_2
15	1.0	1.0			450.0	0.0	0.0							6.0	0.0	0.3765629418194294	6.0	400.0	3.0	6.0	3.0	8.0	0.0	part_2
16	4.0	1.0			450.0	0.0	1.0							6.0	0.0	0.0	0.0	400.0	3.0	7.0	7.0	5.0	1.0	part_2
17	1.0	1.0			450.0	0.0	0.0							6.0	0.0	0.4457602174952626	6.0	450.0	2.0	5.0	2.0	1.0	0.0	part_2
18	1.0	1.0			450.0	0.0	0.0							6.0	0.0	0.5931398493703455	6.0	450.0	2.0	5.0	2.0	1.0	0.0	part_2
19	3.0	1.0			450.0	0.0	1.0							5.0	0.0	0.3569894090760499	5.0	450.0	4.0	2.0	8.0	3.0	1.0	part_2
20	1.0	1.0			400.0	0.0	0.0							6.0	0.0	0.5600627493113279	6.0	450.0	2.0	5.0	2.0	1.0	0.0	part_2
21	4.0	1.0			400.0	0.0	1.0							5.0	0.0	0.0	0.0	450.0	3.0	7.0	7.0	5.0	1.0	part_2
22	4.0	1.0			450.0	0.0	1.0							5.0	0.0	0.0	0.0	450.0	1.0	1.0	5.0	7.0	1.0	part_2
23	1.0	1.0			500.0	0.0	0.0							6.0	0.0	0.6978781162761152	6.0	450.0	4.0	8.0	4.0	6.0	0.0	part_2
24	1.0	1.0			500.0	0.0	0.0							5.0	0.0	0.3510778190102428	5.0	450.0	4.0	8.0	4.0	6.0	0.0	part_2
25	4.0	1.0			500.0	0.0	1.0							5.0	0.0	0.0	0.0	450.0	4.0	2.0	8.0	3.0	1.0	part_2
26	1.0	1.0			550.0	0.0	0.0							6.0	0.0	0.7584531670436263	6.0	450.0	1.0	3.0	1.0	2.0	0.0	part_2
27	3.0	1.0			550.0	0.0	1.0							6.0	0.0	0.30762511934153736	6.0	450.0	1.0	1.0	5.0	7.0	1.0	part_2
28	1.0	1.0			550.0	0.0	0.0							6.0	0.0	0.7699242343660444	6.0	400.0	3.0	6.0	3.0	8.0	0.0	part_2
29	4.0	1.0			550.0	0.0	1.0							6.0	0.0	0.0	0.0	400.0	4.0	2.0	8.0	3.0	1.0	part_2
30	4.0	1.0			550.0	0.0	1.0							6.0	0.0	0.0	0.0	450.0	2.0	4.0	6.0	4.0	1.0	part_2
31	1.0	1.0			550.0	0.0	1.0							6.0	0.0	0.6386783982161433	6.0	500.0	2.0	4.0	6.0	4.0	0.0	part_2
32	1.0	1.0			550.0	0.0	0.0							5.0	0.0	0.6279831051360816	5.0	500.0	1.0	3.0	1.0	2.0	0.0	part_2
33	1.0	1.0			550.0	0.0	0.0							6.0	0.0	0.5716298751067371	6.0	500.0	3.0	6.0	3.0	8.0	0.0	part_2
34	3.0	1.0			550.0	0.0	1.0							5.0	0.0	0.3470995638053864	5.0	500.0	2.0	4.0	6.0	4.0	1.0	part_2
35	3.0	1.0			500.0	0.0	1.0							6.0	0.0	0.5973993164952844	6.0	500.0	1.0	1.0	5.0	7.0	1.0	part_2
36	1.0	2.0			500.0	0.0	0.0							6.0	0.0	1.1696071263868362	6.0	450.0	4.0	8.0	4.0	6.0	0.0	part_2
37	3.0	2.0			500.0	0.0	1.0							5.0	0.0	0.32804239797405893	5.0	450.0	2.0	4.0	6.0	4.0	1.0	part_2
38	4.0	2.0			450.0	0.0	1.0							6.0	0.0	0.0	0.0	450.0	2.0	4.0	6.0	4.0	1.0	part_2
39	3.0	2.0			450.0	0.0	1.0							5.0	0.0	0.24019063031300905	5.0	500.0	3.0	7.0	7.0	5.0	1.0	part_2
40	1.0	2.0			400.0	0.0	0.0							6.0	0.0	0.2508182541932911	6.0	500.0	4.0	8.0	4.0	6.0	0.0	part_2
41	4.0	2.0			400.0	0.0	1.0							6.0	0.0	0.0	0.0	500.0	2.0	4.0	6.0	4.0	1.0	part_2
42	4.0	2.0			400.0	0.0	1.0							5.0	0.0	0.0	0.0	550.0	3.0	7.0	7.0	5.0	1.0	part_2
43	1.0	2.0			450.0	0.0	0.0							6.0	0.0	0.3987159309908748	6.0	550.0	1.0	3.0	1.0	2.0	0.0	part_2
44	1.0	2.0			450.0	0.0	1.0							6.0	0.0	0.6699432611931115	6.0	550.0	3.0	7.0	7.0	5.0	0.0	part_2
45	3.0	2.0			450.0	0.0	1.0							6.0	0.0	0.6263270464260131	6.0	550.0	4.0	2.0	8.0	3.0	1.0	part_2
46	1.0	2.0			450.0	0.0	0.0							6.0	0.0	0.7727720693219453	6.0	500.0	2.0	5.0	2.0	1.0	0.0	part_2
47	1.0	2.0			450.0	0.0	0.0							6.0	0.0	0.5843432792462409	6.0	500.0	3.0	6.0	3.0	8.0	0.0	part_2
48	1.0	2.0			450.0	0.0	0.0							6.0	0.0	0.3250701150391251	6.0	500.0	3.0	6.0	3.0	8.0	0.0	part_2
49	1.0	2.0			450.0	0.0	1.0							6.0	0.0	0.3484468462411314	6.0	500.0	4.0	2.0	8.0	3.0	0.0	part_2
50	1.0	2.0			450.0	0.0	0.0							5.0	0.0	0.36050094617530704	5.0	500.0	3.0	6.0	3.0	8.0	0.0	part_2
51	4.0	2.0			450.0	0.0	1.0							5.0	0.0	0.0	0.0	500.0	1.0	1.0	5.0	7.0	1.0	part_2
52	1.0	2.0			500.0	0.0	0.0							5.0	0.0	0.6654245899990201	5.0	500.0	1.0	3.0	1.0	2.0	0.0	part_2
53	1.0	2.0			500.0	0.0	0.0							6.0	0.0	0.6446269382722676	6.0	500.0	2.0	5.0	2.0	1.0	0.0	part_2
54	1.0	2.0			500.0	0.0	0.0							6.0	0.0	0.3086452709976584	6.0	500.0	4.0	8.0	4.0	6.0	0.0	part_2
55	3.0	2.0			500.0	0.0	1.0							6.0	0.0	0.4431402939371765	6.0	500.0	2.0	4.0	6.0	4.0	1.0	part_2
56	1.0	2.0			500.0	0.0	0.0							6.0	0.0	0.8147958230692893	6.0	450.0	3.0	6.0	3.0	8.0	0.0	part_2
57	1.0	2.0			500.0	0.0	0.0							5.0	0.0	0.3333711070008576	5.0	450.0	1.0	3.0	1.0	2.0	0.0	part_2
58	1.0	2.0			500.0	0.0	0.0							5.0	0.0	0.36699295113794506	5.0	450.0	3.0	6.0	3.0	8.0	0.0	part_2
59	4.0	2.0			500.0	0.0	1.0							5.0	0.0	0.0	0.0	450.0	1.0	1.0	5.0	7.0	1.0	part_2
60	1.0	2.0			550.0	0.0	0.0							6.0	0.0	0.42415920249186456	6.0	450.0	1.0	3.0	1.0	2.0	0.0	part_2
61	1.0	2.0			550.0	0.0	1.0							5.0	0.0	0.7972081261686981	5.0	450.0	1.0	1.0	5.0	7.0	0.0	part_2
62	3.0	2.0			550.0	0.0	1.0							6.0	0.0	0.9667948421556504	6.0	450.0	1.0	1.0	5.0	7.0	1.0	part_2
63	1.0	2.0			550.0	0.0	0.0							6.0	0.0	0.7304611932486296	6.0	400.0	1.0	3.0	1.0	2.0	0.0	part_2
64	1.0	2.0			550.0	0.0	1.0							6.0	0.0	1.0133092633914202	6.0	400.0	4.0	2.0	8.0	3.0	0.0	part_2
65	1.0	2.0			550.0	0.0	0.0							6.0	0.0	0.5072795532178134	6.0	400.0	4.0	8.0	4.0	6.0	0.0	part_2
66	1.0	2.0			550.0	0.0	0.0							6.0	0.0	0.4858758763875812	6.0	400.0	2.0	5.0	2.0	1.0	0.0	part_2
67	4.0	2.0			550.0	0.0	1.0							5.0	0.0	0.0	0.0	400.0	1.0	1.0	5.0	7.0	1.0	part_2
68	1.0	2.0			600.0	0.0	1.0							5.0	0.0	0.7361098250839859	5.0	400.0	2.0	4.0	6.0	4.0	0.0	part_2
69	1.0	2.0			600.0	0.0	0.0							5.0	0.0	0.3437003623694181	5.0	400.0	1.0	3.0	1.0	2.0	0.0	part_2
70	3.0	2.0			600.0	0.0	1.0							6.0	0.0	0.4788821111433208	6.0	400.0	3.0	7.0	7.0	5.0	1.0	part_2
71	4.0	2.0			600.0	0.0	1.0							6.0	0.0	0.0	0.0	350.0	4.0	2.0	8.0	3.0	1.0	part_2
72	1.0	3.0			600.0	0.0	1.0							6.0	0.0	0.4848728240467608	6.0	400.0	3.0	7.0	7.0	5.0	0.0	part_2
73	3.0	3.0			600.0	0.0	1.0							5.0	0.0	0.5655348801519722	5.0	400.0	1.0	1.0	5.0	7.0	1.0	part_2
74	1.0	3.0			550.0	0.0	0.0							6.0	0.0	0.9137208091560752	6.0	400.0	1.0	3.0	1.0	2.0	0.0	part_2
75	1.0	3.0			550.0	0.0	1.0							5.0	0.0	0.6449102812912315	5.0	400.0	3.0	7.0	7.0	5.0	0.0	part_2
76	3.0	3.0			550.0	0.0	1.0							5.0	0.0	0.3430806649848819	5.0	400.0	4.0	2.0	8.0	3.0	1.0	part_2
77	4.0	3.0			500.0	0.0	1.0							5.0	0.0	0.0	0.0	400.0	2.0	4.0	6.0	4.0	1.0	part_2
78	1.0	3.0			550.0	0.0	0.0							5.0	0.0	0.7716103200800717	5.0	400.0	1.0	3.0	1.0	2.0	0.0	part_2
79	3.0	3.0			550.0	0.0	1.0							5.0	0.0	0.7284516973886639	5.0	400.0	2.0	4.0	6.0	4.0	1.0	part_2
80	1.0	3.0			500.0	0.0	0.0							6.0	0.0	0.4248488864395768	6.0	400.0	1.0	3.0	1.0	2.0	0.0	part_2
81	4.0	3.0			500.0	0.0	1.0							6.0	0.0	0.0	0.0	400.0	4.0	2.0	8.0	3.0	1.0	part_2
82	1.0	3.0			500.0	0.0	0.0							5.0	0.0	0.6846969698090106	5.0	450.0	2.0	5.0	2.0	1.0	0.0	part_2
83	1.0	3.0			500.0	0.0	0.0							5.0	0.0	0.7317563851829618	5.0	450.0	1.0	3.0	1.0	2.0	0.0	part_2
84	1.0	3.0			500.0	0.0	1.0							5.0	0.0	0.31449861405417323	5.0	450.0	1.0	1.0	5.0	7.0	0.0	part_2
85	1.0	3.0			500.0	0.0	0.0							5.0	0.0	0.8443154601845891	5.0	450.0	2.0	5.0	2.0	1.0	0.0	part_2
86	3.0	3.0			500.0	0.0	1.0							6.0	0.0	0.384293282404542	6.0	450.0	1.0	1.0	5.0	7.0	1.0	part_2
87	1.0	3.0			500.0	0.0	0.0							6.0	0.0	0.7112732771784067	6.0	400.0	2.0	5.0	2.0	1.0	0.0	part_2
88	1.0	3.0			500.0	0.0	0.0							6.0	0.0	0.37439498235471547	6.0	400.0	1.0	3.0	1.0	2.0	0.0	part_2
89	1.0	3.0			500.0	0.0	0.0							5.0	0.0	0.2963029302190989	5.0	400.0	2.0	5.0	2.0	1.0	0.0	part_2
90	3.0	3.0			500.0	0.0	1.0							6.0	0.0	0.3316769949160516	6.0	400.0	4.0	2.0	8.0	3.0	1.0	part_2
91	1.0	3.0			500.0	0.0	0.0							6.0	0.0	0.682346384273842	6.0	350.0	1.0	3.0	1.0	2.0	0.0	part_2
92	1.0	3.0			500.0	0.0	1.0							5.0	0.0	0.7268224400468171	5.0	350.0	1.0	1.0	5.0	7.0	0.0	part_2
93	1.0	3.0			500.0	0.0	0.0							5.0	0.0	0.4577767292503268	5.0	350.0	3.0	6.0	3.0	8.0	0.0	part_2
94	1.0	3.0			500.0	0.0	1.0							6.0	0.0	0.3581339898519218	6.0	350.0	4.0	2.0	8.0	3.0	0.0	part_2
95	1.0	3.0			500.0	0.0	0.0							6.0	0.0	0.34698273288086057	6.0	350.0	1.0	3.0	1.0	2.0	0.0	part_2
96	1.0	3.0			500.0	0.0	0.0							5.0	0.0	0.29116018931381404	5.0	350.0	1.0	3.0	1.0	2.0	0.0	part_2
97	1.0	3.0			500.0	0.0	1.0							6.0	0.0	0.293590399203822	6.0	350.0	1.0	1.0	5.0	7.0	0.0	part_2
98	1.0	3.0			500.0	0.0	0.0							6.0	0.0	0.6196497159544379	6.0	350.0	2.0	5.0	2.0	1.0	0.0	part_2
99	3.0	3.0			500.0	0.0	1.0							6.0	0.0	0.4506301882211119	6.0	350.0	1.0	1.0	5.0	7.0	1.0	part_2
100	1.0	3.0			500.0	0.0	0.0							5.0	0.0	0.3392457549925893	5.0	300.0	1.0	3.0	1.0	2.0	0.0	part_2
101	1.0	3.0			500.0	0.0	0.0							5.0	0.0	0.4316928654443473	5.0	300.0	1.0	3.0	1.0	2.0	0.0	part_2
102	1.0	3.0			500.0	0.0	1.0							6.0	0.0	0.5662854823749512	6.0	300.0	4.0	2.0	8.0	3.0	0.0	part_2
103	1.0	3.0			500.0	0.0	0.0							5.0	0.0	0.3659904012456536	5.0	300.0	4.0	8.0	4.0	6.0	0.0	part_2
104	3.0	3.0			500.0	0.0	1.0							6.0	0.0	0.4119492061436176	6.0	300.0	1.0	1.0	5.0	7.0	1.0	part_2
105	4.0	3.0			500.0	0.0	1.0							6.0	0.0	0.0	0.0	250.0	1.0	1.0	5.0	7.0	1.0	part_2
106	1.0	3.0			500.0	0.0	0.0							5.0	0.0	0.5259609092026949	5.0	300.0	1.0	3.0	1.0	2.0	0.0	part_2
107	1.0	3.0			500.0	0.0	0.0							5.0	0.0	0.4927721791900694	5.0	300.0	4.0	8.0	4.0	6.0	0.0	part_2
108	1.0	4.0			500.0	0.0	0.0							6.0	0.0	1.009200695436448	6.0	300.0	3.0	6.0	3.0	8.0	0.0	part_2
109	1.0	4.0			500.0	0.0	1.0							5.0	0.0	0.21028548199683428	5.0	300.0	3.0	7.0	7.0	5.0	0.0	part_2
110	1.0	4.0			500.0	0.0	1.0							5.0	0.0	0.3590967499185353	5.0	300.0	1.0	1.0	5.0	7.0	0.0	part_2
111	3.0	4.0			500.0	0.0	1.0							6.0	0.0	0.2800563352648169	6.0	300.0	3.0	7.0	7.0	5.0	1.0	part_2
112	1.0	4.0			500.0	0.0	0.0							5.0	0.0	0.4954110488761216	5.0	250.0	4.0	8.0	4.0	6.0	0.0	part_2
113	1.0	4.0			500.0	0.0	0.0							5.0	0.0	0.381981935352087	5.0	250.0	1.0	3.0	1.0	2.0	0.0	part_2
114	1.0	4.0			500.0	0.0	0.0							6.0	0.0	0.2717503882013261	6.0	250.0	4.0	8.0	4.0	6.0	0.0	part_2
115	3.0	4.0			500.0	0.0	1.0							5.0	0.0	0.3169898772612214	5.0	250.0	4.0	2.0	8.0	3.0	1.0	part_2
116	1.0	4.0			450.0	0.0	0.0							5.0	0.0	0.9810182210057974	5.0	250.0	2.0	5.0	2.0	1.0	0.0	part_2
117	3.0	4.0			450.0	0.0	1.0							5.0	0.0	0.40875993529334653	5.0	250.0	3.0	7.0	7.0	5.0	1.0	part_2
118	1.0	4.0			400.0	0.0	0.0							5.0	0.0	0.4994918524753302	5.0	250.0	4.0	8.0	4.0	6.0	0.0	part_2
119	1.0	4.0			400.0	0.0	1.0							6.0	0.0	0.6244270501192659	6.0	250.0	2.0	4.0	6.0	4.0	0.0	part_2
120	4.0	4.0			400.0	0.0	1.0							6.0	0.0	0.0	0.0	250.0	2.0	4.0	6.0	4.0	1.0	part_2
121	1.0	4.0			400.0	0.0	0.0							6.0	0.0	0.4239930282346904	6.0	300.0	3.0	6.0	3.0	8.0	0.0	part_2
122	1.0	4.0			400.0	0.0	0.0							6.0	0.0	0.5935211724136025	6.0	300.0	2.0	5.0	2.0	1.0	0.0	part_2
123	1.0	4.0			400.0	0.0	1.0							6.0	0.0	0.6286061080172658	6.0	300.0	4.0	2.0	8.0	3.0	0.0	part_2
124	1.0	4.0			400.0	0.0	0.0							5.0	0.0	0.41543098795227706	5.0	300.0	3.0	6.0	3.0	8.0	0.0	part_2
125	3.0	4.0			400.0	0.0	1.0							5.0	0.0	0.3807106881868094	5.0	300.0	2.0	4.0	6.0	4.0	1.0	part_2
126	1.0	4.0			350.0	0.0	0.0							5.0	0.0	0.3257595892064273	5.0	300.0	4.0	8.0	4.0	6.0	0.0	part_2
127	4.0	4.0			350.0	0.0	1.0							6.0	0.0	0.0	0.0	300.0	3.0	7.0	7.0	5.0	1.0	part_2
128	1.0	4.0			350.0	0.0	1.0							5.0	0.0	0.979488278971985	5.0	350.0	2.0	4.0	6.0	4.0	0.0	part_2
129	4.0	4.0			350.0	0.0	1.0							5.0	0.0	0.0	0.0	350.0	4.0	2.0	8.0	3.0	1.0	part_2
130	1.0	4.0			400.0	0.0	1.0							5.0	0.0	0.7688928311690688	5.0	350.0	3.0	7.0	7.0	5.0	0.0	part_2
131	4.0	4.0			400.0	0.0	1.0							5.0	0.0	0.0	0.0	350.0	4.0	2.0	8.0	3.0	1.0	part_2
132	4.0	4.0			450.0	0.0	1.0							6.0	0.0	0.0	0.0	350.0	1.0	1.0	5.0	7.0	1.0	part_2
133	4.0	4.0			450.0	0.0	1.0							5.0	0.0	0.0	0.0	400.0	3.0	7.0	7.0	5.0	1.0	part_2
134	1.0	4.0			500.0	0.0	0.0							6.0	0.0	0.5231185294687748	6.0	400.0	4.0	8.0	4.0	6.0	0.0	part_2
135	1.0	4.0			500.0	0.0	0.0							5.0	0.0	0.8069060849957168	5.0	400.0	1.0	3.0	1.0	2.0	0.0	part_2
136	4.0	4.0			500.0	0.0	1.0							6.0	0.0	0.0	0.0	400.0	3.0	7.0	7.0	5.0	1.0	part_2
137	4.0	4.0			500.0	0.0	1.0							5.0	0.0	0.0	0.0	450.0	1.0	1.0	5.0	7.0	1.0	part_2
138	1.0	4.0			550.0	0.0	0.0							6.0	0.0	0.6170215245801955	6.0	450.0	1.0	3.0	1.0	2.0	0.0	part_2
139	4.0	4.0			550.0	0.0	1.0							6.0	0.0	0.0	0.0	450.0	4.0	2.0	8.0	3.0	1.0	part_2
140	1.0	4.0			550.0	0.0	0.0							5.0	0.0	0.7203738181851804	5.0	500.0	2.0	5.0	2.0	1.0	0.0	part_2
141	4.0	4.0			550.0	0.0	1.0							6.0	0.0	0.0	0.0	500.0	3.0	7.0	7.0	5.0	1.0	part_2
142	4.0	4.0			550.0	0.0	1.0							6.0	0.0	0.0	0.0	550.0	3.0	7.0	7.0	5.0	1.0	part_2
143	3.0	4.0			550.0	0.0	1.0							6.0	0.0	0.6120439192745835	6.0	600.0	4.0	2.0	8.0	3.0	1.0	part_2
144	1.0	5.0			550.0	0.0	0.0							5.0	0.0	0.5476129942107946	5.0	550.0	1.0	3.0	1.0	2.0	0.0	part_2
145	3.0	5.0			550.0	0.0	1.0							6.0	0.0	0.5707716371398419	6.0	550.0	4.0	2.0	8.0	3.0	1.0	part_2
146	3.0	5.0			550.0	0.0	1.0							5.0	0.0	0.3820750510785729	5.0	500.0	2.0	4.0	6.0	4.0	1.0	part_2
147	1.0	5.0			500.0	0.0	0.0							5.0	0.0	0.4734551103319973	5.0	500.0	3.0	6.0	3.0	8.0	0.0	part_2
148	4.0	5.0			500.0	0.0	1.0							5.0	0.0	0.0	0.0	500.0	3.0	7.0	7.0	5.0	1.0	part_2
149	1.0	5.0			550.0	0.0	0.0							5.0	0.0	0.6200891269836575	5.0	500.0	1.0	3.0	1.0	2.0	0.0	part_2
150	3.0	5.0			550.0	0.0	1.0							6.0	0.0	0.4737491721753031	6.0	500.0	2.0	4.0	6.0	4.0	1.0	part_2
151	1.0	5.0			550.0	0.0	0.0							6.0	0.0	0.7797498151194304	6.0	450.0	3.0	6.0	3.0	8.0	0.0	part_2
152	1.0	5.0			550.0	0.0	0.0							6.0	0.0	0.6343921814113855	6.0	450.0	2.0	5.0	2.0	1.0	0.0	part_2
153	3.0	5.0			550.0	0.0	1.0							5.0	0.0	0.3752749331761152	5.0	450.0	2.0	4.0	6.0	4.0	1.0	part_2
154	1.0	5.0			500.0	0.0	0.0							5.0	0.0	0.2978939788881689	5.0	450.0	3.0	6.0	3.0	8.0	0.0	part_2
155	1.0	5.0			500.0	0.0	0.0							6.0	0.0	0.3549282753374428	6.0	450.0	2.0	5.0	2.0	1.0	0.0	part_2
156	1.0	5.0			500.0	0.0	0.0							5.0	0.0	0.3213340828660876	5.0	450.0	2.0	5.0	2.0	1.0	0.0	part_2
157	1.0	5.0			500.0	0.0	1.0							6.0	0.0	0.2772473541554064	6.0	450.0	3.0	7.0	7.0	5.0	0.0	part_2
158	3.0	5.0			500.0	0.0	1.0							5.0	0.0	0.4599119201302528	5.0	450.0	3.0	7.0	7.0	5.0	1.0	part_2
159	1.0	5.0			450.0	0.0	0.0							5.0	0.0	0.5264450353570282	5.0	450.0	4.0	8.0	4.0	6.0	0.0	part_2
160	3.0	5.0			450.0	0.0	1.0							5.0	0.0	0.5515579332131892	5.0	450.0	1.0	1.0	5.0	7.0	1.0	part_2
161	4.0	5.0			400.0	0.0	1.0							5.0	0.0	0.0	0.0	450.0	4.0	2.0	8.0	3.0	1.0	part_2
162	4.0	5.0			450.0	0.0	1.0							6.0	0.0	0.0	0.0	450.0	3.0	7.0	7.0	5.0	1.0	part_2
163	1.0	5.0			450.0	0.0	0.0							6.0	0.0	0.4754436861258	6.0	500.0	3.0	6.0	3.0	8.0	0.0	part_2
164	1.0	5.0			450.0	0.0	0.0							5.0	0.0	0.7689386140555143	5.0	500.0	2.0	5.0	2.0	1.0	0.0	part_2
165	1.0	5.0			450.0	0.0	0.0							6.0	0.0	0.904255046043545	6.0	500.0	4.0	8.0	4.0	6.0	0.0	part_2
166	1.0	5.0			450.0	0.0	0.0							6.0	0.0	0.4984654090367258	6.0	500.0	1.0	3.0	1.0	2.0	0.0	part_2
167	1.0	5.0			450.0	0.0	1.0							6.0	0.0	0.5225085162092	6.0	500.0	1.0	1.0	5.0	7.0	0.0	part_2
168	1.0	5.0			450.0	0.0	0.0							6.0	0.0	0.6235652761533856	6.0	500.0	2.0	5.0	2.0	1.0	0.0	part_2
169	4.0	5.0			450.0	0.0	1.0							5.0	0.0	0.0	0.0	500.0	3.0	7.0	7.0	5.0	1.0	part_2
170	1.0	5.0			500.0	0.0	0.0							5.0	0.0	0.7052069872152059	5.0	500.0	3.0	6.0	3.0	8.0	0.0	part_2
171	4.0	5.0			500.0	0.0	1.0							6.0	0.0	0.0	0.0	500.0	1.0	1.0	5.0	7.0	1.0	part_2
172	1.0	5.0			500.0	0.0	0.0							5.0	0.0	0.6159749953076243	5.0	550.0	2.0	5.0	2.0	1.0	0.0	part_2
173	3.0	5.0			500.0	0.0	1.0							6.0	0.0	0.6299375644885004	6.0	550.0	3.0	7.0	7.0	5.0	1.0	part_2
174	4.0	5.0			500.0	0.0	1.0							5.0	0.0	0.0	0.0	500.0	1.0	1.0	5.0	7.0	1.0	part_2
175	1.0	5.0			550.0	0.0	0.0							5.0	0.0	0.968420286430046	5.0	500.0	4.0	8.0	4.0	6.0	0.0	part_2
176	4.0	5.0			550.0	0.0	1.0							6.0	0.0	0.0	0.0	500.0	2.0	4.0	6.0	4.0	1.0	part_2
177	1.0	5.0			550.0	0.0	0.0							5.0	0.0	0.8012568969279528	5.0	550.0	4.0	8.0	4.0	6.0	0.0	part_2
178	1.0	5.0			550.0	0.0	0.0							5.0	0.0	0.6780914484988898	5.0	550.0	4.0	8.0	4.0	6.0	0.0	part_2
179	1.0	5.0			550.0	0.0	1.0							6.0	0.0	0.3423648753669113	6.0	550.0	3.0	7.0	7.0	5.0	0.0	part_2
180	1.0	6.0			550.0	0.0	1.0							5.0	0.0	0.6570602452848107	5.0	550.0	2.0	4.0	6.0	4.0	0.0	part_2
181	3.0	6.0			550.0	0.0	1.0							5.0	0.0	0.3295930693857372	5.0	550.0	3.0	7.0	7.0	5.0	1.0	part_2
182	1.0	6.0			500.0	0.0	0.0							6.0	0.0	0.3658174818847328	6.0	550.0	3.0	6.0	3.0	8.0	0.0	part_2
183	1.0	6.0			500.0	0.0	0.0							6.0	0.0	0.544805794255808	6.0	550.0	1.0	3.0	1.0	2.0	0.0	part_2
184	1.0	6.0			500.0	0.0	0.0							5.0	0.0	0.6147463074885309	5.0	550.0	1.0	3.0	1.0	2.0	0.0	part_2
185	1.0	6.0			500.0	0.0	0.0							6.0	0.0	0.5257008464541286	6.0	550.0	1.0	3.0	1.0	2.0	0.0	part_2
186	1.0	6.0			500.0	0.0	0.0							5.0	0.0	0.5939569484908134	5.0	550.0	2.0	5.0	2.0	1.0	0.0	part_2
187	3.0	6.0			500.0	0.0	1.0							6.0	0.0	0.4807409441564232	6.0	550.0	3.0	7.0	7.0	5.0	1.0	part_2
188	1.0	6.0			500.0	0.0	0.0							5.0	0.0	0.6630619741044939	5.0	500.0	4.0	8.0	4.0	6.0	0.0	part_2
189	4.0	6.0			500.0	0.0	1.0							5.0	0.0	0.0	0.0	500.0	2.0	4.0	6.0	4.0	1.0	part_2
190	1.0	6.0			550.0	0.0	0.0							5.0	0.0	0.7314127290155739	5.0	500.0	1.0	3.0	1.0	2.0	0.0	part_2
191	1.0	6.0			550.0	0.0	1.0							6.0	0.0	0.6770315992180258	6.0	500.0	1.0	1.0	5.0	7.0	0.0	part_2
192	1.0	6.0			550.0	0.0	0.0							6.0	0.0	1.0260301751550287	6.0	500.0	4.0	8.0	4.0	6.0	0.0	part_2
193	1.0	6.0			550.0	0.0	0.0							5.0	0.0	0.5551088384818286	5.0	500.0	4.0	8.0	4.0	6.0	0.0	part_2
194	1.0	6.0			550.0	0.0	0.0							5.0	0.0	1.1397234573960304	5.0	500.0	4.0	8.0	4.0	6.0	0.0	part_2
195	1.0	6.0			550.0	0.0	0.0							5.0	0.0	0.3414086261764169	5.0	500.0	2.0	5.0	2.0	1.0	0.0	part_2
196	3.0	6.0			550.0	0.0	1.0							5.0	0.0	0.6347881862893701	5.0	500.0	1.0	1.0	5.0	7.0	1.0	part_2
197	1.0	6.0			500.0	0.0	0.0							5.0	0.0	0.4447906801942736	5.0	500.0	2.0	5.0	2.0	1.0	0.0	part_2
198	1.0	6.0			500.0	0.0	0.0							5.0	0.0	0.33300428488291806	5.0	500.0	2.0	5.0	2.0	1.0	0.0	part_2
199	1.0	6.0			500.0	0.0	1.0							5.0	0.0	0.4688696202356368	5.0	500.0	1.0	1.0	5.0	7.0	0.0	part_2
200	1.0	6.0			500.0	0.0	0.0							6.0	0.0	0.5822532221209258	6.0	500.0	4.0	8.0	4.0	6.0	0.0	part_2
201	3.0	6.0			500.0	0.0	1.0							5.0	0.0	0.2917406111955643	5.0	500.0	4.0	2.0	8.0	3.0	1.0	part_2
202	1.0	6.0			450.0	0.0	0.0							6.0	0.0	0.2812500551808625	6.0	500.0	3.0	6.0	3.0	8.0	0.0	part_2
203	3.0	6.0			450.0	0.0	1.0							5.0	0.0	0.34930352424271405	5.0	500.0	3.0	7.0	7.0	5.0	1.0	part_2
204	1.0	6.0			400.0	0.0	0.0							5.0	0.0	0.4840693611185998	5.0	500.0	1.0	3.0	1.0	2.0	0.0	part_2
205	3.0	6.0			400.0	0.0	1.0							6.0	0.0	0.3284913571551442	6.0	500.0	2.0	4.0	6.0	4.0	1.0	part_2
206	3.0	6.0			400.0	0.0	1.0							5.0	0.0	0.3856241062749177	5.0	450.0	2.0	4.0	6.0	4.0	1.0	part_2
207	1.0	6.0			350.0	0.0	0.0							6.0	0.0	0.35264669824391603	6.0	450.0	4.0	8.0	4.0	6.0	0.0	part_2
208	4.0	6.0			350.0	0.0	1.0							5.0	0.0	0.0	0.0	450.0	4.0	2.0	8.0	3.0	1.0	part_2
209	1.0	6.0			400.0	0.0	0.0							5.0	0.0	0.3422072490211576	5.0	450.0	2.0	5.0	2.0	1.0	0.0	part_2
210	3.0	6.0			400.0	0.0	1.0							6.0	0.0	0.3758048103190959	6.0	450.0	4.0	2.0	8.0	3.0	1.0	part_2
211	4.0	6.0			400.0	0.0	1.0							5.0	0.0	0.0	0.0	400.0	1.0	1.0	5.0	7.0	1.0	part_2
212	1.0	6.0			450.0	0.0	0.0							5.0	0.0	0.5935476911254227	5.0	400.0	4.0	8.0	4.0	6.0	0.0	part_2
213	3.0	6.0			450.0	0.0	1.0							5.0	0.0	0.6051807459443808	5.0	400.0	2.0	4.0	6.0	4.0	1.0	part_2
214	1.0	6.0			400.0	0.0	0.0							5.0	0.0	0.6611084858886898	5.0	400.0	3.0	6.0	3.0	8.0	0.0	part_2
215	1.0	6.0			400.0	0.0	0.0							5.0	0.0	0.5154506789986044	5.0	400.0	3.0	6.0	3.0	8.0	0.0	part_2
216	3.0	7.0			400.0	0.0	1.0							5.0	0.0	0.6901220269501209	5.0	400.0	3.0	7.0	7.0	5.0	1.0	part_2
217	1.0	7.0			350.0	0.0	0.0							5.0	0.0	0.3198688239790499	5.0	400.0	3.0	6.0	3.0	8.0	0.0	part_2
218	3.0	7.0			350.0	0.0	1.0							5.0	0.0	0.4902502771001309	5.0	400.0	4.0	2.0	8.0	3.0	1.0	part_2
219	1.0	7.0			300.0	0.0	0.0							5.0	0.0	0.5019810909871012	5.0	400.0	3.0	6.0	3.0	8.0	0.0	part_2
220	1.0	7.0			300.0	0.0	1.0							5.0	0.0	0.3896785583347082	5.0	400.0	3.0	7.0	7.0	5.0	0.0	part_2
221	4.0	7.0			300.0	0.0	1.0							6.0	0.0	0.0	0.0	400.0	1.0	1.0	5.0	7.0	1.0	part_2
222	1.0	7.0			300.0	0.0	0.0							6.0	0.0	0.6732191471382976	6.0	450.0	1.0	3.0	1.0	2.0	0.0	part_2
223	1.0	7.0			300.0	0.0	1.0							6.0	0.0	0.707625912502408	6.0	450.0	1.0	1.0	5.0	7.0	0.0	part_2
224	3.0	7.0			300.0	0.0	1.0							5.0	0.0	0.3384606631007045	5.0	450.0	4.0	2.0	8.0	3.0	1.0	part_2
225	3.0	7.0			250.0	0.0	1.0							6.0	0.0	0.5744299893267453	6.0	450.0	3.0	7.0	7.0	5.0	1.0	part_2
226	1.0	7.0			250.0	0.0	1.0							6.0	0.0	0.6757992210332304	6.0	400.0	2.0	4.0	6.0	4.0	0.0	part_2
227	1.0	7.0			250.0	0.0	0.0							6.0	0.0	1.1376461684703827	6.0	400.0	4.0	8.0	4.0	6.0	0.0	part_2
228	1.0	7.0			250.0	0.0	0.0							6.0	0.0	0.7789219787809998	6.0	400.0	2.0	5.0	2.0	1.0	0.0	part_2
229	3.0	7.0			250.0	0.0	1.0							5.0	0.0	0.3405163432471454	5.0	400.0	2.0	4.0	6.0	4.0	1.0	part_2
230	1.0	7.0			200.0	0.0	1.0							5.0	0.0	0.420367909129709	5.0	400.0	2.0	4.0	6.0	4.0	0.0	part_2
231	3.0	7.0			200.0	0.0	1.0							6.0	0.0	0.38950913096778095	6.0	400.0	2.0	4.0	6.0	4.0	1.0	part_2
232	1.0	7.0			200.0	0.0	0.0							6.0	0.0	0.6470613845158368	6.0	350.0	2.0	5.0	2.0	1.0	0.0	part_2
233	1.0	7.0			200.0	0.0	0.0							5.0	0.0	0.6707892070990056	5.0	350.0	2.0	5.0	2.0	1.0	0.0	part_2
234	1.0	7.0			200.0	0.0	0.0							5.0	0.0	0.3231398300267756	5.0	350.0	2.0	5.0	2.0	1.0	0.0	part_2
235	1.0	7.0			200.0	0.0	0.0							6.0	0.0	0.4826748601626605	6.0	350.0	4.0	8.0	4.0	6.0	0.0	part_2
236	4.0	7.0			200.0	0.0	1.0							5.0	0.0	0.0	0.0	350.0	4.0	2.0	8.0	3.0	1.0	part_2
237	1.0	7.0			250.0	0.0	0.0							6.0	0.0	0.4710229090414941	6.0	350.0	1.0	3.0	1.0	2.0	0.0	part_2
238	4.0	7.0			250.0	0.0	1.0							6.0	0.0	0.0	0.0	350.0	1.0	1.0	5.0	7.0	1.0	part_2
239	1.0	7.0			250.0	0.0	0.0							6.0	0.0	0.720387016190216	6.0	400.0	4.0	8.0	4.0	6.0	0.0	part_2
240	1.0	7.0			250.0	0.0	0.0							5.0	0.0	0.6656830324791372	5.0	400.0	2.0	5.0	2.0	1.0	0.0	part_2
241	4.0	7.0			250.0	0.0	1.0							6.0	0.0	0.0	0.0	400.0	1.0	1.0	5.0	7.0	1.0	part_2
242	1.0	7.0			250.0	0.0	0.0							5.0	0.0	0.4997632212471217	5.0	450.0	4.0	8.0	4.0	6.0	0.0	part_2
243	4.0	7.0			250.0	0.0	1.0							6.0	0.0	0.0	0.0	450.0	4.0	2.0	8.0	3.0	1.0	part_2
244	1.0	7.0			250.0	0.0	0.0							6.0	0.0	0.4436310031451285	6.0	500.0	3.0	6.0	3.0	8.0	0.0	part_2
245	4.0	7.0			250.0	0.0	1.0							5.0	0.0	0.0	0.0	500.0	1.0	1.0	5.0	7.0	1.0	part_2
246	1.0	7.0			300.0	0.0	1.0							6.0	0.0	0.4786218290682882	6.0	500.0	4.0	2.0	8.0	3.0	0.0	part_2
247	4.0	7.0			300.0	0.0	1.0							5.0	0.0	0.0	0.0	500.0	4.0	2.0	8.0	3.0	1.0	part_2
248	3.0	7.0			350.0	0.0	1.0							5.0	0.0	0.4698961193207651	5.0	500.0	1.0	1.0	5.0	7.0	1.0	part_2
249	1.0	7.0			300.0	0.0	0.0							5.0	0.0	0.3369391623418778	5.0	500.0	3.0	6.0	3.0	8.0	0.0	part_2
250	1.0	7.0			300.0	0.0	0.0							6.0	0.0	0.415656618308276	6.0	500.0	2.0	5.0	2.0	1.0	0.0	part_2
251	1.0	7.0			300.0	0.0	1.0							5.0	0.0	0.5950750212650746	5.0	500.0	4.0	2.0	8.0	3.0	0.0	part_2
252	1.0	8.0			300.0	0.0	0.0							6.0	0.0	0.5865887792315334	6.0	500.0	3.0	6.0	3.0	8.0	0.0	part_2
253	1.0	8.0			300.0	0.0	0.0							5.0	0.0	0.23889607819728556	5.0	500.0	3.0	6.0	3.0	8.0	0.0	part_2
254	3.0	8.0			300.0	0.0	1.0							6.0	0.0	0.3410415491089225	6.0	500.0	2.0	4.0	6.0	4.0	1.0	part_2
255	1.0	8.0			300.0	0.0	0.0							5.0	0.0	0.39946284191682935	5.0	450.0	3.0	6.0	3.0	8.0	0.0	part_2
256	1.0	8.0			300.0	0.0	0.0							5.0	0.0	0.3657872790936381	5.0	450.0	4.0	8.0	4.0	6.0	0.0	part_2
257	1.0	8.0			300.0	0.0	0.0							6.0	0.0	0.6472419460769743	6.0	450.0	3.0	6.0	3.0	8.0	0.0	part_2
258	1.0	8.0			300.0	0.0	0.0							6.0	0.0	0.5915934601798654	6.0	450.0	2.0	5.0	2.0	1.0	0.0	part_2
259	1.0	8.0			300.0	0.0	0.0							6.0	0.0	0.5946031981147826	6.0	450.0	3.0	6.0	3.0	8.0	0.0	part_2
260	1.0	8.0			300.0	0.0	0.0							5.0	0.0	0.5718371067196131	5.0	450.0	4.0	8.0	4.0	6.0	0.0	part_2
261	1.0	8.0			300.0	0.0	0.0							5.0	0.0	0.5836790928151459	5.0	450.0	1.0	3.0	1.0	2.0	0.0	part_2
262	3.0	8.0			300.0	0.0	1.0							6.0	0.0	0.6308683850802481	6.0	450.0	2.0	4.0	6.0	4.0	1.0	part_2
263	1.0	8.0			300.0	0.0	1.0							5.0	0.0	0.54138885717839	5.0	400.0	2.0	4.0	6.0	4.0	0.0	part_2
264	1.0	8.0			300.0	0.0	0.0							6.0	0.0	0.5976582404691726	6.0	400.0	2.0	5.0	2.0	1.0	0.0	part_2
265	1.0	8.0			300.0	0.0	0.0							5.0	0.0	0.599288368364796	5.0	400.0	3.0	6.0	3.0	8.0	0.0	part_2
266	4.0	8.0			300.0	0.0	1.0							6.0	0.0	0.0	0.0	400.0	3.0	7.0	7.0	5.0	1.0	part_2
267	1.0	8.0			300.0	0.0	1.0							5.0	0.0	0.5877455880399793	5.0	450.0	4.0	2.0	8.0	3.0	0.0	part_2
268	1.0	8.0			300.0	0.0	1.0							6.0	0.0	0.769318301230669	6.0	450.0	4.0	2.0	8.0	3.0	0.0	part_2
269	1.0	8.0			300.0	0.0	1.0							6.0	0.0	0.544371850322932	6.0	450.0	2.0	4.0	6.0	4.0	0.0	part_2
270	4.0	8.0			300.0	0.0	1.0							6.0	0.0	0.0	0.0	450.0	2.0	4.0	6.0	4.0	1.0	part_2
271	1.0	8.0			300.0	0.0	0.0							6.0	0.0	0.3895411440171301	6.0	500.0	3.0	6.0	3.0	8.0	0.0	part_2
272	1.0	8.0			300.0	0.0	0.0							6.0	0.0	0.3789065682794899	6.0	500.0	3.0	6.0	3.0	8.0	0.0	part_2
273	1.0	8.0			300.0	0.0	0.0							6.0	0.0	0.3240585420280695	6.0	500.0	1.0	3.0	1.0	2.0	0.0	part_2
274	1.0	8.0			300.0	0.0	1.0							5.0	0.0	0.4382282951846719	5.0	500.0	3.0	7.0	7.0	5.0	0.0	part_2
275	3.0	8.0			300.0	0.0	1.0							6.0	0.0	0.4936006059870124	6.0	500.0	1.0	1.0	5.0	7.0	1.0	part_2
276	4.0	8.0			300.0	0.0	1.0							6.0	0.0	0.0	0.0	450.0	3.0	7.0	7.0	5.0	1.0	part_2
277	3.0	8.0			300.0	0.0	1.0							5.0	0.0	0.3487047168891877	5.0	500.0	3.0	7.0	7.0	5.0	1.0	part_2
278	1.0	8.0			250.0	0.0	0.0							6.0	0.0	0.6103959660977125	6.0	500.0	4.0	8.0	4.0	6.0	0.0	part_2
279	4.0	8.0			250.0	0.0	1.0							6.0	0.0	0.0	0.0	500.0	4.0	2.0	8.0	3.0	1.0	part_2
280	1.0	8.0			250.0	0.0	0.0							5.0	0.0	0.4197534939739853	5.0	550.0	3.0	6.0	3.0	8.0	0.0	part_2
281	1.0	8.0			250.0	0.0	0.0							6.0	0.0	0.6557426489889622	6.0	550.0	1.0	3.0	1.0	2.0	0.0	part_2
282	4.0	8.0			250.0	0.0	1.0							5.0	0.0	0.0	0.0	550.0	2.0	4.0	6.0	4.0	1.0	part_2
283	1.0	8.0			300.0	0.0	0.0							5.0	0.0	0.7147751590237021	5.0	550.0	2.0	5.0	2.0	1.0	0.0	part_2
284	3.0	8.0			300.0	0.0	1.0							6.0	0.0	0.7258619561325759	6.0	550.0	1.0	1.0	5.0	7.0	1.0	part_2
285	1.0	8.0			300.0	0.0	0.0							6.0	0.0	0.5814330182038248	6.0	500.0	2.0	5.0	2.0	1.0	0.0	part_2
286	1.0	8.0			300.0	0.0	0.0							5.0	0.0	0.5031768672633916	5.0	500.0	3.0	6.0	3.0	8.0	0.0	part_2
287	1.0	8.0			300.0	0.0	0.0							5.0	0.0	0.3572988691739738	5.0	500.0	2.0	5.0	2.0	1.0	0.0	part_2
0	0.0	1.0	108.0	2.0	0.0	1.0	0.0	216.0	108.0	162.0	270.0	324.0	54.0	7.0	0.0	4.2983622185420245	2.0	0.0	1.0	3.0	1.0	2.0	0.0	part_3
1	0.0	1.0	216.0	4.0	0.0	1.0	1.0	324.0	270.0	216.0	108.0	54.0	162.0	7.0	0.0	3.943990112282336	3.0	0.0	4.0	2.0	8.0	3.0	0.0	part_3
2	0.0	1.0	54.0	1.0	0.0	1.0	0.0	108.0	270.0	162.0	324.0	54.0	216.0	7.0	0.0	3.0458600651472807	5.0	0.0	1.0	3.0	1.0	2.0	0.0	part_3
3	0.0	1.0	162.0	3.0	0.0	1.0	0.0	270.0	216.0	54.0	162.0	324.0	108.0	7.0	0.0	2.2034093232359737	4.0	0.0	3.0	6.0	3.0	8.0	0.0	part_3
4	0.0	1.0	68.0	2.0	0.0	1.0	0.0	170.0	204.0	68.0	102.0	34.0	136.0	7.0	0.0	1.8671467076055703	3.0	0.0	3.0	6.0	3.0	8.0	0.0	part_3
5	0.0	1.0	245.0	5.0	0.0	1.0	1.0	98.0	294.0	147.0	196.0	245.0	49.0	7.0	0.0	2.9021212065126747	5.0	0.0	2.0	4.0	6.0	4.0	0.0	part_3
6	0.0	1.0	49.0	1.0	0.0	1.0	0.0	294.0	245.0	49.0	196.0	147.0	98.0	7.0	0.0	1.0701097666751591	3.0	0.0	2.0	5.0	2.0	1.0	0.0	part_3
7	0.0	1.0	136.0	4.0	0.0	1.0	0.0	102.0	170.0	68.0	136.0	204.0	34.0	7.0	0.0	2.1390236213337634	4.0	0.0	1.0	3.0	1.0	2.0	0.0	part_3
8	0.0	1.0	216.0	4.0	0.0	1.0	1.0	108.0	216.0	162.0	324.0	270.0	54.0	7.0	0.0	3.5686514333356167	2.0	0.0	2.0	4.0	6.0	4.0	0.0	part_3
9	0.0	1.0	44.0	1.0	0.0	1.0	0.0	132.0	44.0	220.0	264.0	88.0	176.0	7.0	0.0	1.4896465619094668	2.0	0.0	3.0	6.0	3.0	8.0	0.0	part_3
10	0.0	1.0	68.0	2.0	0.0	1.0	1.0	102.0	68.0	34.0	136.0	204.0	170.0	7.0	0.0	4.079028277425095	2.0	0.0	3.0	7.0	7.0	5.0	0.0	part_3
11	0.0	1.0	102.0	3.0	0.0	1.0	0.0	170.0	102.0	68.0	34.0	136.0	204.0	7.0	0.0	2.9549441398121417	2.0	0.0	1.0	3.0	1.0	2.0	0.0	part_3
12	0.0	1.0	204.0	6.0	0.0	1.0	1.0	34.0	68.0	102.0	170.0	204.0	136.0	7.0	0.0	2.292537655681372	5.0	0.0	2.0	4.0	6.0	4.0	0.0	part_3
13	0.0	1.0	54.0	1.0	0.0	1.0	0.0	108.0	216.0	162.0	270.0	324.0	54.0	7.0	0.0	1.9560882688965648	6.0	0.0	4.0	8.0	4.0	6.0	0.0	part_3
14	0.0	1.0	117.0	3.0	0.0	1.0	1.0	78.0	234.0	117.0	39.0	156.0	195.0	7.0	0.0	1.00098545383662	3.0	0.0	4.0	2.0	8.0	3.0	0.0	part_3
15	0.0	1.0	78.0	2.0	0.0	1.0	0.0	195.0	156.0	78.0	117.0	39.0	234.0	7.0	0.0	1.1254790446255356	3.0	0.0	3.0	6.0	3.0	8.0	0.0	part_3
16	0.0	1.0	132.0	3.0	0.0	1.0	0.0	264.0	44.0	88.0	132.0	176.0	220.0	7.0	0.0	1.7685613809153438	4.0	0.0	2.0	5.0	2.0	1.0	0.0	part_3
17	0.0	1.0	170.0	5.0	0.0	1.0	1.0	170.0	204.0	68.0	136.0	102.0	34.0	7.0	0.0	2.1287979071494187	1.0	0.0	1.0	1.0	5.0	7.0	0.0	part_3
18	0.0	1.0	98.0	2.0	0.0	1.0	1.0	294.0	147.0	245.0	196.0	49.0	98.0	7.0	0.0	1.623771505896002	6.0	0.0	4.0	2.0	8.0	3.0	0.0	part_3
19	0.0	1.0	108.0	2.0	0.0	1.0	1.0	270.0	54.0	162.0	216.0	108.0	324.0	7.0	0.0	1.2647868792992083	5.0	0.0	1.0	1.0	5.0	7.0	0.0	part_3
20	0.0	2.0	176.0	4.0	0.0	1.0	0.0	176.0	220.0	88.0	132.0	44.0	264.0	7.0	0.0	2.5939315278083086	1.0	0.0	1.0	3.0	1.0	2.0	0.0	part_3
21	0.0	2.0	117.0	3.0	0.0	1.0	0.0	117.0	234.0	78.0	195.0	156.0	39.0	7.0	0.0	1.8072830068413168	1.0	0.0	2.0	5.0	2.0	1.0	0.0	part_3
22	0.0	2.0	132.0	3.0	0.0	1.0	1.0	176.0	88.0	132.0	220.0	44.0	264.0	7.0	0.0	2.7968857486266643	3.0	0.0	1.0	1.0	5.0	7.0	0.0	part_3
23	0.0	2.0	34.0	1.0	0.0	1.0	0.0	34.0	68.0	136.0	102.0	170.0	204.0	7.0	0.0	1.1443687842693178	1.0	0.0	3.0	6.0	3.0	8.0	0.0	part_3
24	0.0	2.0	156.0	4.0	0.0	1.0	0.0	234.0	39.0	156.0	78.0	117.0	195.0	7.0	0.0	1.033560157287866	3.0	0.0	4.0	8.0	4.0	6.0	0.0	part_3
25	0.0	2.0	196.0	4.0	0.0	1.0	1.0	196.0	98.0	147.0	49.0	294.0	245.0	7.0	0.0	1.5975271894130856	1.0	0.0	3.0	7.0	7.0	5.0	0.0	part_3
26	0.0	2.0	117.0	3.0	0.0	1.0	0.0	195.0	78.0	234.0	117.0	39.0	156.0	7.0	0.0	2.1054511207621545	4.0	0.0	1.0	3.0	1.0	2.0	0.0	part_3
27	0.0	2.0	78.0	2.0	0.0	1.0	1.0	117.0	234.0	156.0	39.0	195.0	78.0	7.0	0.0	1.7453193357214332	6.0	0.0	4.0	2.0	8.0	3.0	0.0	part_3
28	0.0	2.0	78.0	2.0	0.0	1.0	0.0	117.0	234.0	78.0	39.0	195.0	156.0	7.0	0.0	3.749632063321769	3.0	0.0	2.0	5.0	2.0	1.0	0.0	part_3
29	0.0	2.0	234.0	6.0	0.0	1.0	0.0	117.0	195.0	156.0	234.0	78.0	39.0	7.0	0.0	4.256557966582477	4.0	0.0	4.0	8.0	4.0	6.0	0.0	part_3
30	0.0	2.0	195.0	5.0	0.0	1.0	1.0	156.0	117.0	39.0	195.0	78.0	234.0	7.0	0.0	1.9486971492879093	4.0	0.0	1.0	1.0	5.0	7.0	0.0	part_3
31	0.0	2.0	234.0	6.0	0.0	1.0	1.0	117.0	39.0	234.0	156.0	78.0	195.0	7.0	0.0	1.9053497100248933	3.0	0.0	2.0	4.0	6.0	4.0	0.0	part_3
32	0.0	2.0	117.0	3.0	0.0	1.0	1.0	39.0	234.0	117.0	195.0	156.0	78.0	7.0	0.0	1.5365010392852128	3.0	0.0	1.0	1.0	5.0	7.0	0.0	part_3
33	0.0	2.0	156.0	4.0	0.0	1.0	1.0	234.0	156.0	195.0	117.0	78.0	39.0	7.0	0.0	2.099360800115392	2.0	0.0	3.0	7.0	7.0	5.0	0.0	part_3
34	0.0	2.0	170.0	5.0	0.0	1.0	0.0	204.0	102.0	170.0	34.0	136.0	68.0	7.0	0.0	1.1542568285949528	3.0	0.0	4.0	8.0	4.0	6.0	0.0	part_3
35	0.0	2.0	49.0	1.0	0.0	1.0	0.0	294.0	245.0	98.0	147.0	49.0	196.0	7.0	0.0	0.9865105093922466	5.0	0.0	3.0	6.0	3.0	8.0	0.0	part_3
36	0.0	2.0	162.0	3.0	0.0	1.0	1.0	324.0	270.0	162.0	54.0	216.0	108.0	7.0	0.0	0.9558637451846153	3.0	0.0	3.0	7.0	7.0	5.0	0.0	part_3
37	0.0	2.0	176.0	4.0	0.0	1.0	1.0	88.0	176.0	132.0	44.0	264.0	220.0	7.0	0.0	2.620798636460677	2.0	0.0	3.0	7.0	7.0	5.0	0.0	part_3
38	0.0	2.0	147.0	3.0	0.0	1.0	0.0	147.0	49.0	294.0	196.0	98.0	245.0	7.0	0.0	2.115470805671066	1.0	0.0	4.0	8.0	4.0	6.0	0.0	part_3
39	0.0	2.0	162.0	3.0	0.0	1.0	0.0	108.0	216.0	270.0	162.0	54.0	324.0	7.0	0.0	3.905113325919956	4.0	0.0	4.0	8.0	4.0	6.0	0.0	part_3
40	0.0	3.0	220.0	5.0	0.0	1.0	1.0	44.0	88.0	132.0	264.0	220.0	176.0	7.0	0.0	1.7743533495813608	5.0	0.0	2.0	4.0	6.0	4.0	0.0	part_3
41	0.0	3.0	204.0	6.0	0.0	1.0	1.0	170.0	204.0	102.0	34.0	136.0	68.0	7.0	0.0	1.7750850117299706	2.0	0.0	2.0	4.0	6.0	4.0	0.0	part_3
42	0.0	3.0	132.0	3.0	0.0	1.0	0.0	264.0	220.0	132.0	176.0	44.0	88.0	7.0	0.0	4.8135515300091365	3.0	0.0	4.0	8.0	4.0	6.0	0.0	part_3
43	0.0	3.0	102.0	3.0	0.0	1.0	0.0	102.0	68.0	34.0	204.0	170.0	136.0	7.0	0.0	2.3843907956033945	1.0	0.0	2.0	5.0	2.0	1.0	0.0	part_3
44	0.0	3.0	108.0	2.0	0.0	1.0	0.0	216.0	54.0	324.0	108.0	162.0	270.0	7.0	0.0	2.0586342897731806	4.0	0.0	2.0	5.0	2.0	1.0	0.0	part_3
45	0.0	3.0	117.0	3.0	0.0	1.0	0.0	195.0	234.0	39.0	117.0	156.0	78.0	7.0	0.0	1.350192079087719	4.0	0.0	1.0	3.0	1.0	2.0	0.0	part_3
46	0.0	3.0	176.0	4.0	0.0	1.0	1.0	44.0	132.0	220.0	264.0	88.0	176.0	7.0	0.0	1.6790680412668737	6.0	0.0	3.0	7.0	7.0	5.0	0.0	part_3
47	0.0	3.0	196.0	4.0	0.0	1.0	1.0	196.0	49.0	98.0	147.0	245.0	294.0	7.0	0.0	2.5672295456752185	1.0	0.0	2.0	4.0	6.0	4.0	0.0	part_3
48	0.0	3.0	88.0	2.0	0.0	1.0	0.0	88.0	264.0	132.0	176.0	44.0	220.0	7.0	0.0	3.761509782867506	1.0	0.0	2.0	5.0	2.0	1.0	0.0	part_3
49	0.0	3.0	49.0	1.0	0.0	1.0	0.0	49.0	245.0	98.0	294.0	147.0	196.0	7.0	0.0	1.254276662832126	1.0	0.0	3.0	6.0	3.0	8.0	0.0	part_3
50	0.0	3.0	108.0	2.0	0.0	1.0	1.0	54.0	108.0	162.0	324.0	216.0	270.0	7.0	0.0	4.180401752702892	2.0	0.0	3.0	7.0	7.0	5.0	0.0	part_3
51	0.0	3.0	54.0	1.0	0.0	1.0	1.0	54.0	324.0	162.0	216.0	108.0	270.0	7.0	0.0	2.0467668727505948	1.0	0.0	4.0	2.0	8.0	3.0	0.0	part_3
52	0.0	3.0	147.0	3.0	0.0	1.0	0.0	49.0	196.0	245.0	294.0	98.0	147.0	7.0	0.0	3.6793669869657606	6.0	0.0	1.0	3.0	1.0	2.0	0.0	part_3
53	0.0	3.0	88.0	2.0	0.0	1.0	1.0	132.0	264.0	176.0	44.0	88.0	220.0	7.0	0.0	2.4867293597199023	5.0	0.0	4.0	2.0	8.0	3.0	0.0	part_3
54	0.0	3.0	132.0	3.0	0.0	1.0	0.0	44.0	88.0	176.0	264.0	132.0	220.0	7.0	0.0	2.658825297607109	5.0	0.0	4.0	8.0	4.0	6.0	0.0	part_3
55	0.0	3.0	39.0	1.0	0.0	1.0	0.0	195.0	117.0	234.0	39.0	78.0	156.0	7.0	0.0	2.838122710119933	4.0	0.0	3.0	6.0	3.0	8.0	0.0	part_3
56	0.0	3.0	78.0	2.0	0.0	1.0	1.0	39.0	195.0	78.0	156.0	117.0	234.0	7.0	0.0	1.7720925447065383	3.0	0.0	3.0	7.0	7.0	5.0	0.0	part_3
57	0.0	3.0	88.0	2.0	0.0	1.0	1.0	132.0	44.0	88.0	176.0	220.0	264.0	7.0	0.0	1.400048095965758	3.0	0.0	4.0	2.0	8.0	3.0	0.0	part_3
58	0.0	3.0	147.0	3.0	0.0	1.0	1.0	98.0	49.0	294.0	147.0	245.0	196.0	7.0	0.0	1.7159208371303976	4.0	0.0	1.0	1.0	5.0	7.0	0.0	part_3
59	0.0	3.0	68.0	2.0	0.0	1.0	1.0	68.0	136.0	170.0	102.0	34.0	204.0	7.0	0.0	1.3567925856914371	1.0	0.0	4.0	2.0	8.0	3.0	0.0	part_3
60	0.0	4.0	196.0	4.0	0.0	1.0	0.0	98.0	294.0	49.0	196.0	245.0	147.0	7.0	0.0	2.1588558855000883	4.0	0.0	1.0	3.0	1.0	2.0	0.0	part_3
61	0.0	4.0	88.0	2.0	0.0	1.0	0.0	88.0	176.0	264.0	220.0	132.0	44.0	7.0	0.0	1.1587878910358995	1.0	0.0	3.0	6.0	3.0	8.0	0.0	part_3
62	0.0	4.0	147.0	3.0	0.0	1.0	1.0	147.0	98.0	294.0	196.0	49.0	245.0	7.0	0.0	3.9145800881087784	1.0	0.0	4.0	2.0	8.0	3.0	0.0	part_3
63	0.0	4.0	170.0	5.0	0.0	1.0	1.0	102.0	34.0	68.0	204.0	170.0	136.0	7.0	0.0	1.654019386973232	5.0	0.0	1.0	1.0	5.0	7.0	0.0	part_3
64	0.0	4.0	147.0	3.0	0.0	1.0	0.0	98.0	245.0	294.0	49.0	147.0	196.0	7.0	0.0	1.6894139726646245	5.0	0.0	4.0	8.0	4.0	6.0	0.0	part_3
65	0.0	4.0	136.0	4.0	0.0	1.0	0.0	68.0	170.0	136.0	102.0	34.0	204.0	7.0	0.0	2.18699102755636	3.0	0.0	4.0	8.0	4.0	6.0	0.0	part_3
66	0.0	4.0	136.0	4.0	0.0	1.0	1.0	204.0	170.0	136.0	102.0	68.0	34.0	7.0	0.0	1.387130904244259	3.0	0.0	3.0	7.0	7.0	5.0	0.0	part_3
67	0.0	4.0	147.0	3.0	0.0	1.0	1.0	98.0	294.0	49.0	147.0	245.0	196.0	7.0	0.0	1.3208534724544734	4.0	0.0	3.0	7.0	7.0	5.0	0.0	part_3
68	0.0	4.0	132.0	3.0	0.0	1.0	0.0	44.0	220.0	88.0	176.0	264.0	132.0	7.0	0.0	3.8659386087674648	6.0	0.0	1.0	3.0	1.0	2.0	0.0	part_3
69	0.0	4.0	98.0	2.0	0.0	1.0	0.0	147.0	196.0	294.0	245.0	49.0	98.0	7.0	0.0	3.4508569799363613	6.0	0.0	2.0	5.0	2.0	1.0	0.0	part_3
70	0.0	4.0	216.0	4.0	0.0	2.0	1.0	108.0	216.0	162.0	54.0	324.0	270.0	7.0	0.0	1.1875392771326003	2.0	0.0	2.0	4.0	6.0	4.0	0.0	part_3
71	0.0	4.0	264.0	6.0	0.0	1.0	1.0	176.0	132.0	88.0	220.0	44.0	264.0	7.0	0.0	2.1217738557606936	6.0	0.0	2.0	4.0	6.0	4.0	0.0	part_3
72	0.0	4.0	54.0	1.0	0.0	1.0	0.0	54.0	270.0	108.0	324.0	162.0	216.0	7.0	0.0	1.549631188157946	1.0	0.0	3.0	6.0	3.0	8.0	0.0	part_3
73	0.0	4.0	147.0	3.0	0.0	1.0	1.0	294.0	147.0	49.0	245.0	196.0	98.0	7.0	0.0	1.841660967562348	2.0	0.0	1.0	1.0	5.0	7.0	0.0	part_3
74	0.0	4.0	156.0	4.0	0.0	1.0	1.0	234.0	156.0	78.0	39.0	117.0	195.0	7.0	0.0	1.2481854099314658	2.0	0.0	2.0	4.0	6.0	4.0	0.0	part_3
75	0.0	4.0	136.0	4.0	0.0	1.0	0.0	34.0	136.0	68.0	170.0	102.0	204.0	7.0	0.0	3.3289749696850777	2.0	0.0	2.0	5.0	2.0	1.0	0.0	part_3
76	0.0	4.0	176.0	4.0	0.0	1.0	1.0	132.0	176.0	88.0	264.0	44.0	220.0	7.0	0.0	2.3973506728652865	2.0	0.0	1.0	1.0	5.0	7.0	0.0	part_3
77	0.0	4.0	162.0	3.0	0.0	1.0	1.0	270.0	108.0	162.0	324.0	54.0	216.0	7.0	0.0	3.534518632804975	3.0	0.0	1.0	1.0	5.0	7.0	0.0	part_3
78	0.0	4.0	68.0	2.0	0.0	1.0	1.0	204.0	68.0	136.0	34.0	170.0	102.0	7.0	0.0	1.5997085724957287	2.0	0.0	4.0	2.0	8.0	3.0	0.0	part_3
79	0.0	4.0	54.0	1.0	0.0	1.0	0.0	324.0	216.0	270.0	108.0	162.0	54.0	7.0	0.0	2.007299393415451	6.0	0.0	2.0	5.0	2.0	1.0	0.0	part_3
