	accuracy	block	chosen_bidding_amount	chosen_bidding_level	left_SSD	num_trial_presentations	paired_with_stopping	possible_bid_1	possible_bid_2	possible_bid_3	possible_bid_4	possible_bid_5	possible_bid_6	quadrant	raw_reward_magnitude	reaction_time	response	right_SSD	stepwise_reward_magnitude	stim_color	stim_reward	stim_shape	stop_signal_trial_type	which_part
0		1.0				1.0	1.0							4.0	384.0	0.3827225316199474	4.0		4.0	3.0	8.0	3.0		part_1
1		1.0				1.0	0.0							3.0	397.0	0.40572164772311226	3.0		4.0	6.0	4.0	7.0		part_1
2		1.0				1.0	0.0							1.0	390.0	0.3500022077350877	1.0		4.0	6.0	4.0	7.0		part_1
3		1.0				1.0	0.0							4.0	420.0	0.33924808976007625	4.0		4.0	6.0	4.0	7.0		part_1
4		1.0				1.0	0.0							1.0	0.0	0.3753390710335225	1.0		0.0	4.0	2.0	8.0		part_1
5		1.0				1.0	1.0							4.0	412.0	0.4193075940711424	4.0		4.0	3.0	8.0	3.0		part_1
6		1.0				1.0	0.0							3.0	389.0	0.3517054808908142	3.0		4.0	6.0	4.0	7.0		part_1
7		1.0				1.0	1.0							4.0	395.0	0.375957494485192	4.0		4.0	3.0	8.0	3.0		part_1
8		1.0				1.0	1.0							4.0	220.0	0.3189885233296081	4.0		3.0	5.0	7.0	6.0		part_1
9		1.0				1.0	1.0							4.0	87.0	0.3430564264417626	4.0		2.0	2.0	6.0	2.0		part_1
10		1.0				1.0	0.0							3.0	384.0	0.3659844385110773	3.0		4.0	6.0	4.0	7.0		part_1
11		1.0				1.0	1.0							3.0	189.0	0.3217698507360183	3.0		3.0	5.0	7.0	6.0		part_1
12		1.0				1.0	1.0							2.0	97.0	0.3898801751201973	2.0		2.0	2.0	6.0	2.0		part_1
13		1.0				1.0	0.0							2.0	417.0	0.33516958670224994	2.0		4.0	6.0	4.0	7.0		part_1
14		1.0				1.0	0.0							2.0	396.0	0.4028912439243868	2.0		4.0	6.0	4.0	7.0		part_1
15		1.0				1.0	0.0							4.0	383.0	0.7403385537327267	4.0		4.0	6.0	4.0	7.0		part_1
16		1.0				1.0	0.0							1.0	0.0	0.4027758430456743	1.0		0.0	6.0	4.0	7.0		part_1
17		1.0				1.0	0.0							3.0	93.0	0.3136624949402176	3.0		2.0	4.0	2.0	8.0		part_1
18		1.0				1.0	1.0							4.0	420.0	0.4044025866314769	4.0		4.0	3.0	8.0	3.0		part_1
19		1.0				1.0	1.0							3.0	120.0	0.3925100435153581	3.0		2.0	2.0	6.0	2.0		part_1
20		1.0				1.0	1.0							2.0	86.0	0.32630861562211066	2.0		2.0	2.0	6.0	2.0		part_1
21		1.0				1.0	0.0							3.0	74.0	0.3383870609104633	3.0		1.0	7.0	1.0	4.0		part_1
22		1.0				1.0	1.0							1.0	207.0	0.31780235818587244	1.0		3.0	5.0	7.0	6.0		part_1
23		1.0				1.0	1.0							4.0	82.0	0.3275835858657956	4.0		2.0	2.0	6.0	2.0		part_1
24		1.0				1.0	1.0							3.0	420.0	0.3404834162793122	3.0		4.0	3.0	8.0	3.0		part_1
25		1.0				2.0	0.0							4.0	0.0	0.4648624943220057	4.0		0.0	4.0	2.0	8.0		part_1
26		1.0				1.0	1.0							4.0	40.0	0.4080617061699741	4.0		1.0	1.0	5.0	5.0		part_1
27		1.0				1.0	0.0							4.0	421.0	0.33052368176868185	4.0		4.0	6.0	4.0	7.0		part_1
28		1.0				1.0	1.0							3.0	0.0	0.4217243051389232	3.0		0.0	5.0	7.0	6.0		part_1
29		1.0				1.0	0.0							1.0	378.0	0.3557759477989748	1.0		4.0	6.0	4.0	7.0		part_1
30		1.0				1.0	1.0							3.0	75.0	0.2983266144292429	3.0		2.0	2.0	6.0	2.0		part_1
31		1.0				1.0	0.0							2.0	56.0	0.3458243163186125	2.0		1.0	7.0	1.0	4.0		part_1
32		1.0				1.0	1.0							2.0	73.0	0.3669234160915949	2.0		1.0	1.0	5.0	5.0		part_1
33		1.0				1.0	0.0							4.0	115.0	0.29983373102731997	4.0		2.0	4.0	2.0	8.0		part_1
34		1.0				1.0	1.0							3.0	0.0	0.33380349160870537	3.0		0.0	3.0	8.0	3.0		part_1
35		1.0				1.0	1.0							2.0	112.0	0.4251667329226621	2.0		2.0	2.0	6.0	2.0		part_1
36		1.0				1.0	0.0							1.0	211.0	0.346329114632681	1.0		3.0	8.0	3.0	1.0		part_1
37		1.0				1.0	1.0							2.0	192.0	0.3254659316153265	2.0		3.0	5.0	7.0	6.0		part_1
38		1.0				1.0	0.0							2.0	123.0	0.37169038847787306	2.0		2.0	4.0	2.0	8.0		part_1
39		1.0				1.0	0.0							1.0	0.0	0.3613260724814609	1.0		0.0	4.0	2.0	8.0		part_1
40		1.0				1.0	0.0							3.0	398.0	0.4279653442208655	3.0		4.0	6.0	4.0	7.0		part_1
41		1.0				1.0	1.0							1.0	0.0	0.4640028487192467	1.0		0.0	5.0	7.0	6.0		part_1
42		1.0				1.0	0.0							4.0	65.0	0.5191307698842138	4.0		1.0	7.0	1.0	4.0		part_1
43		1.0				1.0	0.0							2.0	54.0	0.3858908592956141	2.0		1.0	7.0	1.0	4.0		part_1
44		1.0				1.0	1.0							1.0	397.0	0.44225102878408507	1.0		4.0	3.0	8.0	3.0		part_1
45		1.0				1.0	1.0							1.0	55.0	0.4304725050460547	1.0		1.0	1.0	5.0	5.0		part_1
46		1.0				1.0	1.0							4.0	196.0	0.40841697552241385	4.0		3.0	5.0	7.0	6.0		part_1
47		1.0				1.0	1.0							1.0	94.0	0.2983614087570459	1.0		2.0	2.0	6.0	2.0		part_1
48		1.0				1.0	1.0							1.0	391.0	0.4210825221380219	1.0		4.0	3.0	8.0	3.0		part_1
49		1.0				1.0	1.0							1.0	30.0	0.4008529268903658	1.0		1.0	1.0	5.0	5.0		part_1
50		1.0				1.0	1.0							2.0	396.0	0.3888320201658644	2.0		4.0	3.0	8.0	3.0		part_1
51		1.0				1.0	1.0							1.0	108.0	0.4224953202647157	1.0		2.0	2.0	6.0	2.0		part_1
52		1.0				1.0	0.0							2.0	182.0	0.3783406024449505	2.0		3.0	8.0	3.0	1.0		part_1
53		1.0				1.0	1.0							3.0	210.0	0.44646987115265796	3.0		3.0	5.0	7.0	6.0		part_1
54		1.0				1.0	1.0							3.0	401.0	0.447187859506812	3.0		4.0	3.0	8.0	3.0		part_1
55		1.0				1.0	1.0							2.0	190.0	0.5036529891658574	2.0		3.0	5.0	7.0	6.0		part_1
56		1.0				3.0	1.0							4.0	211.0	0.4500624104985036	4.0		3.0	5.0	7.0	6.0		part_1
57		1.0				1.0	0.0							1.0	185.0	0.4836706608184613	1.0		3.0	8.0	3.0	1.0		part_1
58		1.0				1.0	1.0							1.0	199.0	0.40551948989741504	1.0		3.0	5.0	7.0	6.0		part_1
59		1.0				1.0	1.0							1.0	0.0	0.4292679714853875	1.0		0.0	2.0	6.0	2.0		part_1
60		1.0				1.0	0.0							4.0	120.0	0.4176629129215144	4.0		2.0	4.0	2.0	8.0		part_1
61		1.0				1.0	0.0							3.0	385.0	0.3614494170760736	3.0		4.0	6.0	4.0	7.0		part_1
62		1.0				1.0	0.0							3.0	212.0	0.36308061401359737	3.0		3.0	8.0	3.0	1.0		part_1
63		1.0				1.0	1.0							2.0	0.0	0.3960002001840621	2.0		0.0	2.0	6.0	2.0		part_1
64		1.0				1.0	0.0							2.0	208.0	0.4640492600155994	2.0		3.0	8.0	3.0	1.0		part_1
65		1.0				1.0	0.0							4.0	0.0	0.4531684294342994	4.0		0.0	8.0	3.0	1.0		part_1
66		1.0				1.0	1.0							3.0	90.0	0.477055051131174	3.0		2.0	2.0	6.0	2.0		part_1
67		1.0				1.0	1.0							2.0	416.0	0.6123342624632642	2.0		4.0	3.0	8.0	3.0		part_1
68		1.0				1.0	1.0							3.0	0.0	0.3766157125355676	3.0		0.0	3.0	8.0	3.0		part_1
69		1.0				1.0	0.0							1.0	378.0	0.4450687501230277	1.0		4.0	6.0	4.0	7.0		part_1
70		1.0				1.0	1.0							1.0	0.0	0.5257913252571598	1.0		0.0	1.0	5.0	5.0		part_1
71		1.0				1.0	1.0							3.0	188.0	0.4009419730282389	3.0		3.0	5.0	7.0	6.0		part_1
72		1.0				1.0	0.0							2.0	114.0	0.4480796818970703	2.0		2.0	4.0	2.0	8.0		part_1
73		1.0				1.0	1.0							3.0	184.0	0.3799201555666514	3.0		3.0	5.0	7.0	6.0		part_1
74		1.0				1.0	1.0							1.0	83.0	0.3704515449353494	1.0		2.0	2.0	6.0	2.0		part_1
75		1.0				2.0	1.0							4.0	0.0	0.5060607166960835	4.0		0.0	2.0	6.0	2.0		part_1
76		1.0				1.0	0.0							4.0	401.0	0.449630533286836	4.0		4.0	6.0	4.0	7.0		part_1
77		1.0				1.0	0.0							1.0	420.0	0.3490389287471771	1.0		4.0	6.0	4.0	7.0		part_1
78		1.0				1.0	0.0							4.0	382.0	0.4615688849589787	4.0		4.0	6.0	4.0	7.0		part_1
79		1.0				1.0	0.0							1.0	207.0	0.4072800943395123	1.0		3.0	8.0	3.0	1.0		part_1
80		1.0				1.0	1.0							3.0	0.0	0.3952323966077529	3.0		0.0	3.0	8.0	3.0		part_1
81		1.0				1.0	1.0							4.0	62.0	0.4299242368433625	4.0		1.0	1.0	5.0	5.0		part_1
82		1.0				1.0	1.0							2.0	382.0	0.35184987529646605	2.0		4.0	3.0	8.0	3.0		part_1
83		1.0				1.0	0.0							4.0	400.0	0.39781040273373947	4.0		4.0	6.0	4.0	7.0		part_1
84		1.0				1.0	0.0							4.0	0.0	0.3641656506224536	4.0		0.0	6.0	4.0	7.0		part_1
85		1.0				1.0	1.0							3.0	42.0	0.4539953581988812	3.0		1.0	1.0	5.0	5.0		part_1
86		1.0				1.0	0.0							4.0	377.0	0.5446097698877566	4.0		4.0	6.0	4.0	7.0		part_1
87		1.0				1.0	0.0							4.0	0.0	0.4101543129654601	4.0		0.0	6.0	4.0	7.0		part_1
88		1.0				1.0	0.0							3.0	87.0	0.4223064241232351	3.0		2.0	4.0	2.0	8.0		part_1
89		1.0				2.0	0.0							4.0	97.0	0.614225764235016	4.0		2.0	4.0	2.0	8.0		part_1
90		1.0				1.0	0.0							1.0	204.0	0.5039875347283669	1.0		3.0	8.0	3.0	1.0		part_1
91		1.0				1.0	0.0							4.0	56.0	0.4123206249205396	4.0		1.0	7.0	1.0	4.0		part_1
92		1.0				1.0	0.0							3.0	211.0	0.4135536348912865	3.0		3.0	8.0	3.0	1.0		part_1
93		1.0				1.0	0.0							4.0	180.0	0.33589426847174764	4.0		3.0	8.0	3.0	1.0		part_1
94		1.0				1.0	1.0							2.0	119.0	0.35841370187699795	2.0		2.0	2.0	6.0	2.0		part_1
95		1.0				1.0	1.0							4.0	213.0	0.4387795577640645	4.0		3.0	5.0	7.0	6.0		part_1
96		1.0				1.0	0.0							1.0	41.0	0.4154520551674068	1.0		1.0	7.0	1.0	4.0		part_1
97		1.0				1.0	0.0							1.0	0.0	0.3157661370350979	1.0		0.0	4.0	2.0	8.0		part_1
98		1.0				1.0	0.0							1.0	199.0	0.4294956285157241	1.0		3.0	8.0	3.0	1.0		part_1
99		1.0				1.0	0.0							4.0	111.0	0.4621220828848891	4.0		2.0	4.0	2.0	8.0		part_1
100		2.0				1.0	1.0							1.0	97.0	0.401372360647656	1.0		2.0	2.0	6.0	2.0		part_1
101		2.0				1.0	0.0							2.0	86.0	0.30182440974749625	2.0		2.0	4.0	2.0	8.0		part_1
102		2.0				1.0	0.0							3.0	223.0	0.3341037161881104	3.0		3.0	8.0	3.0	1.0		part_1
103		2.0				1.0	0.0							2.0	213.0	0.3482600514544174	2.0		3.0	8.0	3.0	1.0		part_1
104		2.0				1.0	1.0							3.0	123.0	0.39291242288891226	3.0		2.0	2.0	6.0	2.0		part_1
105		2.0				1.0	0.0							2.0	123.0	0.3717246357700788	2.0		2.0	4.0	2.0	8.0		part_1
106		2.0				1.0	1.0							2.0	199.0	0.3374085407704115	2.0		3.0	5.0	7.0	6.0		part_1
107		2.0				1.0	0.0							2.0	98.0	0.3155871623312123	2.0		2.0	4.0	2.0	8.0		part_1
108		2.0				1.0	0.0							1.0	42.0	0.34969786973670125	1.0		1.0	7.0	1.0	4.0		part_1
109		2.0				1.0	1.0							2.0	0.0	0.3067614077590406	2.0		0.0	5.0	7.0	6.0		part_1
110		2.0				1.0	1.0							1.0	416.0	0.4084574858425185	1.0		4.0	3.0	8.0	3.0		part_1
111		2.0				1.0	0.0							2.0	114.0	0.3074800620088354	2.0		2.0	4.0	2.0	8.0		part_1
112		2.0				1.0	1.0							4.0	64.0	0.35154902521753684	4.0		1.0	1.0	5.0	5.0		part_1
113		2.0				1.0	1.0							1.0	63.0	0.36391800903948013	1.0		1.0	1.0	5.0	5.0		part_1
114		2.0				1.0	1.0							2.0	417.0	0.3876933048013598	2.0		4.0	3.0	8.0	3.0		part_1
115		2.0				1.0	1.0							1.0	0.0	0.35412568715400994	1.0		0.0	1.0	5.0	5.0		part_1
116		2.0				1.0	1.0							3.0	0.0	0.33129882195498794	3.0		0.0	3.0	8.0	3.0		part_1
117		2.0				1.0	1.0							1.0	378.0	0.2758799452567473	1.0		4.0	3.0	8.0	3.0		part_1
118		2.0				2.0	1.0							2.0	56.0	0.3893856927170418	2.0		1.0	1.0	5.0	5.0		part_1
119		2.0				1.0	1.0							1.0	0.0	0.4007423537550494	1.0		0.0	2.0	6.0	2.0		part_1
120		2.0				2.0	0.0							4.0	412.0	0.43722732830792665	4.0		4.0	6.0	4.0	7.0		part_1
121		2.0				1.0	1.0							4.0	194.0	0.4030033309245482	4.0		3.0	5.0	7.0	6.0		part_1
122		2.0				1.0	0.0							2.0	189.0	0.35812465619528666	2.0		3.0	8.0	3.0	1.0		part_1
123		2.0				1.0	0.0							3.0	32.0	0.34674294624710456	3.0		1.0	7.0	1.0	4.0		part_1
124		2.0				1.0	1.0							1.0	0.0	0.3938234025263228	1.0		0.0	2.0	6.0	2.0		part_1
125		2.0				1.0	1.0							3.0	0.0	0.32710500818211585	3.0		0.0	3.0	8.0	3.0		part_1
126		2.0				1.0	1.0							4.0	0.0	0.3283284001518041	4.0		0.0	1.0	5.0	5.0		part_1
127		2.0				1.0	1.0							1.0	408.0	0.32696591783314943	1.0		4.0	3.0	8.0	3.0		part_1
128		2.0				1.0	0.0							2.0	408.0	0.3279941401560791	2.0		4.0	6.0	4.0	7.0		part_1
129		2.0				1.0	0.0							1.0	210.0	0.4975032290676609	1.0		3.0	8.0	3.0	1.0		part_1
130		2.0				1.0	0.0							4.0	202.0	0.3866580808535218	4.0		3.0	8.0	3.0	1.0		part_1
131		2.0				1.0	0.0							3.0	115.0	0.3859858732903376	3.0		2.0	4.0	2.0	8.0		part_1
132		2.0				1.0	1.0							2.0	50.0	0.3652970038820058	2.0		1.0	1.0	5.0	5.0		part_1
133		2.0				1.0	1.0							1.0	74.0	0.35351266083307564	1.0		1.0	1.0	5.0	5.0		part_1
134		2.0				1.0	1.0							1.0	77.0	0.4094865365186706	1.0		2.0	2.0	6.0	2.0		part_1
135		2.0				1.0	1.0							3.0	0.0	0.33181906916433945	3.0		0.0	2.0	6.0	2.0		part_1
136		2.0				1.0	1.0							3.0	0.0	0.3549277980346233	3.0		0.0	1.0	5.0	5.0		part_1
137		2.0				1.0	1.0							3.0	102.0	0.4007928436039947	3.0		2.0	2.0	6.0	2.0		part_1
138		2.0				1.0	0.0							3.0	196.0	0.32272054569330066	3.0		3.0	8.0	3.0	1.0		part_1
139		2.0				2.0	0.0							4.0	0.0	0.3686304261209443	4.0		0.0	4.0	2.0	8.0		part_1
140		2.0				1.0	0.0							1.0	108.0	0.4039199487888254	1.0		2.0	4.0	2.0	8.0		part_1
141		2.0				1.0	1.0							4.0	115.0	0.38049467501696205	4.0		2.0	2.0	6.0	2.0		part_1
142		2.0				1.0	0.0							4.0	31.0	0.3606905517517589	4.0		1.0	7.0	1.0	4.0		part_1
143		2.0				1.0	0.0							2.0	0.0	0.32642972917528823	2.0		0.0	7.0	1.0	4.0		part_1
144		2.0				2.0	0.0							4.0	56.0	0.5078350447001867	4.0		1.0	7.0	1.0	4.0		part_1
145		2.0				1.0	0.0							2.0	99.0	0.4844287075102329	2.0		2.0	4.0	2.0	8.0		part_1
146		2.0				1.0	1.0							4.0	215.0	0.406387546507176	4.0		3.0	5.0	7.0	6.0		part_1
147		2.0				1.0	0.0							1.0	87.0	0.406984637316782	1.0		2.0	4.0	2.0	8.0		part_1
148		2.0				1.0	1.0							3.0	117.0	0.3617109177866951	3.0		2.0	2.0	6.0	2.0		part_1
149		2.0				1.0	1.0							4.0	0.0	0.39617627079132944	4.0		0.0	1.0	5.0	5.0		part_1
150		2.0				1.0	1.0							4.0	54.0	0.4760522259166464	4.0		1.0	1.0	5.0	5.0		part_1
151		2.0				1.0	1.0							1.0	202.0	0.4088744491455145	1.0		3.0	5.0	7.0	6.0		part_1
152		2.0				1.0	1.0							3.0	0.0	0.33190156222553924	3.0		0.0	5.0	7.0	6.0		part_1
153		2.0				1.0	0.0							2.0	404.0	0.3655021770391613	2.0		4.0	6.0	4.0	7.0		part_1
154		2.0				1.0	0.0							3.0	385.0	0.3875365294516087	3.0		4.0	6.0	4.0	7.0		part_1
155		2.0				1.0	1.0							4.0	65.0	0.3891706654685549	4.0		1.0	1.0	5.0	5.0		part_1
156		2.0				1.0	0.0							1.0	75.0	0.4569579964736477	1.0		2.0	4.0	2.0	8.0		part_1
157		2.0				1.0	1.0							1.0	56.0	0.3914490119204857	1.0		1.0	1.0	5.0	5.0		part_1
158		2.0				1.0	1.0							4.0	87.0	0.3576852258993313	4.0		2.0	2.0	6.0	2.0		part_1
159		2.0				1.0	0.0							4.0	73.0	0.4709815170499496	4.0		1.0	7.0	1.0	4.0		part_1
160		2.0				1.0	1.0							1.0	41.0	0.4377151816152036	1.0		1.0	1.0	5.0	5.0		part_1
161		2.0				1.0	0.0							1.0	0.0	0.35831484285881743	1.0		0.0	6.0	4.0	7.0		part_1
162		2.0				1.0	0.0							3.0	181.0	0.35928843688452616	3.0		3.0	8.0	3.0	1.0		part_1
163		2.0				1.0	0.0							2.0	29.0	0.3591282609850168	2.0		1.0	7.0	1.0	4.0		part_1
164		2.0				1.0	0.0							2.0	410.0	0.38436091277981177	2.0		4.0	6.0	4.0	7.0		part_1
165		2.0				1.0	1.0							3.0	179.0	0.3269694198970683	3.0		3.0	5.0	7.0	6.0		part_1
166		2.0				1.0	1.0							1.0	31.0	0.41807151096872985	1.0		1.0	1.0	5.0	5.0		part_1
167		2.0				1.0	0.0							2.0	194.0	0.3846137761720456	2.0		3.0	8.0	3.0	1.0		part_1
168		2.0				1.0	1.0							1.0	0.0	0.3848564109648578	1.0		0.0	3.0	8.0	3.0		part_1
169		2.0				1.0	1.0							3.0	400.0	0.31977563886903226	3.0		4.0	3.0	8.0	3.0		part_1
170		2.0				1.0	1.0							2.0	0.0	0.37580454419367015	2.0		0.0	2.0	6.0	2.0		part_1
171		2.0				1.0	1.0							3.0	56.0	0.3299878050456755	3.0		1.0	1.0	5.0	5.0		part_1
172		2.0				1.0	0.0							3.0	408.0	0.3755685508949682	3.0		4.0	6.0	4.0	7.0		part_1
173		2.0				1.0	0.0							4.0	34.0	0.36476006585871795	4.0		1.0	7.0	1.0	4.0		part_1
174		2.0				1.0	0.0							4.0	0.0	0.33172121190000325	4.0		0.0	7.0	1.0	4.0		part_1
175		2.0				1.0	1.0							2.0	220.0	0.3665414482820779	2.0		3.0	5.0	7.0	6.0		part_1
176		2.0				1.0	0.0							2.0	389.0	0.42453571391524747	2.0		4.0	6.0	4.0	7.0		part_1
177		2.0				1.0	1.0							1.0	209.0	0.4009862662060186	1.0		3.0	5.0	7.0	6.0		part_1
178		2.0				1.0	0.0							3.0	49.0	0.3347785758669488	3.0		1.0	7.0	1.0	4.0		part_1
179		2.0				1.0	1.0							2.0	87.0	0.34595735353650525	2.0		2.0	2.0	6.0	2.0		part_1
180		2.0				1.0	1.0							3.0	99.0	0.3129470801795833	3.0		2.0	2.0	6.0	2.0		part_1
181		2.0				1.0	0.0							2.0	0.0	0.3587720806244761	2.0		0.0	4.0	2.0	8.0		part_1
182		2.0				1.0	1.0							2.0	47.0	0.3370896590058692	2.0		1.0	1.0	5.0	5.0		part_1
183		2.0				1.0	0.0							4.0	40.0	0.3142075744690373	4.0		1.0	7.0	1.0	4.0		part_1
184		2.0				1.0	0.0							3.0	117.0	0.3607267727493309	3.0		2.0	4.0	2.0	8.0		part_1
185		2.0				1.0	1.0							3.0	410.0	0.3832387818256393	3.0		4.0	3.0	8.0	3.0		part_1
186		2.0				1.0	1.0							3.0	114.0	0.3384062457480468	3.0		2.0	2.0	6.0	2.0		part_1
187		2.0				1.0	0.0							1.0	47.0	0.3834106720169075	1.0		1.0	7.0	1.0	4.0		part_1
188		2.0				1.0	1.0							4.0	49.0	0.3622877961606719	4.0		1.0	1.0	5.0	5.0		part_1
189		2.0				1.0	0.0							3.0	201.0	0.3626289887470193	3.0		3.0	8.0	3.0	1.0		part_1
190		2.0				1.0	1.0							4.0	0.0	0.396928786940407	4.0		0.0	5.0	7.0	6.0		part_1
191		2.0				1.0	0.0							1.0	103.0	0.3743545559118502	1.0		2.0	4.0	2.0	8.0		part_1
192		2.0				1.0	1.0							3.0	32.0	0.3071189603069797	3.0		1.0	1.0	5.0	5.0		part_1
193		2.0				1.0	0.0							1.0	378.0	0.35392201715148985	1.0		4.0	6.0	4.0	7.0		part_1
194		2.0				1.0	0.0							1.0	43.0	0.3539455474819988	1.0		1.0	7.0	1.0	4.0		part_1
195		2.0				1.0	0.0							3.0	390.0	0.3086920263012871	3.0		4.0	6.0	4.0	7.0		part_1
196		2.0				1.0	1.0							2.0	398.0	0.3099547207239084	2.0		4.0	3.0	8.0	3.0		part_1
197		2.0				1.0	1.0							3.0	66.0	0.3548325841547921	3.0		1.0	1.0	5.0	5.0		part_1
198		2.0				1.0	1.0							3.0	114.0	0.3561195343500003	3.0		2.0	2.0	6.0	2.0		part_1
199		2.0				1.0	0.0							2.0	80.0	0.3223903182661161	2.0		2.0	4.0	2.0	8.0		part_1
200		3.0				1.0	1.0							2.0	123.0	0.3672901525278576	2.0		2.0	2.0	6.0	2.0		part_1
201		3.0				1.0	0.0							2.0	98.0	0.30057789618149394	2.0		2.0	4.0	2.0	8.0		part_1
202		3.0				1.0	0.0							4.0	196.0	0.3785937380744144	4.0		3.0	8.0	3.0	1.0		part_1
203		3.0				1.0	0.0							4.0	182.0	0.3460612587514333	4.0		3.0	8.0	3.0	1.0		part_1
204		3.0				1.0	1.0							3.0	213.0	0.3132223807624541	3.0		3.0	5.0	7.0	6.0		part_1
205		3.0				1.0	0.0							3.0	90.0	0.3248060007463209	3.0		2.0	4.0	2.0	8.0		part_1
206		3.0				1.0	0.0							3.0	60.0	0.33612980507314205	3.0		1.0	7.0	1.0	4.0		part_1
207		3.0				1.0	0.0							4.0	216.0	0.3695870743249543	4.0		3.0	8.0	3.0	1.0		part_1
208		3.0				1.0	0.0							4.0	120.0	0.30416214728029445	4.0		2.0	4.0	2.0	8.0		part_1
209		3.0				2.0	1.0							1.0	212.0	0.3722738632932305	1.0		3.0	5.0	7.0	6.0		part_1
210		3.0				1.0	0.0							1.0	26.0	0.3162317890673876	1.0		1.0	7.0	1.0	4.0		part_1
211		3.0				1.0	0.0							4.0	74.0	0.3959061170462519	4.0		1.0	7.0	1.0	4.0		part_1
212		3.0				1.0	0.0							3.0	119.0	0.3401009701774456	3.0		2.0	4.0	2.0	8.0		part_1
213		3.0				1.0	0.0							2.0	414.0	0.34041419450659305	2.0		4.0	6.0	4.0	7.0		part_1
214		3.0				1.0	1.0							3.0	400.0	0.2838604762218893	3.0		4.0	3.0	8.0	3.0		part_1
215		3.0				1.0	0.0							4.0	42.0	0.34255569701781496	4.0		1.0	7.0	1.0	4.0		part_1
216		3.0				1.0	1.0							1.0	185.0	0.3542157797492109	1.0		3.0	5.0	7.0	6.0		part_1
217		3.0				2.0	1.0							2.0	208.0	0.4119130894541741	2.0		3.0	5.0	7.0	6.0		part_1
218		3.0				1.0	0.0							3.0	62.0	0.2981168312835507	3.0		1.0	7.0	1.0	4.0		part_1
219		3.0				1.0	1.0							2.0	36.0	0.39074621273903176	2.0		1.0	1.0	5.0	5.0		part_1
220		3.0				1.0	0.0							3.0	416.0	0.33439172903308645	3.0		4.0	6.0	4.0	7.0		part_1
221		3.0				1.0	1.0							2.0	390.0	0.3339216645108536	2.0		4.0	3.0	8.0	3.0		part_1
222		3.0				1.0	1.0							2.0	196.0	0.3012037454755045	2.0		3.0	5.0	7.0	6.0		part_1
223		3.0				1.0	1.0							3.0	0.0	0.3580352871795185	3.0		0.0	5.0	7.0	6.0		part_1
224		3.0				1.0	0.0							4.0	216.0	0.3919910197146237	4.0		3.0	8.0	3.0	1.0		part_1
225		3.0				1.0	1.0							4.0	182.0	0.3826900703134015	4.0		3.0	5.0	7.0	6.0		part_1
226		3.0				1.0	0.0							3.0	77.0	0.4819378128740937	3.0		2.0	4.0	2.0	8.0		part_1
227		3.0				1.0	1.0							2.0	198.0	0.33709632250247523	2.0		3.0	5.0	7.0	6.0		part_1
228		3.0				1.0	0.0							4.0	82.0	0.36077672749524936	4.0		2.0	4.0	2.0	8.0		part_1
229		3.0				1.0	0.0							1.0	425.0	0.41875148873077706	1.0		4.0	6.0	4.0	7.0		part_1
230		3.0				1.0	1.0							3.0	0.0	0.3049135564942844	3.0		0.0	5.0	7.0	6.0		part_1
231		3.0				1.0	1.0							1.0	98.0	0.3634416469722055	1.0		2.0	2.0	6.0	2.0		part_1
232		3.0				1.0	0.0							4.0	398.0	0.29430227604461834	4.0		4.0	6.0	4.0	7.0		part_1
233		3.0				1.0	0.0							1.0	0.0	0.3517169010010548	1.0		0.0	4.0	2.0	8.0		part_1
234		3.0				1.0	1.0							4.0	181.0	0.3196573948953301	4.0		3.0	5.0	7.0	6.0		part_1
235		3.0				1.0	1.0							2.0	414.0	0.3301501726382412	2.0		4.0	3.0	8.0	3.0		part_1
236		3.0				1.0	1.0							1.0	43.0	0.37577476643491536	1.0		1.0	1.0	5.0	5.0		part_1
237		3.0				1.0	0.0							4.0	0.0	0.3875531444791704	4.0		0.0	8.0	3.0	1.0		part_1
238		3.0				1.0	1.0							4.0	103.0	0.3543148278840817	4.0		2.0	2.0	6.0	2.0		part_1
239		3.0				1.0	0.0							3.0	199.0	0.3428228452685289	3.0		3.0	8.0	3.0	1.0		part_1
240		3.0				1.0	1.0							3.0	378.0	0.3209880703361705	3.0		4.0	3.0	8.0	3.0		part_1
241		3.0				1.0	0.0							2.0	0.0	0.3350833752774633	2.0		0.0	6.0	4.0	7.0		part_1
242		3.0				1.0	0.0							3.0	188.0	0.34462455147877336	3.0		3.0	8.0	3.0	1.0		part_1
243		3.0				1.0	1.0							4.0	385.0	0.2567913719103672	4.0		4.0	3.0	8.0	3.0		part_1
244		3.0				1.0	1.0							3.0	383.0	0.3456289570312947	3.0		4.0	3.0	8.0	3.0		part_1
245		3.0				1.0	0.0							2.0	50.0	0.34722426877124235	2.0		1.0	7.0	1.0	4.0		part_1
246		3.0				1.0	1.0							1.0	211.0	0.3590678394539282	1.0		3.0	5.0	7.0	6.0		part_1
247		3.0				1.0	1.0							4.0	86.0	0.3484159329091199	4.0		2.0	2.0	6.0	2.0		part_1
248		3.0				1.0	1.0							4.0	0.0	0.31635263515636325	4.0		0.0	5.0	7.0	6.0		part_1
249		3.0				1.0	1.0							2.0	74.0	0.3720722320140339	2.0		1.0	1.0	5.0	5.0		part_1
250		3.0				1.0	0.0							1.0	30.0	0.2946548294858076	1.0		1.0	7.0	1.0	4.0		part_1
251		3.0				1.0	0.0							2.0	112.0	0.3275546022923663	2.0		2.0	4.0	2.0	8.0		part_1
252		3.0				1.0	0.0							2.0	0.0	0.341446001897566	2.0		0.0	8.0	3.0	1.0		part_1
253		3.0				1.0	0.0							3.0	66.0	0.31695558002684265	3.0		1.0	7.0	1.0	4.0		part_1
254		3.0				1.0	0.0							4.0	86.0	0.29636413865955546	4.0		2.0	4.0	2.0	8.0		part_1
255		3.0				1.0	1.0							1.0	385.0	0.28511227859416977	1.0		4.0	3.0	8.0	3.0		part_1
256		3.0				1.0	1.0							2.0	186.0	0.2981389612541534	2.0		3.0	5.0	7.0	6.0		part_1
257		3.0				1.0	0.0							2.0	393.0	0.32147525664186105	2.0		4.0	6.0	4.0	7.0		part_1
258		3.0				1.0	0.0							3.0	0.0	0.28596740774810314	3.0		0.0	7.0	1.0	4.0		part_1
259		3.0				2.0	1.0							4.0	0.0	0.366948587121442	4.0		0.0	3.0	8.0	3.0		part_1
260		3.0				1.0	0.0							3.0	90.0	0.3448079261579551	3.0		2.0	4.0	2.0	8.0		part_1
261		3.0				1.0	1.0							2.0	93.0	0.3581344008562155	2.0		2.0	2.0	6.0	2.0		part_1
262		3.0				1.0	0.0							2.0	0.0	0.3684877005871385	2.0		0.0	4.0	2.0	8.0		part_1
263		3.0				1.0	1.0							4.0	67.0	0.5040738885872997	4.0		1.0	1.0	5.0	5.0		part_1
264		3.0				1.0	0.0							2.0	40.0	0.370994066586718	2.0		1.0	7.0	1.0	4.0		part_1
265		3.0				1.0	0.0							3.0	52.0	0.3357985423062928	3.0		1.0	7.0	1.0	4.0		part_1
266		3.0				2.0	1.0							3.0	42.0	0.3704731347388588	3.0		1.0	1.0	5.0	5.0		part_1
267		3.0				1.0	0.0							1.0	408.0	0.3838126740884036	1.0		4.0	6.0	4.0	7.0		part_1
268		3.0				2.0	1.0							2.0	28.0	0.4190522419521585	2.0		1.0	1.0	5.0	5.0		part_1
269		3.0				1.0	1.0							1.0	182.0	0.4190772100700997	1.0		3.0	5.0	7.0	6.0		part_1
270		3.0				1.0	1.0							3.0	216.0	0.3614803324453533	3.0		3.0	5.0	7.0	6.0		part_1
271		3.0				1.0	0.0							2.0	0.0	0.35326592216733843	2.0		0.0	6.0	4.0	7.0		part_1
272		3.0				1.0	0.0							2.0	184.0	0.3751407503150404	2.0		3.0	8.0	3.0	1.0		part_1
273		3.0				1.0	1.0							4.0	404.0	0.3311082404688932	4.0		4.0	3.0	8.0	3.0		part_1
274		3.0				1.0	0.0							2.0	54.0	0.3868876216583885	2.0		1.0	7.0	1.0	4.0		part_1
275		3.0				1.0	1.0							1.0	98.0	0.2974913721554913	1.0		2.0	2.0	6.0	2.0		part_1
276		3.0				1.0	0.0							1.0	400.0	0.3325850960682146	1.0		4.0	6.0	4.0	7.0		part_1
277		3.0				1.0	1.0							4.0	181.0	0.490573049581144	4.0		3.0	5.0	7.0	6.0		part_1
278		3.0				1.0	1.0							2.0	60.0	0.3554798140539788	2.0		1.0	1.0	5.0	5.0		part_1
279		3.0				1.0	1.0							1.0	0.0	0.34637457807548344	1.0		0.0	3.0	8.0	3.0		part_1
280		3.0				1.0	1.0							1.0	425.0	0.3569149250397459	1.0		4.0	3.0	8.0	3.0		part_1
281		3.0				1.0	0.0							4.0	0.0	0.3343716725939885	4.0		0.0	7.0	1.0	4.0		part_1
282		3.0				1.0	0.0							4.0	0.0	0.3699309878866188	4.0		0.0	8.0	3.0	1.0		part_1
283		3.0				1.0	0.0							2.0	54.0	0.3246604754822329	2.0		1.0	7.0	1.0	4.0		part_1
284		3.0				1.0	0.0							3.0	0.0	0.3369089820189401	3.0		0.0	8.0	3.0	1.0		part_1
285		3.0				1.0	0.0							3.0	181.0	0.35885257401969284	3.0		3.0	8.0	3.0	1.0		part_1
286		3.0				1.0	0.0							4.0	98.0	0.3273301649023779	4.0		2.0	4.0	2.0	8.0		part_1
287		3.0				1.0	1.0							3.0	221.0	0.3261186088784598	3.0		3.0	5.0	7.0	6.0		part_1
288		3.0				1.0	1.0							2.0	420.0	0.3161874007200822	2.0		4.0	3.0	8.0	3.0		part_1
289		3.0				1.0	1.0							1.0	0.0	0.3506723337923177	1.0		0.0	3.0	8.0	3.0		part_1
290		3.0				1.0	0.0							2.0	0.0	0.34033776773139834	2.0		0.0	7.0	1.0	4.0		part_1
291		3.0				1.0	0.0							2.0	190.0	0.3289063030970283	2.0		3.0	8.0	3.0	1.0		part_1
292		3.0				1.0	1.0							2.0	404.0	0.31908095319522545	2.0		4.0	3.0	8.0	3.0		part_1
293		3.0				1.0	0.0							4.0	192.0	0.3085536947473884	4.0		3.0	8.0	3.0	1.0		part_1
294		3.0				1.0	0.0							2.0	0.0	0.2870463675935753	2.0		0.0	7.0	1.0	4.0		part_1
295		3.0				1.0	0.0							1.0	0.0	0.3087111417553388	1.0		0.0	7.0	1.0	4.0		part_1
296		3.0				1.0	1.0							2.0	0.0	0.29851835675071925	2.0		0.0	5.0	7.0	6.0		part_1
297		3.0				1.0	0.0							3.0	87.0	0.3208862726460211	3.0		2.0	4.0	2.0	8.0		part_1
298		3.0				1.0	1.0							4.0	64.0	0.3210671357228421	4.0		1.0	1.0	5.0	5.0		part_1
299		3.0				1.0	0.0							2.0	0.0	0.3559712455025874	2.0		0.0	8.0	3.0	1.0		part_1
300		4.0				1.0	0.0							1.0	29.0	0.3798319478519261	1.0		1.0	7.0	1.0	4.0		part_1
301		4.0				1.0	0.0							1.0	63.0	0.2902730941423215	1.0		1.0	7.0	1.0	4.0		part_1
302		4.0				1.0	0.0							1.0	49.0	0.2804563232930377	1.0		1.0	7.0	1.0	4.0		part_1
303		4.0				1.0	1.0							2.0	389.0	0.3475369024672545	2.0		4.0	3.0	8.0	3.0		part_1
304		4.0				1.0	1.0							3.0	207.0	0.3361679135123268	3.0		3.0	5.0	7.0	6.0		part_1
305		4.0				1.0	1.0							1.0	0.0	0.3599953990778886	1.0		0.0	2.0	6.0	2.0		part_1
306		4.0				1.0	0.0							2.0	186.0	0.3153368437779136	2.0		3.0	8.0	3.0	1.0		part_1
307		4.0				1.0	0.0							4.0	179.0	0.3164577257120982	4.0		3.0	8.0	3.0	1.0		part_1
308		4.0				1.0	0.0							2.0	416.0	0.3181455877493136	2.0		4.0	6.0	4.0	7.0		part_1
309		4.0				1.0	1.0							4.0	90.0	0.29423017596127465	4.0		2.0	2.0	6.0	2.0		part_1
310		4.0				1.0	0.0							2.0	220.0	0.3290134142152965	2.0		3.0	8.0	3.0	1.0		part_1
311		4.0				1.0	0.0							4.0	0.0	0.3302683756337501	4.0		0.0	6.0	4.0	7.0		part_1
312		4.0				1.0	1.0							3.0	63.0	0.30735299218213186	3.0		1.0	1.0	5.0	5.0		part_1
313		4.0				1.0	0.0							2.0	0.0	0.3195720121730119	2.0		0.0	6.0	4.0	7.0		part_1
314		4.0				2.0	1.0							2.0	223.0	0.3657535228994675	2.0		3.0	5.0	7.0	6.0		part_1
315		4.0				1.0	0.0							4.0	193.0	0.37912854430032894	4.0		3.0	8.0	3.0	1.0		part_1
316		4.0				1.0	1.0							2.0	0.0	0.334660456283018	2.0		0.0	3.0	8.0	3.0		part_1
317		4.0				1.0	1.0							2.0	29.0	0.37857996218372136	2.0		1.0	1.0	5.0	5.0		part_1
318		4.0				1.0	1.0							1.0	98.0	0.3118628690135665	1.0		2.0	2.0	6.0	2.0		part_1
319		4.0				1.0	1.0							4.0	114.0	0.3687397236935793	4.0		2.0	2.0	6.0	2.0		part_1
320		4.0				1.0	0.0							2.0	0.0	0.31265905778855085	2.0		0.0	8.0	3.0	1.0		part_1
321		4.0				1.0	0.0							4.0	0.0	0.2680220567272045	4.0		0.0	4.0	2.0	8.0		part_1
322		4.0				2.0	0.0							1.0	0.0	0.39299946086248383	1.0		0.0	7.0	1.0	4.0		part_1
323		4.0				1.0	1.0							3.0	54.0	0.360722481738776	3.0		1.0	1.0	5.0	5.0		part_1
324		4.0				1.0	1.0							2.0	80.0	0.33990181772969663	2.0		2.0	2.0	6.0	2.0		part_1
325		4.0				1.0	1.0							4.0	111.0	0.2950029204948805	4.0		2.0	2.0	6.0	2.0		part_1
326		4.0				1.0	0.0							1.0	36.0	0.2395181505708024	1.0		1.0	7.0	1.0	4.0		part_1
327		4.0				1.0	0.0							2.0	395.0	0.3076511532999575	2.0		4.0	6.0	4.0	7.0		part_1
328		4.0				1.0	0.0							3.0	79.0	0.3169981940300204	3.0		2.0	4.0	2.0	8.0		part_1
329		4.0				1.0	1.0							1.0	0.0	0.2750920071848668	1.0		0.0	1.0	5.0	5.0		part_1
330		4.0				1.0	1.0							4.0	377.0	0.2742759546381421	4.0		4.0	3.0	8.0	3.0		part_1
331		4.0				1.0	0.0							1.0	207.0	0.3419455400435254	1.0		3.0	8.0	3.0	1.0		part_1
332		4.0				2.0	0.0							1.0	105.0	0.3316513527533971	1.0		2.0	4.0	2.0	8.0		part_1
333		4.0				1.0	0.0							1.0	94.0	0.33233816950814804	1.0		2.0	4.0	2.0	8.0		part_1
334		4.0				1.0	1.0							1.0	115.0	0.2770003288751468	1.0		2.0	2.0	6.0	2.0		part_1
335		4.0				1.0	1.0							3.0	390.0	0.3787344461889006	3.0		4.0	3.0	8.0	3.0		part_1
336		4.0				1.0	1.0							1.0	393.0	0.3671572579187341	1.0		4.0	3.0	8.0	3.0		part_1
337		4.0				3.0	1.0							4.0	0.0	0.3356765947537497	4.0		0.0	1.0	5.0	5.0		part_1
338		4.0				1.0	0.0							1.0	198.0	0.4034250456024893	1.0		3.0	8.0	3.0	1.0		part_1
339		4.0				1.0	1.0							2.0	40.0	0.35934051452204585	2.0		1.0	1.0	5.0	5.0		part_1
340		4.0				2.0	1.0							4.0	193.0	0.4066873273113743	4.0		3.0	5.0	7.0	6.0		part_1
341		4.0				1.0	0.0							2.0	215.0	0.3731730688014068	2.0		3.0	8.0	3.0	1.0		part_1
342		4.0				1.0	1.0							2.0	120.0	0.3631777885020711	2.0		2.0	2.0	6.0	2.0		part_1
343		4.0				1.0	1.0							4.0	29.0	0.35209298803238204	4.0		1.0	1.0	5.0	5.0		part_1
344		4.0				1.0	1.0							1.0	204.0	0.3171904558548704	1.0		3.0	5.0	7.0	6.0		part_1
345		4.0				1.0	0.0							4.0	0.0	0.35196363064460456	4.0		0.0	8.0	3.0	1.0		part_1
346		4.0				1.0	0.0							4.0	102.0	0.3646870094817132	4.0		2.0	4.0	2.0	8.0		part_1
347		4.0				1.0	0.0							3.0	37.0	0.33160972344921896	3.0		1.0	7.0	1.0	4.0		part_1
348		4.0				1.0	1.0							4.0	421.0	0.33040265302406624	4.0		4.0	3.0	8.0	3.0		part_1
349		4.0				1.0	0.0							4.0	0.0	0.3541089632199146	4.0		0.0	7.0	1.0	4.0		part_1
350		4.0				1.0	0.0							2.0	0.0	0.4220504688564688	2.0		0.0	8.0	3.0	1.0		part_1
351		4.0				2.0	0.0							1.0	114.0	0.23176493745995685	1.0		2.0	4.0	2.0	8.0		part_1
352		4.0				1.0	0.0							1.0	83.0	0.3671803561737761	1.0		2.0	4.0	2.0	8.0		part_1
353		4.0				1.0	1.0							1.0	0.0	0.30067483050515875	1.0		0.0	2.0	6.0	2.0		part_1
354		4.0				1.0	1.0							3.0	389.0	0.4242034865892492	3.0		4.0	3.0	8.0	3.0		part_1
355		4.0				1.0	1.0							3.0	49.0	0.4047120280447416	3.0		1.0	1.0	5.0	5.0		part_1
356		4.0				1.0	0.0							1.0	0.0	0.33671240450348705	1.0		0.0	7.0	1.0	4.0		part_1
357		4.0				1.0	0.0							4.0	104.0	0.4042016748571768	4.0		2.0	4.0	2.0	8.0		part_1
358		4.0				1.0	1.0							4.0	0.0	0.3496161588700488	4.0		0.0	1.0	5.0	5.0		part_1
359		4.0				1.0	1.0							4.0	408.0	0.3619546797126532	4.0		4.0	3.0	8.0	3.0		part_1
360		4.0				1.0	1.0							4.0	408.0	0.37286011746618897	4.0		4.0	3.0	8.0	3.0		part_1
361		4.0				1.0	0.0							3.0	55.0	0.3825643887394108	3.0		1.0	7.0	1.0	4.0		part_1
362		4.0				1.0	0.0							1.0	0.0	0.3283032336039469	1.0		0.0	6.0	4.0	7.0		part_1
363		4.0				1.0	1.0							3.0	54.0	0.40706064383266494	3.0		1.0	1.0	5.0	5.0		part_1
364		4.0				1.0	1.0							1.0	180.0	0.3419121284969151	1.0		3.0	5.0	7.0	6.0		part_1
365		4.0				2.0	1.0							1.0	0.0	0.3532568719238043	1.0		0.0	1.0	5.0	5.0		part_1
366		4.0				2.0	1.0							4.0	26.0	0.39970534469466656	4.0		1.0	1.0	5.0	5.0		part_1
367		4.0				2.0	0.0							2.0	67.0	0.4007502199383453	2.0		1.0	7.0	1.0	4.0		part_1
368		4.0				1.0	0.0							3.0	404.0	0.41212203964823857	3.0		4.0	6.0	4.0	7.0		part_1
369		4.0				1.0	1.0							1.0	378.0	0.3895789984962903	1.0		4.0	3.0	8.0	3.0		part_1
370		4.0				1.0	0.0							1.0	213.0	0.3562691842089407	1.0		3.0	8.0	3.0	1.0		part_1
371		4.0				1.0	1.0							1.0	0.0	0.3349332527141087	1.0		0.0	2.0	6.0	2.0		part_1
372		4.0				1.0	0.0							2.0	64.0	0.3694656229927205	2.0		1.0	7.0	1.0	4.0		part_1
373		4.0				1.0	0.0							4.0	209.0	0.4698003341909498	4.0		3.0	8.0	3.0	1.0		part_1
374		4.0				1.0	1.0							1.0	104.0	0.348878379620146	1.0		2.0	2.0	6.0	2.0		part_1
375		4.0				1.0	0.0							2.0	64.0	0.3707023144816048	2.0		1.0	7.0	1.0	4.0		part_1
376		4.0				1.0	1.0							1.0	37.0	0.37193696649046615	1.0		1.0	1.0	5.0	5.0		part_1
377		4.0				1.0	0.0							4.0	28.0	0.32684627891285345	4.0		1.0	7.0	1.0	4.0		part_1
378		4.0				1.0	1.0							2.0	105.0	0.3613244644948281	2.0		2.0	2.0	6.0	2.0		part_1
379		4.0				1.0	0.0							3.0	221.0	0.4514932195306756	3.0		3.0	8.0	3.0	1.0		part_1
380		4.0				1.0	1.0							1.0	52.0	0.3505272679030895	1.0		1.0	1.0	5.0	5.0		part_1
381		4.0				1.0	1.0							3.0	79.0	0.3620445028645918	3.0		2.0	2.0	6.0	2.0		part_1
382		4.0				1.0	1.0							3.0	400.0	0.32833405589917675	3.0		4.0	3.0	8.0	3.0		part_1
383		4.0				1.0	1.0							3.0	34.0	0.3739028242998757	3.0		1.0	1.0	5.0	5.0		part_1
384		4.0				1.0	0.0							4.0	0.0	0.3534833288867958	4.0		0.0	8.0	3.0	1.0		part_1
385		4.0				1.0	0.0							1.0	391.0	0.3869970212690532	1.0		4.0	6.0	4.0	7.0		part_1
386		4.0				1.0	0.0							1.0	97.0	0.3992120786570013	1.0		2.0	4.0	2.0	8.0		part_1
387		4.0				1.0	0.0							3.0	0.0	0.3557981086196378	3.0		0.0	4.0	2.0	8.0		part_1
388		4.0				1.0	0.0							1.0	220.0	0.3680507477256469	1.0		3.0	8.0	3.0	1.0		part_1
389		4.0				2.0	1.0							1.0	0.0	0.34545130690094084	1.0		0.0	5.0	7.0	6.0		part_1
390		4.0				1.0	1.0							4.0	112.0	0.3685640977346338	4.0		2.0	2.0	6.0	2.0		part_1
391		4.0				1.0	0.0							4.0	420.0	0.31155248772120103	4.0		4.0	6.0	4.0	7.0		part_1
392		4.0				1.0	0.0							1.0	400.0	0.460442439711187	1.0		4.0	6.0	4.0	7.0		part_1
393		4.0				1.0	1.0							2.0	201.0	0.3588259047246538	2.0		3.0	5.0	7.0	6.0		part_1
394		4.0				1.0	0.0							1.0	112.0	0.35894865333102643	1.0		2.0	4.0	2.0	8.0		part_1
395		4.0				2.0	0.0							3.0	0.0	0.5532130387146026	3.0		0.0	6.0	4.0	7.0		part_1
396		4.0				1.0	1.0							1.0	398.0	0.6095253760577181	1.0		4.0	3.0	8.0	3.0		part_1
397		4.0				2.0	1.0							4.0	0.0	0.4527027814183384	4.0		0.0	1.0	5.0	5.0		part_1
398		4.0				1.0	0.0							3.0	63.0	0.3626821449724957	3.0		1.0	7.0	1.0	4.0		part_1
399		4.0				1.0	1.0							3.0	216.0	0.4304941054433584	3.0		3.0	5.0	7.0	6.0		part_1
0	4.0	1.0			250.0	0.0	1.0							5.0	0.0	0.0	0.0	250.0	3.0	5.0	7.0	6.0	1.0	part_2
1	1.0	1.0			300.0	0.0	1.0							5.0	0.0	0.6365131182246841	5.0	250.0	1.0	1.0	5.0	5.0	0.0	part_2
2	1.0	1.0			300.0	0.0	0.0							6.0	0.0	0.5488940226496197	6.0	250.0	1.0	7.0	1.0	4.0	0.0	part_2
3	1.0	1.0			300.0	0.0	0.0							6.0	0.0	0.7072024188237265	6.0	250.0	1.0	7.0	1.0	4.0	0.0	part_2
4	1.0	1.0			300.0	0.0	0.0							5.0	0.0	0.4707099900697358	5.0	250.0	2.0	4.0	2.0	8.0	0.0	part_2
5	1.0	1.0			300.0	0.0	0.0							5.0	0.0	0.6639404681627639	5.0	250.0	1.0	7.0	1.0	4.0	0.0	part_2
6	1.0	1.0			300.0	0.0	0.0							5.0	0.0	0.7418941932264715	5.0	250.0	4.0	6.0	4.0	7.0	0.0	part_2
7	3.0	1.0			300.0	0.0	1.0							6.0	0.0	0.4053584364010021	6.0	250.0	4.0	3.0	8.0	3.0	1.0	part_2
8	1.0	1.0			300.0	0.0	0.0							6.0	0.0	0.6889019436202943	6.0	200.0	4.0	6.0	4.0	7.0	0.0	part_2
9	4.0	1.0			300.0	0.0	1.0							5.0	0.0	0.0	0.0	200.0	4.0	3.0	8.0	3.0	1.0	part_2
10	1.0	1.0			350.0	0.0	0.0							6.0	0.0	0.3737967860070057	6.0	200.0	1.0	7.0	1.0	4.0	0.0	part_2
11	4.0	1.0			350.0	0.0	1.0							6.0	0.0	0.0	0.0	200.0	3.0	5.0	7.0	6.0	1.0	part_2
12	4.0	1.0			350.0	0.0	1.0							6.0	0.0	0.0	0.0	250.0	1.0	1.0	5.0	5.0	1.0	part_2
13	1.0	1.0			350.0	0.0	1.0							5.0	0.0	0.7586178267956711	5.0	300.0	2.0	2.0	6.0	2.0	0.0	part_2
14	1.0	1.0			350.0	0.0	0.0							5.0	0.0	0.7273868694319391	5.0	300.0	1.0	7.0	1.0	4.0	0.0	part_2
15	1.0	1.0			350.0	0.0	0.0							5.0	0.0	0.7393430002266541	5.0	300.0	2.0	4.0	2.0	8.0	0.0	part_2
16	3.0	1.0			350.0	0.0	1.0							5.0	0.0	0.3808297803625464	5.0	300.0	1.0	1.0	5.0	5.0	1.0	part_2
17	1.0	1.0			300.0	0.0	0.0							5.0	0.0	0.898281623609364	5.0	300.0	2.0	4.0	2.0	8.0	0.0	part_2
18	4.0	1.0			300.0	0.0	1.0							5.0	0.0	0.0	0.0	300.0	1.0	1.0	5.0	5.0	1.0	part_2
19	1.0	1.0			350.0	0.0	0.0							6.0	0.0	0.8215253553935327	6.0	300.0	2.0	4.0	2.0	8.0	0.0	part_2
20	1.0	1.0			350.0	0.0	0.0							6.0	0.0	0.7428806106327102	6.0	300.0	2.0	4.0	2.0	8.0	0.0	part_2
21	4.0	1.0			350.0	0.0	1.0							6.0	0.0	0.0	0.0	300.0	3.0	5.0	7.0	6.0	1.0	part_2
22	4.0	1.0			350.0	0.0	1.0							6.0	0.0	0.0	0.0	350.0	1.0	1.0	5.0	5.0	1.0	part_2
23	1.0	1.0			350.0	0.0	0.0							5.0	0.0	0.4855957580148242	5.0	400.0	1.0	7.0	1.0	4.0	0.0	part_2
24	1.0	1.0			350.0	0.0	0.0							5.0	0.0	0.633570853213314	5.0	400.0	3.0	8.0	3.0	1.0	0.0	part_2
25	1.0	1.0			350.0	0.0	0.0							5.0	0.0	0.600145994045306	5.0	400.0	1.0	7.0	1.0	4.0	0.0	part_2
26	4.0	1.0			350.0	0.0	1.0							5.0	0.0	0.0	0.0	400.0	4.0	3.0	8.0	3.0	1.0	part_2
27	1.0	1.0			400.0	0.0	0.0							5.0	0.0	0.6482124998001382	5.0	400.0	3.0	8.0	3.0	1.0	0.0	part_2
28	4.0	1.0			400.0	0.0	1.0							6.0	0.0	0.0	0.0	400.0	1.0	1.0	5.0	5.0	1.0	part_2
29	3.0	1.0			400.0	0.0	1.0							6.0	0.0	0.5152683272026479	6.0	450.0	2.0	2.0	6.0	2.0	1.0	part_2
30	1.0	1.0			400.0	0.0	1.0							6.0	0.0	0.8067890293896198	6.0	400.0	1.0	1.0	5.0	5.0	0.0	part_2
31	1.0	1.0			400.0	0.0	1.0							5.0	0.0	0.5728540564305149	5.0	400.0	2.0	2.0	6.0	2.0	0.0	part_2
32	1.0	1.0			400.0	0.0	0.0							5.0	0.0	0.6299674679758027	5.0	400.0	2.0	4.0	2.0	8.0	0.0	part_2
33	4.0	1.0			400.0	0.0	1.0							6.0	0.0	0.0	0.0	400.0	3.0	5.0	7.0	6.0	1.0	part_2
34	1.0	1.0			400.0	0.0	1.0							5.0	0.0	0.6751521206460893	5.0	450.0	2.0	2.0	6.0	2.0	0.0	part_2
35	1.0	1.0			400.0	0.0	0.0							6.0	0.0	0.6652974730241112	6.0	450.0	1.0	7.0	1.0	4.0	0.0	part_2
36	1.0	2.0			400.0	0.0	0.0							6.0	0.0	0.6661336414399557	6.0	450.0	3.0	8.0	3.0	1.0	0.0	part_2
37	1.0	2.0			400.0	0.0	0.0							5.0	0.0	0.3392209978192113	5.0	450.0	2.0	4.0	2.0	8.0	0.0	part_2
38	1.0	2.0			400.0	0.0	0.0							6.0	0.0	0.5206459729815833	6.0	450.0	3.0	8.0	3.0	1.0	0.0	part_2
39	1.0	2.0			400.0	0.0	1.0							5.0	0.0	0.4781569498591125	5.0	450.0	1.0	1.0	5.0	5.0	0.0	part_2
40	1.0	2.0			400.0	0.0	1.0							6.0	0.0	0.4097367725917138	6.0	450.0	4.0	3.0	8.0	3.0	0.0	part_2
41	3.0	2.0			400.0	0.0	1.0							5.0	0.0	0.5228643183945678	5.0	450.0	3.0	5.0	7.0	6.0	1.0	part_2
42	1.0	2.0			350.0	0.0	0.0							5.0	0.0	0.6492509704548866	5.0	450.0	3.0	8.0	3.0	1.0	0.0	part_2
43	4.0	2.0			350.0	0.0	1.0							5.0	0.0	0.0	0.0	450.0	2.0	2.0	6.0	2.0	1.0	part_2
44	1.0	2.0			400.0	0.0	0.0							5.0	0.0	0.6937260964186862	5.0	450.0	1.0	7.0	1.0	4.0	0.0	part_2
45	1.0	2.0			400.0	0.0	1.0							6.0	0.0	0.39174652541987603	6.0	450.0	1.0	1.0	5.0	5.0	0.0	part_2
46	1.0	2.0			400.0	0.0	0.0							5.0	0.0	0.3468885458423756	5.0	450.0	3.0	8.0	3.0	1.0	0.0	part_2
47	3.0	2.0			400.0	0.0	1.0							5.0	0.0	0.5626888718106784	5.0	450.0	4.0	3.0	8.0	3.0	1.0	part_2
48	1.0	2.0			350.0	0.0	0.0							6.0	0.0	0.7311585918068886	6.0	450.0	2.0	4.0	2.0	8.0	0.0	part_2
49	1.0	2.0			350.0	0.0	0.0							5.0	0.0	0.5294501702301204	5.0	450.0	4.0	6.0	4.0	7.0	0.0	part_2
50	1.0	2.0			350.0	0.0	0.0							6.0	0.0	0.4748880779952742	6.0	450.0	2.0	4.0	2.0	8.0	0.0	part_2
51	3.0	2.0			350.0	0.0	1.0							5.0	0.0	0.5089786656317301	5.0	450.0	2.0	2.0	6.0	2.0	1.0	part_2
52	1.0	2.0			300.0	0.0	0.0							6.0	0.0	0.7361123090377077	6.0	450.0	1.0	7.0	1.0	4.0	0.0	part_2
53	1.0	2.0			300.0	0.0	0.0							5.0	0.0	0.6907363928039558	5.0	450.0	2.0	4.0	2.0	8.0	0.0	part_2
54	4.0	2.0			300.0	0.0	1.0							6.0	0.0	0.0	0.0	450.0	4.0	3.0	8.0	3.0	1.0	part_2
55	3.0	2.0			300.0	0.0	1.0							5.0	0.0	0.29878854600247	5.0	500.0	4.0	3.0	8.0	3.0	1.0	part_2
56	1.0	2.0			250.0	0.0	0.0							6.0	0.0	0.6144808584358543	6.0	500.0	1.0	7.0	1.0	4.0	0.0	part_2
57	1.0	2.0			250.0	0.0	1.0							5.0	0.0	0.8413374845986255	5.0	500.0	4.0	3.0	8.0	3.0	0.0	part_2
58	1.0	2.0			250.0	0.0	1.0							5.0	0.0	0.7184126522042789	5.0	500.0	3.0	5.0	7.0	6.0	0.0	part_2
59	1.0	2.0			250.0	0.0	1.0							6.0	0.0	0.5376639277674258	6.0	500.0	2.0	2.0	6.0	2.0	0.0	part_2
60	4.0	2.0			250.0	0.0	1.0							5.0	0.0	0.0	0.0	500.0	3.0	5.0	7.0	6.0	1.0	part_2
61	4.0	2.0			300.0	0.0	1.0							5.0	0.0	0.0	0.0	500.0	3.0	5.0	7.0	6.0	1.0	part_2
62	3.0	2.0			350.0	0.0	1.0							6.0	0.0	0.6188885658048093	6.0	500.0	3.0	5.0	7.0	6.0	1.0	part_2
63	1.0	2.0			350.0	0.0	0.0							6.0	0.0	0.7891798515920527	6.0	450.0	1.0	7.0	1.0	4.0	0.0	part_2
64	4.0	2.0			350.0	0.0	1.0							6.0	0.0	0.0	0.0	450.0	2.0	2.0	6.0	2.0	1.0	part_2
65	4.0	2.0			350.0	0.0	1.0							6.0	0.0	0.0	0.0	500.0	3.0	5.0	7.0	6.0	1.0	part_2
66	1.0	2.0			350.0	0.0	0.0							5.0	0.0	0.5554378047818318	5.0	550.0	2.0	4.0	2.0	8.0	0.0	part_2
67	1.0	2.0			350.0	0.0	0.0							6.0	0.0	0.5224999135825783	6.0	550.0	2.0	4.0	2.0	8.0	0.0	part_2
68	1.0	2.0			350.0	0.0	0.0							6.0	0.0	0.736493527831044	6.0	550.0	1.0	7.0	1.0	4.0	0.0	part_2
69	4.0	2.0			350.0	0.0	1.0							5.0	0.0	0.0	0.0	550.0	1.0	1.0	5.0	5.0	1.0	part_2
70	1.0	2.0			400.0	0.0	0.0							6.0	0.0	0.5808220590115525	6.0	550.0	3.0	8.0	3.0	1.0	0.0	part_2
71	1.0	2.0			400.0	0.0	0.0							5.0	0.0	0.7275317234452814	5.0	550.0	1.0	7.0	1.0	4.0	0.0	part_2
72	3.0	3.0			400.0	0.0	1.0							6.0	0.0	0.8026255664299242	6.0	550.0	3.0	5.0	7.0	6.0	1.0	part_2
73	4.0	3.0			400.0	0.0	1.0							6.0	0.0	0.0	0.0	500.0	1.0	1.0	5.0	5.0	1.0	part_2
74	1.0	3.0			400.0	0.0	0.0							5.0	0.0	0.6820432764361612	5.0	550.0	3.0	8.0	3.0	1.0	0.0	part_2
75	3.0	3.0			400.0	0.0	1.0							6.0	0.0	0.6027353330282494	6.0	550.0	3.0	5.0	7.0	6.0	1.0	part_2
76	1.0	3.0			400.0	0.0	1.0							6.0	0.0	0.8409185956115834	6.0	500.0	3.0	5.0	7.0	6.0	0.0	part_2
77	4.0	3.0			400.0	0.0	1.0							5.0	0.0	0.0	0.0	500.0	1.0	1.0	5.0	5.0	1.0	part_2
78	4.0	3.0			450.0	0.0	1.0							5.0	0.0	0.0	0.0	500.0	4.0	3.0	8.0	3.0	1.0	part_2
79	1.0	3.0			500.0	0.0	1.0							6.0	0.0	0.8193860002211295	6.0	500.0	4.0	3.0	8.0	3.0	0.0	part_2
80	1.0	3.0			500.0	0.0	1.0							6.0	0.0	0.7418489461997524	6.0	500.0	2.0	2.0	6.0	2.0	0.0	part_2
81	1.0	3.0			500.0	0.0	0.0							6.0	0.0	0.7433528282563202	6.0	500.0	2.0	4.0	2.0	8.0	0.0	part_2
82	1.0	3.0			500.0	0.0	0.0							6.0	0.0	0.7335371621884406	6.0	500.0	3.0	8.0	3.0	1.0	0.0	part_2
83	1.0	3.0			500.0	0.0	0.0							5.0	0.0	0.9359552596579306	5.0	500.0	3.0	8.0	3.0	1.0	0.0	part_2
84	3.0	3.0			500.0	0.0	1.0							6.0	0.0	0.55415849579731	6.0	500.0	4.0	3.0	8.0	3.0	1.0	part_2
85	4.0	3.0			500.0	0.0	1.0							5.0	0.0	0.0	0.0	450.0	4.0	3.0	8.0	3.0	1.0	part_2
86	1.0	3.0			550.0	0.0	1.0							5.0	0.0	0.6121382659766823	5.0	450.0	1.0	1.0	5.0	5.0	0.0	part_2
87	1.0	3.0			550.0	0.0	0.0							6.0	0.0	0.6364054115838371	6.0	450.0	1.0	7.0	1.0	4.0	0.0	part_2
88	1.0	3.0			550.0	0.0	0.0							5.0	0.0	0.6360329663730226	5.0	450.0	3.0	8.0	3.0	1.0	0.0	part_2
89	1.0	3.0			550.0	0.0	0.0							6.0	0.0	0.4115916477749124	6.0	450.0	4.0	6.0	4.0	7.0	0.0	part_2
90	1.0	3.0			550.0	0.0	0.0							6.0	0.0	0.7279121744213626	6.0	450.0	2.0	4.0	2.0	8.0	0.0	part_2
91	3.0	3.0			550.0	0.0	1.0							5.0	0.0	0.4809548782068305	5.0	450.0	3.0	5.0	7.0	6.0	1.0	part_2
92	4.0	3.0			500.0	0.0	1.0							5.0	0.0	0.0	0.0	450.0	2.0	2.0	6.0	2.0	1.0	part_2
93	1.0	3.0			550.0	0.0	1.0							5.0	0.0	0.7522317981929518	5.0	450.0	3.0	5.0	7.0	6.0	0.0	part_2
94	4.0	3.0			550.0	0.0	1.0							6.0	0.0	0.0	0.0	450.0	3.0	5.0	7.0	6.0	1.0	part_2
95	1.0	3.0			550.0	0.0	0.0							5.0	0.0	0.6650331835844554	5.0	500.0	2.0	4.0	2.0	8.0	0.0	part_2
96	1.0	3.0			550.0	0.0	0.0							5.0	0.0	0.4631734534050338	5.0	500.0	1.0	7.0	1.0	4.0	0.0	part_2
97	4.0	3.0			550.0	0.0	1.0							5.0	0.0	0.0	0.0	500.0	3.0	5.0	7.0	6.0	1.0	part_2
98	1.0	3.0			600.0	0.0	0.0							5.0	0.0	0.679424200206995	5.0	500.0	1.0	7.0	1.0	4.0	0.0	part_2
99	1.0	3.0			600.0	0.0	0.0							5.0	0.0	0.6333866775967181	5.0	500.0	1.0	7.0	1.0	4.0	0.0	part_2
100	3.0	3.0			600.0	0.0	1.0							5.0	0.0	0.6134692755877039	5.0	500.0	1.0	1.0	5.0	5.0	1.0	part_2
101	1.0	3.0			550.0	0.0	1.0							6.0	0.0	1.0295257639954798	6.0	500.0	3.0	5.0	7.0	6.0	0.0	part_2
102	1.0	3.0			550.0	0.0	0.0							6.0	0.0	0.7260025370051153	6.0	500.0	3.0	8.0	3.0	1.0	0.0	part_2
103	3.0	3.0			550.0	0.0	1.0							6.0	0.0	0.636500952008646	6.0	500.0	4.0	3.0	8.0	3.0	1.0	part_2
104	1.0	3.0			550.0	0.0	1.0							5.0	0.0	0.8060154234408401	5.0	450.0	3.0	5.0	7.0	6.0	0.0	part_2
105	4.0	3.0			550.0	0.0	1.0							6.0	0.0	0.0	0.0	450.0	2.0	2.0	6.0	2.0	1.0	part_2
106	1.0	3.0			550.0	0.0	1.0							6.0	0.0	0.9099903164315036	6.0	500.0	2.0	2.0	6.0	2.0	0.0	part_2
107	1.0	3.0			550.0	0.0	0.0							5.0	0.0	0.7636927308049053	5.0	500.0	1.0	7.0	1.0	4.0	0.0	part_2
108	1.0	4.0			550.0	0.0	0.0							5.0	0.0	0.42211507022148	5.0	500.0	4.0	6.0	4.0	7.0	0.0	part_2
109	1.0	4.0			550.0	0.0	1.0							5.0	0.0	0.5468452423810959	5.0	500.0	1.0	1.0	5.0	5.0	0.0	part_2
110	1.0	4.0			550.0	0.0	0.0							6.0	0.0	0.3670357074006461	6.0	500.0	1.0	7.0	1.0	4.0	0.0	part_2
111	1.0	4.0			550.0	0.0	0.0							5.0	0.0	0.7289213916519657	5.0	500.0	3.0	8.0	3.0	1.0	0.0	part_2
112	4.0	4.0			550.0	0.0	1.0							6.0	0.0	0.0	0.0	500.0	3.0	5.0	7.0	6.0	1.0	part_2
113	1.0	4.0			550.0	0.0	0.0							5.0	0.0	0.5616017209831625	5.0	550.0	4.0	6.0	4.0	7.0	0.0	part_2
114	1.0	4.0			550.0	0.0	0.0							6.0	0.0	0.6170718254288658	6.0	550.0	2.0	4.0	2.0	8.0	0.0	part_2
115	3.0	4.0			550.0	0.0	1.0							6.0	0.0	0.6858862763619982	6.0	550.0	2.0	2.0	6.0	2.0	1.0	part_2
116	1.0	4.0			550.0	0.0	1.0							6.0	0.0	0.6299096688162535	6.0	500.0	4.0	3.0	8.0	3.0	0.0	part_2
117	3.0	4.0			550.0	0.0	1.0							6.0	0.0	0.6655836980207823	6.0	500.0	4.0	3.0	8.0	3.0	1.0	part_2
118	3.0	4.0			550.0	0.0	1.0							5.0	0.0	0.6216059087892063	5.0	450.0	4.0	3.0	8.0	3.0	1.0	part_2
119	4.0	4.0			500.0	0.0	1.0							5.0	0.0	0.0	0.0	450.0	2.0	2.0	6.0	2.0	1.0	part_2
120	1.0	4.0			550.0	0.0	0.0							5.0	0.0	0.6221114885993302	5.0	450.0	2.0	4.0	2.0	8.0	0.0	part_2
121	1.0	4.0			550.0	0.0	0.0							6.0	0.0	0.7918260139995255	6.0	450.0	4.0	6.0	4.0	7.0	0.0	part_2
122	1.0	4.0			550.0	0.0	0.0							6.0	0.0	0.5803475625580177	6.0	450.0	2.0	4.0	2.0	8.0	0.0	part_2
123	1.0	4.0			550.0	0.0	0.0							5.0	0.0	0.714091484551318	5.0	450.0	2.0	4.0	2.0	8.0	0.0	part_2
124	1.0	4.0			550.0	0.0	0.0							6.0	0.0	0.41140830097720027	6.0	450.0	3.0	8.0	3.0	1.0	0.0	part_2
125	1.0	4.0			550.0	0.0	0.0							5.0	0.0	0.4685082107898779	5.0	450.0	4.0	6.0	4.0	7.0	0.0	part_2
126	3.0	4.0			550.0	0.0	1.0							6.0	0.0	0.34730627201497555	6.0	450.0	4.0	3.0	8.0	3.0	1.0	part_2
127	3.0	4.0			550.0	0.0	1.0							5.0	0.0	0.7064809594303371	5.0	400.0	2.0	2.0	6.0	2.0	1.0	part_2
128	1.0	4.0			500.0	0.0	0.0							6.0	0.0	0.786434221023228	6.0	400.0	4.0	6.0	4.0	7.0	0.0	part_2
129	1.0	4.0			500.0	0.0	0.0							6.0	0.0	0.6078743874095379	6.0	400.0	3.0	8.0	3.0	1.0	0.0	part_2
130	1.0	4.0			500.0	0.0	0.0							5.0	0.0	0.4182711018365808	5.0	400.0	1.0	7.0	1.0	4.0	0.0	part_2
131	4.0	4.0			500.0	0.0	1.0							6.0	0.0	0.0	0.0	400.0	2.0	2.0	6.0	2.0	1.0	part_2
132	1.0	4.0			500.0	0.0	1.0							6.0	0.0	0.7450195522396825	6.0	450.0	3.0	5.0	7.0	6.0	0.0	part_2
133	3.0	4.0			500.0	0.0	1.0							5.0	0.0	0.3296300899819471	5.0	450.0	1.0	1.0	5.0	5.0	1.0	part_2
134	1.0	4.0			450.0	0.0	0.0							6.0	0.0	0.725537050573621	6.0	450.0	3.0	8.0	3.0	1.0	0.0	part_2
135	4.0	4.0			450.0	0.0	1.0							6.0	0.0	0.0	0.0	450.0	2.0	2.0	6.0	2.0	1.0	part_2
136	3.0	4.0			450.0	0.0	1.0							5.0	0.0	0.6803386998362839	5.0	500.0	3.0	5.0	7.0	6.0	1.0	part_2
137	1.0	4.0			400.0	0.0	0.0							5.0	0.0	0.6020048084319569	5.0	500.0	3.0	8.0	3.0	1.0	0.0	part_2
138	4.0	4.0			400.0	0.0	1.0							6.0	0.0	0.0	0.0	500.0	4.0	3.0	8.0	3.0	1.0	part_2
139	4.0	4.0			400.0	0.0	1.0							6.0	0.0	0.0	0.0	550.0	2.0	2.0	6.0	2.0	1.0	part_2
140	1.0	4.0			400.0	0.0	0.0							5.0	0.0	0.6384401667746715	5.0	600.0	4.0	6.0	4.0	7.0	0.0	part_2
141	1.0	4.0			400.0	0.0	0.0							5.0	0.0	0.6181343314237893	5.0	600.0	4.0	6.0	4.0	7.0	0.0	part_2
142	1.0	4.0			400.0	0.0	1.0							6.0	0.0	0.685361867013853	6.0	600.0	4.0	3.0	8.0	3.0	0.0	part_2
143	4.0	4.0			400.0	0.0	1.0							5.0	0.0	0.0	0.0	600.0	4.0	3.0	8.0	3.0	1.0	part_2
144	3.0	5.0			450.0	0.0	1.0							6.0	0.0	0.5312515101977624	6.0	600.0	2.0	2.0	6.0	2.0	1.0	part_2
145	1.0	5.0			450.0	0.0	0.0							5.0	0.0	0.5310950176208279	5.0	550.0	2.0	4.0	2.0	8.0	0.0	part_2
146	1.0	5.0			450.0	0.0	0.0							6.0	0.0	0.6445592269883491	6.0	550.0	2.0	4.0	2.0	8.0	0.0	part_2
147	1.0	5.0			450.0	0.0	0.0							5.0	0.0	0.7591059554251842	5.0	550.0	3.0	8.0	3.0	1.0	0.0	part_2
148	1.0	5.0			450.0	0.0	0.0							5.0	0.0	0.7597048559691757	5.0	550.0	4.0	6.0	4.0	7.0	0.0	part_2
149	1.0	5.0			450.0	0.0	0.0							6.0	0.0	0.7491654402110726	6.0	550.0	2.0	4.0	2.0	8.0	0.0	part_2
150	4.0	5.0			450.0	0.0	1.0							5.0	0.0	0.0	0.0	550.0	4.0	3.0	8.0	3.0	1.0	part_2
151	3.0	5.0			500.0	0.0	1.0							5.0	0.0	0.6276287342188879	5.0	550.0	1.0	1.0	5.0	5.0	1.0	part_2
152	1.0	5.0			450.0	0.0	1.0							6.0	0.0	0.6716215526685119	6.0	550.0	1.0	1.0	5.0	5.0	0.0	part_2
153	1.0	5.0			450.0	0.0	0.0							6.0	0.0	0.7061140706646256	6.0	550.0	4.0	6.0	4.0	7.0	0.0	part_2
154	1.0	5.0			450.0	0.0	0.0							6.0	0.0	0.6289427786250599	6.0	550.0	4.0	6.0	4.0	7.0	0.0	part_2
155	4.0	5.0			450.0	0.0	1.0							6.0	0.0	0.0	0.0	550.0	4.0	3.0	8.0	3.0	1.0	part_2
156	3.0	5.0			450.0	0.0	1.0							5.0	0.0	0.3711476972675882	5.0	600.0	3.0	5.0	7.0	6.0	1.0	part_2
157	1.0	5.0			400.0	0.0	0.0							6.0	0.0	0.6418156536528841	6.0	600.0	2.0	4.0	2.0	8.0	0.0	part_2
158	1.0	5.0			400.0	0.0	0.0							6.0	0.0	0.7892115162103437	6.0	600.0	2.0	4.0	2.0	8.0	0.0	part_2
159	1.0	5.0			400.0	0.0	0.0							5.0	0.0	0.6436412076000124	5.0	600.0	1.0	7.0	1.0	4.0	0.0	part_2
160	4.0	5.0			400.0	0.0	1.0							5.0	0.0	0.0	0.0	600.0	2.0	2.0	6.0	2.0	1.0	part_2
161	3.0	5.0			450.0	0.0	1.0							6.0	0.0	1.0184289044118486	6.0	600.0	2.0	2.0	6.0	2.0	1.0	part_2
162	4.0	5.0			450.0	0.0	1.0							5.0	0.0	0.0	0.0	550.0	1.0	1.0	5.0	5.0	1.0	part_2
163	1.0	5.0			500.0	0.0	0.0							6.0	0.0	0.8849545392440632	6.0	550.0	2.0	4.0	2.0	8.0	0.0	part_2
164	4.0	5.0			500.0	0.0	1.0							6.0	0.0	0.0	0.0	550.0	3.0	5.0	7.0	6.0	1.0	part_2
165	4.0	5.0			500.0	0.0	1.0							6.0	0.0	0.0	0.0	600.0	3.0	5.0	7.0	6.0	1.0	part_2
166	1.0	5.0			500.0	0.0	0.0							6.0	0.0	0.4475389717845246	6.0	650.0	4.0	6.0	4.0	7.0	0.0	part_2
167	4.0	5.0			500.0	0.0	1.0							6.0	0.0	0.0	0.0	650.0	2.0	2.0	6.0	2.0	1.0	part_2
168	1.0	5.0			500.0	0.0	0.0							6.0	0.0	0.7081265177694149	6.0	700.0	3.0	8.0	3.0	1.0	0.0	part_2
169	4.0	5.0			500.0	0.0	1.0							5.0	0.0	0.0	0.0	700.0	2.0	2.0	6.0	2.0	1.0	part_2
170	4.0	5.0			550.0	0.0	1.0							5.0	0.0	0.0	0.0	700.0	1.0	1.0	5.0	5.0	1.0	part_2
171	1.0	5.0			600.0	0.0	0.0							6.0	0.0	0.6646926731918938	6.0	700.0	4.0	6.0	4.0	7.0	0.0	part_2
172	1.0	5.0			600.0	0.0	0.0							6.0	0.0	0.6434453749679959	6.0	700.0	3.0	8.0	3.0	1.0	0.0	part_2
173	1.0	5.0			600.0	0.0	0.0							6.0	0.0	0.6346364546334371	6.0	700.0	4.0	6.0	4.0	7.0	0.0	part_2
174	1.0	5.0			600.0	0.0	0.0							5.0	0.0	0.5774887099978514	5.0	700.0	3.0	8.0	3.0	1.0	0.0	part_2
175	4.0	5.0			600.0	0.0	1.0							6.0	0.0	0.0	0.0	700.0	1.0	1.0	5.0	5.0	1.0	part_2
176	1.0	5.0			600.0	0.0	0.0							6.0	0.0	0.7382069290033542	6.0	750.0	1.0	7.0	1.0	4.0	0.0	part_2
177	1.0	5.0			600.0	0.0	1.0							5.0	0.0	1.109418575419113	5.0	750.0	2.0	2.0	6.0	2.0	0.0	part_2
178	3.0	5.0			600.0	0.0	1.0							6.0	0.0	0.8748201620182954	6.0	750.0	4.0	3.0	8.0	3.0	1.0	part_2
179	1.0	5.0			600.0	0.0	0.0							5.0	0.0	0.684106296801474	5.0	700.0	3.0	8.0	3.0	1.0	0.0	part_2
180	1.0	6.0			600.0	0.0	0.0							5.0	0.0	0.3621719118091278	5.0	700.0	4.0	6.0	4.0	7.0	0.0	part_2
181	1.0	6.0			600.0	0.0	0.0							5.0	0.0	0.6891377597930841	5.0	700.0	2.0	4.0	2.0	8.0	0.0	part_2
182	3.0	6.0			600.0	0.0	1.0							5.0	0.0	0.7582948706112802	5.0	700.0	4.0	3.0	8.0	3.0	1.0	part_2
183	1.0	6.0			550.0	0.0	0.0							5.0	0.0	0.8939406971912831	5.0	700.0	2.0	4.0	2.0	8.0	0.0	part_2
184	1.0	6.0			550.0	0.0	0.0							5.0	0.0	0.6451135234092362	5.0	700.0	2.0	4.0	2.0	8.0	0.0	part_2
185	1.0	6.0			550.0	0.0	0.0							6.0	0.0	0.5795121150440536	6.0	700.0	3.0	8.0	3.0	1.0	0.0	part_2
186	4.0	6.0			550.0	0.0	1.0							5.0	0.0	0.0	0.0	700.0	4.0	3.0	8.0	3.0	1.0	part_2
187	1.0	6.0			600.0	0.0	0.0							5.0	0.0	0.5923802004544996	5.0	700.0	4.0	6.0	4.0	7.0	0.0	part_2
188	1.0	6.0			600.0	0.0	0.0							5.0	0.0	0.4688303025905043	5.0	700.0	2.0	4.0	2.0	8.0	0.0	part_2
189	1.0	6.0			600.0	0.0	0.0							5.0	0.0	0.615554126619827	5.0	700.0	4.0	6.0	4.0	7.0	0.0	part_2
190	3.0	6.0			600.0	0.0	1.0							6.0	0.0	0.6393536948016845	6.0	700.0	4.0	3.0	8.0	3.0	1.0	part_2
191	1.0	6.0			600.0	0.0	0.0							5.0	0.0	0.8987992579932325	5.0	650.0	1.0	7.0	1.0	4.0	0.0	part_2
192	3.0	6.0			600.0	0.0	1.0							6.0	0.0	0.7088643704191782	6.0	650.0	1.0	1.0	5.0	5.0	1.0	part_2
193	3.0	6.0			600.0	0.0	1.0							6.0	0.0	0.7773300479748286	6.0	600.0	1.0	1.0	5.0	5.0	1.0	part_2
194	4.0	6.0			600.0	0.0	1.0							5.0	0.0	0.0	0.0	550.0	2.0	2.0	6.0	2.0	1.0	part_2
195	1.0	6.0			650.0	0.0	0.0							5.0	0.0	0.7015344640240073	5.0	550.0	1.0	7.0	1.0	4.0	0.0	part_2
196	4.0	6.0			650.0	0.0	1.0							6.0	0.0	0.0	0.0	550.0	1.0	1.0	5.0	5.0	1.0	part_2
197	4.0	6.0			650.0	0.0	1.0							6.0	0.0	0.0	0.0	600.0	3.0	5.0	7.0	6.0	1.0	part_2
198	4.0	6.0			650.0	0.0	1.0							6.0	0.0	0.0	0.0	650.0	1.0	1.0	5.0	5.0	1.0	part_2
199	1.0	6.0			650.0	0.0	0.0							6.0	0.0	0.4440165286068805	6.0	700.0	1.0	7.0	1.0	4.0	0.0	part_2
200	4.0	6.0			650.0	0.0	1.0							5.0	0.0	0.0	0.0	700.0	3.0	5.0	7.0	6.0	1.0	part_2
201	1.0	6.0			700.0	0.0	1.0							6.0	0.0	1.1209294956061058	6.0	700.0	1.0	1.0	5.0	5.0	0.0	part_2
202	1.0	6.0			700.0	0.0	0.0							6.0	0.0	0.4818536203820258	6.0	700.0	3.0	8.0	3.0	1.0	0.0	part_2
203	1.0	6.0			700.0	0.0	0.0							6.0	0.0	0.5602742718765512	6.0	700.0	4.0	6.0	4.0	7.0	0.0	part_2
204	1.0	6.0			700.0	0.0	0.0							6.0	0.0	0.483928618603386	6.0	700.0	1.0	7.0	1.0	4.0	0.0	part_2
205	1.0	6.0			700.0	0.0	1.0							6.0	0.0	1.0574031681753695	6.0	700.0	3.0	5.0	7.0	6.0	0.0	part_2
206	1.0	6.0			700.0	0.0	0.0							5.0	0.0	0.7311682956060395	5.0	700.0	2.0	4.0	2.0	8.0	0.0	part_2
207	1.0	6.0			700.0	0.0	0.0							6.0	0.0	0.4860359668382444	6.0	700.0	2.0	4.0	2.0	8.0	0.0	part_2
208	1.0	6.0			700.0	0.0	0.0							6.0	0.0	0.4528978776070289	6.0	700.0	4.0	6.0	4.0	7.0	0.0	part_2
209	4.0	6.0			700.0	0.0	1.0							5.0	0.0	0.0	0.0	700.0	4.0	3.0	8.0	3.0	1.0	part_2
210	1.0	6.0			750.0	0.0	0.0							5.0	0.0	0.7124189260066487	5.0	700.0	1.0	7.0	1.0	4.0	0.0	part_2
211	4.0	6.0			750.0	0.0	1.0							5.0	0.0	0.0	0.0	700.0	2.0	2.0	6.0	2.0	1.0	part_2
212	1.0	6.0			800.0	0.0	0.0							5.0	0.0	0.6914673021528871	5.0	700.0	3.0	8.0	3.0	1.0	0.0	part_2
213	1.0	6.0			800.0	0.0	0.0							6.0	0.0	0.7254817388020456	6.0	700.0	3.0	8.0	3.0	1.0	0.0	part_2
214	4.0	6.0			800.0	0.0	1.0							6.0	0.0	0.0	0.0	700.0	3.0	5.0	7.0	6.0	1.0	part_2
215	4.0	6.0			800.0	0.0	1.0							5.0	0.0	0.0	0.0	750.0	2.0	2.0	6.0	2.0	1.0	part_2
216	3.0	7.0			850.0	0.0	1.0							6.0	0.0	0.34502173122018576	6.0	750.0	1.0	1.0	5.0	5.0	1.0	part_2
217	1.0	7.0			850.0	0.0	0.0							6.0	0.0	0.7272836768534034	6.0	700.0	1.0	7.0	1.0	4.0	0.0	part_2
218	4.0	7.0			850.0	0.0	1.0							6.0	0.0	0.0	0.0	700.0	2.0	2.0	6.0	2.0	1.0	part_2
219	4.0	7.0			850.0	0.0	1.0							5.0	0.0	0.0	0.0	750.0	1.0	1.0	5.0	5.0	1.0	part_2
220	3.0	7.0			900.0	0.0	1.0							5.0	0.0	0.8212270628428087	5.0	750.0	1.0	1.0	5.0	5.0	1.0	part_2
221	1.0	7.0			850.0	0.0	1.0							5.0	0.0	0.9108009560150094	5.0	750.0	1.0	1.0	5.0	5.0	0.0	part_2
222	1.0	7.0			850.0	0.0	0.0							6.0	0.0	0.6646375569980592	6.0	750.0	1.0	7.0	1.0	4.0	0.0	part_2
223	1.0	7.0			850.0	0.0	0.0							6.0	0.0	0.5182430202257821	6.0	750.0	4.0	6.0	4.0	7.0	0.0	part_2
224	4.0	7.0			850.0	0.0	1.0							6.0	0.0	0.0	0.0	750.0	2.0	2.0	6.0	2.0	1.0	part_2
225	4.0	7.0			850.0	0.0	1.0							6.0	0.0	0.0	0.0	800.0	4.0	3.0	8.0	3.0	1.0	part_2
226	1.0	7.0			850.0	0.0	0.0							6.0	0.0	0.5669758747681044	6.0	850.0	4.0	6.0	4.0	7.0	0.0	part_2
227	1.0	7.0			850.0	0.0	0.0							6.0	0.0	0.6109492138493806	6.0	850.0	1.0	7.0	1.0	4.0	0.0	part_2
228	1.0	7.0			850.0	0.0	0.0							5.0	0.0	0.4556021032040008	5.0	850.0	2.0	4.0	2.0	8.0	0.0	part_2
229	3.0	7.0			850.0	0.0	1.0							6.0	0.0	0.3436354752047919	6.0	850.0	4.0	3.0	8.0	3.0	1.0	part_2
230	1.0	7.0			850.0	0.0	0.0							5.0	0.0	0.5926630668109283	5.0	800.0	3.0	8.0	3.0	1.0	0.0	part_2
231	1.0	7.0			850.0	0.0	0.0							6.0	0.0	0.5241540616261773	6.0	800.0	4.0	6.0	4.0	7.0	0.0	part_2
232	4.0	7.0			850.0	0.0	1.0							5.0	0.0	0.0	0.0	800.0	4.0	3.0	8.0	3.0	1.0	part_2
233	4.0	7.0			900.0	0.0	1.0							6.0	0.0	0.0	0.0	800.0	3.0	5.0	7.0	6.0	1.0	part_2
234	1.0	7.0			900.0	0.0	0.0							5.0	0.0	0.6056377558270469	5.0	850.0	4.0	6.0	4.0	7.0	0.0	part_2
235	1.0	7.0			900.0	0.0	0.0							5.0	0.0	0.6193757220171392	5.0	850.0	3.0	8.0	3.0	1.0	0.0	part_2
236	1.0	7.0			900.0	0.0	0.0							5.0	0.0	0.5402001145994291	5.0	850.0	4.0	6.0	4.0	7.0	0.0	part_2
237	3.0	7.0			900.0	0.0	1.0							5.0	0.0	0.5076471292413771	5.0	850.0	1.0	1.0	5.0	5.0	1.0	part_2
238	1.0	7.0			850.0	0.0	0.0							6.0	0.0	0.6205254796659574	6.0	850.0	3.0	8.0	3.0	1.0	0.0	part_2
239	1.0	7.0			850.0	0.0	1.0							5.0	0.0	1.2304695594357329	5.0	850.0	3.0	5.0	7.0	6.0	0.0	part_2
240	4.0	7.0			850.0	0.0	1.0							6.0	0.0	0.0	0.0	850.0	2.0	2.0	6.0	2.0	1.0	part_2
241	1.0	7.0			850.0	0.0	0.0							5.0	0.0	0.5454310759669171	5.0	900.0	2.0	4.0	2.0	8.0	0.0	part_2
242	1.0	7.0			850.0	0.0	0.0							6.0	0.0	0.4997036380227655	6.0	900.0	4.0	6.0	4.0	7.0	0.0	part_2
243	3.0	7.0			850.0	0.0	1.0							6.0	0.0	0.5007396992295979	6.0	900.0	1.0	1.0	5.0	5.0	1.0	part_2
244	4.0	7.0			850.0	0.0	1.0							6.0	0.0	0.0	0.0	850.0	1.0	1.0	5.0	5.0	1.0	part_2
245	4.0	7.0			850.0	0.0	1.0							5.0	0.0	0.0	0.0	900.0	4.0	3.0	8.0	3.0	1.0	part_2
246	1.0	7.0			900.0	0.0	0.0							5.0	0.0	0.4374768676352687	5.0	900.0	4.0	6.0	4.0	7.0	0.0	part_2
247	1.0	7.0			900.0	0.0	0.0							5.0	0.0	0.5495371302240528	5.0	900.0	4.0	6.0	4.0	7.0	0.0	part_2
248	1.0	7.0			900.0	0.0	0.0							5.0	0.0	0.4487066832371056	5.0	900.0	1.0	7.0	1.0	4.0	0.0	part_2
249	1.0	7.0			900.0	0.0	0.0							6.0	0.0	0.4389126764144749	6.0	900.0	1.0	7.0	1.0	4.0	0.0	part_2
250	1.0	7.0			900.0	0.0	0.0							5.0	0.0	0.5194361167959869	5.0	900.0	1.0	7.0	1.0	4.0	0.0	part_2
251	4.0	7.0			900.0	0.0	1.0							6.0	0.0	0.0	0.0	900.0	2.0	2.0	6.0	2.0	1.0	part_2
252	1.0	8.0			900.0	0.0	1.0							5.0	0.0	0.7013310830225237	5.0	950.0	2.0	2.0	6.0	2.0	0.0	part_2
253	3.0	8.0			900.0	0.0	1.0							5.0	0.0	0.973633282177616	5.0	950.0	3.0	5.0	7.0	6.0	1.0	part_2
254	4.0	8.0			850.0	0.0	1.0							5.0	0.0	0.0	0.0	950.0	2.0	2.0	6.0	2.0	1.0	part_2
255	1.0	8.0			900.0	0.0	0.0							6.0	0.0	0.5703431502333842	6.0	950.0	1.0	7.0	1.0	4.0	0.0	part_2
256	1.0	8.0			900.0	0.0	0.0							6.0	0.0	0.5239222500240429	6.0	950.0	4.0	6.0	4.0	7.0	0.0	part_2
257	3.0	8.0			900.0	0.0	1.0							5.0	0.0	0.9750715036061592	5.0	950.0	3.0	5.0	7.0	6.0	1.0	part_2
258	4.0	8.0			850.0	0.0	1.0							6.0	0.0	0.0	0.0	950.0	1.0	1.0	5.0	5.0	1.0	part_2
259	1.0	8.0			850.0	0.0	1.0							6.0	0.0	1.4052734154392963	6.0	1000.0	4.0	3.0	8.0	3.0	0.0	part_2
260	3.0	8.0			850.0	0.0	1.0							6.0	0.0	0.8554074743879028	6.0	1000.0	1.0	1.0	5.0	5.0	1.0	part_2
261	1.0	8.0			850.0	0.0	0.0							6.0	0.0	0.5973620836157352	6.0	950.0	2.0	4.0	2.0	8.0	0.0	part_2
262	1.0	8.0			850.0	0.0	0.0							5.0	0.0	0.642394790018443	5.0	950.0	3.0	8.0	3.0	1.0	0.0	part_2
263	1.0	8.0			850.0	0.0	0.0							5.0	0.0	0.5521665216074325	5.0	950.0	4.0	6.0	4.0	7.0	0.0	part_2
264	1.0	8.0			850.0	0.0	0.0							6.0	0.0	0.6563417494180612	6.0	950.0	3.0	8.0	3.0	1.0	0.0	part_2
265	1.0	8.0			850.0	0.0	1.0							5.0	0.0	1.1957673286087809	5.0	950.0	3.0	5.0	7.0	6.0	0.0	part_2
266	1.0	8.0			850.0	0.0	0.0							6.0	0.0	0.5335122300311923	6.0	950.0	2.0	4.0	2.0	8.0	0.0	part_2
267	1.0	8.0			850.0	0.0	0.0							6.0	0.0	0.5125366320135072	6.0	950.0	3.0	8.0	3.0	1.0	0.0	part_2
268	1.0	8.0			850.0	0.0	0.0							5.0	0.0	0.5238691502017899	5.0	950.0	1.0	7.0	1.0	4.0	0.0	part_2
269	3.0	8.0			850.0	0.0	1.0							5.0	0.0	0.44648185960249975	5.0	950.0	3.0	5.0	7.0	6.0	1.0	part_2
270	4.0	8.0			800.0	0.0	1.0							5.0	0.0	0.0	0.0	950.0	2.0	2.0	6.0	2.0	1.0	part_2
271	5.0	8.0			850.0	0.0	1.0							5.0	0.0	0.0	0.0	950.0	2.0	2.0	6.0	2.0	0.0	part_2
272	4.0	8.0			850.0	0.0	1.0							5.0	0.0	0.0	0.0	950.0	1.0	1.0	5.0	5.0	1.0	part_2
273	1.0	8.0			900.0	0.0	0.0							5.0	0.0	0.6298162282328121	5.0	950.0	3.0	8.0	3.0	1.0	0.0	part_2
274	1.0	8.0			900.0	0.0	1.0							5.0	0.0	0.5279824805911629	5.0	950.0	4.0	3.0	8.0	3.0	0.0	part_2
275	4.0	8.0			900.0	0.0	1.0							6.0	0.0	0.0	0.0	950.0	2.0	2.0	6.0	2.0	1.0	part_2
276	1.0	8.0			900.0	0.0	0.0							6.0	0.0	0.6309599300147966	6.0	1000.0	3.0	8.0	3.0	1.0	0.0	part_2
277	1.0	8.0			900.0	0.0	0.0							6.0	0.0	0.5081089750165121	6.0	1000.0	3.0	8.0	3.0	1.0	0.0	part_2
278	3.0	8.0			900.0	0.0	1.0							5.0	0.0	1.0486305632512083	5.0	1000.0	4.0	3.0	8.0	3.0	1.0	part_2
279	1.0	8.0			850.0	0.0	1.0							6.0	0.0	0.96108650858514	6.0	1000.0	4.0	3.0	8.0	3.0	0.0	part_2
280	1.0	8.0			850.0	0.0	0.0							6.0	0.0	0.5450535528361797	6.0	1000.0	4.0	6.0	4.0	7.0	0.0	part_2
281	1.0	8.0			850.0	0.0	1.0							5.0	0.0	1.3793770667980425	5.0	1000.0	4.0	3.0	8.0	3.0	0.0	part_2
282	1.0	8.0			850.0	0.0	0.0							5.0	0.0	0.5801903188112192	5.0	1000.0	3.0	8.0	3.0	1.0	0.0	part_2
283	1.0	8.0			850.0	0.0	0.0							6.0	0.0	0.5466828714124858	6.0	1000.0	4.0	6.0	4.0	7.0	0.0	part_2
284	1.0	8.0			850.0	0.0	0.0							5.0	0.0	0.3787688284064643	5.0	1000.0	4.0	6.0	4.0	7.0	0.0	part_2
285	1.0	8.0			850.0	0.0	0.0							6.0	0.0	0.5155261771869846	6.0	1000.0	2.0	4.0	2.0	8.0	0.0	part_2
286	4.0	8.0			850.0	0.0	1.0							5.0	0.0	0.0	0.0	1000.0	3.0	5.0	7.0	6.0	1.0	part_2
287	1.0	8.0			900.0	0.0	0.0							5.0	0.0	0.5738759174128063	5.0	1000.0	4.0	6.0	4.0	7.0	0.0	part_2
0	0.0	1.0	88.0	2.0	0.0	1.0	0.0	88.0	44.0	132.0	176.0	220.0	264.0	7.0	0.0	4.655783273163252	1.0	0.0	1.0	7.0	1.0	4.0	0.0	part_3
1	0.0	1.0	216.0	4.0	0.0	1.0	1.0	324.0	270.0	216.0	162.0	108.0	54.0	7.0	0.0	2.5660397364990786	3.0	0.0	4.0	3.0	8.0	3.0	0.0	part_3
2	0.0	1.0	195.0	5.0	0.0	1.0	0.0	156.0	78.0	117.0	195.0	39.0	234.0	7.0	0.0	2.039450233161915	4.0	0.0	4.0	6.0	4.0	7.0	0.0	part_3
3	0.0	1.0	204.0	6.0	0.0	1.0	1.0	34.0	102.0	68.0	170.0	204.0	136.0	7.0	0.0	1.9047684696270155	5.0	0.0	1.0	1.0	5.0	5.0	0.0	part_3
4	0.0	1.0	204.0	6.0	0.0	1.0	1.0	204.0	102.0	170.0	68.0	34.0	136.0	7.0	0.0	1.5798011212609708	1.0	0.0	2.0	2.0	6.0	2.0	0.0	part_3
5	0.0	1.0	270.0	5.0	0.0	1.0	1.0	54.0	324.0	270.0	108.0	216.0	162.0	7.0	0.0	2.604486758587882	3.0	0.0	2.0	2.0	6.0	2.0	0.0	part_3
6	0.0	1.0	54.0	1.0	0.0	1.0	0.0	270.0	108.0	162.0	324.0	54.0	216.0	7.0	0.0	2.324078840902075	5.0	0.0	3.0	8.0	3.0	1.0	0.0	part_3
7	0.0	1.0	108.0	2.0	0.0	1.0	0.0	216.0	324.0	162.0	270.0	108.0	54.0	7.0	0.0	2.5064404435688634	5.0	0.0	2.0	4.0	2.0	8.0	0.0	part_3
8	0.0	1.0	220.0	5.0	0.0	1.0	1.0	176.0	44.0	220.0	132.0	264.0	88.0	7.0	0.0	2.5638517677434716	3.0	0.0	4.0	3.0	8.0	3.0	0.0	part_3
9	0.0	1.0	245.0	5.0	0.0	1.0	1.0	98.0	245.0	49.0	294.0	147.0	196.0	7.0	0.0	2.5991746073123068	2.0	0.0	2.0	2.0	6.0	2.0	0.0	part_3
10	0.0	1.0	162.0	3.0	0.0	2.0	0.0	54.0	216.0	162.0	270.0	324.0	108.0	7.0	0.0	1.628130191937089	3.0	0.0	1.0	7.0	1.0	4.0	0.0	part_3
11	0.0	1.0	176.0	4.0	0.0	1.0	0.0	44.0	88.0	176.0	264.0	220.0	132.0	7.0	0.0	1.9097139255609363	3.0	0.0	2.0	4.0	2.0	8.0	0.0	part_3
12	0.0	1.0	102.0	3.0	0.0	1.0	0.0	170.0	204.0	102.0	136.0	68.0	34.0	7.0	0.0	1.4724945868947543	3.0	0.0	2.0	4.0	2.0	8.0	0.0	part_3
13	0.0	1.0	204.0	6.0	0.0	1.0	1.0	34.0	170.0	204.0	68.0	136.0	102.0	7.0	0.0	2.2382726528448984	3.0	0.0	3.0	5.0	7.0	6.0	0.0	part_3
14	0.0	1.0	54.0	1.0	0.0	1.0	0.0	324.0	270.0	54.0	108.0	162.0	216.0	7.0	0.0	1.4183017101604491	3.0	0.0	3.0	8.0	3.0	1.0	0.0	part_3
15	0.0	1.0	220.0	5.0	0.0	1.0	1.0	264.0	220.0	176.0	44.0	88.0	132.0	7.0	0.0	1.824112791684456	2.0	0.0	3.0	5.0	7.0	6.0	0.0	part_3
16	0.0	1.0	245.0	5.0	0.0	1.0	1.0	147.0	98.0	294.0	49.0	245.0	196.0	7.0	0.0	1.6235146611579694	5.0	0.0	4.0	3.0	8.0	3.0	0.0	part_3
17	0.0	1.0	270.0	5.0	0.0	1.0	1.0	108.0	216.0	324.0	54.0	270.0	162.0	7.0	0.0	1.9630636359215716	5.0	0.0	1.0	1.0	5.0	5.0	0.0	part_3
18	0.0	1.0	68.0	2.0	0.0	1.0	0.0	68.0	34.0	136.0	102.0	204.0	170.0	7.0	0.0	1.6825558439013548	1.0	0.0	1.0	7.0	1.0	4.0	0.0	part_3
19	0.0	1.0	98.0	2.0	0.0	1.0	0.0	196.0	98.0	49.0	294.0	147.0	245.0	7.0	0.0	1.58142343419604	2.0	0.0	1.0	7.0	1.0	4.0	0.0	part_3
20	0.0	2.0	176.0	4.0	0.0	1.0	0.0	264.0	132.0	176.0	44.0	220.0	88.0	7.0	0.0	1.4130438444553874	3.0	0.0	1.0	7.0	1.0	4.0	0.0	part_3
21	0.0	2.0	156.0	4.0	0.0	1.0	0.0	195.0	156.0	39.0	78.0	234.0	117.0	7.0	0.0	1.4131124471896328	2.0	0.0	3.0	8.0	3.0	1.0	0.0	part_3
22	0.0	2.0	98.0	2.0	0.0	1.0	1.0	245.0	147.0	98.0	294.0	49.0	196.0	7.0	0.0	1.7521176118752921	3.0	0.0	3.0	5.0	7.0	6.0	0.0	part_3
23	0.0	2.0	234.0	6.0	0.0	1.0	1.0	117.0	156.0	234.0	39.0	195.0	78.0	7.0	0.0	1.4620238521602005	3.0	0.0	4.0	3.0	8.0	3.0	0.0	part_3
24	0.0	2.0	245.0	5.0	0.0	1.0	1.0	98.0	49.0	147.0	294.0	196.0	245.0	7.0	0.0	1.8324856996187011	6.0	0.0	1.0	1.0	5.0	5.0	0.0	part_3
25	0.0	2.0	170.0	5.0	0.0	1.0	1.0	136.0	170.0	204.0	102.0	34.0	68.0	7.0	0.0	1.9245503469137475	2.0	0.0	3.0	5.0	7.0	6.0	0.0	part_3
26	0.0	2.0	98.0	2.0	0.0	1.0	0.0	147.0	196.0	49.0	294.0	98.0	245.0	7.0	0.0	1.351593031315133	5.0	0.0	2.0	4.0	2.0	8.0	0.0	part_3
27	0.0	2.0	108.0	2.0	0.0	1.0	0.0	270.0	216.0	108.0	162.0	324.0	54.0	7.0	0.0	1.6578243555850347	3.0	0.0	1.0	7.0	1.0	4.0	0.0	part_3
28	0.0	2.0	98.0	2.0	0.0	1.0	0.0	245.0	147.0	294.0	98.0	196.0	49.0	7.0	0.0	1.7256621276028454	4.0	0.0	3.0	8.0	3.0	1.0	0.0	part_3
29	0.0	2.0	102.0	3.0	0.0	1.0	0.0	34.0	170.0	136.0	204.0	102.0	68.0	7.0	0.0	1.6135781914927063	5.0	0.0	3.0	8.0	3.0	1.0	0.0	part_3
30	0.0	2.0	170.0	5.0	0.0	1.0	1.0	170.0	102.0	68.0	34.0	204.0	136.0	7.0	0.0	2.2221486608032137	1.0	0.0	2.0	2.0	6.0	2.0	0.0	part_3
31	0.0	2.0	324.0	6.0	0.0	1.0	1.0	324.0	108.0	216.0	54.0	270.0	162.0	7.0	0.0	1.5598486501839943	1.0	0.0	4.0	3.0	8.0	3.0	0.0	part_3
32	0.0	2.0	220.0	5.0	0.0	1.0	1.0	44.0	176.0	220.0	132.0	88.0	264.0	7.0	0.0	2.3498617046279837	3.0	0.0	3.0	5.0	7.0	6.0	0.0	part_3
33	0.0	2.0	270.0	5.0	0.0	1.0	1.0	162.0	324.0	270.0	54.0	216.0	108.0	7.0	0.0	1.8557217553025112	3.0	0.0	3.0	5.0	7.0	6.0	0.0	part_3
34	0.0	2.0	39.0	1.0	0.0	1.0	0.0	234.0	156.0	195.0	78.0	39.0	117.0	7.0	0.0	1.1802749093039893	5.0	0.0	2.0	4.0	2.0	8.0	0.0	part_3
35	0.0	2.0	270.0	5.0	0.0	1.0	1.0	324.0	108.0	162.0	270.0	54.0	216.0	7.0	0.0	1.81211228488246	4.0	0.0	2.0	2.0	6.0	2.0	0.0	part_3
36	0.0	2.0	204.0	6.0	0.0	1.0	1.0	136.0	170.0	102.0	34.0	68.0	204.0	7.0	0.0	1.4644594438723288	6.0	0.0	4.0	3.0	8.0	3.0	0.0	part_3
37	0.0	2.0	156.0	4.0	0.0	1.0	1.0	234.0	117.0	39.0	156.0	78.0	195.0	7.0	0.0	1.6002970911795271	4.0	0.0	1.0	1.0	5.0	5.0	0.0	part_3
38	0.0	2.0	264.0	6.0	0.0	1.0	0.0	264.0	176.0	220.0	132.0	88.0	44.0	7.0	0.0	1.5795134999207219	1.0	0.0	4.0	6.0	4.0	7.0	0.0	part_3
39	0.0	2.0	39.0	1.0	0.0	1.0	0.0	39.0	117.0	78.0	234.0	156.0	195.0	7.0	0.0	1.3542236890061758	1.0	0.0	3.0	8.0	3.0	1.0	0.0	part_3
40	0.0	3.0	234.0	6.0	0.0	1.0	1.0	195.0	156.0	117.0	234.0	78.0	39.0	7.0	0.0	1.3877249748911709	4.0	0.0	3.0	5.0	7.0	6.0	0.0	part_3
41	0.0	3.0	234.0	6.0	0.0	1.0	0.0	117.0	156.0	39.0	195.0	78.0	234.0	7.0	0.0	1.6698931467835791	6.0	0.0	4.0	6.0	4.0	7.0	0.0	part_3
42	0.0	3.0	264.0	6.0	0.0	1.0	1.0	264.0	132.0	220.0	44.0	176.0	88.0	7.0	0.0	1.5036732836160809	1.0	0.0	4.0	3.0	8.0	3.0	0.0	part_3
43	0.0	3.0	294.0	6.0	0.0	1.0	1.0	49.0	196.0	245.0	294.0	98.0	147.0	7.0	0.0	1.369454507017508	4.0	0.0	2.0	2.0	6.0	2.0	0.0	part_3
44	0.0	3.0	170.0	5.0	0.0	1.0	1.0	170.0	68.0	136.0	102.0	34.0	204.0	7.0	0.0	1.5381238038535232	1.0	0.0	1.0	1.0	5.0	5.0	0.0	part_3
45	0.0	3.0	195.0	5.0	0.0	1.0	1.0	156.0	78.0	117.0	195.0	234.0	39.0	7.0	0.0	1.7534695548820312	4.0	0.0	4.0	3.0	8.0	3.0	0.0	part_3
46	0.0	3.0	44.0	1.0	0.0	1.0	0.0	176.0	132.0	220.0	44.0	264.0	88.0	7.0	0.0	0.9776186392991804	4.0	0.0	3.0	8.0	3.0	1.0	0.0	part_3
47	0.0	3.0	245.0	5.0	0.0	1.0	0.0	245.0	49.0	98.0	196.0	294.0	147.0	7.0	0.0	2.092690582270734	1.0	0.0	4.0	6.0	4.0	7.0	0.0	part_3
48	0.0	3.0	156.0	4.0	0.0	1.0	1.0	39.0	117.0	234.0	156.0	78.0	195.0	7.0	0.0	0.9472297956235708	4.0	0.0	1.0	1.0	5.0	5.0	0.0	part_3
49	0.0	3.0	117.0	3.0	0.0	1.0	0.0	195.0	78.0	117.0	234.0	39.0	156.0	7.0	0.0	2.19556955981534	3.0	0.0	1.0	7.0	1.0	4.0	0.0	part_3
50	0.0	3.0	270.0	5.0	0.0	1.0	1.0	324.0	216.0	270.0	162.0	54.0	108.0	7.0	0.0	1.6588421851629391	3.0	0.0	3.0	5.0	7.0	6.0	0.0	part_3
51	0.0	3.0	204.0	6.0	0.0	1.0	0.0	170.0	68.0	34.0	136.0	102.0	204.0	7.0	0.0	2.288785990618635	6.0	0.0	4.0	6.0	4.0	7.0	0.0	part_3
52	0.0	3.0	176.0	4.0	0.0	1.0	1.0	132.0	176.0	220.0	88.0	44.0	264.0	7.0	0.0	1.4690338295185938	2.0	0.0	1.0	1.0	5.0	5.0	0.0	part_3
53	0.0	3.0	216.0	4.0	0.0	1.0	1.0	108.0	54.0	270.0	162.0	216.0	324.0	7.0	0.0	1.9986651110230012	5.0	0.0	1.0	1.0	5.0	5.0	0.0	part_3
54	0.0	3.0	264.0	6.0	0.0	1.0	1.0	176.0	264.0	220.0	132.0	44.0	88.0	7.0	0.0	1.4135245539946482	2.0	0.0	2.0	2.0	6.0	2.0	0.0	part_3
55	0.0	3.0	102.0	3.0	0.0	1.0	0.0	102.0	68.0	204.0	136.0	34.0	170.0	7.0	0.0	1.8765705556143075	1.0	0.0	2.0	4.0	2.0	8.0	0.0	part_3
56	0.0	3.0	108.0	2.0	0.0	1.0	0.0	270.0	54.0	324.0	216.0	108.0	162.0	7.0	0.0	1.438715837954078	5.0	0.0	2.0	4.0	2.0	8.0	0.0	part_3
57	0.0	3.0	216.0	4.0	0.0	1.0	0.0	54.0	216.0	108.0	324.0	270.0	162.0	7.0	0.0	2.1597287146141757	2.0	0.0	4.0	6.0	4.0	7.0	0.0	part_3
58	0.0	3.0	294.0	6.0	0.0	1.0	1.0	196.0	147.0	245.0	294.0	98.0	49.0	7.0	0.0	1.7782098252209837	4.0	0.0	4.0	3.0	8.0	3.0	0.0	part_3
59	0.0	3.0	245.0	5.0	0.0	1.0	1.0	98.0	147.0	294.0	245.0	196.0	49.0	7.0	0.0	1.2296372806304134	4.0	0.0	3.0	5.0	7.0	6.0	0.0	part_3
60	0.0	4.0	98.0	2.0	0.0	1.0	0.0	294.0	49.0	98.0	196.0	147.0	245.0	7.0	0.0	1.3989448726060802	3.0	0.0	2.0	4.0	2.0	8.0	0.0	part_3
61	0.0	4.0	132.0	3.0	0.0	1.0	1.0	220.0	132.0	264.0	44.0	88.0	176.0	7.0	0.0	1.73810872156173	2.0	0.0	1.0	1.0	5.0	5.0	0.0	part_3
62	0.0	4.0	234.0	6.0	0.0	1.0	1.0	156.0	78.0	39.0	117.0	234.0	195.0	7.0	0.0	1.8514317916124128	5.0	0.0	2.0	2.0	6.0	2.0	0.0	part_3
63	0.0	4.0	156.0	4.0	0.0	1.0	0.0	234.0	78.0	39.0	117.0	156.0	195.0	7.0	0.0	2.1224597503314726	5.0	0.0	2.0	4.0	2.0	8.0	0.0	part_3
64	0.0	4.0	234.0	6.0	0.0	1.0	1.0	195.0	234.0	39.0	156.0	78.0	117.0	7.0	0.0	1.5727918692864478	2.0	0.0	3.0	5.0	7.0	6.0	0.0	part_3
65	0.0	4.0	294.0	6.0	0.0	1.0	0.0	49.0	98.0	196.0	147.0	294.0	245.0	7.0	0.0	1.7424440309987403	5.0	0.0	4.0	6.0	4.0	7.0	0.0	part_3
66	0.0	4.0	49.0	1.0	0.0	1.0	0.0	49.0	147.0	245.0	98.0	294.0	196.0	7.0	0.0	1.1905835890211165	1.0	0.0	3.0	8.0	3.0	1.0	0.0	part_3
67	0.0	4.0	102.0	3.0	0.0	1.0	0.0	68.0	136.0	170.0	204.0	34.0	102.0	7.0	0.0	1.7991018035681918	6.0	0.0	1.0	7.0	1.0	4.0	0.0	part_3
68	0.0	4.0	220.0	5.0	0.0	1.0	0.0	88.0	44.0	220.0	132.0	176.0	264.0	7.0	0.0	2.3529670634889044	3.0	0.0	4.0	6.0	4.0	7.0	0.0	part_3
69	0.0	4.0	98.0	2.0	0.0	1.0	0.0	49.0	294.0	196.0	147.0	245.0	98.0	7.0	0.0	1.7573765054694377	6.0	0.0	1.0	7.0	1.0	4.0	0.0	part_3
70	0.0	4.0	204.0	6.0	0.0	1.0	0.0	170.0	204.0	68.0	102.0	34.0	136.0	7.0	0.0	1.387874991283752	2.0	0.0	4.0	6.0	4.0	7.0	0.0	part_3
71	0.0	4.0	117.0	3.0	0.0	1.0	0.0	156.0	195.0	234.0	39.0	117.0	78.0	7.0	0.0	2.096439046319574	5.0	0.0	1.0	7.0	1.0	4.0	0.0	part_3
72	0.0	4.0	44.0	1.0	0.0	1.0	0.0	220.0	176.0	88.0	132.0	264.0	44.0	7.0	0.0	1.4560702929156832	6.0	0.0	3.0	8.0	3.0	1.0	0.0	part_3
73	0.0	4.0	196.0	4.0	0.0	1.0	1.0	147.0	196.0	49.0	245.0	98.0	294.0	7.0	0.0	1.6948816257645376	2.0	0.0	1.0	1.0	5.0	5.0	0.0	part_3
74	0.0	4.0	204.0	6.0	0.0	1.0	1.0	136.0	34.0	68.0	102.0	170.0	204.0	7.0	0.0	1.6167867705225945	6.0	0.0	4.0	3.0	8.0	3.0	0.0	part_3
75	0.0	4.0	34.0	1.0	0.0	1.0	0.0	102.0	170.0	136.0	204.0	68.0	34.0	7.0	0.0	1.4595015432569198	6.0	0.0	3.0	8.0	3.0	1.0	0.0	part_3
76	0.0	4.0	264.0	6.0	0.0	1.0	1.0	264.0	88.0	132.0	176.0	44.0	220.0	7.0	0.0	2.091526606294792	1.0	0.0	2.0	2.0	6.0	2.0	0.0	part_3
77	0.0	4.0	132.0	3.0	0.0	1.0	0.0	220.0	176.0	264.0	88.0	132.0	44.0	7.0	0.0	2.1816066492465325	5.0	0.0	2.0	4.0	2.0	8.0	0.0	part_3
78	0.0	4.0	216.0	4.0	0.0	1.0	0.0	162.0	324.0	54.0	270.0	216.0	108.0	7.0	0.0	2.3756965176435187	5.0	0.0	4.0	6.0	4.0	7.0	0.0	part_3
79	0.0	4.0	234.0	6.0	0.0	1.0	1.0	195.0	78.0	156.0	234.0	39.0	117.0	7.0	0.0	2.408581684634555	4.0	0.0	2.0	2.0	6.0	2.0	0.0	part_3
