xPos,corrAns,yPos,corrGoResp,yPosGoStim,xPosGoStim,pracTrials.thisRepN,pracTrials.thisTrialN,pracTrials.thisN,pracTrials.thisIndex,ReDoLoopPrac.thisRepN,ReDoLoopPrac.thisTrialN,ReDoLoopPrac.thisN,ReDoLoopPrac.thisIndex,ReDoLoopPrac.thisTrial,pracStopTrials.thisRepN,pracStopTrials.thisTrialN,pracStopTrials.thisN,pracStopTrials.thisIndex,Blocks.thisRepN,Blocks.thisTrialN,Blocks.thisN,Blocks.thisIndex,trials.thisRepN,trials.thisTrialN,trials.thisN,trials.thisIndex,ReDoLoopMain.thisRepN,ReDoLoopMain.thisTrialN,ReDoLoopMain.thisN,ReDoLoopMain.thisIndex,ReDoLoopMain.thisTrial,StopBlocks.thisRepN,StopBlocks.thisTrialN,StopBlocks.thisN,StopBlocks.thisIndex,StopTrials.thisRepN,StopTrials.thisTrialN,StopTrials.thisN,StopTrials.thisIndex,auctionBlocks.thisRepN,auctionBlocks.thisTrialN,auctionBlocks.thisN,auctionBlocks.thisIndex,auctionTrials.thisRepN,auctionTrials.thisTrialN,auctionTrials.thisN,auctionTrials.thisIndex,learningTrialList,learningPracTrialList,stopTrialList,stopPracTrialList,auctionTrialList,ok1.keys,ok1.rt,resp.keys,resp.corr,resp.rt,feedbackResp.keys,feedbackResp.corr,currentReward,currentStimulus,currentStimType,firstPracComputedRewardOutput,firstPracLearningStimOnset,firstPracLearningFixOnset,firstPracPresentationRT,firstPracPresentationAcc,firstPracPresentationResp,firstPracEndTrialTimeStamp,StartTrialTimeStamp,trialType,goStim,stimType,stopStimValue,goResp.keys,goResp.corr,goResp.rt,key_resp_9.keys,key_resp_9.corr,fixStopOnset,goStimOnset,stopSignalOnset,EndTrialTimeStamp,key_resp_3.keys,key_resp_3.rt,firstComputedRewardOutput,firstLearningStimOnset,firstLearningFixOnset,firstPresentationRT,firstPresentationAcc,firstPresentationResp,firstEndTrialTimeStamp,secondComputedRewardOutput,secondLearningStimOnset,secondLearningFixOnset,secondPresentationRT,secondPresentationAcc,secondPresentationResp,secondEndTrialTimeStamp,key_resp_7.keys,key_resp_7.rt,thirdComputedRewardOutput,thirdLearningStimOnset,thirdLearningFixOnset,thirdPresentationRT,thirdPresentationAcc,thirdPresentationResp,thirdEndTrialTimeStamp,feedbackResp.rt,fourthComputedRewardOutput,fourthLearningStimOnset,fourthLearningFixOnset,fourthPresentationRT,fourthPresentationAcc,fourthPresentationResp,fourthEndTrialTimeStamp,fifthComputedRewardOutput,fifthLearningStimOnset,fifthLearningFixOnset,fifthPresentationRT,fifthPresentationAcc,fifthPresentationResp,fifthEndTrialTimeStamp,beginningSSD,EndingSSD,key_resp_9.rt,key_resp_4.keys,key_resp_4.rt,auctionResponse.keys,auctionStimDuration,auctionStim,auctionAmounts,auctionStimValue,auctionCondition,chosenAuctionAmount,auctionResponse.rt,key_resp_5.keys,key_resp_5.rt,shuffledRewardList,chosenReward1,chosenReward2,chosenReward3,chosenReward4,chosenReward5,key_resp_6.keys,key_resp_6.rt,date,frameRate,expName,session,participant,
,,,,,,,,,,,,,,,,,,,,,,,,,,,,,,,,,,,,,,,,,,,,,,,,[],[],[],[],[],9,49.7592589855,,,,,,,,,,,,,,,,,,,,,,,,,,,,,,,,,,,,,,,,,,,,,,,,,,,,,,,,,,,,,,,,,,,,,,,,,,,,,,,,,,,,,,,,,,,,,2015_Jun_24_1041,59.7414524923,LearningTask,1,20,
200,s,-200,,,,0,0,0,6,,,,,,,,,,,,,,,,,,,,,,,,,,,,,,,,,,,,,,,,,,,,,,s,1,0.918155193329,None,0,0.5,circlecyan.gif,go,0.43,0.506426095963,0.00661206245422,0.918155193329,1,s,90.7893111706,,,,,,,,,,,,,,,,,,,,,,,,,,,,,,,,,,,,,,,,,,,,,,,,,,,,,,,,,,,,,,,,,,,,,,,,,,,,,,2015_Jun_24_1041,59.7414524923,LearningTask,1,20,
200,s,-200,,,,0,1,1,2,,,,,,,,,,,,,,,,,,,,,,,,,,,,,,,,,,,,,,,,,,,,,,s,1,0.383944034576,None,0,1.0,trianglegray.gif,go,1.1,0.514781951904,0.00129294395447,0.383944034576,1,s,93.7921221256,,,,,,,,,,,,,,,,,,,,,,,,,,,,,,,,,,,,,,,,,,,,,,,,,,,,,,,,,,,,,,,,,,,,,,,,,,,,,,2015_Jun_24_1041,59.7414524923,LearningTask,1,20,
-200,q,200,,,,0,2,2,5,,,,,,,,,,,,,,,,,,,,,,,,,,,,,,,,,,,,,,,,,,,,,,q,1,0.417373895645,None,0,0.5,hexagonyellow.gif,stop,0.67,0.515226125717,0.001305103302,0.417373895645,1,q,96.7956559658,,,,,,,,,,,,,,,,,,,,,,,,,,,,,,,,,,,,,,,,,,,,,,,,,,,,,,,,,,,,,,,,,,,,,,,,,,,,,,2015_Jun_24_1041,59.7414524923,LearningTask,1,20,
-200,a,-200,,,,0,3,3,7,,,,,,,,,,,,,,,,,,,,,,,,,,,,,,,,,,,,,,,,,,,,,,a,1,0.301045894623,None,0,2.0,diamondorange.gif,stop,1.81,0.51473402977,0.00145101547241,0.301045894623,1,a,99.7989120483,,,,,,,,,,,,,,,,,,,,,,,,,,,,,,,,,,,,,,,,,,,,,,,,,,,,,,,,,,,,,,,,,,,,,,,,,,,,,,2015_Jun_24_1041,59.7414524923,LearningTask,1,20,
200,w,200,,,,0,4,4,8,,,,,,,,,,,,,,,,,,,,,,,,,,,,,,,,,,,,,,,,,,,,,,w,1,0.351150035858,None,0,1.0,squaremagenta.gif,stop,0,0.515111923218,0.00128483772278,0.351150035858,1,w,102.802189112,,,,,,,,,,,,,,,,,,,,,,,,,,,,,,,,,,,,,,,,,,,,,,,,,,,,,,,,,,,,,,,,,,,,,,,,,,,,,,2015_Jun_24_1041,59.7414524923,LearningTask,1,20,
200,w,200,,,,0,5,5,0,,,,,,,,,,,,,,,,,,,,,,,,,,,,,,,,,,,,,,,,,,,,,,w,1,0.400912046432,None,0,4.0,linegreen.gif,stop,0,0.515017032623,0.00128507614136,0.400912046432,1,w,105.80570817,,,,,,,,,,,,,,,,,,,,,,,,,,,,,,,,,,,,,,,,,,,,,,,,,,,,,,,,,,,,,,,,,,,,,,,,,,,,,,2015_Jun_24_1041,59.7414524923,LearningTask,1,20,
200,w,200,,,,0,6,6,4,,,,,,,,,,,,,,,,,,,,,,,,,,,,,,,,,,,,,,,,,,,,,,w,1,0.467726945877,None,0,4.0,crosswhite.gif,go,0,0.514885902405,0.00132203102112,0.467726945877,1,w,108.809046984,,,,,,,,,,,,,,,,,,,,,,,,,,,,,,,,,,,,,,,,,,,,,,,,,,,,,,,,,,,,,,,,,,,,,,,,,,,,,,2015_Jun_24_1041,59.7414524923,LearningTask,1,20,
-200,a,-200,,,,0,7,7,3,,,,,,,,,,,,,,,,,,,,,,,,,,,,,,,,,,,,,,,,,,,,,,a,1,0.634334087372,None,0,0.5,hexagonyellow.gif,stop,0.46,0.515027999878,0.000904083251953,0.634334087372,1,a,111.812220097,,,,,,,,,,,,,,,,,,,,,,,,,,,,,,,,,,,,,,,,,,,,,,,,,,,,,,,,,,,,,,,,,,,,,,,,,,,,,,2015_Jun_24_1041,59.7414524923,LearningTask,1,20,
-200,q,200,,,,0,8,8,1,,,,,,,,,,,,,,,,,,,,,,,,,,,,,,,,,,,,,,,,,,,,,,q,1,0.434329032898,None,0,1.0,trianglegray.gif,go,0.9,0.515066146851,0.000890970230103,0.434329032898,1,q,114.815628052,,,,,,,,,,,,,,,,,,,,,,,,,,,,,,,,,,,,,,,,,,,,,,,,,,,,,,,,,,,,,,,,,,,,,,,,,,,,,,2015_Jun_24_1041,59.7414524923,LearningTask,1,20,
-200,q,200,,,,0,9,9,9,,,,,,,,,,,,,,,,,,,,,,,,,,,,,,,,,,,,,,,,,,,,,,q,1,0.417392969131,None,0,1.0,trianglegray.gif,go,1.16,0.515088796616,0.00092601776123,0.417392969131,1,q,117.819051981,,,,,,,,,,,,,,,,,,,,,,,,,,,,,,,,,,,,,,,,,,,,,,,,,,,,,,,,,,,,,,,,,,,,,,,,,,,,,,2015_Jun_24_1041,59.7414524923,LearningTask,1,20,
,,,z,0,-200,,,,,,,,,,0,0,0,0,,,,,,,,,,,,,,,,,,,,,,,,,,,,,,,,,,,,,,,,,,,,,,,,,,,,159.320862055,stop,diamondorange.gif,stop,2.0,z,1,0.334391117096,None,0,0.00129294395447,0.509799003601,0.76021194458,162.318694115,,,,,,,,,,,,,,,,,,,,,,,,,,,,,,,,,,,,,,,,,,,,,,,,,,,,,,,,,,,,,,,,2015_Jun_24_1041,59.7414524923,LearningTask,1,20,
,,,m,0,200,,,,,,,,,,0,1,1,1,,,,,,,,,,,,,,,,,,,,,,,,,,,,,,,,,,,,,,,,,,,,,,,,,,,,162.319133043,go,crosswhite.gif,go,4.0,m,1,0.400973796844,None,0,0.000970125198364,0.515304088593,,165.321599007,,,,,,,,,,,,,,,,,,,,,,,,,,,,,,,,,,,,,,,,,,,,,,,,,,,,,,,,,,,,,,,,2015_Jun_24_1041,59.7414524923,LearningTask,1,20,
,,,m,0,200,,,,,,,,,,1,0,2,1,,,,,,,,,,,,,,,,,,,,,,,,,,,,,,,,,,,,,,,,,,,,,,,,,,,,165.321957111,go,invertedtriangleblue.gif,go,2.0,m,1,0.467531919479,None,0,0.00133204460144,0.516028165817,,168.325121164,,,,,,,,,,,,,,,,,,,,,,,,,,,,,,,,,,,,,,,,,,,,,,,,,,,,,,,,,,,,,,,,2015_Jun_24_1041,59.7414524923,LearningTask,1,20,
,,,m,0,200,,,,,,,,,,1,1,3,1,,,,,,,,,,,,,,,,,,,,,,,,,,,,,,,,,,,,,,,,,,,,,,,,,,,,168.325492144,go,crosswhite.gif,go,4.0,m,1,0.434365034103,None,0,0.000957012176514,0.515809059143,,171.32842207,,,,,,,,,,,,,,,,,,,,,,,,,,,,,,,,,,,,,,,,,,,,,,,,,,,,,,,,,,,,,,,,2015_Jun_24_1041,59.7414524923,LearningTask,1,20,
,,,m,0,200,,,,,,,,,,2,0,4,1,,,,,,,,,,,,,,,,,,,,,,,,,,,,,,,,,,,,,,,,,,,,,,,,,,,,171.328828096,stop,diamondorange.gif,stop,2.0,m,1,0.400786876678,None,0,0.00106906890869,0.51588010788,0.766028165817,174.331954002,,,,,,,,,,,,,,,,,,,,,,,,,,,,,,,,,,,,,,,,,,,,,,,,,,,,,,,,,,,,,,,,2015_Jun_24_1041,59.7414524923,LearningTask,1,20,
,,,z,0,-200,,,,,,,,,,2,1,5,0,,,,,,,,,,,,,,,,,,,,,,,,,,,,,,,,,,,,,,,,,,,,,,,,,,,,174.332309008,go,trianglegray.gif,go,1.0,z,1,0.517746210098,None,0,0.000942945480347,0.515764951706,,177.334912062,,,,,,,,,,,,,,,,,,,,,,,,,,,,,,,,,,,,,,,,,,,,,,,,,,,,,,,,,,,,,,,,2015_Jun_24_1041,59.7414524923,LearningTask,1,20,
,,,z,0,-200,,,,,,,,,,3,0,6,0,,,,,,,,,,,,,,,,,,,,,,,,,,,,,,,,,,,,,,,,,,,,,,,,,,,,177.335322142,stop,diamondorange.gif,stop,2.0,None,0,,None,0,0.00100111961365,0.515985012054,0.766364097595,180.338672161,,,,,,,,,,,,,,,,,,,,,,,,,,,,,,,,,,,,,,,,,,,,,,,,,,,,,,,,,,,,,,,,2015_Jun_24_1041,59.7414524923,LearningTask,1,20,
,,,z,0,-200,,,,,,,,,,3,1,7,0,,,,,,,,,,,,,,,,,,,,,,,,,,,,,,,,,,,,,,,,,,,,,,,,,,,,180.339027166,go,circlecyan.gif,go,0.5,z,1,0.484462022781,None,0,0.00116205215454,0.515626907349,,183.341776133,,,,,,,,,,,,,,,,,,,,,,,,,,,,,,,,,,,,,,,,,,,,,,,,,,,,,,,,,,,,,,,,2015_Jun_24_1041,59.7414524923,LearningTask,1,20,
,,,m,0,200,,,,,,,,,,4,0,8,1,,,,,,,,,,,,,,,,,,,,,,,,,,,,,,,,,,,,,,,,,,,,,,,,,,,,183.342137098,stop,diamondorange.gif,stop,2.0,None,0,,None,0,0.000942945480347,0.516093015671,0.766272068024,186.345389128,,,,,,,,,,,,,,,,,,,,,,,,,,,,,,,,,,,,,,,,,,,,,,,,,,,,,,,,,,,,,,,,2015_Jun_24_1041,59.7414524923,LearningTask,1,20,
,,,z,0,-200,,,,,,,,,,4,1,9,0,,,,,,,,,,,,,,,,,,,,,,,,,,,,,,,,,,,,,,,,,,,,,,,,,,,,186.345745087,stop,squaremagenta.gif,stop,1.0,None,0,,None,0,0.000931024551392,0.515933036804,0.765752077103,189.348747969,,,,,,,,,,,,,,,,,,,,,,,,,,,,,,,,,,,,,,,,,,,,,,,,,,,,,,,,,,,,,,,,2015_Jun_24_1041,59.7414524923,LearningTask,1,20,
,,,,,,,,,,,,,,,,,,,,,,,,,,,,,,,,,,,,,,,,,,,,,,,,,,,,,,,,,,,,,,,,,,,,,,,,,,,,,,,,,,,,9,56.3017029762,,,,,,,,,,,,,,,,,,,,,,,,,,,,,,,,,,,,,,,,,,,,,,,,,,,,,,,,,,,,,,2015_Jun_24_1041,59.7414524923,LearningTask,1,20,
,,,,,,,,,,,,,,,,,,,,,,,,,,,,,,,,,,,,,,,,,,,,,,,,,,,,,9,3.23688411713,,,,,,,,,,,,,,,,,,,,,,,,,,,,,,,,,,,,,,,,,,,,,,,,,,,,,,,,,,,,,,,,,,,,,,,,,,,,,,,,,,,,,,,,,,,,,2015_Jun_24_1041,59.7414524923,LearningTask,1,20,
200,w,200,,,,,,,,,,,,,,,,,0,0,0,0,0,0,0,0,,,,,,,,,,,,,,,,,,,,,,,,,,,,,w,1,0.568103075027,None,0,4.0,linegreen.gif,stop,,,,,,,,,,,,,,,,,,,,,,,,0,0.508241891861,0.000918865203857,0.568103075027,1,w,252.053407192,,,,,,,,,,,,,,,,,,,,,,,,,,,,,,,,,,,,,,,,,,,,,,,,,,,,,,,2015_Jun_24_1041,59.7414524923,LearningTask,1,20,
200,s,-200,,,,,,,,,,,,,,,,,0,0,0,0,0,1,1,2,,,,,,,,,,,,,,,,,,,,,,,,,,,,,s,1,0.467550992966,None,0,4.0,crosswhite.gif,go,,,,,,,,,,,,,,,,,,,,,,,,4.04,0.513626813889,0.00114583969116,0.467550992966,1,s,255.055994034,,,,,,,,,,,,,,,,,,,,,,,,,,,,,,,,,,,,,,,,,,,,,,,,,,,,,,,2015_Jun_24_1041,59.7414524923,LearningTask,1,20,
200,w,200,,,,,,,,,,,,,,,,,0,0,0,0,0,2,2,0,,,,,,,,,,,,,,,,,,,,,,,,,,,,,w,1,0.600737810135,None,0,0.5,hexagonyellow.gif,stop,,,,,,,,,,,,,,,,,,,,,,,,0,0.514589071274,0.000894069671631,0.600737810135,1,w,258.059452057,,,,,,,,,,,,,,,,,,,,,,,,,,,,,,,,,,,,,,,,,,,,,,,,,,,,,,,2015_Jun_24_1041,59.7414524923,LearningTask,1,20,
200,w,200,,,,,,,,,,,,,,,,,0,0,0,0,0,3,3,0,,,,,,,,,,,,,,,,,,,,,,,,,,,,,w,1,0.434414148331,None,0,2.0,invertedtriangleblue.gif,go,,,,,,,,,,,,,,,,,,,,,,,,2.03,0.514372825623,0.000890970230103,0.434414148331,1,w,261.063028097,,,,,,,,,,,,,,,,,,,,,,,,,,,,,,,,,,,,,,,,,,,,,,,,,,,,,,,2015_Jun_24_1041,59.7414524923,LearningTask,1,20,
200,w,200,,,,,,,,,,,,,,,,,0,0,0,0,1,0,4,0,,,,,,,,,,,,,,,,,,,,,,,,,,,,,w,1,0.367400169373,None,0,2.0,diamondorange.gif,stop,,,,,,,,,,,,,,,,,,,,,,,,2.23,0.513997793198,0.00114393234253,0.367400169373,1,w,264.066326141,,,,,,,,,,,,,,,,,,,,,,,,,,,,,,,,,,,,,,,,,,,,,,,,,,,,,,,2015_Jun_24_1041,59.7414524923,LearningTask,1,20,
200,w,200,,,,,,,,,,,,,,,,,0,0,0,0,1,1,5,0,,,,,,,,,,,,,,,,,,,,,,,,,,,,,w,1,0.400773048401,None,0,2.0,invertedtriangleblue.gif,go,,,,,,,,,,,,,,,,,,,,,,,,0,0.513559103012,0.000994920730591,0.400773048401,1,w,267.069477081,,,,,,,,,,,,,,,,,,,,,,,,,,,,,,,,,,,,,,,,,,,,,,,,,,,,,,,2015_Jun_24_1041,59.7414524923,LearningTask,1,20,
-200,q,200,,,,,,,,,,,,,,,,,0,0,0,0,1,2,6,1,,,,,,,,,,,,,,,,,,,,,,,,,,,,,q,1,0.350829839706,None,0,1.0,squaremagenta.gif,stop,,,,,,,,,,,,,,,,,,,,,,,,0.98,0.514315843582,0.000887870788574,0.350829839706,1,q,270.072782993,,,,,,,,,,,,,,,,,,,,,,,,,,,,,,,,,,,,,,,,,,,,,,,,,,,,,,,2015_Jun_24_1041,59.7414524923,LearningTask,1,20,
-200,q,200,,,,,,,,,,,,,,,,,0,0,0,0,1,3,7,1,,,,,,,,,,,,,,,,,,,,,,,,,,,,,q,1,0.317715883255,None,0,0.5,circlecyan.gif,go,,,,,,,,,,,,,,,,,,,,,,,,0.6,0.514309883118,0.000931024551392,0.317715883255,1,q,273.076093197,,,,,,,,,,,,,,,,,,,,,,,,,,,,,,,,,,,,,,,,,,,,,,,,,,,,,,,2015_Jun_24_1041,59.7414524923,LearningTask,1,20,
-200,a,-200,,,,,,,,,,,,,,,,,0,0,0,0,2,0,8,3,,,,,,,,,,,,,,,,,,,,,,,,,,,,,a,1,0.367366075516,None,0,2.0,invertedtriangleblue.gif,go,,,,,,,,,,,,,,,,,,,,,,,,0,0.514235973358,0.000986099243164,0.350836038589,0,q,276.079648018,2.12,0.515414953232,0.000975847244263,0.367366075516,1,a,279.083342075,,,,,,,,,,,,,,,,,,,,,,,,,,,,,,,,,,,,,,,,,,,,,,,,2015_Jun_24_1041,59.7414524923,LearningTask,1,20,
-200,q,200,,,,,,,,,,,,,,,,,0,0,0,0,2,1,9,1,,,,,,,,,,,,,,,,,,,,,,,,,,,,,q,1,0.350646018982,None,0,2.0,diamondorange.gif,stop,,,,,,,,,,,,,,,,,,,,,,,,0,0.51376914978,0.000919103622437,0.350646018982,1,q,282.08613205,,,,,,,,,,,,,,,,,,,,,,,,,,,,,,,,,,,,,,,,,,,,,,,,,,,,,,,2015_Jun_24_1041,59.7414524923,LearningTask,1,20,
-200,q,200,,,,,,,,,,,,,,,,,0,0,0,0,2,2,10,1,,,,,,,,,,,,,,,,,,,,,,,,,,,,,q,1,0.434625148773,None,0,4.0,crosswhite.gif,go,,,,,,,,,,,,,,,,,,,,,,,,3.76,0.514250040054,0.000956058502197,0.434625148773,1,q,285.089370012,,,,,,,,,,,,,,,,,,,,,,,,,,,,,,,,,,,,,,,,,,,,,,,,,,,,,,,2015_Jun_24_1041,59.7414524923,LearningTask,1,20,
200,w,200,,,,,,,,,,,,,,,,,0,0,0,0,2,3,11,0,,,,,,,,,,,,,,,,,,,,,,,,,,,,,w,1,0.467680931091,None,0,2.0,invertedtriangleblue.gif,go,,,,,,,,,,,,,,,,,,,,,,,,0,0.51430606842,0.00111603736877,0.467680931091,1,w,288.093191147,,,,,,,,,,,,,,,,,,,,,,,,,,,,,,,,,,,,,,,,,,,,,,,,,,,,,,,2015_Jun_24_1041,59.7414524923,LearningTask,1,20,
-200,a,-200,,,,,,,,,,,,,,,,,0,0,0,0,3,0,12,3,,,,,,,,,,,,,,,,,,,,,,,,,,,,,a,1,0.451112031937,None,0,4.0,linegreen.gif,stop,,,,,,,,,,,,,,,,,,,,,,,,3.77,0.513796806335,0.000921010971069,0.451112031937,1,a,291.096369028,,,,,,,,,,,,,,,,,,,,,,,,,,,,,,,,,,,,,,,,,,,,,,,,,,,,,,,2015_Jun_24_1041,59.7414524923,LearningTask,1,20,
200,s,-200,,,,,,,,,,,,,,,,,0,0,0,0,3,1,13,2,,,,,,,,,,,,,,,,,,,,,,,,,,,,,s,1,0.450726032257,None,0,1.0,squaremagenta.gif,stop,,,,,,,,,,,,,,,,,,,,,,,,1.19,0.514511823654,0.000891923904419,0.450726032257,1,s,294.099431038,,,,,,,,,,,,,,,,,,,,,,,,,,,,,,,,,,,,,,,,,,,,,,,,,,,,,,,2015_Jun_24_1041,59.7414524923,LearningTask,1,20,
-200,a,-200,,,,,,,,,,,,,,,,,0,0,0,0,3,2,14,3,,,,,,,,,,,,,,,,,,,,,,,,,,,,,a,1,0.417516946793,None,0,2.0,diamondorange.gif,stop,,,,,,,,,,,,,,,,,,,,,,,,2.18,0.514653921127,0.000910997390747,0.417516946793,1,a,297.103142977,,,,,,,,,,,,,,,,,,,,,,,,,,,,,,,,,,,,,,,,,,,,,,,,,,,,,,,2015_Jun_24_1041,59.7414524923,LearningTask,1,20,
-200,q,200,,,,,,,,,,,,,,,,,0,0,0,0,3,3,15,1,,,,,,,,,,,,,,,,,,,,,,,,,,,,,q,1,0.450832128525,None,0,0.5,hexagonyellow.gif,stop,,,,,,,,,,,,,,,,,,,,,,,,0.53,0.514095067978,0.000906944274902,0.450832128525,1,q,300.106383085,,,,,,,,,,,,,,,,,,,,,,,,,,,,,,,,,,,,,,,,,,,,,,,,,,,,,,,2015_Jun_24_1041,59.7414524923,LearningTask,1,20,
-200,a,-200,,,,,,,,,,,,,,,,,0,0,0,0,4,0,16,3,,,,,,,,,,,,,,,,,,,,,,,,,,,,,a,1,0.351100206375,None,0,4.0,crosswhite.gif,go,,,,,,,,,,,,,,,,,,,,,,,,3.83,0.514274835587,0.000898838043213,0.351100206375,1,a,303.109671116,,,,,,,,,,,,,,,,,,,,,,,,,,,,,,,,,,,,,,,,,,,,,,,,,,,,,,,2015_Jun_24_1041,59.7414524923,LearningTask,1,20,
200,s,-200,,,,,,,,,,,,,,,,,0,0,0,0,4,1,17,2,,,,,,,,,,,,,,,,,,,,,,,,,,,,,s,1,0.384128093719,None,0,2.0,diamondorange.gif,stop,,,,,,,,,,,,,,,,,,,,,,,,0,0.514380931854,0.000902891159058,0.35079407692,0,w,306.1131742,2.09,0.515594959259,0.000976085662842,0.384128093719,1,s,309.116618156,,,,,,,,,,,,,,,,,,,,,,,,,,,,,,,,,,,,,,,,,,,,,,,,2015_Jun_24_1041,59.7414524923,LearningTask,1,20,
200,w,200,,,,,,,,,,,,,,,,,0,0,0,0,4,2,18,0,,,,,,,,,,,,,,,,,,,,,,,,,,,,,w,1,0.433971166611,None,0,0.5,circlecyan.gif,go,,,,,,,,,,,,,,,,,,,,,,,,0.64,0.513563871384,0.000962018966675,0.433971166611,1,w,312.11995697,,,,,,,,,,,,,,,,,,,,,,,,,,,,,,,,,,,,,,,,,,,,,,,,,,,,,,,2015_Jun_24_1041,59.7414524923,LearningTask,1,20,
-200,a,-200,,,,,,,,,,,,,,,,,0,0,0,0,4,3,19,3,,,,,,,,,,,,,,,,,,,,,,,,,,,,,a,1,0.400817871094,None,0,2.0,invertedtriangleblue.gif,go,,,,,,,,,,,,,,,,,,,,,,,,1.78,0.513442993164,0.00106000900269,0.400817871094,1,a,315.123495102,,,,,,,,,,,,,,,,,,,,,,,,,,,,,,,,,,,,,,,,,,,,,,,,,,,,,,,2015_Jun_24_1041,59.7414524923,LearningTask,1,20,
200,s,-200,,,,,,,,,,,,,,,,,0,0,0,0,5,0,20,2,,,,,,,,,,,,,,,,,,,,,,,,,,,,,s,1,0.3674659729,None,0,1.0,trianglegray.gif,go,,,,,,,,,,,,,,,,,,,,,,,,1.13,0.513753890991,0.000945091247559,0.3674659729,1,s,318.126492977,,,,,,,,,,,,,,,,,,,,,,,,,,,,,,,,,,,,,,,,,,,,,,,,,,,,,,,2015_Jun_24_1041,59.7414524923,LearningTask,1,20,
-200,q,200,,,,,,,,,,,,,,,,,0,0,0,0,5,1,21,1,,,,,,,,,,,,,,,,,,,,,,,,,,,,,q,1,0.467662096024,None,0,4.0,crosswhite.gif,go,,,,,,,,,,,,,,,,,,,,,,,,4.11,0.514186143875,0.000932931900024,0.467662096024,1,q,321.129785061,,,,,,,,,,,,,,,,,,,,,,,,,,,,,,,,,,,,,,,,,,,,,,,,,,,,,,,2015_Jun_24_1041,59.7414524923,LearningTask,1,20,
200,s,-200,,,,,,,,,,,,,,,,,0,0,0,0,5,2,22,2,,,,,,,,,,,,,,,,,,,,,,,,,,,,,s,1,0.434782981873,None,0,1.0,squaremagenta.gif,stop,,,,,,,,,,,,,,,,,,,,,,,,1.06,0.514289140701,0.000899076461792,0.434782981873,1,s,324.133045197,,,,,,,,,,,,,,,,,,,,,,,,,,,,,,,,,,,,,,,,,,,,,,,,,,,,,,,2015_Jun_24_1041,59.7414524923,LearningTask,1,20,
200,s,-200,,,,,,,,,,,,,,,,,0,0,0,0,5,3,23,2,,,,,,,,,,,,,,,,,,,,,,,,,,,,,s,1,0.367540836334,None,0,2.0,diamondorange.gif,stop,,,,,,,,,,,,,,,,,,,,,,,,1.89,0.514470100403,0.000887870788574,0.367540836334,1,s,327.136600018,,,,,,,,,,,,,,,,,,,,,,,,,,,,,,,,,,,,,,,,,,,,,,,,,,,,,,,2015_Jun_24_1041,59.7414524923,LearningTask,1,20,
200,s,-200,,,,,,,,,,,,,,,,,0,0,0,0,6,0,24,2,,,,,,,,,,,,,,,,,,,,,,,,,,,,,s,1,0.400613069534,None,0,0.5,circlecyan.gif,go,,,,,,,,,,,,,,,,,,,,,,,,0.37,0.51429605484,0.000936985015869,0.400613069534,1,s,330.139862061,,,,,,,,,,,,,,,,,,,,,,,,,,,,,,,,,,,,,,,,,,,,,,,,,,,,,,,2015_Jun_24_1041,59.7414524923,LearningTask,1,20,
200,s,-200,,,,,,,,,,,,,,,,,0,0,0,0,6,1,25,2,,,,,,,,,,,,,,,,,,,,,,,,,,,,,s,1,0.367605924606,None,0,0.5,hexagonyellow.gif,stop,,,,,,,,,,,,,,,,,,,,,,,,0.47,0.514189958572,0.000962018966675,0.367605924606,1,s,333.143478155,,,,,,,,,,,,,,,,,,,,,,,,,,,,,,,,,,,,,,,,,,,,,,,,,,,,,,,2015_Jun_24_1041,59.7414524923,LearningTask,1,20,
-200,q,200,,,,,,,,,,,,,,,,,0,0,0,0,6,2,26,1,,,,,,,,,,,,,,,,,,,,,,,,,,,,,q,1,0.434256076813,None,0,0.5,circlecyan.gif,go,,,,,,,,,,,,,,,,,,,,,,,,0,0.514086961746,0.000898122787476,0.434256076813,1,q,336.14704299,,,,,,,,,,,,,,,,,,,,,,,,,,,,,,,,,,,,,,,,,,,,,,,,,,,,,,,2015_Jun_24_1041,59.7414524923,LearningTask,1,20,
-200,a,-200,,,,,,,,,,,,,,,,,0,0,0,0,6,3,27,3,,,,,,,,,,,,,,,,,,,,,,,,,,,,,a,1,0.367816209793,None,0,4.0,crosswhite.gif,go,,,,,,,,,,,,,,,,,,,,,,,,3.88,0.513195037842,0.00091290473938,0.367816209793,1,a,339.149998188,,,,,,,,,,,,,,,,,,,,,,,,,,,,,,,,,,,,,,,,,,,,,,,,,,,,,,,2015_Jun_24_1041,59.7414524923,LearningTask,1,20,
-200,a,-200,,,,,,,,,,,,,,,,,0,0,0,0,7,0,28,3,,,,,,,,,,,,,,,,,,,,,,,,,,,,,a,1,0.383517980576,None,0,1.0,trianglegray.gif,go,,,,,,,,,,,,,,,,,,,,,,,,1.16,0.514395952225,0.000921010971069,0.383517980576,1,a,342.153195143,,,,,,,,,,,,,,,,,,,,,,,,,,,,,,,,,,,,,,,,,,,,,,,,,,,,,,,2015_Jun_24_1041,59.7414524923,LearningTask,1,20,
-200,q,200,,,,,,,,,,,,,,,,,0,0,0,0,7,1,29,1,,,,,,,,,,,,,,,,,,,,,,,,,,,,,q,1,0.417073011398,None,0,1.0,trianglegray.gif,go,,,,,,,,,,,,,,,,,,,,,,,,0,0.514818906784,0.000907897949219,0.417073011398,1,q,345.157103062,,,,,,,,,,,,,,,,,,,,,,,,,,,,,,,,,,,,,,,,,,,,,,,,,,,,,,,2015_Jun_24_1041,59.7414524923,LearningTask,1,20,
-200,a,-200,,,,,,,,,,,,,,,,,0,0,0,0,7,2,30,3,,,,,,,,,,,,,,,,,,,,,,,,,,,,,a,1,0.401207923889,None,0,4.0,linegreen.gif,stop,,,,,,,,,,,,,,,,,,,,,,,,4.18,0.513611793518,0.000910997390747,0.401207923889,1,a,348.160078049,,,,,,,,,,,,,,,,,,,,,,,,,,,,,,,,,,,,,,,,,,,,,,,,,,,,,,,2015_Jun_24_1041,59.7414524923,LearningTask,1,20,
200,w,200,,,,,,,,,,,,,,,,,0,0,0,0,7,3,31,0,,,,,,,,,,,,,,,,,,,,,,,,,,,,,w,1,0.384073972702,None,0,2.0,invertedtriangleblue.gif,go,,,,,,,,,,,,,,,,,,,,,,,,2.1,0.514229059219,0.000890970230103,0.384073972702,1,w,351.163312197,,,,,,,,,,,,,,,,,,,,,,,,,,,,,,,,,,,,,,,,,,,,,,,,,,,,,,,2015_Jun_24_1041,59.7414524923,LearningTask,1,20,
-200,a,-200,,,,,,,,,,,,,,,,,0,0,0,0,8,0,32,3,,,,,,,,,,,,,,,,,,,,,,,,,,,,,a,1,0.400859117508,None,0,0.5,hexagonyellow.gif,stop,,,,,,,,,,,,,,,,,,,,,,,,0.51,0.51428103447,0.000895023345947,0.400859117508,1,a,354.166834116,,,,,,,,,,,,,,,,,,,,,,,,,,,,,,,,,,,,,,,,,,,,,,,,,,,,,,,2015_Jun_24_1041,59.7414524923,LearningTask,1,20,
-200,q,200,,,,,,,,,,,,,,,,,0,0,0,0,8,1,33,1,,,,,,,,,,,,,,,,,,,,,,,,,,,,,q,1,0.350704908371,None,0,2.0,diamondorange.gif,stop,,,,,,,,,,,,,,,,,,,,,,,,2.11,0.514410972595,0.000910043716431,0.350704908371,1,q,357.170186996,,,,,,,,,,,,,,,,,,,,,,,,,,,,,,,,,,,,,,,,,,,,,,,,,,,,,,,2015_Jun_24_1041,59.7414524923,LearningTask,1,20,
-200,q,200,,,,,,,,,,,,,,,,,0,0,0,0,8,2,34,1,,,,,,,,,,,,,,,,,,,,,,,,,,,,,q,1,0.417475938797,None,0,0.5,hexagonyellow.gif,stop,,,,,,,,,,,,,,,,,,,,,,,,0,0.514142990112,0.00118398666382,0.417475938797,1,q,360.173376083,,,,,,,,,,,,,,,,,,,,,,,,,,,,,,,,,,,,,,,,,,,,,,,,,,,,,,,2015_Jun_24_1041,59.7414524923,LearningTask,1,20,
200,w,200,,,,,,,,,,,,,,,,,0,0,0,0,8,3,35,0,,,,,,,,,,,,,,,,,,,,,,,,,,,,,w,1,0.41796708107,None,0,4.0,crosswhite.gif,go,,,,,,,,,,,,,,,,,,,,,,,,3.81,0.514407157898,0.000900983810425,0.41796708107,1,w,363.176645994,,,,,,,,,,,,,,,,,,,,,,,,,,,,,,,,,,,,,,,,,,,,,,,,,,,,,,,2015_Jun_24_1041,59.7414524923,LearningTask,1,20,
-200,a,-200,,,,,,,,,,,,,,,,,0,0,0,0,9,0,36,3,,,,,,,,,,,,,,,,,,,,,,,,,,,,,a,1,0.351470947266,None,0,1.0,trianglegray.gif,go,,,,,,,,,,,,,,,,,,,,,,,,1.14,0.514480829239,0.000907897949219,0.351470947266,1,a,366.180149078,,,,,,,,,,,,,,,,,,,,,,,,,,,,,,,,,,,,,,,,,,,,,,,,,,,,,,,2015_Jun_24_1041,59.7414524923,LearningTask,1,20,
200,w,200,,,,,,,,,,,,,,,,,0,0,0,0,9,1,37,0,,,,,,,,,,,,,,,,,,,,,,,,,,,,,w,1,0.41792011261,None,0,2.0,invertedtriangleblue.gif,go,,,,,,,,,,,,,,,,,,,,,,,,2.16,0.51396894455,0.000953912734985,0.41792011261,1,w,369.183385134,,,,,,,,,,,,,,,,,,,,,,,,,,,,,,,,,,,,,,,,,,,,,,,,,,,,,,,2015_Jun_24_1041,59.7414524923,LearningTask,1,20,
200,w,200,,,,,,,,,,,,,,,,,0,0,0,0,9,2,38,0,,,,,,,,,,,,,,,,,,,,,,,,,,,,,w,1,0.467511892319,None,0,1.0,trianglegray.gif,go,,,,,,,,,,,,,,,,,,,,,,,,1.17,0.514698028564,0.00103688240051,0.467511892319,1,w,372.1871562,,,,,,,,,,,,,,,,,,,,,,,,,,,,,,,,,,,,,,,,,,,,,,,,,,,,,,,2015_Jun_24_1041,59.7414524923,LearningTask,1,20,
-200,q,200,,,,,,,,,,,,,,,,,0,0,0,0,9,3,39,1,,,,,,,,,,,,,,,,,,,,,,,,,,,,,q,1,0.400656938553,None,0,0.5,hexagonyellow.gif,stop,,,,,,,,,,,,,,,,,,,,,,,,0,0.513880968094,0.000900983810425,0.400656938553,1,q,375.190356016,,,,,,,,,,,,,,,,,,,,,,,,,,,,,,,,,,,,,,,,,,,,,,,,,,,,,,,2015_Jun_24_1041,59.7414524923,LearningTask,1,20,
200,w,200,,,,,,,,,,,,,,,,,0,0,0,0,10,0,40,0,,,,,,,,,,,,,,,,,,,,,,,,,,,,,w,1,0.40066409111,None,0,1.0,squaremagenta.gif,stop,,,,,,,,,,,,,,,,,,,,,,,,0.97,0.51397395134,0.000911951065063,0.40066409111,1,w,378.193344116,,,,,,,,,,,,,,,,,,,,,,,,,,,,,,,,,,,,,,,,,,,,,,,,,,,,,,,2015_Jun_24_1041,59.7414524923,LearningTask,1,20,
200,w,200,,,,,,,,,,,,,,,,,0,0,0,0,10,1,41,0,,,,,,,,,,,,,,,,,,,,,,,,,,,,,w,1,0.41743683815,None,0,1.0,squaremagenta.gif,stop,,,,,,,,,,,,,,,,,,,,,,,,1.21,0.514481782913,0.000924825668335,0.41743683815,1,w,381.196768999,,,,,,,,,,,,,,,,,,,,,,,,,,,,,,,,,,,,,,,,,,,,,,,,,,,,,,,2015_Jun_24_1041,59.7414524923,LearningTask,1,20,
-200,q,200,,,,,,,,,,,,,,,,,0,0,0,0,10,2,42,1,,,,,,,,,,,,,,,,,,,,,,,,,,,,,q,1,0.384192943573,None,0,1.0,trianglegray.gif,go,,,,,,,,,,,,,,,,,,,,,,,,0.8,0.514492034912,0.000895023345947,0.384192943573,1,q,384.200725079,,,,,,,,,,,,,,,,,,,,,,,,,,,,,,,,,,,,,,,,,,,,,,,,,,,,,,,2015_Jun_24_1041,59.7414524923,LearningTask,1,20,
200,s,-200,,,,,,,,,,,,,,,,,0,0,0,0,10,3,43,2,,,,,,,,,,,,,,,,,,,,,,,,,,,,,s,1,0.434204101562,None,0,0.5,hexagonyellow.gif,stop,,,,,,,,,,,,,,,,,,,,,,,,0,0.513735055923,0.00090217590332,0.434204101562,1,s,387.203711033,,,,,,,,,,,,,,,,,,,,,,,,,,,,,,,,,,,,,,,,,,,,,,,,,,,,,,,2015_Jun_24_1041,59.7414524923,LearningTask,1,20,
-200,a,-200,,,,,,,,,,,,,,,,,0,0,0,0,11,0,44,3,,,,,,,,,,,,,,,,,,,,,,,,,,,,,a,1,0.400582790375,None,0,1.0,trianglegray.gif,go,,,,,,,,,,,,,,,,,,,,,,,,0.85,0.514568805695,0.000891923904419,0.400582790375,1,a,390.20690012,,,,,,,,,,,,,,,,,,,,,,,,,,,,,,,,,,,,,,,,,,,,,,,,,,,,,,,2015_Jun_24_1041,59.7414524923,LearningTask,1,20,
-200,q,200,,,,,,,,,,,,,,,,,0,0,0,0,11,1,45,1,,,,,,,,,,,,,,,,,,,,,,,,,,,,,q,1,0.434843063354,None,0,4.0,crosswhite.gif,go,,,,,,,,,,,,,,,,,,,,,,,,0,0.514245033264,0.00118708610535,0.434843063354,1,q,393.21095705,,,,,,,,,,,,,,,,,,,,,,,,,,,,,,,,,,,,,,,,,,,,,,,,,,,,,,,2015_Jun_24_1041,59.7414524923,LearningTask,1,20,
-200,a,-200,,,,,,,,,,,,,,,,,0,0,0,0,11,2,46,3,,,,,,,,,,,,,,,,,,,,,,,,,,,,,a,1,0.367439031601,None,0,0.5,hexagonyellow.gif,stop,,,,,,,,,,,,,,,,,,,,,,,,0.37,0.513470172882,0.000944137573242,0.367439031601,1,a,396.213662148,,,,,,,,,,,,,,,,,,,,,,,,,,,,,,,,,,,,,,,,,,,,,,,,,,,,,,,2015_Jun_24_1041,59.7414524923,LearningTask,1,20,
200,w,200,,,,,,,,,,,,,,,,,0,0,0,0,11,3,47,0,,,,,,,,,,,,,,,,,,,,,,,,,,,,,w,1,0.46795296669,None,0,0.5,hexagonyellow.gif,stop,,,,,,,,,,,,,,,,,,,,,,,,0.32,0.514162063599,0.00093412399292,0.46795296669,1,w,399.216933966,,,,,,,,,,,,,,,,,,,,,,,,,,,,,,,,,,,,,,,,,,,,,,,,,,,,,,,2015_Jun_24_1041,59.7414524923,LearningTask,1,20,
200,w,200,,,,,,,,,,,,,,,,,0,0,0,0,12,0,48,0,,,,,,,,,,,,,,,,,,,,,,,,,,,,,w,1,0.401578903198,None,0,1.0,squaremagenta.gif,stop,,,,,,,,,,,,,,,,,,,,,,,,0,0.51437997818,0.00088906288147,0.401578903198,1,w,402.220421076,,,,,,,,,,,,,,,,,,,,,,,,,,,,,,,,,,,,,,,,,,,,,,,,,,,,,,,2015_Jun_24_1041,59.7414524923,LearningTask,1,20,
200,w,200,,,,,,,,,,,,,,,,,0,0,0,0,12,1,49,0,,,,,,,,,,,,,,,,,,,,,,,,,,,,,w,1,0.500882863998,None,0,1.0,trianglegray.gif,go,,,,,,,,,,,,,,,,,,,,,,,,0.92,0.51406788826,0.00091290473938,0.500882863998,1,w,405.223855972,,,,,,,,,,,,,,,,,,,,,,,,,,,,,,,,,,,,,,,,,,,,,,,,,,,,,,,2015_Jun_24_1041,59.7414524923,LearningTask,1,20,
200,s,-200,,,,,,,,,,,,,,,,,0,0,0,0,12,2,50,2,,,,,,,,,,,,,,,,,,,,,,,,,,,,,s,1,0.450953960419,None,0,2.0,diamondorange.gif,stop,,,,,,,,,,,,,,,,,,,,,,,,2.07,0.514355182648,0.00127506256104,0.450953960419,1,s,408.227285147,,,,,,,,,,,,,,,,,,,,,,,,,,,,,,,,,,,,,,,,,,,,,,,,,,,,,,,2015_Jun_24_1041,59.7414524923,LearningTask,1,20,
-200,a,-200,,,,,,,,,,,,,,,,,0,0,0,0,12,3,51,3,,,,,,,,,,,,,,,,,,,,,,,,,,,,,a,1,0.450845956802,None,0,4.0,crosswhite.gif,go,,,,,,,,,,,,,,,,,,,,,,,,0,0.514130830765,0.000911951065063,0.450845956802,1,a,411.230202198,,,,,,,,,,,,,,,,,,,,,,,,,,,,,,,,,,,,,,,,,,,,,,,,,,,,,,,2015_Jun_24_1041,59.7414524923,LearningTask,1,20,
-200,a,-200,,,,,,,,,,,,,,,,,0,0,0,0,13,0,52,3,,,,,,,,,,,,,,,,,,,,,,,,,,,,,a,1,0.384824991226,None,0,1.0,squaremagenta.gif,stop,,,,,,,,,,,,,,,,,,,,,,,,0.93,0.514579057693,0.000911951065063,0.384824991226,1,a,414.233718157,,,,,,,,,,,,,,,,,,,,,,,,,,,,,,,,,,,,,,,,,,,,,,,,,,,,,,,2015_Jun_24_1041,59.7414524923,LearningTask,1,20,
200,s,-200,,,,,,,,,,,,,,,,,0,0,0,0,13,1,53,2,,,,,,,,,,,,,,,,,,,,,,,,,,,,,s,1,0.467893123627,None,0,0.5,circlecyan.gif,go,,,,,,,,,,,,,,,,,,,,,,,,0.47,0.51393699646,0.00108790397644,0.467893123627,1,s,417.237091064,,,,,,,,,,,,,,,,,,,,,,,,,,,,,,,,,,,,,,,,,,,,,,,,,,,,,,,2015_Jun_24_1041,59.7414524923,LearningTask,1,20,
-200,q,200,,,,,,,,,,,,,,,,,0,0,0,0,13,2,54,1,,,,,,,,,,,,,,,,,,,,,,,,,,,,,q,1,0.350930929184,None,0,0.5,hexagonyellow.gif,stop,,,,,,,,,,,,,,,,,,,,,,,,0.75,0.514263153076,0.000975131988525,0.350930929184,1,q,420.240730047,,,,,,,,,,,,,,,,,,,,,,,,,,,,,,,,,,,,,,,,,,,,,,,,,,,,,,,2015_Jun_24_1041,59.7414524923,LearningTask,1,20,
-200,q,200,,,,,,,,,,,,,,,,,0,0,0,0,13,3,55,1,,,,,,,,,,,,,,,,,,,,,,,,,,,,,q,1,0.367100000381,None,0,0.5,circlecyan.gif,go,,,,,,,,,,,,,,,,,,,,,,,,0,0.513986110687,0.000897169113159,0.400686979294,0,a,423.244146109,0.4,0.515261173248,0.000998020172119,0.367100000381,1,q,426.247150183,,,,,,,,,,,,,,,,,,,,,,,,,,,,,,,,,,,,,,,,,,,,,,,,2015_Jun_24_1041,59.7414524923,LearningTask,1,20,
200,s,-200,,,,,,,,,,,,,,,,,0,0,0,0,14,0,56,2,,,,,,,,,,,,,,,,,,,,,,,,,,,,,s,1,0.384297847748,None,0,4.0,crosswhite.gif,go,,,,,,,,,,,,,,,,,,,,,,,,0,0.513959169388,0.000952005386353,0.384297847748,1,s,429.25041604,,,,,,,,,,,,,,,,,,,,,,,,,,,,,,,,,,,,,,,,,,,,,,,,,,,,,,,2015_Jun_24_1041,59.7414524923,LearningTask,1,20,
200,s,-200,,,,,,,,,,,,,,,,,0,0,0,0,14,1,57,2,,,,,,,,,,,,,,,,,,,,,,,,,,,,,s,1,0.517804861069,None,0,2.0,invertedtriangleblue.gif,go,,,,,,,,,,,,,,,,,,,,,,,,2.12,0.514400005341,0.000895023345947,0.517804861069,1,s,432.253942966,,,,,,,,,,,,,,,,,,,,,,,,,,,,,,,,,,,,,,,,,,,,,,,,,,,,,,,2015_Jun_24_1041,59.7414524923,LearningTask,1,20,
-200,a,-200,,,,,,,,,,,,,,,,,0,0,0,0,14,2,58,3,,,,,,,,,,,,,,,,,,,,,,,,,,,,,a,1,0.534353971481,None,0,0.5,circlecyan.gif,go,,,,,,,,,,,,,,,,,,,,,,,,0,0.513890028,0.000927925109863,0.534353971481,1,a,435.257277012,,,,,,,,,,,,,,,,,,,,,,,,,,,,,,,,,,,,,,,,,,,,,,,,,,,,,,,2015_Jun_24_1041,59.7414524923,LearningTask,1,20,
-200,a,-200,,,,,,,,,,,,,,,,,0,0,0,0,14,3,59,3,,,,,,,,,,,,,,,,,,,,,,,,,,,,,a,1,0.433777809143,None,0,4.0,linegreen.gif,stop,,,,,,,,,,,,,,,,,,,,,,,,0,0.514402866364,0.000897884368896,0.433777809143,1,a,438.260482073,,,,,,,,,,,,,,,,,,,,,,,,,,,,,,,,,,,,,,,,,,,,,,,,,,,,,,,2015_Jun_24_1041,59.7414524923,LearningTask,1,20,
200,s,-200,,,,,,,,,,,,,,,,,0,0,0,0,15,0,60,2,,,,,,,,,,,,,,,,,,,,,,,,,,,,,s,1,0.434428930283,None,0,0.5,circlecyan.gif,go,,,,,,,,,,,,,,,,,,,,,,,,0.33,0.514454841614,0.000946044921875,0.434428930283,1,s,441.264439106,,,,,,,,,,,,,,,,,,,,,,,,,,,,,,,,,,,,,,,,,,,,,,,,,,,,,,,2015_Jun_24_1041,59.7414524923,LearningTask,1,20,
200,s,-200,,,,,,,,,,,,,,,,,0,0,0,0,15,1,61,2,,,,,,,,,,,,,,,,,,,,,,,,,,,,,s,1,0.417646884918,None,0,2.0,diamondorange.gif,stop,,,,,,,,,,,,,,,,,,,,,,,,1.93,0.513616800308,0.000911951065063,0.417646884918,1,s,444.267431021,,,,,,,,,,,,,,,,,,,,,,,,,,,,,,,,,,,,,,,,,,,,,,,,,,,,,,,2015_Jun_24_1041,59.7414524923,LearningTask,1,20,
-200,a,-200,,,,,,,,,,,,,,,,,0,0,0,0,15,2,62,3,,,,,,,,,,,,,,,,,,,,,,,,,,,,,a,1,0.451011896133,None,0,4.0,crosswhite.gif,go,,,,,,,,,,,,,,,,,,,,,,,,4.01,0.514119148254,0.000933170318604,0.451011896133,1,a,447.270714998,,,,,,,,,,,,,,,,,,,,,,,,,,,,,,,,,,,,,,,,,,,,,,,,,,,,,,,2015_Jun_24_1041,59.7414524923,LearningTask,1,20,
-200,a,-200,,,,,,,,,,,,,,,,,0,0,0,0,15,3,63,3,,,,,,,,,,,,,,,,,,,,,,,,,,,,,a,1,0.434437990189,None,0,0.5,circlecyan.gif,go,,,,,,,,,,,,,,,,,,,,,,,,0.62,0.514065980911,0.000911951065063,0.434437990189,1,a,450.274122,,,,,,,,,,,,,,,,,,,,,,,,,,,,,,,,,,,,,,,,,,,,,,,,,,,,,,,2015_Jun_24_1041,59.7414524923,LearningTask,1,20,
200,s,-200,,,,,,,,,,,,,,,,,0,0,0,0,16,0,64,2,,,,,,,,,,,,,,,,,,,,,,,,,,,,,s,1,0.518368005753,None,0,1.0,trianglegray.gif,go,,,,,,,,,,,,,,,,,,,,,,,,0.98,0.513960123062,0.000900030136108,0.518368005753,1,s,453.277228117,,,,,,,,,,,,,,,,,,,,,,,,,,,,,,,,,,,,,,,,,,,,,,,,,,,,,,,2015_Jun_24_1041,59.7414524923,LearningTask,1,20,
-200,a,-200,,,,,,,,,,,,,,,,,0,0,0,0,16,1,65,3,,,,,,,,,,,,,,,,,,,,,,,,,,,,,a,1,0.501413106918,None,0,2.0,invertedtriangleblue.gif,go,,,,,,,,,,,,,,,,,,,,,,,,0,0.51441693306,0.00113201141357,0.501413106918,1,a,456.280776024,,,,,,,,,,,,,,,,,,,,,,,,,,,,,,,,,,,,,,,,,,,,,,,,,,,,,,,2015_Jun_24_1041,59.7414524923,LearningTask,1,20,
-200,q,200,,,,,,,,,,,,,,,,,0,0,0,0,16,2,66,1,,,,,,,,,,,,,,,,,,,,,,,,,,,,,q,1,0.450758934021,None,0,0.5,circlecyan.gif,go,,,,,,,,,,,,,,,,,,,,,,,,0.72,0.514518022537,0.000885963439941,0.450758934021,1,q,459.284073114,,,,,,,,,,,,,,,,,,,,,,,,,,,,,,,,,,,,,,,,,,,,,,,,,,,,,,,2015_Jun_24_1041,59.7414524923,LearningTask,1,20,
200,s,-200,,,,,,,,,,,,,,,,,0,0,0,0,16,3,67,2,,,,,,,,,,,,,,,,,,,,,,,,,,,,,s,1,0.401161193848,None,0,4.0,crosswhite.gif,go,,,,,,,,,,,,,,,,,,,,,,,,3.92,0.514400959015,0.000897169113159,0.401161193848,1,s,462.287379026,,,,,,,,,,,,,,,,,,,,,,,,,,,,,,,,,,,,,,,,,,,,,,,,,,,,,,,2015_Jun_24_1041,59.7414524923,LearningTask,1,20,
200,s,-200,,,,,,,,,,,,,,,,,0,0,0,0,17,0,68,2,,,,,,,,,,,,,,,,,,,,,,,,,,,,,s,1,0.401114940643,None,0,0.5,hexagonyellow.gif,stop,,,,,,,,,,,,,,,,,,,,,,,,0.54,0.514153003693,0.00096607208252,0.401114940643,1,s,465.29076004,,,,,,,,,,,,,,,,,,,,,,,,,,,,,,,,,,,,,,,,,,,,,,,,,,,,,,,2015_Jun_24_1041,59.7414524923,LearningTask,1,20,
200,w,200,,,,,,,,,,,,,,,,,0,0,0,0,17,1,69,0,,,,,,,,,,,,,,,,,,,,,,,,,,,,,w,1,0.517616033554,None,0,0.5,circlecyan.gif,go,,,,,,,,,,,,,,,,,,,,,,,,0.58,0.514508962631,0.00124192237854,0.517616033554,1,w,468.294546127,,,,,,,,,,,,,,,,,,,,,,,,,,,,,,,,,,,,,,,,,,,,,,,,,,,,,,,2015_Jun_24_1041,59.7414524923,LearningTask,1,20,
-200,a,-200,,,,,,,,,,,,,,,,,0,0,0,0,17,2,70,3,,,,,,,,,,,,,,,,,,,,,,,,,,,,,a,1,0.484290122986,None,0,0.5,circlecyan.gif,go,,,,,,,,,,,,,,,,,,,,,,,,0.67,0.513906955719,0.000890970230103,0.484290122986,1,a,471.297513008,,,,,,,,,,,,,,,,,,,,,,,,,,,,,,,,,,,,,,,,,,,,,,,,,,,,,,,2015_Jun_24_1041,59.7414524923,LearningTask,1,20,
-200,q,200,,,,,,,,,,,,,,,,,0,0,0,0,17,3,71,1,,,,,,,,,,,,,,,,,,,,,,,,,,,,,q,1,0.434192180634,None,0,2.0,diamondorange.gif,stop,,,,,,,,,,,,,,,,,,,,,,,,0,0.514118909836,0.000905990600586,0.434192180634,1,q,474.300813198,,,,,,,,,,,,,,,,,,,,,,,,,,,,,,,,,,,,,,,,,,,,,,,,,,,,,,,2015_Jun_24_1041,59.7414524923,LearningTask,1,20,
-200,a,-200,,,,,,,,,,,,,,,,,0,0,0,0,18,0,72,3,,,,,,,,,,,,,,,,,,,,,,,,,,,,,a,1,0.48439002037,None,0,1.0,trianglegray.gif,go,,,,,,,,,,,,,,,,,,,,,,,,0,0.514271020889,0.000931978225708,0.48439002037,1,a,477.304156065,,,,,,,,,,,,,,,,,,,,,,,,,,,,,,,,,,,,,,,,,,,,,,,,,,,,,,,2015_Jun_24_1041,59.7414524923,LearningTask,1,20,
200,w,200,,,,,,,,,,,,,,,,,0,0,0,0,18,1,73,0,,,,,,,,,,,,,,,,,,,,,,,,,,,,,w,1,0.600902080536,None,0,2.0,diamondorange.gif,stop,,,,,,,,,,,,,,,,,,,,,,,,1.96,0.514315843582,0.000894784927368,0.600902080536,1,w,480.307554007,,,,,,,,,,,,,,,,,,,,,,,,,,,,,,,,,,,,,,,,,,,,,,,,,,,,,,,2015_Jun_24_1041,59.7414524923,LearningTask,1,20,
200,w,200,,,,,,,,,,,,,,,,,0,0,0,0,18,2,74,0,,,,,,,,,,,,,,,,,,,,,,,,,,,,,w,1,0.56759595871,None,0,4.0,linegreen.gif,stop,,,,,,,,,,,,,,,,,,,,,,,,4.07,0.514091968536,0.00092601776123,0.56759595871,1,w,483.311128139,,,,,,,,,,,,,,,,,,,,,,,,,,,,,,,,,,,,,,,,,,,,,,,,,,,,,,,2015_Jun_24_1041,59.7414524923,LearningTask,1,20,
-200,a,-200,,,,,,,,,,,,,,,,,0,0,0,0,18,3,75,3,,,,,,,,,,,,,,,,,,,,,,,,,,,,,a,1,0.517225027084,None,0,1.0,squaremagenta.gif,stop,,,,,,,,,,,,,,,,,,,,,,,,1.23,0.514574050903,0.00088906288147,0.517225027084,1,a,486.314511061,,,,,,,,,,,,,,,,,,,,,,,,,,,,,,,,,,,,,,,,,,,,,,,,,,,,,,,2015_Jun_24_1041,59.7414524923,LearningTask,1,20,
-200,q,200,,,,,,,,,,,,,,,,,0,0,0,0,19,0,76,1,,,,,,,,,,,,,,,,,,,,,,,,,,,,,q,1,0.417671203613,None,0,2.0,diamondorange.gif,stop,,,,,,,,,,,,,,,,,,,,,,,,0,0.514406919479,0.000902891159058,0.417671203613,1,q,489.318153143,,,,,,,,,,,,,,,,,,,,,,,,,,,,,,,,,,,,,,,,,,,,,,,,,,,,,,,2015_Jun_24_1041,59.7414524923,LearningTask,1,20,
200,s,-200,,,,,,,,,,,,,,,,,0,0,0,0,19,1,77,2,,,,,,,,,,,,,,,,,,,,,,,,,,,,,s,1,0.417655944824,None,0,0.5,circlecyan.gif,go,,,,,,,,,,,,,,,,,,,,,,,,0.52,0.513638973236,0.00090217590332,0.417655944824,1,s,492.320954084,,,,,,,,,,,,,,,,,,,,,,,,,,,,,,,,,,,,,,,,,,,,,,,,,,,,,,,2015_Jun_24_1041,59.7414524923,LearningTask,1,20,
200,s,-200,,,,,,,,,,,,,,,,,0,0,0,0,19,2,78,2,,,,,,,,,,,,,,,,,,,,,,,,,,,,,s,1,0.450836181641,None,0,2.0,invertedtriangleblue.gif,go,,,,,,,,,,,,,,,,,,,,,,,,2.09,0.514137029648,0.000910043716431,0.450836181641,1,s,495.324284077,,,,,,,,,,,,,,,,,,,,,,,,,,,,,,,,,,,,,,,,,,,,,,,,,,,,,,,2015_Jun_24_1041,59.7414524923,LearningTask,1,20,
-200,q,200,,,,,,,,,,,,,,,,,0,0,0,0,19,3,79,1,,,,,,,,,,,,,,,,,,,,,,,,,,,,,q,1,0.501171112061,None,0,1.0,trianglegray.gif,go,,,,,,,,,,,,,,,,,,,,,,,,0.78,0.513611078262,0.00101399421692,0.501171112061,1,q,498.327896118,,,,,,,,,,,,,,,,,,,,,,,,,,,,,,,,,,,,,,,,,,,,,,,,,,,,,,,2015_Jun_24_1041,59.7414524923,LearningTask,1,20,
-200,a,-200,,,,,,,,,,,,,,,,,0,0,0,0,20,0,80,3,,,,,,,,,,,,,,,,,,,,,,,,,,,,,a,1,0.467475891113,None,0,4.0,linegreen.gif,stop,,,,,,,,,,,,,,,,,,,,,,,,4.03,0.514086008072,0.00089693069458,0.467475891113,1,a,501.331078053,,,,,,,,,,,,,,,,,,,,,,,,,,,,,,,,,,,,,,,,,,,,,,,,,,,,,,,2015_Jun_24_1041,59.7414524923,LearningTask,1,20,
200,w,200,,,,,,,,,,,,,,,,,0,0,0,0,20,1,81,0,,,,,,,,,,,,,,,,,,,,,,,,,,,,,w,1,0.501118898392,None,0,1.0,trianglegray.gif,go,,,,,,,,,,,,,,,,,,,,,,,,1.16,0.51432800293,0.00117993354797,0.501118898392,1,w,504.334149122,,,,,,,,,,,,,,,,,,,,,,,,,,,,,,,,,,,,,,,,,,,,,,,,,,,,,,,2015_Jun_24_1041,59.7414524923,LearningTask,1,20,
200,w,200,,,,,,,,,,,,,,,,,0,0,0,0,20,2,82,0,,,,,,,,,,,,,,,,,,,,,,,,,,,,,w,1,0.434062004089,None,0,2.0,invertedtriangleblue.gif,go,,,,,,,,,,,,,,,,,,,,,,,,1.84,0.514570951462,0.000895023345947,0.434062004089,1,w,507.337973118,,,,,,,,,,,,,,,,,,,,,,,,,,,,,,,,,,,,,,,,,,,,,,,,,,,,,,,2015_Jun_24_1041,59.7414524923,LearningTask,1,20,
-200,q,200,,,,,,,,,,,,,,,,,0,0,0,0,20,3,83,1,,,,,,,,,,,,,,,,,,,,,,,,,,,,,q,1,0.434216976166,None,0,2.0,invertedtriangleblue.gif,go,,,,,,,,,,,,,,,,,,,,,,,,1.88,0.514147043228,0.00091814994812,0.434216976166,1,q,510.341077089,,,,,,,,,,,,,,,,,,,,,,,,,,,,,,,,,,,,,,,,,,,,,,,,,,,,,,,2015_Jun_24_1041,59.7414524923,LearningTask,1,20,
200,w,200,,,,,,,,,,,,,,,,,0,0,0,0,21,0,84,0,,,,,,,,,,,,,,,,,,,,,,,,,,,,,w,1,0.418078899384,None,0,4.0,linegreen.gif,stop,,,,,,,,,,,,,,,,,,,,,,,,4.15,0.513902902603,0.000952005386353,0.418078899384,1,w,513.344390154,,,,,,,,,,,,,,,,,,,,,,,,,,,,,,,,,,,,,,,,,,,,,,,,,,,,,,,2015_Jun_24_1041,59.7414524923,LearningTask,1,20,
-200,q,200,,,,,,,,,,,,,,,,,0,0,0,0,21,1,85,1,,,,,,,,,,,,,,,,,,,,,,,,,,,,,q,1,0.568211078644,None,0,1.0,squaremagenta.gif,stop,,,,,,,,,,,,,,,,,,,,,,,,0.78,0.514279127121,0.000942945480347,0.568211078644,1,q,516.347576141,,,,,,,,,,,,,,,,,,,,,,,,,,,,,,,,,,,,,,,,,,,,,,,,,,,,,,,2015_Jun_24_1041,59.7414524923,LearningTask,1,20,
-200,a,-200,,,,,,,,,,,,,,,,,0,0,0,0,21,2,86,3,,,,,,,,,,,,,,,,,,,,,,,,,,,,,a,1,0.41738319397,None,0,0.5,hexagonyellow.gif,stop,,,,,,,,,,,,,,,,,,,,,,,,0.7,0.514695882797,0.000942945480347,0.41738319397,1,a,519.351041079,,,,,,,,,,,,,,,,,,,,,,,,,,,,,,,,,,,,,,,,,,,,,,,,,,,,,,,2015_Jun_24_1041,59.7414524923,LearningTask,1,20,
200,s,-200,,,,,,,,,,,,,,,,,0,0,0,0,21,3,87,2,,,,,,,,,,,,,,,,,,,,,,,,,,,,,s,1,0.468278169632,None,0,1.0,trianglegray.gif,go,,,,,,,,,,,,,,,,,,,,,,,,1.1,0.513766050339,0.00095009803772,0.468278169632,1,s,522.354418993,,,,,,,,,,,,,,,,,,,,,,,,,,,,,,,,,,,,,,,,,,,,,,,,,,,,,,,2015_Jun_24_1041,59.7414524923,LearningTask,1,20,
200,s,-200,,,,,,,,,,,,,,,,,0,0,0,0,22,0,88,2,,,,,,,,,,,,,,,,,,,,,,,,,,,,,s,1,0.46751499176,None,0,2.0,diamondorange.gif,stop,,,,,,,,,,,,,,,,,,,,,,,,2.23,0.514396190643,0.000946044921875,0.46751499176,1,s,525.357839108,,,,,,,,,,,,,,,,,,,,,,,,,,,,,,,,,,,,,,,,,,,,,,,,,,,,,,,2015_Jun_24_1041,59.7414524923,LearningTask,1,20,
-200,q,200,,,,,,,,,,,,,,,,,0,0,0,0,22,1,89,1,,,,,,,,,,,,,,,,,,,,,,,,,,,,,q,1,0.484362840652,None,0,2.0,invertedtriangleblue.gif,go,,,,,,,,,,,,,,,,,,,,,,,,1.76,0.51442694664,0.000895023345947,0.484362840652,1,q,528.361407995,,,,,,,,,,,,,,,,,,,,,,,,,,,,,,,,,,,,,,,,,,,,,,,,,,,,,,,2015_Jun_24_1041,59.7414524923,LearningTask,1,20,
200,w,200,,,,,,,,,,,,,,,,,0,0,0,0,22,2,90,0,,,,,,,,,,,,,,,,,,,,,,,,,,,,,w,1,0.417438030243,None,0,1.0,squaremagenta.gif,stop,,,,,,,,,,,,,,,,,,,,,,,,0,0.513664007187,0.00090503692627,0.417438030243,1,w,531.364772081,,,,,,,,,,,,,,,,,,,,,,,,,,,,,,,,,,,,,,,,,,,,,,,,,,,,,,,2015_Jun_24_1041,59.7414524923,LearningTask,1,20,
200,w,200,,,,,,,,,,,,,,,,,0,0,0,0,22,3,91,0,,,,,,,,,,,,,,,,,,,,,,,,,,,,,w,1,0.518264055252,None,0,1.0,trianglegray.gif,go,,,,,,,,,,,,,,,,,,,,,,,,0.78,0.513727903366,0.000935792922974,0.518264055252,1,w,534.367957115,,,,,,,,,,,,,,,,,,,,,,,,,,,,,,,,,,,,,,,,,,,,,,,,,,,,,,,2015_Jun_24_1041,59.7414524923,LearningTask,1,20,
200,w,200,,,,,,,,,,,,,,,,,0,0,0,0,23,0,92,0,,,,,,,,,,,,,,,,,,,,,,,,,,,,,w,1,0.43409705162,None,0,1.0,squaremagenta.gif,stop,,,,,,,,,,,,,,,,,,,,,,,,0.9,0.514545917511,0.00088906288147,0.43409705162,1,w,537.371944189,,,,,,,,,,,,,,,,,,,,,,,,,,,,,,,,,,,,,,,,,,,,,,,,,,,,,,,2015_Jun_24_1041,59.7414524923,LearningTask,1,20,
-200,a,-200,,,,,,,,,,,,,,,,,0,0,0,0,23,1,93,3,,,,,,,,,,,,,,,,,,,,,,,,,,,,,a,1,0.450790882111,None,0,2.0,invertedtriangleblue.gif,go,,,,,,,,,,,,,,,,,,,,,,,,1.83,0.513503074646,0.000899076461792,0.450790882111,1,a,540.374659061,,,,,,,,,,,,,,,,,,,,,,,,,,,,,,,,,,,,,,,,,,,,,,,,,,,,,,,2015_Jun_24_1041,59.7414524923,LearningTask,1,20,
200,s,-200,,,,,,,,,,,,,,,,,0,0,0,0,23,2,94,2,,,,,,,,,,,,,,,,,,,,,,,,,,,,,s,1,0.434441804886,None,0,0.5,circlecyan.gif,go,,,,,,,,,,,,,,,,,,,,,,,,0.64,0.514277935028,0.00090503692627,0.434441804886,1,s,543.377995968,,,,,,,,,,,,,,,,,,,,,,,,,,,,,,,,,,,,,,,,,,,,,,,,,,,,,,,2015_Jun_24_1041,59.7414524923,LearningTask,1,20,
200,s,-200,,,,,,,,,,,,,,,,,0,0,0,0,23,3,95,2,,,,,,,,,,,,,,,,,,,,,,,,,,,,,s,1,0.467879056931,None,0,0.5,circlecyan.gif,go,,,,,,,,,,,,,,,,,,,,,,,,0.68,0.514263868332,0.000892877578735,0.467879056931,1,s,546.381550074,,,,,,,,,,,,,,,,,,,,,,,,,,,,,,,,,,,,,,,,,,,,,,,,,,,,,,,2015_Jun_24_1041,59.7414524923,LearningTask,1,20,
200,s,-200,,,,,,,,,,,,,,,,,0,0,0,0,24,0,96,2,,,,,,,,,,,,,,,,,,,,,,,,,,,,,s,1,0.417710065842,None,0,0.5,circlecyan.gif,go,,,,,,,,,,,,,,,,,,,,,,,,0.42,0.513998985291,0.000903129577637,0.417710065842,1,s,549.384858131,,,,,,,,,,,,,,,,,,,,,,,,,,,,,,,,,,,,,,,,,,,,,,,,,,,,,,,2015_Jun_24_1041,59.7414524923,LearningTask,1,20,
-200,q,200,,,,,,,,,,,,,,,,,0,0,0,0,24,1,97,1,,,,,,,,,,,,,,,,,,,,,,,,,,,,,q,1,0.467349052429,None,0,1.0,trianglegray.gif,go,,,,,,,,,,,,,,,,,,,,,,,,0,0.514523029327,0.00108098983765,0.467349052429,1,q,552.388381004,,,,,,,,,,,,,,,,,,,,,,,,,,,,,,,,,,,,,,,,,,,,,,,,,,,,,,,2015_Jun_24_1041,59.7414524923,LearningTask,1,20,
-200,q,200,,,,,,,,,,,,,,,,,0,0,0,0,24,2,98,1,,,,,,,,,,,,,,,,,,,,,,,,,,,,,q,1,0.466816186905,None,0,4.0,crosswhite.gif,go,,,,,,,,,,,,,,,,,,,,,,,,4.06,0.514313936234,0.000894069671631,0.466816186905,1,q,555.391355038,,,,,,,,,,,,,,,,,,,,,,,,,,,,,,,,,,,,,,,,,,,,,,,,,,,,,,,2015_Jun_24_1041,59.7414524923,LearningTask,1,20,
-200,q,200,,,,,,,,,,,,,,,,,0,0,0,0,24,3,99,1,,,,,,,,,,,,,,,,,,,,,,,,,,,,,q,1,0.467533111572,None,0,0.5,circlecyan.gif,go,,,,,,,,,,,,,,,,,,,,,,,,0.73,0.514284133911,0.000894069671631,0.467533111572,1,q,558.394889116,,,,,,,,,,,,,,,,,,,,,,,,,,,,,,,,,,,,,,,,,,,,,,,,,,,,,,,2015_Jun_24_1041,59.7414524923,LearningTask,1,20,
,,,,,,,,,,,,,,,,,,,0,0,0,0,,,,,,,,,,,,,,,,,,,,,,,,,,,,,,,,,,,,,,,,,,,,,,,,,,,,,,,,,,,,,,,,,,,,,,,,,,,,,,9,11.3394169807,,,,,,,,,,,,,,,,,,,,,,,,,,,,,,,,,,,,,,,,,,,,,,2015_Jun_24_1041,59.7414524923,LearningTask,1,20,
-200,q,200,,,,,,,,,,,,,,,,,1,0,1,0,0,0,0,1,,,,,,,,,,,,,,,,,,,,,,,,,,,,,q,1,0.367552995682,None,0,0.5,circlecyan.gif,go,,,,,,,,,,,,,,,,,,,,,,,,0.26,0.509382009506,0.000961065292358,0.367552995682,1,q,573.178230047,,,,,,,,,,,,,,,,,,,,,,,,,,,,,,,,,,,,,,,,,,,,,,,,,,,,,,,2015_Jun_24_1041,59.7414524923,LearningTask,1,20,
-200,a,-200,,,,,,,,,,,,,,,,,1,0,1,0,0,1,1,3,,,,,,,,,,,,,,,,,,,,,,,,,,,,,a,1,0.4679479599,None,0,0.5,hexagonyellow.gif,stop,,,,,,,,,,,,,,,,,,,,,,,,0.45,0.514039993286,0.000902891159058,0.4679479599,1,a,576.181230068,,,,,,,,,,,,,,,,,,,,,,,,,,,,,,,,,,,,,,,,,,,,,,,,,,,,,,,2015_Jun_24_1041,59.7414524923,LearningTask,1,20,
-200,a,-200,,,,,,,,,,,,,,,,,1,0,1,0,0,2,2,3,,,,,,,,,,,,,,,,,,,,,,,,,,,,,a,1,0.450739145279,None,0,2.0,invertedtriangleblue.gif,go,,,,,,,,,,,,,,,,,,,,,,,,1.76,0.514322042465,0.000895977020264,0.450739145279,1,a,579.184656143,,,,,,,,,,,,,,,,,,,,,,,,,,,,,,,,,,,,,,,,,,,,,,,,,,,,,,,2015_Jun_24_1041,59.7414524923,LearningTask,1,20,
-200,q,200,,,,,,,,,,,,,,,,,1,0,1,0,0,3,3,1,,,,,,,,,,,,,,,,,,,,,,,,,,,,,q,1,0.567733049393,None,0,4.0,linegreen.gif,stop,,,,,,,,,,,,,,,,,,,,,,,,4.12,0.514229059219,0.000927209854126,0.567733049393,1,q,582.188278198,,,,,,,,,,,,,,,,,,,,,,,,,,,,,,,,,,,,,,,,,,,,,,,,,,,,,,,2015_Jun_24_1041,59.7414524923,LearningTask,1,20,
200,w,200,,,,,,,,,,,,,,,,,1,0,1,0,1,0,4,0,,,,,,,,,,,,,,,,,,,,,,,,,,,,,w,1,0.484879970551,None,0,4.0,linegreen.gif,stop,,,,,,,,,,,,,,,,,,,,,,,,0,0.513919830322,0.00105094909668,0.484879970551,1,w,585.191956043,,,,,,,,,,,,,,,,,,,,,,,,,,,,,,,,,,,,,,,,,,,,,,,,,,,,,,,2015_Jun_24_1041,59.7414524923,LearningTask,1,20,
200,w,200,,,,,,,,,,,,,,,,,1,0,1,0,1,1,5,0,,,,,,,,,,,,,,,,,,,,,,,,,,,,,w,1,0.484236001968,None,0,4.0,crosswhite.gif,go,,,,,,,,,,,,,,,,,,,,,,,,3.83,0.513532876968,0.000890970230103,0.484236001968,1,w,588.194903135,,,,,,,,,,,,,,,,,,,,,,,,,,,,,,,,,,,,,,,,,,,,,,,,,,,,,,,2015_Jun_24_1041,59.7414524923,LearningTask,1,20,
200,s,-200,,,,,,,,,,,,,,,,,1,0,1,0,1,2,6,2,,,,,,,,,,,,,,,,,,,,,,,,,,,,,s,1,0.400842189789,None,0,2.0,diamondorange.gif,stop,,,,,,,,,,,,,,,,,,,,,,,,1.87,0.514041900635,0.000951051712036,0.400842189789,1,s,591.197991133,,,,,,,,,,,,,,,,,,,,,,,,,,,,,,,,,,,,,,,,,,,,,,,,,,,,,,,2015_Jun_24_1041,59.7414524923,LearningTask,1,20,
-200,a,-200,,,,,,,,,,,,,,,,,1,0,1,0,1,3,7,3,,,,,,,,,,,,,,,,,,,,,,,,,,,,,a,1,0.400807857513,None,0,1.0,squaremagenta.gif,stop,,,,,,,,,,,,,,,,,,,,,,,,0,0.514149904251,0.00137686729431,0.400807857513,1,a,594.20147109,,,,,,,,,,,,,,,,,,,,,,,,,,,,,,,,,,,,,,,,,,,,,,,,,,,,,,,2015_Jun_24_1041,59.7414524923,LearningTask,1,20,
-200,a,-200,,,,,,,,,,,,,,,,,1,0,1,0,2,0,8,3,,,,,,,,,,,,,,,,,,,,,,,,,,,,,a,1,0.400806903839,None,0,4.0,crosswhite.gif,go,,,,,,,,,,,,,,,,,,,,,,,,4.18,0.514325857162,0.000902891159058,0.400806903839,1,a,597.204584122,,,,,,,,,,,,,,,,,,,,,,,,,,,,,,,,,,,,,,,,,,,,,,,,,,,,,,,2015_Jun_24_1041,59.7414524923,LearningTask,1,20,
200,w,200,,,,,,,,,,,,,,,,,1,0,1,0,2,1,9,0,,,,,,,,,,,,,,,,,,,,,,,,,,,,,w,1,0.467406988144,None,0,2.0,diamondorange.gif,stop,,,,,,,,,,,,,,,,,,,,,,,,0,0.514358043671,0.000916004180908,0.467406988144,1,w,600.208053112,,,,,,,,,,,,,,,,,,,,,,,,,,,,,,,,,,,,,,,,,,,,,,,,,,,,,,,2015_Jun_24_1041,59.7414524923,LearningTask,1,20,
-200,q,200,,,,,,,,,,,,,,,,,1,0,1,0,2,2,10,1,,,,,,,,,,,,,,,,,,,,,,,,,,,,,q,1,0.467946052551,None,0,1.0,squaremagenta.gif,stop,,,,,,,,,,,,,,,,,,,,,,,,1.16,0.513876914978,0.000931978225708,0.467946052551,1,q,603.211310148,,,,,,,,,,,,,,,,,,,,,,,,,,,,,,,,,,,,,,,,,,,,,,,,,,,,,,,2015_Jun_24_1041,59.7414524923,LearningTask,1,20,
200,s,-200,,,,,,,,,,,,,,,,,1,0,1,0,2,3,11,2,,,,,,,,,,,,,,,,,,,,,,,,,,,,,s,1,0.434284925461,None,0,4.0,linegreen.gif,stop,,,,,,,,,,,,,,,,,,,,,,,,3.98,0.514480113983,0.000892162322998,0.434284925461,1,s,606.214926004,,,,,,,,,,,,,,,,,,,,,,,,,,,,,,,,,,,,,,,,,,,,,,,,,,,,,,,2015_Jun_24_1041,59.7414524923,LearningTask,1,20,
-200,a,-200,,,,,,,,,,,,,,,,,1,0,1,0,3,0,12,3,,,,,,,,,,,,,,,,,,,,,,,,,,,,,a,1,0.450839996338,None,0,0.5,circlecyan.gif,go,,,,,,,,,,,,,,,,,,,,,,,,0.55,0.514153957367,0.000895977020264,0.450839996338,1,a,609.218539,,,,,,,,,,,,,,,,,,,,,,,,,,,,,,,,,,,,,,,,,,,,,,,,,,,,,,,2015_Jun_24_1041,59.7414524923,LearningTask,1,20,
-200,a,-200,,,,,,,,,,,,,,,,,1,0,1,0,3,1,13,3,,,,,,,,,,,,,,,,,,,,,,,,,,,,,a,1,0.400797843933,None,0,4.0,crosswhite.gif,go,,,,,,,,,,,,,,,,,,,,,,,,4.17,0.513519048691,0.00095009803772,0.400797843933,1,a,612.221701145,,,,,,,,,,,,,,,,,,,,,,,,,,,,,,,,,,,,,,,,,,,,,,,,,,,,,,,2015_Jun_24_1041,59.7414524923,LearningTask,1,20,
200,w,200,,,,,,,,,,,,,,,,,1,0,1,0,3,2,14,0,,,,,,,,,,,,,,,,,,,,,,,,,,,,,w,1,0.550956964493,None,0,4.0,crosswhite.gif,go,,,,,,,,,,,,,,,,,,,,,,,,0,0.514126062393,0.000922918319702,0.550956964493,1,w,615.225215197,,,,,,,,,,,,,,,,,,,,,,,,,,,,,,,,,,,,,,,,,,,,,,,,,,,,,,,2015_Jun_24_1041,59.7414524923,LearningTask,1,20,
200,s,-200,,,,,,,,,,,,,,,,,1,0,1,0,3,3,15,2,,,,,,,,,,,,,,,,,,,,,,,,,,,,,s,1,0.384230136871,None,0,0.5,hexagonyellow.gif,stop,,,,,,,,,,,,,,,,,,,,,,,,0.54,0.513857841492,0.000900983810425,0.384230136871,1,s,618.228892088,,,,,,,,,,,,,,,,,,,,,,,,,,,,,,,,,,,,,,,,,,,,,,,,,,,,,,,2015_Jun_24_1041,59.7414524923,LearningTask,1,20,
200,w,200,,,,,,,,,,,,,,,,,1,0,1,0,4,0,16,0,,,,,,,,,,,,,,,,,,,,,,,,,,,,,w,1,0.567751169205,None,0,1.0,trianglegray.gif,go,,,,,,,,,,,,,,,,,,,,,,,,0,0.513689041138,0.00096607208252,0.567751169205,1,w,621.231633186,,,,,,,,,,,,,,,,,,,,,,,,,,,,,,,,,,,,,,,,,,,,,,,,,,,,,,,2015_Jun_24_1041,59.7414524923,LearningTask,1,20,
200,w,200,,,,,,,,,,,,,,,,,1,0,1,0,4,1,17,0,,,,,,,,,,,,,,,,,,,,,,,,,,,,,w,1,0.384371042252,None,0,0.5,hexagonyellow.gif,stop,,,,,,,,,,,,,,,,,,,,,,,,0.61,0.514434099197,0.000922918319702,0.384371042252,1,w,624.235054016,,,,,,,,,,,,,,,,,,,,,,,,,,,,,,,,,,,,,,,,,,,,,,,,,,,,,,,2015_Jun_24_1041,59.7414524923,LearningTask,1,20,
200,s,-200,,,,,,,,,,,,,,,,,1,0,1,0,4,2,18,2,,,,,,,,,,,,,,,,,,,,,,,,,,,,,s,1,0.417532920837,None,0,2.0,diamondorange.gif,stop,,,,,,,,,,,,,,,,,,,,,,,,1.82,0.514284849167,0.000876903533936,0.417532920837,1,s,627.238296032,,,,,,,,,,,,,,,,,,,,,,,,,,,,,,,,,,,,,,,,,,,,,,,,,,,,,,,2015_Jun_24_1041,59.7414524923,LearningTask,1,20,
-200,a,-200,,,,,,,,,,,,,,,,,1,0,1,0,4,3,19,3,,,,,,,,,,,,,,,,,,,,,,,,,,,,,a,1,0.351174116135,None,0,4.0,linegreen.gif,stop,,,,,,,,,,,,,,,,,,,,,,,,4.09,0.513965129852,0.000916004180908,0.351174116135,1,a,630.241394043,,,,,,,,,,,,,,,,,,,,,,,,,,,,,,,,,,,,,,,,,,,,,,,,,,,,,,,2015_Jun_24_1041,59.7414524923,LearningTask,1,20,
-200,q,200,,,,,,,,,,,,,,,,,1,0,1,0,5,0,20,1,,,,,,,,,,,,,,,,,,,,,,,,,,,,,q,1,0.367343902588,None,0,2.0,invertedtriangleblue.gif,go,,,,,,,,,,,,,,,,,,,,,,,,2.1,0.51470708847,0.000939130783081,0.367343902588,1,q,633.245653152,,,,,,,,,,,,,,,,,,,,,,,,,,,,,,,,,,,,,,,,,,,,,,,,,,,,,,,2015_Jun_24_1041,59.7414524923,LearningTask,1,20,
-200,a,-200,,,,,,,,,,,,,,,,,1,0,1,0,5,1,21,3,,,,,,,,,,,,,,,,,,,,,,,,,,,,,a,1,0.367381095886,None,0,1.0,squaremagenta.gif,stop,,,,,,,,,,,,,,,,,,,,,,,,0,0.513782978058,0.000869989395142,0.367381095886,1,a,636.24842,,,,,,,,,,,,,,,,,,,,,,,,,,,,,,,,,,,,,,,,,,,,,,,,,,,,,,,2015_Jun_24_1041,59.7414524923,LearningTask,1,20,
-200,q,200,,,,,,,,,,,,,,,,,1,0,1,0,5,2,22,1,,,,,,,,,,,,,,,,,,,,,,,,,,,,,q,1,0.400824785233,None,0,2.0,diamondorange.gif,stop,,,,,,,,,,,,,,,,,,,,,,,,0,0.514107942581,0.000931024551392,0.400824785233,1,q,639.251698971,,,,,,,,,,,,,,,,,,,,,,,,,,,,,,,,,,,,,,,,,,,,,,,,,,,,,,,2015_Jun_24_1041,59.7414524923,LearningTask,1,20,
-200,q,200,,,,,,,,,,,,,,,,,1,0,1,0,5,3,23,1,,,,,,,,,,,,,,,,,,,,,,,,,,,,,q,1,0.434457778931,None,0,4.0,crosswhite.gif,go,,,,,,,,,,,,,,,,,,,,,,,,0,0.514199972153,0.00103998184204,0.434457778931,1,q,642.255103111,,,,,,,,,,,,,,,,,,,,,,,,,,,,,,,,,,,,,,,,,,,,,,,,,,,,,,,2015_Jun_24_1041,59.7414524923,LearningTask,1,20,
200,w,200,,,,,,,,,,,,,,,,,1,0,1,0,6,0,24,0,,,,,,,,,,,,,,,,,,,,,,,,,,,,,w,1,0.501190900803,None,0,0.5,circlecyan.gif,go,,,,,,,,,,,,,,,,,,,,,,,,0.26,0.514378786087,0.000878810882568,0.501190900803,1,w,645.258753061,,,,,,,,,,,,,,,,,,,,,,,,,,,,,,,,,,,,,,,,,,,,,,,,,,,,,,,2015_Jun_24_1041,59.7414524923,LearningTask,1,20,
200,w,200,,,,,,,,,,,,,,,,,1,0,1,0,6,1,25,0,,,,,,,,,,,,,,,,,,,,,,,,,,,,,w,1,0.451199054718,None,0,4.0,linegreen.gif,stop,,,,,,,,,,,,,,,,,,,,,,,,3.85,0.513416051865,0.00088095664978,0.451199054718,1,w,648.261625051,,,,,,,,,,,,,,,,,,,,,,,,,,,,,,,,,,,,,,,,,,,,,,,,,,,,,,,2015_Jun_24_1041,59.7414524923,LearningTask,1,20,
200,s,-200,,,,,,,,,,,,,,,,,1,0,1,0,6,2,26,2,,,,,,,,,,,,,,,,,,,,,,,,,,,,,s,1,0.467799186707,None,0,0.5,hexagonyellow.gif,stop,,,,,,,,,,,,,,,,,,,,,,,,0.37,0.514092922211,0.000911951065063,0.467799186707,1,s,651.265120029,,,,,,,,,,,,,,,,,,,,,,,,,,,,,,,,,,,,,,,,,,,,,,,,,,,,,,,2015_Jun_24_1041,59.7414524923,LearningTask,1,20,
-200,a,-200,,,,,,,,,,,,,,,,,1,0,1,0,6,3,27,3,,,,,,,,,,,,,,,,,,,,,,,,,,,,,a,1,0.434406042099,None,0,1.0,trianglegray.gif,go,,,,,,,,,,,,,,,,,,,,,,,,0,0.51430106163,0.000885009765625,0.434406042099,1,a,654.268511057,,,,,,,,,,,,,,,,,,,,,,,,,,,,,,,,,,,,,,,,,,,,,,,,,,,,,,,2015_Jun_24_1041,59.7414524923,LearningTask,1,20,
-200,a,-200,,,,,,,,,,,,,,,,,1,0,1,0,7,0,28,3,,,,,,,,,,,,,,,,,,,,,,,,,,,,,a,1,0.534191131592,None,0,2.0,diamondorange.gif,stop,,,,,,,,,,,,,,,,,,,,,,,,2.13,0.514214992523,0.00088095664978,0.534191131592,1,a,657.271973133,,,,,,,,,,,,,,,,,,,,,,,,,,,,,,,,,,,,,,,,,,,,,,,,,,,,,,,2015_Jun_24_1041,59.7414524923,LearningTask,1,20,
-200,q,200,,,,,,,,,,,,,,,,,1,0,1,0,7,1,29,1,,,,,,,,,,,,,,,,,,,,,,,,,,,,,q,1,0.467882156372,None,0,0.5,hexagonyellow.gif,stop,,,,,,,,,,,,,,,,,,,,,,,,0,0.5139939785,0.000925064086914,0.467882156372,1,q,660.275180101,,,,,,,,,,,,,,,,,,,,,,,,,,,,,,,,,,,,,,,,,,,,,,,,,,,,,,,2015_Jun_24_1041,59.7414524923,LearningTask,1,20,
200,w,200,,,,,,,,,,,,,,,,,1,0,1,0,7,2,30,0,,,,,,,,,,,,,,,,,,,,,,,,,,,,,w,1,0.584290981293,None,0,1.0,trianglegray.gif,go,,,,,,,,,,,,,,,,,,,,,,,,1.02,0.514075994492,0.000910997390747,0.584290981293,1,w,663.2787292,,,,,,,,,,,,,,,,,,,,,,,,,,,,,,,,,,,,,,,,,,,,,,,,,,,,,,,2015_Jun_24_1041,59.7414524923,LearningTask,1,20,
-200,q,200,,,,,,,,,,,,,,,,,1,0,1,0,7,3,31,1,,,,,,,,,,,,,,,,,,,,,,,,,,,,,q,1,0.534485816956,None,0,0.5,circlecyan.gif,go,,,,,,,,,,,,,,,,,,,,,,,,0.36,0.513808965683,0.000901937484741,0.534485816956,1,q,666.282095194,,,,,,,,,,,,,,,,,,,,,,,,,,,,,,,,,,,,,,,,,,,,,,,,,,,,,,,2015_Jun_24_1041,59.7414524923,LearningTask,1,20,
-200,a,-200,,,,,,,,,,,,,,,,,1,0,1,0,8,0,32,3,,,,,,,,,,,,,,,,,,,,,,,,,,,,,a,1,0.417922019958,None,0,2.0,invertedtriangleblue.gif,go,,,,,,,,,,,,,,,,,,,,,,,,0,0.513808012009,0.000869989395142,0.417922019958,1,a,669.285303116,,,,,,,,,,,,,,,,,,,,,,,,,,,,,,,,,,,,,,,,,,,,,,,,,,,,,,,2015_Jun_24_1041,59.7414524923,LearningTask,1,20,
-200,a,-200,,,,,,,,,,,,,,,,,1,0,1,0,8,1,33,3,,,,,,,,,,,,,,,,,,,,,,,,,,,,,a,1,0.384341955185,None,0,1.0,squaremagenta.gif,stop,,,,,,,,,,,,,,,,,,,,,,,,0,0.514091014862,0.000871896743774,0.384341955185,1,a,672.288534164,,,,,,,,,,,,,,,,,,,,,,,,,,,,,,,,,,,,,,,,,,,,,,,,,,,,,,,2015_Jun_24_1041,59.7414524923,LearningTask,1,20,
200,s,-200,,,,,,,,,,,,,,,,,1,0,1,0,8,2,34,2,,,,,,,,,,,,,,,,,,,,,,,,,,,,,s,1,0.501029968262,None,0,0.5,hexagonyellow.gif,stop,,,,,,,,,,,,,,,,,,,,,,,,0.7,0.514309883118,0.000894069671631,0.501029968262,1,s,675.291949987,,,,,,,,,,,,,,,,,,,,,,,,,,,,,,,,,,,,,,,,,,,,,,,,,,,,,,,2015_Jun_24_1041,59.7414524923,LearningTask,1,20,
200,w,200,,,,,,,,,,,,,,,,,1,0,1,0,8,3,35,0,,,,,,,,,,,,,,,,,,,,,,,,,,,,,w,1,0.484563827515,None,0,0.5,hexagonyellow.gif,stop,,,,,,,,,,,,,,,,,,,,,,,,0.42,0.513543844223,0.00122594833374,0.484563827515,1,w,678.295088053,,,,,,,,,,,,,,,,,,,,,,,,,,,,,,,,,,,,,,,,,,,,,,,,,,,,,,,2015_Jun_24_1041,59.7414524923,LearningTask,1,20,
-200,q,200,,,,,,,,,,,,,,,,,1,0,1,0,9,0,36,1,,,,,,,,,,,,,,,,,,,,,,,,,,,,,q,1,0.401007890701,None,0,2.0,invertedtriangleblue.gif,go,,,,,,,,,,,,,,,,,,,,,,,,2.03,0.514408111572,0.00137615203857,0.401007890701,1,q,681.298349142,,,,,,,,,,,,,,,,,,,,,,,,,,,,,,,,,,,,,,,,,,,,,,,,,,,,,,,2015_Jun_24_1041,59.7414524923,LearningTask,1,20,
200,w,200,,,,,,,,,,,,,,,,,1,0,1,0,9,1,37,0,,,,,,,,,,,,,,,,,,,,,,,,,,,,,w,1,0.451056957245,None,0,1.0,squaremagenta.gif,stop,,,,,,,,,,,,,,,,,,,,,,,,1.2,0.514601945877,0.00126695632935,0.451056957245,1,w,684.302175045,,,,,,,,,,,,,,,,,,,,,,,,,,,,,,,,,,,,,,,,,,,,,,,,,,,,,,,2015_Jun_24_1041,59.7414524923,LearningTask,1,20,
200,s,-200,,,,,,,,,,,,,,,,,1,0,1,0,9,2,38,2,,,,,,,,,,,,,,,,,,,,,,,,,,,,,s,1,0.400938987732,None,0,1.0,squaremagenta.gif,stop,,,,,,,,,,,,,,,,,,,,,,,,0.75,0.513972997665,0.000930070877075,0.400938987732,1,s,687.305507183,,,,,,,,,,,,,,,,,,,,,,,,,,,,,,,,,,,,,,,,,,,,,,,,,,,,,,,2015_Jun_24_1041,59.7414524923,LearningTask,1,20,
200,s,-200,,,,,,,,,,,,,,,,,1,0,1,0,9,3,39,2,,,,,,,,,,,,,,,,,,,,,,,,,,,,,s,1,0.434150934219,None,0,2.0,invertedtriangleblue.gif,go,,,,,,,,,,,,,,,,,,,,,,,,2.06,0.513862133026,0.000962018966675,0.434150934219,1,s,690.308765173,,,,,,,,,,,,,,,,,,,,,,,,,,,,,,,,,,,,,,,,,,,,,,,,,,,,,,,2015_Jun_24_1041,59.7414524923,LearningTask,1,20,
200,s,-200,,,,,,,,,,,,,,,,,1,0,1,0,10,0,40,2,,,,,,,,,,,,,,,,,,,,,,,,,,,,,s,1,0.434500932693,None,0,4.0,linegreen.gif,stop,,,,,,,,,,,,,,,,,,,,,,,,3.93,0.514355182648,0.00125813484192,0.434500932693,1,s,693.311747074,,,,,,,,,,,,,,,,,,,,,,,,,,,,,,,,,,,,,,,,,,,,,,,,,,,,,,,2015_Jun_24_1041,59.7414524923,LearningTask,1,20,
200,w,200,,,,,,,,,,,,,,,,,1,0,1,0,10,1,41,0,,,,,,,,,,,,,,,,,,,,,,,,,,,,,w,1,0.467772006989,None,0,4.0,linegreen.gif,stop,,,,,,,,,,,,,,,,,,,,,,,,0,0.514374017715,0.000932931900024,0.467772006989,1,w,696.315244198,,,,,,,,,,,,,,,,,,,,,,,,,,,,,,,,,,,,,,,,,,,,,,,,,,,,,,,2015_Jun_24_1041,59.7414524923,LearningTask,1,20,
200,w,200,,,,,,,,,,,,,,,,,1,0,1,0,10,2,42,0,,,,,,,,,,,,,,,,,,,,,,,,,,,,,w,1,0.484555959702,None,0,1.0,trianglegray.gif,go,,,,,,,,,,,,,,,,,,,,,,,,1.06,0.514209985733,0.00130391120911,0.484555959702,1,w,699.318886042,,,,,,,,,,,,,,,,,,,,,,,,,,,,,,,,,,,,,,,,,,,,,,,,,,,,,,,2015_Jun_24_1041,59.7414524923,LearningTask,1,20,
200,s,-200,,,,,,,,,,,,,,,,,1,0,1,0,10,3,43,2,,,,,,,,,,,,,,,,,,,,,,,,,,,,,s,1,0.401124000549,None,0,0.5,circlecyan.gif,go,,,,,,,,,,,,,,,,,,,,,,,,0,0.514122009277,0.0012800693512,0.401124000549,1,s,702.322103024,,,,,,,,,,,,,,,,,,,,,,,,,,,,,,,,,,,,,,,,,,,,,,,,,,,,,,,2015_Jun_24_1041,59.7414524923,LearningTask,1,20,
-200,q,200,,,,,,,,,,,,,,,,,1,0,1,0,11,0,44,1,,,,,,,,,,,,,,,,,,,,,,,,,,,,,q,1,0.400853157043,None,0,1.0,trianglegray.gif,go,,,,,,,,,,,,,,,,,,,,,,,,0.78,0.514339208603,0.00090217590332,0.400853157043,1,q,705.325481176,,,,,,,,,,,,,,,,,,,,,,,,,,,,,,,,,,,,,,,,,,,,,,,,,,,,,,,2015_Jun_24_1041,59.7414524923,LearningTask,1,20,
-200,a,-200,,,,,,,,,,,,,,,,,1,0,1,0,11,1,45,3,,,,,,,,,,,,,,,,,,,,,,,,,,,,,a,1,0.400949954987,None,0,2.0,diamondorange.gif,stop,,,,,,,,,,,,,,,,,,,,,,,,0,0.514066934586,0.00127482414246,0.400949954987,1,a,708.328929186,,,,,,,,,,,,,,,,,,,,,,,,,,,,,,,,,,,,,,,,,,,,,,,,,,,,,,,2015_Jun_24_1041,59.7414524923,LearningTask,1,20,
200,w,200,,,,,,,,,,,,,,,,,1,0,1,0,11,2,46,0,,,,,,,,,,,,,,,,,,,,,,,,,,,,,w,1,0.53458404541,None,0,2.0,diamondorange.gif,stop,,,,,,,,,,,,,,,,,,,,,,,,0,0.514007091522,0.000996112823486,0.53458404541,1,w,711.332252979,,,,,,,,,,,,,,,,,,,,,,,,,,,,,,,,,,,,,,,,,,,,,,,,,,,,,,,2015_Jun_24_1041,59.7414524923,LearningTask,1,20,
-200,q,200,,,,,,,,,,,,,,,,,1,0,1,0,11,3,47,1,,,,,,,,,,,,,,,,,,,,,,,,,,,,,q,1,0.433898925781,None,0,1.0,trianglegray.gif,go,,,,,,,,,,,,,,,,,,,,,,,,0,0.514579057693,0.000874042510986,0.433898925781,1,q,714.336002111,,,,,,,,,,,,,,,,,,,,,,,,,,,,,,,,,,,,,,,,,,,,,,,,,,,,,,,2015_Jun_24_1041,59.7414524923,LearningTask,1,20,
200,s,-200,,,,,,,,,,,,,,,,,1,0,1,0,12,0,48,2,,,,,,,,,,,,,,,,,,,,,,,,,,,,,s,1,0.450979948044,None,0,4.0,crosswhite.gif,go,,,,,,,,,,,,,,,,,,,,,,,,3.87,0.513936042786,0.00143694877625,0.450979948044,1,s,717.338845968,,,,,,,,,,,,,,,,,,,,,,,,,,,,,,,,,,,,,,,,,,,,,,,,,,,,,,,2015_Jun_24_1041,59.7414524923,LearningTask,1,20,
200,w,200,,,,,,,,,,,,,,,,,1,0,1,0,12,1,49,0,,,,,,,,,,,,,,,,,,,,,,,,,,,,,w,1,0.400700092316,None,0,4.0,linegreen.gif,stop,,,,,,,,,,,,,,,,,,,,,,,,4.0,0.514393091202,0.000874042510986,0.400700092316,1,w,720.342403173,,,,,,,,,,,,,,,,,,,,,,,,,,,,,,,,,,,,,,,,,,,,,,,,,,,,,,,2015_Jun_24_1041,59.7414524923,LearningTask,1,20,
200,w,200,,,,,,,,,,,,,,,,,1,0,1,0,12,2,50,0,,,,,,,,,,,,,,,,,,,,,,,,,,,,,w,1,0.517566204071,None,0,4.0,linegreen.gif,stop,,,,,,,,,,,,,,,,,,,,,,,,0,0.514108896255,0.000876903533936,0.517566204071,1,w,723.345927,,,,,,,,,,,,,,,,,,,,,,,,,,,,,,,,,,,,,,,,,,,,,,,,,,,,,,,2015_Jun_24_1041,59.7414524923,LearningTask,1,20,
-200,a,-200,,,,,,,,,,,,,,,,,1,0,1,0,12,3,51,3,,,,,,,,,,,,,,,,,,,,,,,,,,,,,a,1,0.417320966721,None,0,2.0,diamondorange.gif,stop,,,,,,,,,,,,,,,,,,,,,,,,2.04,0.513924121857,0.000936031341553,0.417320966721,1,a,726.348831177,,,,,,,,,,,,,,,,,,,,,,,,,,,,,,,,,,,,,,,,,,,,,,,,,,,,,,,2015_Jun_24_1041,59.7414524923,LearningTask,1,20,
-200,q,200,,,,,,,,,,,,,,,,,1,0,1,0,13,0,52,1,,,,,,,,,,,,,,,,,,,,,,,,,,,,,q,1,0.3342461586,None,0,0.5,circlecyan.gif,go,,,,,,,,,,,,,,,,,,,,,,,,0,0.514564037323,0.00148415565491,0.3342461586,1,q,729.352738142,,,,,,,,,,,,,,,,,,,,,,,,,,,,,,,,,,,,,,,,,,,,,,,,,,,,,,,2015_Jun_24_1041,59.7414524923,LearningTask,1,20,
-200,q,200,,,,,,,,,,,,,,,,,1,0,1,0,13,1,53,1,,,,,,,,,,,,,,,,,,,,,,,,,,,,,q,1,0.384427070618,None,0,0.5,hexagonyellow.gif,stop,,,,,,,,,,,,,,,,,,,,,,,,0,0.513808012009,0.000890016555786,0.384427070618,1,q,732.35571003,,,,,,,,,,,,,,,,,,,,,,,,,,,,,,,,,,,,,,,,,,,,,,,,,,,,,,,2015_Jun_24_1041,59.7414524923,LearningTask,1,20,
200,w,200,,,,,,,,,,,,,,,,,1,0,1,0,13,2,54,0,,,,,,,,,,,,,,,,,,,,,,,,,,,,,w,1,0.384532928467,None,0,0.5,circlecyan.gif,go,,,,,,,,,,,,,,,,,,,,,,,,0.44,0.514231920242,0.000904083251953,0.384532928467,1,w,735.358940125,,,,,,,,,,,,,,,,,,,,,,,,,,,,,,,,,,,,,,,,,,,,,,,,,,,,,,,2015_Jun_24_1041,59.7414524923,LearningTask,1,20,
200,s,-200,,,,,,,,,,,,,,,,,1,0,1,0,13,3,55,2,,,,,,,,,,,,,,,,,,,,,,,,,,,,,s,1,0.401211023331,None,0,1.0,trianglegray.gif,go,,,,,,,,,,,,,,,,,,,,,,,,1.07,0.514465093613,0.00111699104309,0.401211023331,1,s,738.362508059,,,,,,,,,,,,,,,,,,,,,,,,,,,,,,,,,,,,,,,,,,,,,,,,,,,,,,,2015_Jun_24_1041,59.7414524923,LearningTask,1,20,
200,w,200,,,,,,,,,,,,,,,,,1,0,1,0,14,0,56,0,,,,,,,,,,,,,,,,,,,,,,,,,,,,,w,1,0.417764186859,None,0,1.0,trianglegray.gif,go,,,,,,,,,,,,,,,,,,,,,,,,0.9,0.514543056488,0.000880002975464,0.417764186859,1,w,741.365661144,,,,,,,,,,,,,,,,,,,,,,,,,,,,,,,,,,,,,,,,,,,,,,,,,,,,,,,2015_Jun_24_1041,59.7414524923,LearningTask,1,20,
-200,a,-200,,,,,,,,,,,,,,,,,1,0,1,0,14,1,57,3,,,,,,,,,,,,,,,,,,,,,,,,,,,,,a,1,0.400744915009,None,0,0.5,circlecyan.gif,go,,,,,,,,,,,,,,,,,,,,,,,,0,0.514083147049,0.000895977020264,0.417883872986,0,q,744.368896008,0.33,0.515733003616,0.00109910964966,0.400744915009,1,a,747.372678995,,,,,,,,,,,,,,,,,,,,,,,,,,,,,,,,,,,,,,,,,,,,,,,,2015_Jun_24_1041,59.7414524923,LearningTask,1,20,
200,s,-200,,,,,,,,,,,,,,,,,1,0,1,0,14,2,58,2,,,,,,,,,,,,,,,,,,,,,,,,,,,,,s,1,0.600833892822,None,0,1.0,trianglegray.gif,go,,,,,,,,,,,,,,,,,,,,,,,,0.76,0.51428103447,0.000872850418091,0.600833892822,1,s,750.375864029,,,,,,,,,,,,,,,,,,,,,,,,,,,,,,,,,,,,,,,,,,,,,,,,,,,,,,,2015_Jun_24_1041,59.7414524923,LearningTask,1,20,
-200,q,200,,,,,,,,,,,,,,,,,1,0,1,0,14,3,59,1,,,,,,,,,,,,,,,,,,,,,,,,,,,,,q,1,0.417511940002,None,0,0.5,circlecyan.gif,go,,,,,,,,,,,,,,,,,,,,,,,,0.39,0.514079093933,0.000882148742676,0.417511940002,1,q,753.379206181,,,,,,,,,,,,,,,,,,,,,,,,,,,,,,,,,,,,,,,,,,,,,,,,,,,,,,,2015_Jun_24_1041,59.7414524923,LearningTask,1,20,
-200,q,200,,,,,,,,,,,,,,,,,1,0,1,0,15,0,60,1,,,,,,,,,,,,,,,,,,,,,,,,,,,,,q,1,0.384240150452,None,0,4.0,linegreen.gif,stop,,,,,,,,,,,,,,,,,,,,,,,,4.05,0.514039993286,0.00089693069458,0.384240150452,1,q,756.382431984,,,,,,,,,,,,,,,,,,,,,,,,,,,,,,,,,,,,,,,,,,,,,,,,,,,,,,,2015_Jun_24_1041,59.7414524923,LearningTask,1,20,
200,s,-200,,,,,,,,,,,,,,,,,1,0,1,0,15,1,61,2,,,,,,,,,,,,,,,,,,,,,,,,,,,,,s,1,0.451042890549,None,0,1.0,squaremagenta.gif,stop,,,,,,,,,,,,,,,,,,,,,,,,1.16,0.514511108398,0.000877141952515,0.451042890549,1,s,759.386275053,,,,,,,,,,,,,,,,,,,,,,,,,,,,,,,,,,,,,,,,,,,,,,,,,,,,,,,2015_Jun_24_1041,59.7414524923,LearningTask,1,20,
-200,a,-200,,,,,,,,,,,,,,,,,1,0,1,0,15,2,62,3,,,,,,,,,,,,,,,,,,,,,,,,,,,,,a,1,0.366970062256,None,0,0.5,circlecyan.gif,go,,,,,,,,,,,,,,,,,,,,,,,,0.57,0.514321088791,0.000880002975464,0.366970062256,1,a,762.389590025,,,,,,,,,,,,,,,,,,,,,,,,,,,,,,,,,,,,,,,,,,,,,,,,,,,,,,,2015_Jun_24_1041,59.7414524923,LearningTask,1,20,
200,w,200,,,,,,,,,,,,,,,,,1,0,1,0,15,3,63,0,,,,,,,,,,,,,,,,,,,,,,,,,,,,,w,1,0.451056003571,None,0,0.5,circlecyan.gif,go,,,,,,,,,,,,,,,,,,,,,,,,0,0.513997077942,0.000921010971069,0.451056003571,1,w,765.392575979,,,,,,,,,,,,,,,,,,,,,,,,,,,,,,,,,,,,,,,,,,,,,,,,,,,,,,,2015_Jun_24_1041,59.7414524923,LearningTask,1,20,
-200,q,200,,,,,,,,,,,,,,,,,1,0,1,0,16,0,64,1,,,,,,,,,,,,,,,,,,,,,,,,,,,,,q,1,0.467679023743,None,0,1.0,trianglegray.gif,go,,,,,,,,,,,,,,,,,,,,,,,,1.16,0.514384031296,0.000887870788574,0.467679023743,1,q,768.396098137,,,,,,,,,,,,,,,,,,,,,,,,,,,,,,,,,,,,,,,,,,,,,,,,,,,,,,,2015_Jun_24_1041,59.7414524923,LearningTask,1,20,
-200,q,200,,,,,,,,,,,,,,,,,1,0,1,0,16,1,65,1,,,,,,,,,,,,,,,,,,,,,,,,,,,,,q,1,0.534283876419,None,0,2.0,diamondorange.gif,stop,,,,,,,,,,,,,,,,,,,,,,,,2.16,0.514214038849,0.00088095664978,0.534283876419,1,q,771.399507999,,,,,,,,,,,,,,,,,,,,,,,,,,,,,,,,,,,,,,,,,,,,,,,,,,,,,,,2015_Jun_24_1041,59.7414524923,LearningTask,1,20,
-200,q,200,,,,,,,,,,,,,,,,,1,0,1,0,16,2,66,1,,,,,,,,,,,,,,,,,,,,,,,,,,,,,q,1,0.500822067261,None,0,2.0,invertedtriangleblue.gif,go,,,,,,,,,,,,,,,,,,,,,,,,2.21,0.514007091522,0.000894069671631,0.500822067261,1,q,774.402481079,,,,,,,,,,,,,,,,,,,,,,,,,,,,,,,,,,,,,,,,,,,,,,,,,,,,,,,2015_Jun_24_1041,59.7414524923,LearningTask,1,20,
-200,q,200,,,,,,,,,,,,,,,,,1,0,1,0,16,3,67,1,,,,,,,,,,,,,,,,,,,,,,,,,,,,,q,1,0.500926971436,None,0,2.0,invertedtriangleblue.gif,go,,,,,,,,,,,,,,,,,,,,,,,,2.12,0.514481067657,0.000876903533936,0.500926971436,1,q,777.405794144,,,,,,,,,,,,,,,,,,,,,,,,,,,,,,,,,,,,,,,,,,,,,,,,,,,,,,,2015_Jun_24_1041,59.7414524923,LearningTask,1,20,
200,s,-200,,,,,,,,,,,,,,,,,1,0,1,0,17,0,68,2,,,,,,,,,,,,,,,,,,,,,,,,,,,,,s,1,0.501143932343,None,0,1.0,trianglegray.gif,go,,,,,,,,,,,,,,,,,,,,,,,,0.8,0.514452934265,0.000900983810425,0.501143932343,1,s,780.409317017,,,,,,,,,,,,,,,,,,,,,,,,,,,,,,,,,,,,,,,,,,,,,,,,,,,,,,,2015_Jun_24_1041,59.7414524923,LearningTask,1,20,
200,w,200,,,,,,,,,,,,,,,,,1,0,1,0,17,1,69,0,,,,,,,,,,,,,,,,,,,,,,,,,,,,,w,1,0.484162092209,None,0,1.0,trianglegray.gif,go,,,,,,,,,,,,,,,,,,,,,,,,1.18,0.51424908638,0.000936985015869,0.484162092209,1,w,783.412657976,,,,,,,,,,,,,,,,,,,,,,,,,,,,,,,,,,,,,,,,,,,,,,,,,,,,,,,2015_Jun_24_1041,59.7414524923,LearningTask,1,20,
200,w,200,,,,,,,,,,,,,,,,,1,0,1,0,17,2,70,0,,,,,,,,,,,,,,,,,,,,,,,,,,,,,w,1,0.484202861786,None,0,4.0,linegreen.gif,stop,,,,,,,,,,,,,,,,,,,,,,,,3.91,0.514297962189,0.000921964645386,0.484202861786,1,w,786.416006088,,,,,,,,,,,,,,,,,,,,,,,,,,,,,,,,,,,,,,,,,,,,,,,,,,,,,,,2015_Jun_24_1041,59.7414524923,LearningTask,1,20,
200,w,200,,,,,,,,,,,,,,,,,1,0,1,0,17,3,71,0,,,,,,,,,,,,,,,,,,,,,,,,,,,,,w,1,0.567939996719,None,0,1.0,trianglegray.gif,go,,,,,,,,,,,,,,,,,,,,,,,,1.12,0.514406204224,0.000874996185303,0.567939996719,1,w,789.41933918,,,,,,,,,,,,,,,,,,,,,,,,,,,,,,,,,,,,,,,,,,,,,,,,,,,,,,,2015_Jun_24_1041,59.7414524923,LearningTask,1,20,
-200,q,200,,,,,,,,,,,,,,,,,1,0,1,0,18,0,72,1,,,,,,,,,,,,,,,,,,,,,,,,,,,,,q,1,0.435149908066,None,0,0.5,circlecyan.gif,go,,,,,,,,,,,,,,,,,,,,,,,,0.57,0.513952970505,0.000899076461792,0.435149908066,1,q,792.422580004,,,,,,,,,,,,,,,,,,,,,,,,,,,,,,,,,,,,,,,,,,,,,,,,,,,,,,,2015_Jun_24_1041,59.7414524923,LearningTask,1,20,
-200,q,200,,,,,,,,,,,,,,,,,1,0,1,0,18,1,73,1,,,,,,,,,,,,,,,,,,,,,,,,,,,,,q,1,0.466999053955,None,0,1.0,squaremagenta.gif,stop,,,,,,,,,,,,,,,,,,,,,,,,1.18,0.51501584053,0.000937938690186,0.466999053955,1,q,795.426151991,,,,,,,,,,,,,,,,,,,,,,,,,,,,,,,,,,,,,,,,,,,,,,,,,,,,,,,2015_Jun_24_1041,59.7414524923,LearningTask,1,20,
200,w,200,,,,,,,,,,,,,,,,,1,0,1,0,18,2,74,0,,,,,,,,,,,,,,,,,,,,,,,,,,,,,w,1,0.434161186218,None,0,4.0,crosswhite.gif,go,,,,,,,,,,,,,,,,,,,,,,,,3.77,0.514513015747,0.000876188278198,0.434161186218,1,w,798.429521084,,,,,,,,,,,,,,,,,,,,,,,,,,,,,,,,,,,,,,,,,,,,,,,,,,,,,,,2015_Jun_24_1041,59.7414524923,LearningTask,1,20,
200,s,-200,,,,,,,,,,,,,,,,,1,0,1,0,18,3,75,2,,,,,,,,,,,,,,,,,,,,,,,,,,,,,s,1,0.367312908173,None,0,4.0,linegreen.gif,stop,,,,,,,,,,,,,,,,,,,,,,,,0,0.514189004898,0.000897884368896,0.517715930939,0,w,801.432823181,0,0.515583992004,0.000960111618042,0.367312908173,1,s,804.436457157,,,,,,,,,,,,,,,,,,,,,,,,,,,,,,,,,,,,,,,,,,,,,,,,2015_Jun_24_1041,59.7414524923,LearningTask,1,20,
200,s,-200,,,,,,,,,,,,,,,,,1,0,1,0,19,0,76,2,,,,,,,,,,,,,,,,,,,,,,,,,,,,,s,1,0.584683179855,None,0,0.5,hexagonyellow.gif,stop,,,,,,,,,,,,,,,,,,,,,,,,0.36,0.51396894455,0.000883102416992,0.584683179855,1,s,807.439805031,,,,,,,,,,,,,,,,,,,,,,,,,,,,,,,,,,,,,,,,,,,,,,,,,,,,,,,2015_Jun_24_1041,59.7414524923,LearningTask,1,20,
200,w,200,,,,,,,,,,,,,,,,,1,0,1,0,19,1,77,0,,,,,,,,,,,,,,,,,,,,,,,,,,,,,w,1,0.484308958054,None,0,4.0,linegreen.gif,stop,,,,,,,,,,,,,,,,,,,,,,,,4.1,0.514024972916,0.000977993011475,0.484308958054,1,w,810.44355607,,,,,,,,,,,,,,,,,,,,,,,,,,,,,,,,,,,,,,,,,,,,,,,,,,,,,,,2015_Jun_24_1041,59.7414524923,LearningTask,1,20,
-200,a,-200,,,,,,,,,,,,,,,,,1,0,1,0,19,2,78,3,,,,,,,,,,,,,,,,,,,,,,,,,,,,,a,1,0.401377916336,None,0,1.0,trianglegray.gif,go,,,,,,,,,,,,,,,,,,,,,,,,0.81,0.513650894165,0.000917911529541,0.401377916336,1,a,813.446187019,,,,,,,,,,,,,,,,,,,,,,,,,,,,,,,,,,,,,,,,,,,,,,,,,,,,,,,2015_Jun_24_1041,59.7414524923,LearningTask,1,20,
-200,a,-200,,,,,,,,,,,,,,,,,1,0,1,0,19,3,79,3,,,,,,,,,,,,,,,,,,,,,,,,,,,,,a,1,0.467960119247,None,0,1.0,squaremagenta.gif,stop,,,,,,,,,,,,,,,,,,,,,,,,1.06,0.514401912689,0.000868082046509,0.467960119247,1,a,816.449676037,,,,,,,,,,,,,,,,,,,,,,,,,,,,,,,,,,,,,,,,,,,,,,,,,,,,,,,2015_Jun_24_1041,59.7414524923,LearningTask,1,20,
-200,a,-200,,,,,,,,,,,,,,,,,1,0,1,0,20,0,80,3,,,,,,,,,,,,,,,,,,,,,,,,,,,,,a,1,0.4172539711,None,0,0.5,hexagonyellow.gif,stop,,,,,,,,,,,,,,,,,,,,,,,,0.57,0.514384031296,0.000886917114258,0.4172539711,1,a,819.453154087,,,,,,,,,,,,,,,,,,,,,,,,,,,,,,,,,,,,,,,,,,,,,,,,,,,,,,,2015_Jun_24_1041,59.7414524923,LearningTask,1,20,
-200,q,200,,,,,,,,,,,,,,,,,1,0,1,0,20,1,81,1,,,,,,,,,,,,,,,,,,,,,,,,,,,,,q,1,0.467958927155,None,0,0.5,circlecyan.gif,go,,,,,,,,,,,,,,,,,,,,,,,,0.53,0.513902187347,0.000952005386353,0.467958927155,1,q,822.456111193,,,,,,,,,,,,,,,,,,,,,,,,,,,,,,,,,,,,,,,,,,,,,,,,,,,,,,,2015_Jun_24_1041,59.7414524923,LearningTask,1,20,
-200,a,-200,,,,,,,,,,,,,,,,,1,0,1,0,20,2,82,3,,,,,,,,,,,,,,,,,,,,,,,,,,,,,a,1,0.517574071884,None,0,1.0,squaremagenta.gif,stop,,,,,,,,,,,,,,,,,,,,,,,,1.01,0.514580965042,0.000867128372192,0.517574071884,1,a,825.460039139,,,,,,,,,,,,,,,,,,,,,,,,,,,,,,,,,,,,,,,,,,,,,,,,,,,,,,,2015_Jun_24_1041,59.7414524923,LearningTask,1,20,
200,w,200,,,,,,,,,,,,,,,,,1,0,1,0,20,3,83,0,,,,,,,,,,,,,,,,,,,,,,,,,,,,,w,1,0.550642967224,None,0,2.0,invertedtriangleblue.gif,go,,,,,,,,,,,,,,,,,,,,,,,,2.14,0.513938903809,0.000979900360107,0.550642967224,1,w,828.463334084,,,,,,,,,,,,,,,,,,,,,,,,,,,,,,,,,,,,,,,,,,,,,,,,,,,,,,,2015_Jun_24_1041,59.7414524923,LearningTask,1,20,
200,s,-200,,,,,,,,,,,,,,,,,1,0,1,0,21,0,84,2,,,,,,,,,,,,,,,,,,,,,,,,,,,,,s,1,0.434131860733,None,0,2.0,invertedtriangleblue.gif,go,,,,,,,,,,,,,,,,,,,,,,,,1.96,0.513921022415,0.000926971435547,0.434131860733,1,s,831.466396093,,,,,,,,,,,,,,,,,,,,,,,,,,,,,,,,,,,,,,,,,,,,,,,,,,,,,,,2015_Jun_24_1041,59.7414524923,LearningTask,1,20,
-200,a,-200,,,,,,,,,,,,,,,,,1,0,1,0,21,1,85,3,,,,,,,,,,,,,,,,,,,,,,,,,,,,,a,1,0.567858934402,None,0,4.0,linegreen.gif,stop,,,,,,,,,,,,,,,,,,,,,,,,3.93,0.514156103134,0.0011100769043,0.567858934402,1,a,834.469632149,,,,,,,,,,,,,,,,,,,,,,,,,,,,,,,,,,,,,,,,,,,,,,,,,,,,,,,2015_Jun_24_1041,59.7414524923,LearningTask,1,20,
-200,q,200,,,,,,,,,,,,,,,,,1,0,1,0,21,2,86,1,,,,,,,,,,,,,,,,,,,,,,,,,,,,,q,1,0.401017904282,None,0,2.0,invertedtriangleblue.gif,go,,,,,,,,,,,,,,,,,,,,,,,,1.86,0.514557123184,0.000869035720825,0.401017904282,1,q,837.472988129,,,,,,,,,,,,,,,,,,,,,,,,,,,,,,,,,,,,,,,,,,,,,,,,,,,,,,,2015_Jun_24_1041,59.7414524923,LearningTask,1,20,
200,s,-200,,,,,,,,,,,,,,,,,1,0,1,0,21,3,87,2,,,,,,,,,,,,,,,,,,,,,,,,,,,,,s,1,0.484483003616,None,0,1.0,squaremagenta.gif,stop,,,,,,,,,,,,,,,,,,,,,,,,1.07,0.514064073563,0.000900030136108,0.484483003616,1,s,840.476325989,,,,,,,,,,,,,,,,,,,,,,,,,,,,,,,,,,,,,,,,,,,,,,,,,,,,,,,2015_Jun_24_1041,59.7414524923,LearningTask,1,20,
-200,a,-200,,,,,,,,,,,,,,,,,1,0,1,0,22,0,88,3,,,,,,,,,,,,,,,,,,,,,,,,,,,,,a,1,0.401365995407,None,0,0.5,circlecyan.gif,go,,,,,,,,,,,,,,,,,,,,,,,,0.43,0.5140209198,0.000916004180908,0.401365995407,1,a,843.479829073,,,,,,,,,,,,,,,,,,,,,,,,,,,,,,,,,,,,,,,,,,,,,,,,,,,,,,,2015_Jun_24_1041,59.7414524923,LearningTask,1,20,
200,s,-200,,,,,,,,,,,,,,,,,1,0,1,0,22,1,89,2,,,,,,,,,,,,,,,,,,,,,,,,,,,,,s,1,0.551167011261,None,0,4.0,crosswhite.gif,go,,,,,,,,,,,,,,,,,,,,,,,,0,0.514312028885,0.000875949859619,0.551167011261,1,s,846.482971191,,,,,,,,,,,,,,,,,,,,,,,,,,,,,,,,,,,,,,,,,,,,,,,,,,,,,,,2015_Jun_24_1041,59.7414524923,LearningTask,1,20,
-200,a,-200,,,,,,,,,,,,,,,,,1,0,1,0,22,2,90,3,,,,,,,,,,,,,,,,,,,,,,,,,,,,,a,1,0.383450984955,None,0,4.0,linegreen.gif,stop,,,,,,,,,,,,,,,,,,,,,,,,0,0.514698028564,0.000964879989624,0.383450984955,1,a,849.486625195,,,,,,,,,,,,,,,,,,,,,,,,,,,,,,,,,,,,,,,,,,,,,,,,,,,,,,,2015_Jun_24_1041,59.7414524923,LearningTask,1,20,
200,s,-200,,,,,,,,,,,,,,,,,1,0,1,0,22,3,91,2,,,,,,,,,,,,,,,,,,,,,,,,,,,,,s,1,0.484528779984,None,0,1.0,trianglegray.gif,go,,,,,,,,,,,,,,,,,,,,,,,,0.9,0.51408290863,0.000895977020264,0.484528779984,1,s,852.489798069,,,,,,,,,,,,,,,,,,,,,,,,,,,,,,,,,,,,,,,,,,,,,,,,,,,,,,,2015_Jun_24_1041,59.7414524923,LearningTask,1,20,
200,s,-200,,,,,,,,,,,,,,,,,1,0,1,0,23,0,92,2,,,,,,,,,,,,,,,,,,,,,,,,,,,,,s,1,0.55117893219,None,0,1.0,squaremagenta.gif,stop,,,,,,,,,,,,,,,,,,,,,,,,0.86,0.514358043671,0.000864028930664,0.55117893219,1,s,855.493488073,,,,,,,,,,,,,,,,,,,,,,,,,,,,,,,,,,,,,,,,,,,,,,,,,,,,,,,2015_Jun_24_1041,59.7414524923,LearningTask,1,20,
200,s,-200,,,,,,,,,,,,,,,,,1,0,1,0,23,1,93,2,,,,,,,,,,,,,,,,,,,,,,,,,,,,,s,1,0.584403991699,None,0,1.0,squaremagenta.gif,stop,,,,,,,,,,,,,,,,,,,,,,,,0,0.514044046402,0.000869035720825,0.584403991699,1,s,858.496896982,,,,,,,,,,,,,,,,,,,,,,,,,,,,,,,,,,,,,,,,,,,,,,,,,,,,,,,2015_Jun_24_1041,59.7414524923,LearningTask,1,20,
-200,a,-200,,,,,,,,,,,,,,,,,1,0,1,0,23,2,94,3,,,,,,,,,,,,,,,,,,,,,,,,,,,,,a,1,0.517991065979,None,0,4.0,crosswhite.gif,go,,,,,,,,,,,,,,,,,,,,,,,,0,0.51353096962,0.000948905944824,0.517991065979,1,a,861.499976158,,,,,,,,,,,,,,,,,,,,,,,,,,,,,,,,,,,,,,,,,,,,,,,,,,,,,,,2015_Jun_24_1041,59.7414524923,LearningTask,1,20,
200,s,-200,,,,,,,,,,,,,,,,,1,0,1,0,23,3,95,2,,,,,,,,,,,,,,,,,,,,,,,,,,,,,s,1,0.450978040695,None,0,4.0,crosswhite.gif,go,,,,,,,,,,,,,,,,,,,,,,,,0,0.514409065247,0.00089693069458,0.450978040695,1,s,864.50357008,,,,,,,,,,,,,,,,,,,,,,,,,,,,,,,,,,,,,,,,,,,,,,,,,,,,,,,2015_Jun_24_1041,59.7414524923,LearningTask,1,20,
200,s,-200,,,,,,,,,,,,,,,,,1,0,1,0,24,0,96,2,,,,,,,,,,,,,,,,,,,,,,,,,,,,,s,1,0.617702007294,None,0,0.5,circlecyan.gif,go,,,,,,,,,,,,,,,,,,,,,,,,0.39,0.51405620575,0.000884056091309,0.617702007294,1,s,867.50682807,,,,,,,,,,,,,,,,,,,,,,,,,,,,,,,,,,,,,,,,,,,,,,,,,,,,,,,2015_Jun_24_1041,59.7414524923,LearningTask,1,20,
-200,a,-200,,,,,,,,,,,,,,,,,1,0,1,0,24,1,97,3,,,,,,,,,,,,,,,,,,,,,,,,,,,,,a,1,0.451026916504,None,0,0.5,hexagonyellow.gif,stop,,,,,,,,,,,,,,,,,,,,,,,,0,0.514012098312,0.000951051712036,0.451026916504,1,a,870.509757996,,,,,,,,,,,,,,,,,,,,,,,,,,,,,,,,,,,,,,,,,,,,,,,,,,,,,,,2015_Jun_24_1041,59.7414524923,LearningTask,1,20,
-200,q,200,,,,,,,,,,,,,,,,,1,0,1,0,24,2,98,1,,,,,,,,,,,,,,,,,,,,,,,,,,,,,q,1,0.384486913681,None,0,0.5,hexagonyellow.gif,stop,,,,,,,,,,,,,,,,,,,,,,,,0.62,0.514497995377,0.000921010971069,0.384486913681,1,q,873.513209105,,,,,,,,,,,,,,,,,,,,,,,,,,,,,,,,,,,,,,,,,,,,,,,,,,,,,,,2015_Jun_24_1041,59.7414524923,LearningTask,1,20,
-200,q,200,,,,,,,,,,,,,,,,,1,0,1,0,24,3,99,1,,,,,,,,,,,,,,,,,,,,,,,,,,,,,q,1,0.384217023849,None,0,2.0,invertedtriangleblue.gif,go,,,,,,,,,,,,,,,,,,,,,,,,1.76,0.514446020126,0.000874996185303,0.384217023849,1,q,876.516580105,,,,,,,,,,,,,,,,,,,,,,,,,,,,,,,,,,,,,,,,,,,,,,,,,,,,,,,2015_Jun_24_1041,59.7414524923,LearningTask,1,20,
,,,,,,,,,,,,,,,,,,,1,0,1,0,,,,,,,,,,,,,,,,,,,,,,,,,,,,,,,,,,,,,,,,,,,,,,,,,,,,,,,,,,,,,,,,,,,,,,,,,,,,,,9,11.1270811558,,,,,,,,,,,,,,,,,,,,,,,,,,,,,,,,,,,,,,,,,,,,,,2015_Jun_24_1041,59.7414524923,LearningTask,1,20,
200,s,-200,,,,,,,,,,,,,,,,,2,0,2,0,0,0,0,2,,,,,,,,,,,,,,,,,,,,,,,,,,,,,s,1,0.417207956314,None,0,1.0,trianglegray.gif,go,,,,,,,,,,,,,,,,,,,,,,,,0,0.509047985077,0.000882863998413,0.417207956314,1,s,891.350212097,,,,,,,,,,,,,,,,,,,,,,,,,,,,,,,,,,,,,,,,,,,,,,,,,,,,,,,2015_Jun_24_1041,59.7414524923,LearningTask,1,20,
200,w,200,,,,,,,,,,,,,,,,,2,0,2,0,0,1,1,0,,,,,,,,,,,,,,,,,,,,,,,,,,,,,w,1,0.534577131271,None,0,1.0,trianglegray.gif,go,,,,,,,,,,,,,,,,,,,,,,,,1.21,0.513969898224,0.000870943069458,0.534577131271,1,w,894.353598118,,,,,,,,,,,,,,,,,,,,,,,,,,,,,,,,,,,,,,,,,,,,,,,,,,,,,,,2015_Jun_24_1041,59.7414524923,LearningTask,1,20,
200,s,-200,,,,,,,,,,,,,,,,,2,0,2,0,0,2,2,2,,,,,,,,,,,,,,,,,,,,,,,,,,,,,s,1,0.417656898499,None,0,0.5,circlecyan.gif,go,,,,,,,,,,,,,,,,,,,,,,,,0.38,0.514098167419,0.00087308883667,0.417656898499,1,s,897.356659174,,,,,,,,,,,,,,,,,,,,,,,,,,,,,,,,,,,,,,,,,,,,,,,,,,,,,,,2015_Jun_24_1041,59.7414524923,LearningTask,1,20,
-200,q,200,,,,,,,,,,,,,,,,,2,0,2,0,0,3,3,1,,,,,,,,,,,,,,,,,,,,,,,,,,,,,q,1,0.383911132812,None,0,4.0,linegreen.gif,stop,,,,,,,,,,,,,,,,,,,,,,,,4.04,0.514487028122,0.000988960266113,0.383911132812,1,q,900.360193014,,,,,,,,,,,,,,,,,,,,,,,,,,,,,,,,,,,,,,,,,,,,,,,,,,,,,,,2015_Jun_24_1041,59.7414524923,LearningTask,1,20,
200,w,200,,,,,,,,,,,,,,,,,2,0,2,0,1,0,4,0,,,,,,,,,,,,,,,,,,,,,,,,,,,,,w,1,0.434158802032,None,0,0.5,hexagonyellow.gif,stop,,,,,,,,,,,,,,,,,,,,,,,,0,0.514136075974,0.000890016555786,0.434158802032,1,w,903.363249063,,,,,,,,,,,,,,,,,,,,,,,,,,,,,,,,,,,,,,,,,,,,,,,,,,,,,,,2015_Jun_24_1041,59.7414524923,LearningTask,1,20,
-200,q,200,,,,,,,,,,,,,,,,,2,0,2,0,1,1,5,1,,,,,,,,,,,,,,,,,,,,,,,,,,,,,q,1,0.4842441082,None,0,4.0,linegreen.gif,stop,,,,,,,,,,,,,,,,,,,,,,,,4.19,0.514374017715,0.00088095664978,0.4842441082,1,q,906.366950035,,,,,,,,,,,,,,,,,,,,,,,,,,,,,,,,,,,,,,,,,,,,,,,,,,,,,,,2015_Jun_24_1041,59.7414524923,LearningTask,1,20,
-200,a,-200,,,,,,,,,,,,,,,,,2,0,2,0,1,2,6,3,,,,,,,,,,,,,,,,,,,,,,,,,,,,,a,1,0.401187896729,None,0,1.0,squaremagenta.gif,stop,,,,,,,,,,,,,,,,,,,,,,,,0.82,0.513646841049,0.000907897949219,0.401187896729,1,a,909.370084047,,,,,,,,,,,,,,,,,,,,,,,,,,,,,,,,,,,,,,,,,,,,,,,,,,,,,,,2015_Jun_24_1041,59.7414524923,LearningTask,1,20,
-200,a,-200,,,,,,,,,,,,,,,,,2,0,2,0,1,3,7,3,,,,,,,,,,,,,,,,,,,,,,,,,,,,,a,1,0.417291879654,None,0,1.0,squaremagenta.gif,stop,,,,,,,,,,,,,,,,,,,,,,,,0.97,0.514267921448,0.00088906288147,0.417291879654,1,a,912.373401165,,,,,,,,,,,,,,,,,,,,,,,,,,,,,,,,,,,,,,,,,,,,,,,,,,,,,,,2015_Jun_24_1041,59.7414524923,LearningTask,1,20,
200,s,-200,,,,,,,,,,,,,,,,,2,0,2,0,2,0,8,2,,,,,,,,,,,,,,,,,,,,,,,,,,,,,s,1,0.518019914627,None,0,0.5,hexagonyellow.gif,stop,,,,,,,,,,,,,,,,,,,,,,,,0.3,0.514428138733,0.000885963439941,0.518019914627,1,s,915.376856089,,,,,,,,,,,,,,,,,,,,,,,,,,,,,,,,,,,,,,,,,,,,,,,,,,,,,,,2015_Jun_24_1041,59.7414524923,LearningTask,1,20,
-200,a,-200,,,,,,,,,,,,,,,,,2,0,2,0,2,1,9,3,,,,,,,,,,,,,,,,,,,,,,,,,,,,,a,1,0.567661046982,None,0,2.0,diamondorange.gif,stop,,,,,,,,,,,,,,,,,,,,,,,,1.92,0.514105081558,0.000888109207153,0.567661046982,1,a,918.38004899,,,,,,,,,,,,,,,,,,,,,,,,,,,,,,,,,,,,,,,,,,,,,,,,,,,,,,,2015_Jun_24_1041,59.7414524923,LearningTask,1,20,
-200,a,-200,,,,,,,,,,,,,,,,,2,0,2,0,2,2,10,3,,,,,,,,,,,,,,,,,,,,,,,,,,,,,a,1,0.433750152588,None,0,0.5,hexagonyellow.gif,stop,,,,,,,,,,,,,,,,,,,,,,,,0.66,0.514434099197,0.000885963439941,0.433750152588,1,a,921.383498192,,,,,,,,,,,,,,,,,,,,,,,,,,,,,,,,,,,,,,,,,,,,,,,,,,,,,,,2015_Jun_24_1041,59.7414524923,LearningTask,1,20,
200,s,-200,,,,,,,,,,,,,,,,,2,0,2,0,2,3,11,2,,,,,,,,,,,,,,,,,,,,,,,,,,,,,s,1,0.31803894043,None,0,2.0,diamondorange.gif,stop,,,,,,,,,,,,,,,,,,,,,,,,0,0.514208078384,0.000879049301147,0.684409856796,0,a,924.387044191,1.97,0.515117883682,0.000969886779785,0.31803894043,1,s,927.390621185,,,,,,,,,,,,,,,,,,,,,,,,,,,,,,,,,,,,,,,,,,,,,,,,2015_Jun_24_1041,59.7414524923,LearningTask,1,20,
200,w,200,,,,,,,,,,,,,,,,,2,0,2,0,3,0,12,0,,,,,,,,,,,,,,,,,,,,,,,,,,,,,w,1,0.517380952835,None,0,0.5,hexagonyellow.gif,stop,,,,,,,,,,,,,,,,,,,,,,,,0,0.513976097107,0.000883102416992,0.517380952835,1,w,930.393472195,,,,,,,,,,,,,,,,,,,,,,,,,,,,,,,,,,,,,,,,,,,,,,,,,,,,,,,2015_Jun_24_1041,59.7414524923,LearningTask,1,20,
200,s,-200,,,,,,,,,,,,,,,,,2,0,2,0,3,1,13,2,,,,,,,,,,,,,,,,,,,,,,,,,,,,,s,1,0.500905036926,None,0,4.0,crosswhite.gif,go,,,,,,,,,,,,,,,,,,,,,,,,3.75,0.514555931091,0.000876903533936,0.500905036926,1,s,933.397224188,,,,,,,,,,,,,,,,,,,,,,,,,,,,,,,,,,,,,,,,,,,,,,,,,,,,,,,2015_Jun_24_1041,59.7414524923,LearningTask,1,20,
-200,q,200,,,,,,,,,,,,,,,,,2,0,2,0,3,2,14,1,,,,,,,,,,,,,,,,,,,,,,,,,,,,,q,1,0.434186935425,None,0,1.0,squaremagenta.gif,stop,,,,,,,,,,,,,,,,,,,,,,,,1.03,0.513795852661,0.000932931900024,0.434186935425,1,q,936.400254011,,,,,,,,,,,,,,,,,,,,,,,,,,,,,,,,,,,,,,,,,,,,,,,,,,,,,,,2015_Jun_24_1041,59.7414524923,LearningTask,1,20,
200,w,200,,,,,,,,,,,,,,,,,2,0,2,0,3,3,15,0,,,,,,,,,,,,,,,,,,,,,,,,,,,,,w,1,0.484214067459,None,0,4.0,linegreen.gif,stop,,,,,,,,,,,,,,,,,,,,,,,,4.24,0.514502048492,0.000891923904419,0.484214067459,1,w,939.403506994,,,,,,,,,,,,,,,,,,,,,,,,,,,,,,,,,,,,,,,,,,,,,,,,,,,,,,,2015_Jun_24_1041,59.7414524923,LearningTask,1,20,
-200,q,200,,,,,,,,,,,,,,,,,2,0,2,0,4,0,16,1,,,,,,,,,,,,,,,,,,,,,,,,,,,,,q,1,0.417497873306,None,0,0.5,circlecyan.gif,go,,,,,,,,,,,,,,,,,,,,,,,,0.66,0.514456987381,0.00119090080261,0.417497873306,1,q,942.406756163,,,,,,,,,,,,,,,,,,,,,,,,,,,,,,,,,,,,,,,,,,,,,,,,,,,,,,,2015_Jun_24_1041,59.7414524923,LearningTask,1,20,
-200,a,-200,,,,,,,,,,,,,,,,,2,0,2,0,4,1,17,3,,,,,,,,,,,,,,,,,,,,,,,,,,,,,a,1,0.484138011932,None,0,2.0,invertedtriangleblue.gif,go,,,,,,,,,,,,,,,,,,,,,,,,2.08,0.514389038086,0.000877141952515,0.484138011932,1,a,945.410369158,,,,,,,,,,,,,,,,,,,,,,,,,,,,,,,,,,,,,,,,,,,,,,,,,,,,,,,2015_Jun_24_1041,59.7414524923,LearningTask,1,20,
-200,q,200,,,,,,,,,,,,,,,,,2,0,2,0,4,2,18,1,,,,,,,,,,,,,,,,,,,,,,,,,,,,,q,1,0.550943136215,None,0,4.0,linegreen.gif,stop,,,,,,,,,,,,,,,,,,,,,,,,3.77,0.514348983765,0.000962018966675,0.550943136215,1,q,948.413727045,,,,,,,,,,,,,,,,,,,,,,,,,,,,,,,,,,,,,,,,,,,,,,,,,,,,,,,2015_Jun_24_1041,59.7414524923,LearningTask,1,20,
200,s,-200,,,,,,,,,,,,,,,,,2,0,2,0,4,3,19,2,,,,,,,,,,,,,,,,,,,,,,,,,,,,,s,1,0.618108034134,None,0,0.5,circlecyan.gif,go,,,,,,,,,,,,,,,,,,,,,,,,0.53,0.51428604126,0.000883102416992,0.618108034134,1,s,951.416908979,,,,,,,,,,,,,,,,,,,,,,,,,,,,,,,,,,,,,,,,,,,,,,,,,,,,,,,2015_Jun_24_1041,59.7414524923,LearningTask,1,20,
-200,q,200,,,,,,,,,,,,,,,,,2,0,2,0,5,0,20,1,,,,,,,,,,,,,,,,,,,,,,,,,,,,,q,1,0.567409038544,None,0,4.0,linegreen.gif,stop,,,,,,,,,,,,,,,,,,,,,,,,0,0.51457285881,0.000878810882568,0.567409038544,1,q,954.420356035,,,,,,,,,,,,,,,,,,,,,,,,,,,,,,,,,,,,,,,,,,,,,,,,,,,,,,,2015_Jun_24_1041,59.7414524923,LearningTask,1,20,
-200,a,-200,,,,,,,,,,,,,,,,,2,0,2,0,5,1,21,3,,,,,,,,,,,,,,,,,,,,,,,,,,,,,a,1,0.584568023682,None,0,2.0,invertedtriangleblue.gif,go,,,,,,,,,,,,,,,,,,,,,,,,2.0,0.514150857925,0.000933885574341,0.584568023682,1,a,957.423649073,,,,,,,,,,,,,,,,,,,,,,,,,,,,,,,,,,,,,,,,,,,,,,,,,,,,,,,2015_Jun_24_1041,59.7414524923,LearningTask,1,20,
200,w,200,,,,,,,,,,,,,,,,,2,0,2,0,5,2,22,0,,,,,,,,,,,,,,,,,,,,,,,,,,,,,w,1,0.517599821091,None,0,1.0,trianglegray.gif,go,,,,,,,,,,,,,,,,,,,,,,,,0,0.514755964279,0.00088095664978,0.517599821091,1,w,960.42714715,,,,,,,,,,,,,,,,,,,,,,,,,,,,,,,,,,,,,,,,,,,,,,,,,,,,,,,2015_Jun_24_1041,59.7414524923,LearningTask,1,20,
200,w,200,,,,,,,,,,,,,,,,,2,0,2,0,5,3,23,0,,,,,,,,,,,,,,,,,,,,,,,,,,,,,w,1,0.618057966232,None,0,2.0,invertedtriangleblue.gif,go,,,,,,,,,,,,,,,,,,,,,,,,2.07,0.514445066452,0.000881910324097,0.618057966232,1,w,963.430608034,,,,,,,,,,,,,,,,,,,,,,,,,,,,,,,,,,,,,,,,,,,,,,,,,,,,,,,2015_Jun_24_1041,59.7414524923,LearningTask,1,20,
200,w,200,,,,,,,,,,,,,,,,,2,0,2,0,6,0,24,0,,,,,,,,,,,,,,,,,,,,,,,,,,,,,w,1,0.433779001236,None,0,4.0,crosswhite.gif,go,,,,,,,,,,,,,,,,,,,,,,,,3.89,0.514362096786,0.000904083251953,0.433779001236,1,w,966.433838129,,,,,,,,,,,,,,,,,,,,,,,,,,,,,,,,,,,,,,,,,,,,,,,,,,,,,,,2015_Jun_24_1041,59.7414524923,LearningTask,1,20,
200,s,-200,,,,,,,,,,,,,,,,,2,0,2,0,6,1,25,2,,,,,,,,,,,,,,,,,,,,,,,,,,,,,s,1,0.584738016129,None,0,2.0,diamondorange.gif,stop,,,,,,,,,,,,,,,,,,,,,,,,2.12,0.514292955399,0.000876903533936,0.584738016129,1,s,969.437167168,,,,,,,,,,,,,,,,,,,,,,,,,,,,,,,,,,,,,,,,,,,,,,,,,,,,,,,2015_Jun_24_1041,59.7414524923,LearningTask,1,20,
200,s,-200,,,,,,,,,,,,,,,,,2,0,2,0,6,2,26,2,,,,,,,,,,,,,,,,,,,,,,,,,,,,,s,1,0.434143066406,None,0,2.0,diamondorange.gif,stop,,,,,,,,,,,,,,,,,,,,,,,,2.15,0.514323949814,0.000880002975464,0.434143066406,1,s,972.440788031,,,,,,,,,,,,,,,,,,,,,,,,,,,,,,,,,,,,,,,,,,,,,,,,,,,,,,,2015_Jun_24_1041,59.7414524923,LearningTask,1,20,
200,w,200,,,,,,,,,,,,,,,,,2,0,2,0,6,3,27,0,,,,,,,,,,,,,,,,,,,,,,,,,,,,,w,1,0.434504985809,None,0,4.0,crosswhite.gif,go,,,,,,,,,,,,,,,,,,,,,,,,3.94,0.513982057571,0.000932931900024,0.434504985809,1,w,975.443914175,,,,,,,,,,,,,,,,,,,,,,,,,,,,,,,,,,,,,,,,,,,,,,,,,,,,,,,2015_Jun_24_1041,59.7414524923,LearningTask,1,20,
-200,a,-200,,,,,,,,,,,,,,,,,2,0,2,0,7,0,28,3,,,,,,,,,,,,,,,,,,,,,,,,,,,,,a,1,0.384546995163,None,0,4.0,crosswhite.gif,go,,,,,,,,,,,,,,,,,,,,,,,,3.87,0.514342069626,0.000877141952515,0.384546995163,1,a,978.44733119,,,,,,,,,,,,,,,,,,,,,,,,,,,,,,,,,,,,,,,,,,,,,,,,,,,,,,,2015_Jun_24_1041,59.7414524923,LearningTask,1,20,
-200,a,-200,,,,,,,,,,,,,,,,,2,0,2,0,7,1,29,3,,,,,,,,,,,,,,,,,,,,,,,,,,,,,a,1,0.450621128082,None,0,4.0,linegreen.gif,stop,,,,,,,,,,,,,,,,,,,,,,,,4.09,0.514277935028,0.000918865203857,0.450621128082,1,a,981.450852156,,,,,,,,,,,,,,,,,,,,,,,,,,,,,,,,,,,,,,,,,,,,,,,,,,,,,,,2015_Jun_24_1041,59.7414524923,LearningTask,1,20,
200,w,200,,,,,,,,,,,,,,,,,2,0,2,0,7,2,30,0,,,,,,,,,,,,,,,,,,,,,,,,,,,,,w,1,0.53408408165,None,0,2.0,invertedtriangleblue.gif,go,,,,,,,,,,,,,,,,,,,,,,,,2.03,0.514162063599,0.000883102416992,0.53408408165,1,w,984.454101086,,,,,,,,,,,,,,,,,,,,,,,,,,,,,,,,,,,,,,,,,,,,,,,,,,,,,,,2015_Jun_24_1041,59.7414524923,LearningTask,1,20,
-200,q,200,,,,,,,,,,,,,,,,,2,0,2,0,7,3,31,1,,,,,,,,,,,,,,,,,,,,,,,,,,,,,q,1,0.584511995316,None,0,0.5,hexagonyellow.gif,stop,,,,,,,,,,,,,,,,,,,,,,,,0.5,0.514010190964,0.000970125198364,0.584511995316,1,q,987.457166195,,,,,,,,,,,,,,,,,,,,,,,,,,,,,,,,,,,,,,,,,,,,,,,,,,,,,,,2015_Jun_24_1041,59.7414524923,LearningTask,1,20,
200,w,200,,,,,,,,,,,,,,,,,2,0,2,0,8,0,32,0,,,,,,,,,,,,,,,,,,,,,,,,,,,,,w,1,0.46782207489,None,0,1.0,squaremagenta.gif,stop,,,,,,,,,,,,,,,,,,,,,,,,0.93,0.514527797699,0.00088095664978,0.46782207489,1,w,990.460700035,,,,,,,,,,,,,,,,,,,,,,,,,,,,,,,,,,,,,,,,,,,,,,,,,,,,,,,2015_Jun_24_1041,59.7414524923,LearningTask,1,20,
-200,q,200,,,,,,,,,,,,,,,,,2,0,2,0,8,1,33,1,,,,,,,,,,,,,,,,,,,,,,,,,,,,,q,1,0.383914232254,None,0,4.0,crosswhite.gif,go,,,,,,,,,,,,,,,,,,,,,,,,3.82,0.514516830444,0.000873804092407,0.383914232254,1,q,993.463911057,,,,,,,,,,,,,,,,,,,,,,,,,,,,,,,,,,,,,,,,,,,,,,,,,,,,,,,2015_Jun_24_1041,59.7414524923,LearningTask,1,20,
-200,a,-200,,,,,,,,,,,,,,,,,2,0,2,0,8,2,34,3,,,,,,,,,,,,,,,,,,,,,,,,,,,,,a,1,0.384625911713,None,0,1.0,trianglegray.gif,go,,,,,,,,,,,,,,,,,,,,,,,,1.24,0.514299154282,0.000946044921875,0.384625911713,1,a,996.467378139,,,,,,,,,,,,,,,,,,,,,,,,,,,,,,,,,,,,,,,,,,,,,,,,,,,,,,,2015_Jun_24_1041,59.7414524923,LearningTask,1,20,
-200,q,200,,,,,,,,,,,,,,,,,2,0,2,0,8,3,35,1,,,,,,,,,,,,,,,,,,,,,,,,,,,,,q,1,0.351380825043,None,0,1.0,squaremagenta.gif,stop,,,,,,,,,,,,,,,,,,,,,,,,0.93,0.514374017715,0.000881910324097,0.351380825043,1,q,999.470786095,,,,,,,,,,,,,,,,,,,,,,,,,,,,,,,,,,,,,,,,,,,,,,,,,,,,,,,2015_Jun_24_1041,59.7414524923,LearningTask,1,20,
-200,q,200,,,,,,,,,,,,,,,,,2,0,2,0,9,0,36,1,,,,,,,,,,,,,,,,,,,,,,,,,,,,,q,1,0.467801094055,None,0,0.5,circlecyan.gif,go,,,,,,,,,,,,,,,,,,,,,,,,0.57,0.514315843582,0.000877857208252,0.467801094055,1,q,1002.47407913,,,,,,,,,,,,,,,,,,,,,,,,,,,,,,,,,,,,,,,,,,,,,,,,,,,,,,,2015_Jun_24_1041,59.7414524923,LearningTask,1,20,
200,w,200,,,,,,,,,,,,,,,,,2,0,2,0,9,1,37,0,,,,,,,,,,,,,,,,,,,,,,,,,,,,,w,1,0.567807912827,None,0,1.0,squaremagenta.gif,stop,,,,,,,,,,,,,,,,,,,,,,,,1.09,0.514134168625,0.000962018966675,0.567807912827,1,w,1005.47738314,,,,,,,,,,,,,,,,,,,,,,,,,,,,,,,,,,,,,,,,,,,,,,,,,,,,,,,2015_Jun_24_1041,59.7414524923,LearningTask,1,20,
-200,q,200,,,,,,,,,,,,,,,,,2,0,2,0,9,2,38,1,,,,,,,,,,,,,,,,,,,,,,,,,,,,,q,1,0.401389122009,None,0,4.0,crosswhite.gif,go,,,,,,,,,,,,,,,,,,,,,,,,3.82,0.514138936996,0.000900983810425,0.401389122009,1,q,1008.48067403,,,,,,,,,,,,,,,,,,,,,,,,,,,,,,,,,,,,,,,,,,,,,,,,,,,,,,,2015_Jun_24_1041,59.7414524923,LearningTask,1,20,
200,s,-200,,,,,,,,,,,,,,,,,2,0,2,0,9,3,39,2,,,,,,,,,,,,,,,,,,,,,,,,,,,,,s,1,0.400810003281,None,0,0.5,hexagonyellow.gif,stop,,,,,,,,,,,,,,,,,,,,,,,,0.66,0.514451026917,0.000877857208252,0.400810003281,1,s,1011.48413897,,,,,,,,,,,,,,,,,,,,,,,,,,,,,,,,,,,,,,,,,,,,,,,,,,,,,,,2015_Jun_24_1041,59.7414524923,LearningTask,1,20,
200,w,200,,,,,,,,,,,,,,,,,2,0,2,0,10,0,40,0,,,,,,,,,,,,,,,,,,,,,,,,,,,,,w,1,0.467577934265,None,0,4.0,crosswhite.gif,go,,,,,,,,,,,,,,,,,,,,,,,,3.75,0.51429605484,0.000916957855225,0.467577934265,1,w,1014.487396,,,,,,,,,,,,,,,,,,,,,,,,,,,,,,,,,,,,,,,,,,,,,,,,,,,,,,,2015_Jun_24_1041,59.7414524923,LearningTask,1,20,
-200,a,-200,,,,,,,,,,,,,,,,,2,0,2,0,10,1,41,3,,,,,,,,,,,,,,,,,,,,,,,,,,,,,a,1,0.400806903839,None,0,2.0,invertedtriangleblue.gif,go,,,,,,,,,,,,,,,,,,,,,,,,2.06,0.514418125153,0.000876903533936,0.400806903839,1,a,1017.49088097,,,,,,,,,,,,,,,,,,,,,,,,,,,,,,,,,,,,,,,,,,,,,,,,,,,,,,,2015_Jun_24_1041,59.7414524923,LearningTask,1,20,
200,s,-200,,,,,,,,,,,,,,,,,2,0,2,0,10,2,42,2,,,,,,,,,,,,,,,,,,,,,,,,,,,,,s,1,0.584753990173,None,0,2.0,diamondorange.gif,stop,,,,,,,,,,,,,,,,,,,,,,,,0,0.514256000519,0.000910997390747,0.584753990173,1,s,1020.49429917,,,,,,,,,,,,,,,,,,,,,,,,,,,,,,,,,,,,,,,,,,,,,,,,,,,,,,,2015_Jun_24_1041,59.7414524923,LearningTask,1,20,
-200,q,200,,,,,,,,,,,,,,,,,2,0,2,0,10,3,43,1,,,,,,,,,,,,,,,,,,,,,,,,,,,,,q,1,0.500862121582,None,0,4.0,linegreen.gif,stop,,,,,,,,,,,,,,,,,,,,,,,,3.81,0.514068841934,0.00114679336548,0.500862121582,1,q,1023.49755812,,,,,,,,,,,,,,,,,,,,,,,,,,,,,,,,,,,,,,,,,,,,,,,,,,,,,,,2015_Jun_24_1041,59.7414524923,LearningTask,1,20,
200,s,-200,,,,,,,,,,,,,,,,,2,0,2,0,11,0,44,2,,,,,,,,,,,,,,,,,,,,,,,,,,,,,s,1,0.467420101166,None,0,0.5,circlecyan.gif,go,,,,,,,,,,,,,,,,,,,,,,,,0.54,0.514512062073,0.000883102416992,0.467420101166,1,s,1026.50098801,,,,,,,,,,,,,,,,,,,,,,,,,,,,,,,,,,,,,,,,,,,,,,,,,,,,,,,2015_Jun_24_1041,59.7414524923,LearningTask,1,20,
-200,q,200,,,,,,,,,,,,,,,,,2,0,2,0,11,1,45,1,,,,,,,,,,,,,,,,,,,,,,,,,,,,,q,1,0.451215028763,None,0,4.0,crosswhite.gif,go,,,,,,,,,,,,,,,,,,,,,,,,4.08,0.514073848724,0.000886917114258,0.451215028763,1,q,1029.5044601,,,,,,,,,,,,,,,,,,,,,,,,,,,,,,,,,,,,,,,,,,,,,,,,,,,,,,,2015_Jun_24_1041,59.7414524923,LearningTask,1,20,
200,w,200,,,,,,,,,,,,,,,,,2,0,2,0,11,2,46,0,,,,,,,,,,,,,,,,,,,,,,,,,,,,,w,1,0.417840957642,None,0,0.5,hexagonyellow.gif,stop,,,,,,,,,,,,,,,,,,,,,,,,0.52,0.514189004898,0.000887155532837,0.417840957642,1,w,1032.5076561,,,,,,,,,,,,,,,,,,,,,,,,,,,,,,,,,,,,,,,,,,,,,,,,,,,,,,,2015_Jun_24_1041,59.7414524923,LearningTask,1,20,
-200,q,200,,,,,,,,,,,,,,,,,2,0,2,0,11,3,47,1,,,,,,,,,,,,,,,,,,,,,,,,,,,,,q,1,0.417720079422,None,0,4.0,crosswhite.gif,go,,,,,,,,,,,,,,,,,,,,,,,,3.84,0.514326095581,0.00094199180603,0.417720079422,1,q,1035.51070619,,,,,,,,,,,,,,,,,,,,,,,,,,,,,,,,,,,,,,,,,,,,,,,,,,,,,,,2015_Jun_24_1041,59.7414524923,LearningTask,1,20,
-200,a,-200,,,,,,,,,,,,,,,,,2,0,2,0,12,0,48,3,,,,,,,,,,,,,,,,,,,,,,,,,,,,,a,1,0.450904846191,None,0,4.0,crosswhite.gif,go,,,,,,,,,,,,,,,,,,,,,,,,3.79,0.51460814476,0.000874042510986,0.450904846191,1,a,1038.51463318,,,,,,,,,,,,,,,,,,,,,,,,,,,,,,,,,,,,,,,,,,,,,,,,,,,,,,,2015_Jun_24_1041,59.7414524923,LearningTask,1,20,
-200,q,200,,,,,,,,,,,,,,,,,2,0,2,0,12,1,49,1,,,,,,,,,,,,,,,,,,,,,,,,,,,,,q,1,0.367245912552,None,0,1.0,squaremagenta.gif,stop,,,,,,,,,,,,,,,,,,,,,,,,1.03,0.514075994492,0.000870943069458,0.367245912552,1,q,1041.51769805,,,,,,,,,,,,,,,,,,,,,,,,,,,,,,,,,,,,,,,,,,,,,,,,,,,,,,,2015_Jun_24_1041,59.7414524923,LearningTask,1,20,
-200,q,200,,,,,,,,,,,,,,,,,2,0,2,0,12,2,50,1,,,,,,,,,,,,,,,,,,,,,,,,,,,,,q,1,0.433463096619,None,0,2.0,diamondorange.gif,stop,,,,,,,,,,,,,,,,,,,,,,,,2.22,0.514726877213,0.000956773757935,0.433463096619,1,q,1044.52115107,,,,,,,,,,,,,,,,,,,,,,,,,,,,,,,,,,,,,,,,,,,,,,,,,,,,,,,2015_Jun_24_1041,59.7414524923,LearningTask,1,20,
200,s,-200,,,,,,,,,,,,,,,,,2,0,2,0,12,3,51,2,,,,,,,,,,,,,,,,,,,,,,,,,,,,,s,1,0.584177017212,None,0,4.0,linegreen.gif,stop,,,,,,,,,,,,,,,,,,,,,,,,3.85,0.514339923859,0.000878095626831,0.584177017212,1,s,1047.52468514,,,,,,,,,,,,,,,,,,,,,,,,,,,,,,,,,,,,,,,,,,,,,,,,,,,,,,,2015_Jun_24_1041,59.7414524923,LearningTask,1,20,
-200,a,-200,,,,,,,,,,,,,,,,,2,0,2,0,13,0,52,3,,,,,,,,,,,,,,,,,,,,,,,,,,,,,a,1,0.434208154678,None,0,0.5,hexagonyellow.gif,stop,,,,,,,,,,,,,,,,,,,,,,,,0,0.513934135437,0.000879049301147,0.434208154678,1,a,1050.52765608,,,,,,,,,,,,,,,,,,,,,,,,,,,,,,,,,,,,,,,,,,,,,,,,,,,,,,,2015_Jun_24_1041,59.7414524923,LearningTask,1,20,
-200,a,-200,,,,,,,,,,,,,,,,,2,0,2,0,13,1,53,3,,,,,,,,,,,,,,,,,,,,,,,,,,,,,a,1,0.634783029556,None,0,4.0,linegreen.gif,stop,,,,,,,,,,,,,,,,,,,,,,,,4.19,0.514029979706,0.00105500221252,0.634783029556,1,a,1053.53101897,,,,,,,,,,,,,,,,,,,,,,,,,,,,,,,,,,,,,,,,,,,,,,,,,,,,,,,2015_Jun_24_1041,59.7414524923,LearningTask,1,20,
200,w,200,,,,,,,,,,,,,,,,,2,0,2,0,13,2,54,0,,,,,,,,,,,,,,,,,,,,,,,,,,,,,w,1,0.50084400177,None,0,0.5,circlecyan.gif,go,,,,,,,,,,,,,,,,,,,,,,,,0.69,0.514377117157,0.000885963439941,0.50084400177,1,w,1056.53446698,,,,,,,,,,,,,,,,,,,,,,,,,,,,,,,,,,,,,,,,,,,,,,,,,,,,,,,2015_Jun_24_1041,59.7414524923,LearningTask,1,20,
-200,q,200,,,,,,,,,,,,,,,,,2,0,2,0,13,3,55,1,,,,,,,,,,,,,,,,,,,,,,,,,,,,,q,1,0.417254209518,None,0,2.0,diamondorange.gif,stop,,,,,,,,,,,,,,,,,,,,,,,,2.19,0.514513969421,0.000888109207153,0.417254209518,1,q,1059.5379591,,,,,,,,,,,,,,,,,,,,,,,,,,,,,,,,,,,,,,,,,,,,,,,,,,,,,,,2015_Jun_24_1041,59.7414524923,LearningTask,1,20,
200,s,-200,,,,,,,,,,,,,,,,,2,0,2,0,14,0,56,2,,,,,,,,,,,,,,,,,,,,,,,,,,,,,s,1,0.517865180969,None,0,2.0,invertedtriangleblue.gif,go,,,,,,,,,,,,,,,,,,,,,,,,0,0.514059782028,0.000922918319702,0.517865180969,1,s,1062.5411551,,,,,,,,,,,,,,,,,,,,,,,,,,,,,,,,,,,,,,,,,,,,,,,,,,,,,,,2015_Jun_24_1041,59.7414524923,LearningTask,1,20,
-200,a,-200,,,,,,,,,,,,,,,,,2,0,2,0,14,1,57,3,,,,,,,,,,,,,,,,,,,,,,,,,,,,,a,1,0.367537975311,None,0,2.0,diamondorange.gif,stop,,,,,,,,,,,,,,,,,,,,,,,,0,0.514440774918,0.000868797302246,0.600769996643,0,q,1065.54485607,1.99,0.514965057373,0.00097918510437,0.367537975311,1,a,1068.54810905,,,,,,,,,,,,,,,,,,,,,,,,,,,,,,,,,,,,,,,,,,,,,,,,2015_Jun_24_1041,59.7414524923,LearningTask,1,20,
-200,a,-200,,,,,,,,,,,,,,,,,2,0,2,0,14,2,58,3,,,,,,,,,,,,,,,,,,,,,,,,,,,,,a,1,0.400763988495,None,0,1.0,squaremagenta.gif,stop,,,,,,,,,,,,,,,,,,,,,,,,0,0.514065027237,0.000883817672729,0.400763988495,1,a,1071.55117917,,,,,,,,,,,,,,,,,,,,,,,,,,,,,,,,,,,,,,,,,,,,,,,,,,,,,,,2015_Jun_24_1041,59.7414524923,LearningTask,1,20,
-200,q,200,,,,,,,,,,,,,,,,,2,0,2,0,14,3,59,1,,,,,,,,,,,,,,,,,,,,,,,,,,,,,q,1,0.501404047012,None,0,4.0,crosswhite.gif,go,,,,,,,,,,,,,,,,,,,,,,,,3.8,0.514150857925,0.00088095664978,0.501404047012,1,q,1074.55449104,,,,,,,,,,,,,,,,,,,,,,,,,,,,,,,,,,,,,,,,,,,,,,,,,,,,,,,2015_Jun_24_1041,59.7414524923,LearningTask,1,20,
200,w,200,,,,,,,,,,,,,,,,,2,0,2,0,15,0,60,0,,,,,,,,,,,,,,,,,,,,,,,,,,,,,w,1,0.517720937729,None,0,4.0,linegreen.gif,stop,,,,,,,,,,,,,,,,,,,,,,,,3.77,0.514472007751,0.000905990600586,0.517720937729,1,w,1077.55819511,,,,,,,,,,,,,,,,,,,,,,,,,,,,,,,,,,,,,,,,,,,,,,,,,,,,,,,2015_Jun_24_1041,59.7414524923,LearningTask,1,20,
-200,q,200,,,,,,,,,,,,,,,,,2,0,2,0,15,1,61,1,,,,,,,,,,,,,,,,,,,,,,,,,,,,,q,1,0.450953006744,None,0,2.0,diamondorange.gif,stop,,,,,,,,,,,,,,,,,,,,,,,,1.95,0.5140209198,0.000873804092407,0.450953006744,1,q,1080.56136298,,,,,,,,,,,,,,,,,,,,,,,,,,,,,,,,,,,,,,,,,,,,,,,,,,,,,,,2015_Jun_24_1041,59.7414524923,LearningTask,1,20,
200,s,-200,,,,,,,,,,,,,,,,,2,0,2,0,15,2,62,2,,,,,,,,,,,,,,,,,,,,,,,,,,,,,s,1,0.584227085114,None,0,0.5,circlecyan.gif,go,,,,,,,,,,,,,,,,,,,,,,,,0,0.51424908638,0.000898122787476,0.584227085114,1,s,1083.56441498,,,,,,,,,,,,,,,,,,,,,,,,,,,,,,,,,,,,,,,,,,,,,,,,,,,,,,,2015_Jun_24_1041,59.7414524923,LearningTask,1,20,
-200,q,200,,,,,,,,,,,,,,,,,2,0,2,0,15,3,63,1,,,,,,,,,,,,,,,,,,,,,,,,,,,,,q,1,0.484134912491,None,0,4.0,linegreen.gif,stop,,,,,,,,,,,,,,,,,,,,,,,,0,0.514690876007,0.000875949859619,0.484134912491,1,q,1086.56808209,,,,,,,,,,,,,,,,,,,,,,,,,,,,,,,,,,,,,,,,,,,,,,,,,,,,,,,2015_Jun_24_1041,59.7414524923,LearningTask,1,20,
200,w,200,,,,,,,,,,,,,,,,,2,0,2,0,16,0,64,0,,,,,,,,,,,,,,,,,,,,,,,,,,,,,w,1,0.451574087143,None,0,4.0,linegreen.gif,stop,,,,,,,,,,,,,,,,,,,,,,,,4.12,0.514008998871,0.000866174697876,0.451574087143,1,w,1089.57142019,,,,,,,,,,,,,,,,,,,,,,,,,,,,,,,,,,,,,,,,,,,,,,,,,,,,,,,2015_Jun_24_1041,59.7414524923,LearningTask,1,20,
-200,q,200,,,,,,,,,,,,,,,,,2,0,2,0,16,1,65,1,,,,,,,,,,,,,,,,,,,,,,,,,,,,,q,1,0.667418003082,None,0,4.0,crosswhite.gif,go,,,,,,,,,,,,,,,,,,,,,,,,0,0.514381885529,0.000974893569946,0.667418003082,1,q,1092.57475019,,,,,,,,,,,,,,,,,,,,,,,,,,,,,,,,,,,,,,,,,,,,,,,,,,,,,,,2015_Jun_24_1041,59.7414524923,LearningTask,1,20,
200,w,200,,,,,,,,,,,,,,,,,2,0,2,0,16,2,66,0,,,,,,,,,,,,,,,,,,,,,,,,,,,,,w,1,0.534371852875,None,0,2.0,diamondorange.gif,stop,,,,,,,,,,,,,,,,,,,,,,,,1.83,0.514199972153,0.000875949859619,0.534371852875,1,w,1095.57812715,,,,,,,,,,,,,,,,,,,,,,,,,,,,,,,,,,,,,,,,,,,,,,,,,,,,,,,2015_Jun_24_1041,59.7414524923,LearningTask,1,20,
200,s,-200,,,,,,,,,,,,,,,,,2,0,2,0,16,3,67,2,,,,,,,,,,,,,,,,,,,,,,,,,,,,,s,1,0.46738409996,None,0,2.0,invertedtriangleblue.gif,go,,,,,,,,,,,,,,,,,,,,,,,,2.1,0.514302968979,0.000874042510986,0.46738409996,1,s,1098.58142519,,,,,,,,,,,,,,,,,,,,,,,,,,,,,,,,,,,,,,,,,,,,,,,,,,,,,,,2015_Jun_24_1041,59.7414524923,LearningTask,1,20,
200,s,-200,,,,,,,,,,,,,,,,,2,0,2,0,17,0,68,2,,,,,,,,,,,,,,,,,,,,,,,,,,,,,s,1,0.40144610405,None,0,2.0,diamondorange.gif,stop,,,,,,,,,,,,,,,,,,,,,,,,2.07,0.514017105103,0.00105404853821,0.40144610405,1,s,1101.58455801,,,,,,,,,,,,,,,,,,,,,,,,,,,,,,,,,,,,,,,,,,,,,,,,,,,,,,,2015_Jun_24_1041,59.7414524923,LearningTask,1,20,
200,w,200,,,,,,,,,,,,,,,,,2,0,2,0,17,1,69,0,,,,,,,,,,,,,,,,,,,,,,,,,,,,,w,1,0.584352970123,None,0,2.0,diamondorange.gif,stop,,,,,,,,,,,,,,,,,,,,,,,,1.89,0.514447927475,0.000884056091309,0.584352970123,1,w,1104.58827901,,,,,,,,,,,,,,,,,,,,,,,,,,,,,,,,,,,,,,,,,,,,,,,,,,,,,,,2015_Jun_24_1041,59.7414524923,LearningTask,1,20,
200,s,-200,,,,,,,,,,,,,,,,,2,0,2,0,17,2,70,2,,,,,,,,,,,,,,,,,,,,,,,,,,,,,s,1,0.450633049011,None,0,0.5,circlecyan.gif,go,,,,,,,,,,,,,,,,,,,,,,,,0,0.514455080032,0.000885009765625,0.450633049011,1,s,1107.59162617,,,,,,,,,,,,,,,,,,,,,,,,,,,,,,,,,,,,,,,,,,,,,,,,,,,,,,,2015_Jun_24_1041,59.7414524923,LearningTask,1,20,
200,s,-200,,,,,,,,,,,,,,,,,2,0,2,0,17,3,71,2,,,,,,,,,,,,,,,,,,,,,,,,,,,,,s,1,0.50087594986,None,0,4.0,linegreen.gif,stop,,,,,,,,,,,,,,,,,,,,,,,,0,0.514069080353,0.000884056091309,0.50087594986,1,s,1110.59508204,,,,,,,,,,,,,,,,,,,,,,,,,,,,,,,,,,,,,,,,,,,,,,,,,,,,,,,2015_Jun_24_1041,59.7414524923,LearningTask,1,20,
-200,a,-200,,,,,,,,,,,,,,,,,2,0,2,0,18,0,72,3,,,,,,,,,,,,,,,,,,,,,,,,,,,,,a,1,0.734624147415,None,0,4.0,crosswhite.gif,go,,,,,,,,,,,,,,,,,,,,,,,,4.23,0.513876914978,0.000899076461792,0.734624147415,1,a,1113.59806418,,,,,,,,,,,,,,,,,,,,,,,,,,,,,,,,,,,,,,,,,,,,,,,,,,,,,,,2015_Jun_24_1041,59.7414524923,LearningTask,1,20,
-200,a,-200,,,,,,,,,,,,,,,,,2,0,2,0,18,1,73,3,,,,,,,,,,,,,,,,,,,,,,,,,,,,,a,1,0.534534931183,None,0,0.5,circlecyan.gif,go,,,,,,,,,,,,,,,,,,,,,,,,0.72,0.514314174652,0.000874042510986,0.534534931183,1,a,1116.60171509,,,,,,,,,,,,,,,,,,,,,,,,,,,,,,,,,,,,,,,,,,,,,,,,,,,,,,,2015_Jun_24_1041,59.7414524923,LearningTask,1,20,
200,w,200,,,,,,,,,,,,,,,,,2,0,2,0,18,2,74,0,,,,,,,,,,,,,,,,,,,,,,,,,,,,,w,1,0.501074075699,None,0,2.0,diamondorange.gif,stop,,,,,,,,,,,,,,,,,,,,,,,,1.89,0.514181137085,0.000884056091309,0.501074075699,1,w,1119.60479999,,,,,,,,,,,,,,,,,,,,,,,,,,,,,,,,,,,,,,,,,,,,,,,,,,,,,,,2015_Jun_24_1041,59.7414524923,LearningTask,1,20,
-200,a,-200,,,,,,,,,,,,,,,,,2,0,2,0,18,3,75,3,,,,,,,,,,,,,,,,,,,,,,,,,,,,,a,1,0.4680519104,None,0,0.5,hexagonyellow.gif,stop,,,,,,,,,,,,,,,,,,,,,,,,0.62,0.514278173447,0.000880002975464,0.4680519104,1,a,1122.60834098,,,,,,,,,,,,,,,,,,,,,,,,,,,,,,,,,,,,,,,,,,,,,,,,,,,,,,,2015_Jun_24_1041,59.7414524923,LearningTask,1,20,
-200,a,-200,,,,,,,,,,,,,,,,,2,0,2,0,19,0,76,3,,,,,,,,,,,,,,,,,,,,,,,,,,,,,a,1,0.484416007996,None,0,1.0,squaremagenta.gif,stop,,,,,,,,,,,,,,,,,,,,,,,,1.09,0.514209032059,0.000962018966675,0.484416007996,1,a,1125.61179805,,,,,,,,,,,,,,,,,,,,,,,,,,,,,,,,,,,,,,,,,,,,,,,,,,,,,,,2015_Jun_24_1041,59.7414524923,LearningTask,1,20,
200,s,-200,,,,,,,,,,,,,,,,,2,0,2,0,19,1,77,2,,,,,,,,,,,,,,,,,,,,,,,,,,,,,s,1,0.484152078629,None,0,4.0,crosswhite.gif,go,,,,,,,,,,,,,,,,,,,,,,,,4.25,0.51420712471,0.000876188278198,0.484152078629,1,s,1128.6149621,,,,,,,,,,,,,,,,,,,,,,,,,,,,,,,,,,,,,,,,,,,,,,,,,,,,,,,2015_Jun_24_1041,59.7414524923,LearningTask,1,20,
200,s,-200,,,,,,,,,,,,,,,,,2,0,2,0,19,2,78,2,,,,,,,,,,,,,,,,,,,,,,,,,,,,,s,1,0.521798849106,None,0,4.0,linegreen.gif,stop,,,,,,,,,,,,,,,,,,,,,,,,3.75,0.514467954636,0.00087308883667,0.521798849106,1,s,1131.61813116,,,,,,,,,,,,,,,,,,,,,,,,,,,,,,,,,,,,,,,,,,,,,,,,,,,,,,,2015_Jun_24_1041,59.7414524923,LearningTask,1,20,
