xPos,corrAns,yPos,corrGoResp,yPosGoStim,xPosGoStim,pracTrials.thisRepN,pracTrials.thisTrialN,pracTrials.thisN,pracTrials.thisIndex,ReDoLoopPrac.thisRepN,ReDoLoopPrac.thisTrialN,ReDoLoopPrac.thisN,ReDoLoopPrac.thisIndex,ReDoLoopPrac.thisTrial,pracStopTrials.thisRepN,pracStopTrials.thisTrialN,pracStopTrials.thisN,pracStopTrials.thisIndex,Blocks.thisRepN,Blocks.thisTrialN,Blocks.thisN,Blocks.thisIndex,trials.thisRepN,trials.thisTrialN,trials.thisN,trials.thisIndex,ReDoLoopMain.thisRepN,ReDoLoopMain.thisTrialN,ReDoLoopMain.thisN,ReDoLoopMain.thisIndex,ReDoLoopMain.thisTrial,StopBlocks.thisRepN,StopBlocks.thisTrialN,StopBlocks.thisN,StopBlocks.thisIndex,StopTrials.thisRepN,StopTrials.thisTrialN,StopTrials.thisN,StopTrials.thisIndex,auctionBlocks.thisRepN,auctionBlocks.thisTrialN,auctionBlocks.thisN,auctionBlocks.thisIndex,auctionTrials.thisRepN,auctionTrials.thisTrialN,auctionTrials.thisN,auctionTrials.thisIndex,learningTrialList,learningPracTrialList,stopTrialList,stopPracTrialList,auctionTrialList,ok1.keys,ok1.rt,resp.keys,resp.corr,resp.rt,feedbackResp.keys,feedbackResp.corr,currentReward,currentStimulus,currentStimType,firstPracComputedRewardOutput,firstPracLearningStimOnset,firstPracLearningFixOnset,firstPracPresentationRT,firstPracPresentationAcc,firstPracPresentationResp,firstPracEndTrialTimeStamp,StartTrialTimeStamp,trialType,goStim,stimType,stopStimValue,goResp.keys,goResp.corr,key_resp_9.keys,key_resp_9.corr,fixStopOnset,goStimOnset,stopSignalOnset,EndTrialTimeStamp,goResp.rt,key_resp_3.keys,key_resp_3.rt,firstComputedRewardOutput,firstLearningStimOnset,firstLearningFixOnset,firstPresentationRT,firstPresentationAcc,firstPresentationResp,firstEndTrialTimeStamp,secondComputedRewardOutput,secondLearningStimOnset,secondLearningFixOnset,secondPresentationRT,secondPresentationAcc,secondPresentationResp,secondEndTrialTimeStamp,key_resp_7.keys,key_resp_7.rt,thirdComputedRewardOutput,thirdLearningStimOnset,thirdLearningFixOnset,thirdPresentationRT,thirdPresentationAcc,thirdPresentationResp,thirdEndTrialTimeStamp,feedbackResp.rt,beginningSSD,EndingSSD,key_resp_9.rt,key_resp_4.keys,key_resp_4.rt,auctionResponse.keys,auctionStimDuration,auctionStim,auctionAmounts,auctionStimValue,auctionCondition,chosenAuctionAmount,auctionResponse.rt,key_resp_5.keys,key_resp_5.rt,shuffledRewardList,chosenReward1,chosenReward2,chosenReward3,chosenReward4,chosenReward5,key_resp_6.keys,key_resp_6.rt,date,frameRate,expName,session,participant,
,,,,,,,,,,,,,,,,,,,,,,,,,,,,,,,,,,,,,,,,,,,,,,,,[],[],[],[],[],9,62.7483360767,,,,,,,,,,,,,,,,,,,,,,,,,,,,,,,,,,,,,,,,,,,,,,,,,,,,,,,,,,,,,,,,,,,,,,,,,,,,,,,2015_Jun_23_1104,59.9247922643,LearningTask,1,38,
200,w,200,,,,0,0,0,4,,,,,,,,,,,,,,,,,,,,,,,,,,,,,,,,,,,,,,,,,,,,,,w,1,0.634305000305,None,0,2.0,circlecyan.gif,go,1.79,0.507217884064,0.00401782989502,0.634305000305,1,w,81.6682069302,,,,,,,,,,,,,,,,,,,,,,,,,,,,,,,,,,,,,,,,,,,,,,,,,,,,,,,,,,,,,,,,2015_Jun_23_1104,59.9247922643,LearningTask,1,38,
200,s,-200,,,,0,1,1,6,,,,,,,,,,,,,,,,,,,,,,,,,,,,,,,,,,,,,,,,,,,,,,s,1,0.434666156769,None,0,0.5,trianglemagenta.gif,go,0.58,0.514339923859,0.000940084457397,0.434666156769,1,s,84.6709930897,,,,,,,,,,,,,,,,,,,,,,,,,,,,,,,,,,,,,,,,,,,,,,,,,,,,,,,,,,,,,,,,2015_Jun_23_1104,59.9247922643,LearningTask,1,38,
-200,a,-200,,,,0,2,2,3,,,,,,,,,,,,,,,,,,,,,,,,,,,,,,,,,,,,,,,,,,,,,,a,1,0.450843095779,None,0,2.0,squarewhite.gif,stop,1.89,0.515357017517,0.00129890441895,0.450843095779,1,a,87.6745350361,,,,,,,,,,,,,,,,,,,,,,,,,,,,,,,,,,,,,,,,,,,,,,,,,,,,,,,,,,,,,,,,2015_Jun_23_1104,59.9247922643,LearningTask,1,38,
-200,q,200,,,,0,3,3,5,,,,,,,,,,,,,,,,,,,,,,,,,,,,,,,,,,,,,,,,,,,,,,q,1,0.267215967178,None,0,0.5,hexagonorange.gif,stop,0.52,0.515133857727,0.00133299827576,0.267215967178,1,q,90.6779720783,,,,,,,,,,,,,,,,,,,,,,,,,,,,,,,,,,,,,,,,,,,,,,,,,,,,,,,,,,,,,,,,2015_Jun_23_1104,59.9247922643,LearningTask,1,38,
-200,a,-200,,,,0,4,4,7,,,,,,,,,,,,,,,,,,,,,,,,,,,,,,,,,,,,,,,,,,,,,,a,1,0.351135969162,None,0,0.5,trianglemagenta.gif,go,0.51,0.514562129974,0.000925064086914,0.351135969162,1,a,93.681196928,,,,,,,,,,,,,,,,,,,,,,,,,,,,,,,,,,,,,,,,,,,,,,,,,,,,,,,,,,,,,,,,2015_Jun_23_1104,59.9247922643,LearningTask,1,38,
-200,q,200,,,,0,5,5,9,,,,,,,,,,,,,,,,,,,,,,,,,,,,,,,,,,,,,,,,,,,,,,q,1,0.401434898376,None,0,1.0,diamondgray.gif,stop,0,0.514981985092,0.00129985809326,0.401434898376,1,q,96.6844439507,,,,,,,,,,,,,,,,,,,,,,,,,,,,,,,,,,,,,,,,,,,,,,,,,,,,,,,,,,,,,,,,2015_Jun_23_1104,59.9247922643,LearningTask,1,38,
-200,q,200,,,,0,6,6,1,,,,,,,,,,,,,,,,,,,,,,,,,,,,,,,,,,,,,,,,,,,,,,q,1,0.434543848038,None,0,4.0,invertedtriangleblue.gif,go,3.81,0.51530790329,0.000921010971069,0.434543848038,1,q,99.6878950596,,,,,,,,,,,,,,,,,,,,,,,,,,,,,,,,,,,,,,,,,,,,,,,,,,,,,,,,,,,,,,,,2015_Jun_23_1104,59.9247922643,LearningTask,1,38,
200,s,-200,,,,0,7,7,2,,,,,,,,,,,,,,,,,,,,,,,,,,,,,,,,,,,,,,,,,,,,,,s,1,0.467075824738,None,0,4.0,lineyellow.gif,stop,3.9,0.515599966049,0.00128602981567,0.467075824738,1,s,102.691220045,,,,,,,,,,,,,,,,,,,,,,,,,,,,,,,,,,,,,,,,,,,,,,,,,,,,,,,,,,,,,,,,2015_Jun_23_1104,59.9247922643,LearningTask,1,38,
200,w,200,,,,0,8,8,0,,,,,,,,,,,,,,,,,,,,,,,,,,,,,,,,,,,,,,,,,,,,,,w,1,0.300763130188,None,0,0.5,hexagonorange.gif,stop,0.46,0.515079021454,0.00090217590332,0.300763130188,1,w,105.694336891,,,,,,,,,,,,,,,,,,,,,,,,,,,,,,,,,,,,,,,,,,,,,,,,,,,,,,,,,,,,,,,,2015_Jun_23_1104,59.9247922643,LearningTask,1,38,
200,w,200,,,,0,9,9,8,,,,,,,,,,,,,,,,,,,,,,,,,,,,,,,,,,,,,,,,,,,,,,w,1,0.384168863297,None,0,4.0,invertedtriangleblue.gif,go,4.04,0.515281200409,0.0010449886322,0.384168863297,1,w,108.6980021,,,,,,,,,,,,,,,,,,,,,,,,,,,,,,,,,,,,,,,,,,,,,,,,,,,,,,,,,,,,,,,,2015_Jun_23_1104,59.9247922643,LearningTask,1,38,
,,,z,0,-200,,,,,,,,,,0,0,0,0,,,,,,,,,,,,,,,,,,,,,,,,,,,,,,,,,,,,,,,,,,,,,,,,,,,,152.835865974,stop,squarewhite.gif,stop,2.0,None,0,None,0,0.0012218952179,0.510282993317,0.760618925095,155.834214926,,,,,,,,,,,,,,,,,,,,,,,,,,,,,,,,,,,,,,,,,,,,,,,,,,,2015_Jun_23_1104,59.9247922643,LearningTask,1,38,
,,,z,0,-200,,,,,,,,,,0,1,1,0,,,,,,,,,,,,,,,,,,,,,,,,,,,,,,,,,,,,,,,,,,,,,,,,,,,,155.834605932,stop,lineyellow.gif,stop,4.0,z,1,None,0,0.000947952270508,0.515552997589,0.76526594162,158.836919069,0.417117834091,,,,,,,,,,,,,,,,,,,,,,,,,,,,,,,,,,,,,,,,,,,,,,,,,,2015_Jun_23_1104,59.9247922643,LearningTask,1,38,
,,,z,0,-200,,,,,,,,,,1,0,2,0,,,,,,,,,,,,,,,,,,,,,,,,,,,,,,,,,,,,,,,,,,,,,,,,,,,,158.837315083,stop,hexagonorange.gif,stop,0.5,z,1,None,0,0.0010039806366,0.515880823135,0.766336917877,161.840734005,0.401005029678,,,,,,,,,,,,,,,,,,,,,,,,,,,,,,,,,,,,,,,,,,,,,,,,,,2015_Jun_23_1104,59.9247922643,LearningTask,1,38,
,,,m,0,200,,,,,,,,,,1,1,3,1,,,,,,,,,,,,,,,,,,,,,,,,,,,,,,,,,,,,,,,,,,,,,,,,,,,,161.841096878,stop,squarewhite.gif,stop,2.0,m,1,None,0,0.000939846038818,0.515431880951,0.766055822372,164.843810081,0.384707927704,,,,,,,,,,,,,,,,,,,,,,,,,,,,,,,,,,,,,,,,,,,,,,,,,,2015_Jun_23_1104,59.9247922643,LearningTask,1,38,
,,,z,0,-200,,,,,,,,,,2,0,4,0,,,,,,,,,,,,,,,,,,,,,,,,,,,,,,,,,,,,,,,,,,,,,,,,,,,,164.844170094,go,trianglemagenta.gif,go,0.5,z,1,None,0,0.00107789039612,0.5160779953,,167.847110033,0.533885002136,,,,,,,,,,,,,,,,,,,,,,,,,,,,,,,,,,,,,,,,,,,,,,,,,,2015_Jun_23_1104,59.9247922643,LearningTask,1,38,
,,,m,0,200,,,,,,,,,,2,1,5,1,,,,,,,,,,,,,,,,,,,,,,,,,,,,,,,,,,,,,,,,,,,,,,,,,,,,167.847472906,go,crossgreen.gif,go,1.0,m,1,None,0,0.00138306617737,0.515803098679,,170.850419998,0.568083047867,,,,,,,,,,,,,,,,,,,,,,,,,,,,,,,,,,,,,,,,,,,,,,,,,,2015_Jun_23_1104,59.9247922643,LearningTask,1,38,
,,,m,0,200,,,,,,,,,,3,0,6,1,,,,,,,,,,,,,,,,,,,,,,,,,,,,,,,,,,,,,,,,,,,,,,,,,,,,170.850780964,go,circlecyan.gif,go,2.0,m,1,None,0,0.000962018966675,0.515846014023,,173.85371995,0.784878015518,,,,,,,,,,,,,,,,,,,,,,,,,,,,,,,,,,,,,,,,,,,,,,,,,,2015_Jun_23_1104,59.9247922643,LearningTask,1,38,
,,,z,0,-200,,,,,,,,,,3,1,7,0,,,,,,,,,,,,,,,,,,,,,,,,,,,,,,,,,,,,,,,,,,,,,,,,,,,,173.854079962,stop,squarewhite.gif,stop,2.0,None,0,None,0,0.0010359287262,0.516101837158,0.766378879547,176.857225895,,,,,,,,,,,,,,,,,,,,,,,,,,,,,,,,,,,,,,,,,,,,,,,,,,,2015_Jun_23_1104,59.9247922643,LearningTask,1,38,
,,,m,0,200,,,,,,,,,,4,0,8,1,,,,,,,,,,,,,,,,,,,,,,,,,,,,,,,,,,,,,,,,,,,,,,,,,,,,176.857584953,stop,lineyellow.gif,stop,4.0,None,0,None,0,0.00114893913269,0.515618085861,0.766012907028,179.860368967,,,,,,,,,,,,,,,,,,,,,,,,,,,,,,,,,,,,,,,,,,,,,,,,,,,2015_Jun_23_1104,59.9247922643,LearningTask,1,38,
,,,m,0,200,,,,,,,,,,4,1,9,1,,,,,,,,,,,,,,,,,,,,,,,,,,,,,,,,,,,,,,,,,,,,,,,,,,,,179.860756874,go,trianglemagenta.gif,go,0.5,m,1,None,0,0.000951051712036,0.516015052795,,182.863728046,0.63463306427,,,,,,,,,,,,,,,,,,,,,,,,,,,,,,,,,,,,,,,,,,,,,,,,,,2015_Jun_23_1104,59.9247922643,LearningTask,1,38,
,,,,,,,,,,,,,,,,,,,,,,,,,,,,,,,,,,,,,,,,,,,,,,,,,,,,,,,,,,,,,,,,,,,,,,,,,,,,,,,,,,,,9,11.4949228764,,,,,,,,,,,,,,,,,,,,,,,,,,,,,,,,,,,,,,,,,,,,,,,,2015_Jun_23_1104,59.9247922643,LearningTask,1,38,
,,,,,,,,,,,,,,,,,,,,,,,,,,,,,,,,,,,,,,,,,,,,,,,,,,,,,9,19.7719101906,,,,,,,,,,,,,,,,,,,,,,,,,,,,,,,,,,,,,,,,,,,,,,,,,,,,,,,,,,,,,,,,,,,,,,,,,,,,,,,2015_Jun_23_1104,59.9247922643,LearningTask,1,38,
200,s,-200,,,,,,,,,,,,,,,,,0,0,0,0,0,0,0,2,,,,,,,,,,,,,,,,,,,,,,,,,,,,,s,1,0.534497976303,None,0,1.0,diamondgray.gif,stop,,,,,,,,,,,,,,,,,,,,,,,,0.98,0.508171081543,0.00102210044861,0.534497976303,1,s,217.27038908,,,,,,,,,,,,,,,,,,,,,,,,,,,,,,,,,,,,,,,,,2015_Jun_23_1104,59.9247922643,LearningTask,1,38,
200,w,200,,,,,,,,,,,,,,,,,0,0,0,0,0,1,1,0,,,,,,,,,,,,,,,,,,,,,,,,,,,,,w,1,0.433884143829,None,0,0.5,trianglemagenta.gif,go,,,,,,,,,,,,,,,,,,,,,,,,0.52,0.513724803925,0.000893831253052,0.433884143829,1,w,220.273079872,,,,,,,,,,,,,,,,,,,,,,,,,,,,,,,,,,,,,,,,,2015_Jun_23_1104,59.9247922643,LearningTask,1,38,
200,s,-200,,,,,,,,,,,,,,,,,0,0,0,0,0,2,2,2,,,,,,,,,,,,,,,,,,,,,,,,,,,,,s,1,0.500746965408,None,0,1.0,crossgreen.gif,go,,,,,,,,,,,,,,,,,,,,,,,,0.87,0.514535188675,0.000893115997314,0.500746965408,1,s,223.276638031,,,,,,,,,,,,,,,,,,,,,,,,,,,,,,,,,,,,,,,,,2015_Jun_23_1104,59.9247922643,LearningTask,1,38,
200,s,-200,,,,,,,,,,,,,,,,,0,0,0,0,0,3,3,2,,,,,,,,,,,,,,,,,,,,,,,,,,,,,s,1,0.450967073441,None,0,4.0,lineyellow.gif,stop,,,,,,,,,,,,,,,,,,,,,,,,3.76,0.514176130295,0.000890016555786,0.450967073441,1,s,226.279769897,,,,,,,,,,,,,,,,,,,,,,,,,,,,,,,,,,,,,,,,,2015_Jun_23_1104,59.9247922643,LearningTask,1,38,
200,s,-200,,,,,,,,,,,,,,,,,0,0,0,0,1,0,4,2,,,,,,,,,,,,,,,,,,,,,,,,,,,,,s,1,0.401045084,None,0,1.0,diamondgray.gif,stop,,,,,,,,,,,,,,,,,,,,,,,,1.17,0.514447927475,0.000900983810425,0.401045084,1,s,229.283128977,,,,,,,,,,,,,,,,,,,,,,,,,,,,,,,,,,,,,,,,,2015_Jun_23_1104,59.9247922643,LearningTask,1,38,
-200,q,200,,,,,,,,,,,,,,,,,0,0,0,0,1,1,5,1,,,,,,,,,,,,,,,,,,,,,,,,,,,,,q,1,0.450904846191,None,0,4.0,invertedtriangleblue.gif,go,,,,,,,,,,,,,,,,,,,,,,,,4.1,0.514341115952,0.000962972640991,0.450904846191,1,q,232.286701918,,,,,,,,,,,,,,,,,,,,,,,,,,,,,,,,,,,,,,,,,2015_Jun_23_1104,59.9247922643,LearningTask,1,38,
-200,a,-200,,,,,,,,,,,,,,,,,0,0,0,0,1,2,6,3,,,,,,,,,,,,,,,,,,,,,,,,,,,,,a,1,0.401087999344,None,0,4.0,lineyellow.gif,stop,,,,,,,,,,,,,,,,,,,,,,,,3.99,0.514081001282,0.000890970230103,0.401087999344,1,a,235.289828062,,,,,,,,,,,,,,,,,,,,,,,,,,,,,,,,,,,,,,,,,2015_Jun_23_1104,59.9247922643,LearningTask,1,38,
-200,a,-200,,,,,,,,,,,,,,,,,0,0,0,0,1,3,7,3,,,,,,,,,,,,,,,,,,,,,,,,,,,,,a,1,0.617370128632,None,0,2.0,circlecyan.gif,go,,,,,,,,,,,,,,,,,,,,,,,,0,0.514356851578,0.00103187561035,0.617370128632,1,a,238.293354988,,,,,,,,,,,,,,,,,,,,,,,,,,,,,,,,,,,,,,,,,2015_Jun_23_1104,59.9247922643,LearningTask,1,38,
200,s,-200,,,,,,,,,,,,,,,,,0,0,0,0,2,0,8,2,,,,,,,,,,,,,,,,,,,,,,,,,,,,,s,1,0.501511096954,None,0,0.5,trianglemagenta.gif,go,,,,,,,,,,,,,,,,,,,,,,,,0.58,0.513827085495,0.000922918319702,0.501511096954,1,s,241.296465874,,,,,,,,,,,,,,,,,,,,,,,,,,,,,,,,,,,,,,,,,2015_Jun_23_1104,59.9247922643,LearningTask,1,38,
-200,q,200,,,,,,,,,,,,,,,,,0,0,0,0,2,1,9,1,,,,,,,,,,,,,,,,,,,,,,,,,,,,,q,1,0.367637872696,None,0,4.0,invertedtriangleblue.gif,go,,,,,,,,,,,,,,,,,,,,,,,,4.15,0.513826131821,0.000963926315308,0.367637872696,1,q,244.299890041,,,,,,,,,,,,,,,,,,,,,,,,,,,,,,,,,,,,,,,,,2015_Jun_23_1104,59.9247922643,LearningTask,1,38,
200,w,200,,,,,,,,,,,,,,,,,0,0,0,0,2,2,10,0,,,,,,,,,,,,,,,,,,,,,,,,,,,,,w,1,0.434448957443,None,0,1.0,diamondgray.gif,stop,,,,,,,,,,,,,,,,,,,,,,,,1.09,0.514055967331,0.00101494789124,0.434448957443,1,w,247.30348587,,,,,,,,,,,,,,,,,,,,,,,,,,,,,,,,,,,,,,,,,2015_Jun_23_1104,59.9247922643,LearningTask,1,38,
-200,q,200,,,,,,,,,,,,,,,,,0,0,0,0,2,3,11,1,,,,,,,,,,,,,,,,,,,,,,,,,,,,,q,1,0.401220798492,None,0,0.5,hexagonorange.gif,stop,,,,,,,,,,,,,,,,,,,,,,,,0.36,0.513915777206,0.000919818878174,0.401220798492,1,q,250.306588888,,,,,,,,,,,,,,,,,,,,,,,,,,,,,,,,,,,,,,,,,2015_Jun_23_1104,59.9247922643,LearningTask,1,38,
-200,q,200,,,,,,,,,,,,,,,,,0,0,0,0,3,0,12,1,,,,,,,,,,,,,,,,,,,,,,,,,,,,,q,1,0.417171955109,None,0,2.0,circlecyan.gif,go,,,,,,,,,,,,,,,,,,,,,,,,0,0.514594078064,0.00117993354797,0.417171955109,1,q,253.310080051,,,,,,,,,,,,,,,,,,,,,,,,,,,,,,,,,,,,,,,,,2015_Jun_23_1104,59.9247922643,LearningTask,1,38,
200,s,-200,,,,,,,,,,,,,,,,,0,0,0,0,3,1,13,2,,,,,,,,,,,,,,,,,,,,,,,,,,,,,s,1,0.500644922256,None,0,0.5,hexagonorange.gif,stop,,,,,,,,,,,,,,,,,,,,,,,,0.49,0.514127016068,0.000921964645386,0.500644922256,1,s,256.313440084,,,,,,,,,,,,,,,,,,,,,,,,,,,,,,,,,,,,,,,,,2015_Jun_23_1104,59.9247922643,LearningTask,1,38,
-200,q,200,,,,,,,,,,,,,,,,,0,0,0,0,3,2,14,1,,,,,,,,,,,,,,,,,,,,,,,,,,,,,q,1,0.384579896927,None,0,4.0,invertedtriangleblue.gif,go,,,,,,,,,,,,,,,,,,,,,,,,4.04,0.514154911041,0.00090479850769,0.384579896927,1,q,259.31684494,,,,,,,,,,,,,,,,,,,,,,,,,,,,,,,,,,,,,,,,,2015_Jun_23_1104,59.9247922643,LearningTask,1,38,
-200,q,200,,,,,,,,,,,,,,,,,0,0,0,0,3,3,15,1,,,,,,,,,,,,,,,,,,,,,,,,,,,,,q,1,0.601541996002,None,0,1.0,crossgreen.gif,go,,,,,,,,,,,,,,,,,,,,,,,,0,0.514134883881,0.000906944274902,0.601541996002,1,q,262.320425987,,,,,,,,,,,,,,,,,,,,,,,,,,,,,,,,,,,,,,,,,2015_Jun_23_1104,59.9247922643,LearningTask,1,38,
200,s,-200,,,,,,,,,,,,,,,,,0,0,0,0,4,0,16,2,,,,,,,,,,,,,,,,,,,,,,,,,,,,,s,1,0.384514093399,None,0,0.5,hexagonorange.gif,stop,,,,,,,,,,,,,,,,,,,,,,,,0.3,0.513852119446,0.000893115997314,0.384514093399,1,s,265.32339406,,,,,,,,,,,,,,,,,,,,,,,,,,,,,,,,,,,,,,,,,2015_Jun_23_1104,59.9247922643,LearningTask,1,38,
200,s,-200,,,,,,,,,,,,,,,,,0,0,0,0,4,1,17,2,,,,,,,,,,,,,,,,,,,,,,,,,,,,,s,1,0.417226076126,None,0,1.0,crossgreen.gif,go,,,,,,,,,,,,,,,,,,,,,,,,0.77,0.514616012573,0.000916004180908,0.417226076126,1,s,268.326752901,,,,,,,,,,,,,,,,,,,,,,,,,,,,,,,,,,,,,,,,,2015_Jun_23_1104,59.9247922643,LearningTask,1,38,
-200,a,-200,,,,,,,,,,,,,,,,,0,0,0,0,4,2,18,3,,,,,,,,,,,,,,,,,,,,,,,,,,,,,a,1,0.368017911911,None,0,4.0,invertedtriangleblue.gif,go,,,,,,,,,,,,,,,,,,,,,,,,3.85,0.514304161072,0.000960111618042,0.368017911911,1,a,271.330359936,,,,,,,,,,,,,,,,,,,,,,,,,,,,,,,,,,,,,,,,,2015_Jun_23_1104,59.9247922643,LearningTask,1,38,
-200,q,200,,,,,,,,,,,,,,,,,0,0,0,0,4,3,19,1,,,,,,,,,,,,,,,,,,,,,,,,,,,,,q,1,0.384453058243,None,0,0.5,hexagonorange.gif,stop,,,,,,,,,,,,,,,,,,,,,,,,0.66,0.513939857483,0.00119495391846,0.384453058243,1,q,274.333462954,,,,,,,,,,,,,,,,,,,,,,,,,,,,,,,,,,,,,,,,,2015_Jun_23_1104,59.9247922643,LearningTask,1,38,
-200,q,200,,,,,,,,,,,,,,,,,0,0,0,0,5,0,20,1,,,,,,,,,,,,,,,,,,,,,,,,,,,,,q,1,0.383994102478,None,0,4.0,invertedtriangleblue.gif,go,,,,,,,,,,,,,,,,,,,,,,,,3.77,0.514386892319,0.000910997390747,0.383994102478,1,q,277.336742878,,,,,,,,,,,,,,,,,,,,,,,,,,,,,,,,,,,,,,,,,2015_Jun_23_1104,59.9247922643,LearningTask,1,38,
-200,a,-200,,,,,,,,,,,,,,,,,0,0,0,0,5,1,21,3,,,,,,,,,,,,,,,,,,,,,,,,,,,,,a,1,0.400719881058,None,0,0.5,hexagonorange.gif,stop,,,,,,,,,,,,,,,,,,,,,,,,0.37,0.514466047287,0.000967025756836,0.400719881058,1,a,280.34027195,,,,,,,,,,,,,,,,,,,,,,,,,,,,,,,,,,,,,,,,,2015_Jun_23_1104,59.9247922643,LearningTask,1,38,
-200,a,-200,,,,,,,,,,,,,,,,,0,0,0,0,5,2,22,3,,,,,,,,,,,,,,,,,,,,,,,,,,,,,a,1,0.417572021484,None,0,2.0,circlecyan.gif,go,,,,,,,,,,,,,,,,,,,,,,,,2.08,0.514255046844,0.000890970230103,0.417572021484,1,a,283.343508959,,,,,,,,,,,,,,,,,,,,,,,,,,,,,,,,,,,,,,,,,2015_Jun_23_1104,59.9247922643,LearningTask,1,38,
200,w,200,,,,,,,,,,,,,,,,,0,0,0,0,5,3,23,0,,,,,,,,,,,,,,,,,,,,,,,,,,,,,w,1,0.367110967636,None,0,1.0,crossgreen.gif,go,,,,,,,,,,,,,,,,,,,,,,,,0,0.514626026154,0.0010449886322,0.367110967636,1,w,286.346668959,,,,,,,,,,,,,,,,,,,,,,,,,,,,,,,,,,,,,,,,,2015_Jun_23_1104,59.9247922643,LearningTask,1,38,
-200,q,200,,,,,,,,,,,,,,,,,0,0,0,0,6,0,24,1,,,,,,,,,,,,,,,,,,,,,,,,,,,,,q,1,0.384614944458,None,0,4.0,invertedtriangleblue.gif,go,,,,,,,,,,,,,,,,,,,,,,,,4.1,0.514250040054,0.00098705291748,0.384614944458,1,q,289.350208044,,,,,,,,,,,,,,,,,,,,,,,,,,,,,,,,,,,,,,,,,2015_Jun_23_1104,59.9247922643,LearningTask,1,38,
-200,q,200,,,,,,,,,,,,,,,,,0,0,0,0,6,1,25,1,,,,,,,,,,,,,,,,,,,,,,,,,,,,,q,1,0.350677013397,None,0,0.5,hexagonorange.gif,stop,,,,,,,,,,,,,,,,,,,,,,,,0.72,0.514488935471,0.000903129577637,0.350677013397,1,q,292.353578091,,,,,,,,,,,,,,,,,,,,,,,,,,,,,,,,,,,,,,,,,2015_Jun_23_1104,59.9247922643,LearningTask,1,38,
200,w,200,,,,,,,,,,,,,,,,,0,0,0,0,6,2,26,0,,,,,,,,,,,,,,,,,,,,,,,,,,,,,w,1,0.417619943619,None,0,1.0,diamondgray.gif,stop,,,,,,,,,,,,,,,,,,,,,,,,0,0.514024972916,0.00126695632935,0.417619943619,1,w,295.356867075,,,,,,,,,,,,,,,,,,,,,,,,,,,,,,,,,,,,,,,,,2015_Jun_23_1104,59.9247922643,LearningTask,1,38,
200,s,-200,,,,,,,,,,,,,,,,,0,0,0,0,6,3,27,2,,,,,,,,,,,,,,,,,,,,,,,,,,,,,s,1,0.484347105026,None,0,1.0,crossgreen.gif,go,,,,,,,,,,,,,,,,,,,,,,,,1.1,0.514379024506,0.000900983810425,0.484347105026,1,s,298.360270977,,,,,,,,,,,,,,,,,,,,,,,,,,,,,,,,,,,,,,,,,2015_Jun_23_1104,59.9247922643,LearningTask,1,38,
-200,q,200,,,,,,,,,,,,,,,,,0,0,0,0,7,0,28,1,,,,,,,,,,,,,,,,,,,,,,,,,,,,,q,1,0.334030866623,None,0,4.0,lineyellow.gif,stop,,,,,,,,,,,,,,,,,,,,,,,,3.98,0.514447212219,0.000901222229004,0.334030866623,1,q,301.363743067,,,,,,,,,,,,,,,,,,,,,,,,,,,,,,,,,,,,,,,,,2015_Jun_23_1104,59.9247922643,LearningTask,1,38,
200,s,-200,,,,,,,,,,,,,,,,,0,0,0,0,7,1,29,2,,,,,,,,,,,,,,,,,,,,,,,,,,,,,s,1,0.467326879501,None,0,0.5,trianglemagenta.gif,go,,,,,,,,,,,,,,,,,,,,,,,,0.29,0.514312028885,0.000907182693481,0.467326879501,1,s,304.36715889,,,,,,,,,,,,,,,,,,,,,,,,,,,,,,,,,,,,,,,,,2015_Jun_23_1104,59.9247922643,LearningTask,1,38,
200,w,200,,,,,,,,,,,,,,,,,0,0,0,0,7,2,30,0,,,,,,,,,,,,,,,,,,,,,,,,,,,,,w,1,0.367923974991,None,0,1.0,crossgreen.gif,go,,,,,,,,,,,,,,,,,,,,,,,,0,0.514001131058,0.000926971435547,0.367923974991,1,w,307.370385885,,,,,,,,,,,,,,,,,,,,,,,,,,,,,,,,,,,,,,,,,2015_Jun_23_1104,59.9247922643,LearningTask,1,38,
200,s,-200,,,,,,,,,,,,,,,,,0,0,0,0,7,3,31,2,,,,,,,,,,,,,,,,,,,,,,,,,,,,,s,1,0.517590999603,None,0,1.0,diamondgray.gif,stop,,,,,,,,,,,,,,,,,,,,,,,,1.17,0.514159917831,0.000918865203857,0.517590999603,1,s,310.374115944,,,,,,,,,,,,,,,,,,,,,,,,,,,,,,,,,,,,,,,,,2015_Jun_23_1104,59.9247922643,LearningTask,1,38,
-200,q,200,,,,,,,,,,,,,,,,,0,0,0,0,8,0,32,1,,,,,,,,,,,,,,,,,,,,,,,,,,,,,q,1,0.383751869202,None,0,4.0,lineyellow.gif,stop,,,,,,,,,,,,,,,,,,,,,,,,4.23,0.513906002045,0.000910997390747,0.383751869202,1,q,313.377301931,,,,,,,,,,,,,,,,,,,,,,,,,,,,,,,,,,,,,,,,,2015_Jun_23_1104,59.9247922643,LearningTask,1,38,
-200,a,-200,,,,,,,,,,,,,,,,,0,0,0,0,8,1,33,3,,,,,,,,,,,,,,,,,,,,,,,,,,,,,a,1,0.384327888489,None,0,4.0,invertedtriangleblue.gif,go,,,,,,,,,,,,,,,,,,,,,,,,0,0.513934135437,0.000891923904419,0.384327888489,1,a,316.380353928,,,,,,,,,,,,,,,,,,,,,,,,,,,,,,,,,,,,,,,,,2015_Jun_23_1104,59.9247922643,LearningTask,1,38,
-200,q,200,,,,,,,,,,,,,,,,,0,0,0,0,8,2,34,1,,,,,,,,,,,,,,,,,,,,,,,,,,,,,q,1,0.450864076614,None,0,4.0,lineyellow.gif,stop,,,,,,,,,,,,,,,,,,,,,,,,3.81,0.514662027359,0.000903844833374,0.450864076614,1,q,319.383998871,,,,,,,,,,,,,,,,,,,,,,,,,,,,,,,,,,,,,,,,,2015_Jun_23_1104,59.9247922643,LearningTask,1,38,
200,s,-200,,,,,,,,,,,,,,,,,0,0,0,0,8,3,35,2,,,,,,,,,,,,,,,,,,,,,,,,,,,,,s,1,0.584100008011,None,0,4.0,lineyellow.gif,stop,,,,,,,,,,,,,,,,,,,,,,,,0,0.514292955399,0.000905990600586,0.584100008011,1,s,322.387157917,,,,,,,,,,,,,,,,,,,,,,,,,,,,,,,,,,,,,,,,,2015_Jun_23_1104,59.9247922643,LearningTask,1,38,
-200,q,200,,,,,,,,,,,,,,,,,0,0,0,0,9,0,36,1,,,,,,,,,,,,,,,,,,,,,,,,,,,,,q,1,0.417896986008,None,0,4.0,lineyellow.gif,stop,,,,,,,,,,,,,,,,,,,,,,,,4.04,0.514370918274,0.000894069671631,0.417896986008,1,q,325.390469074,,,,,,,,,,,,,,,,,,,,,,,,,,,,,,,,,,,,,,,,,2015_Jun_23_1104,59.9247922643,LearningTask,1,38,
200,s,-200,,,,,,,,,,,,,,,,,0,0,0,0,9,1,37,2,,,,,,,,,,,,,,,,,,,,,,,,,,,,,s,1,0.601155996323,None,0,4.0,invertedtriangleblue.gif,go,,,,,,,,,,,,,,,,,,,,,,,,3.97,0.51424908638,0.000941038131714,0.601155996323,1,s,328.394079924,,,,,,,,,,,,,,,,,,,,,,,,,,,,,,,,,,,,,,,,,2015_Jun_23_1104,59.9247922643,LearningTask,1,38,
-200,a,-200,,,,,,,,,,,,,,,,,0,0,0,0,9,2,38,3,,,,,,,,,,,,,,,,,,,,,,,,,,,,,a,1,0.534294843674,None,0,2.0,circlecyan.gif,go,,,,,,,,,,,,,,,,,,,,,,,,2.07,0.513937950134,0.00096607208252,0.534294843674,1,a,331.397274017,,,,,,,,,,,,,,,,,,,,,,,,,,,,,,,,,,,,,,,,,2015_Jun_23_1104,59.9247922643,LearningTask,1,38,
200,s,-200,,,,,,,,,,,,,,,,,0,0,0,0,9,3,39,2,,,,,,,,,,,,,,,,,,,,,,,,,,,,,s,1,0.384184837341,None,0,1.0,crossgreen.gif,go,,,,,,,,,,,,,,,,,,,,,,,,1.0,0.514415979385,0.00124597549438,0.384184837341,1,s,334.400773048,,,,,,,,,,,,,,,,,,,,,,,,,,,,,,,,,,,,,,,,,2015_Jun_23_1104,59.9247922643,LearningTask,1,38,
200,w,200,,,,,,,,,,,,,,,,,0,0,0,0,10,0,40,0,,,,,,,,,,,,,,,,,,,,,,,,,,,,,w,1,0.668028116226,None,0,0.5,trianglemagenta.gif,go,,,,,,,,,,,,,,,,,,,,,,,,0.55,0.513900995255,0.00115513801575,0.668028116226,1,w,337.403882027,,,,,,,,,,,,,,,,,,,,,,,,,,,,,,,,,,,,,,,,,2015_Jun_23_1104,59.9247922643,LearningTask,1,38,
-200,a,-200,,,,,,,,,,,,,,,,,0,0,0,0,10,1,41,3,,,,,,,,,,,,,,,,,,,,,,,,,,,,,a,1,0.401061058044,None,0,1.0,diamondgray.gif,stop,,,,,,,,,,,,,,,,,,,,,,,,1.19,0.514363050461,0.000903129577637,0.401061058044,1,a,340.407422066,,,,,,,,,,,,,,,,,,,,,,,,,,,,,,,,,,,,,,,,,2015_Jun_23_1104,59.9247922643,LearningTask,1,38,
200,s,-200,,,,,,,,,,,,,,,,,0,0,0,0,10,2,42,2,,,,,,,,,,,,,,,,,,,,,,,,,,,,,s,1,0.400933027267,None,0,0.5,trianglemagenta.gif,go,,,,,,,,,,,,,,,,,,,,,,,,0.65,0.514031887054,0.00102186203003,0.400933027267,1,s,343.410573006,,,,,,,,,,,,,,,,,,,,,,,,,,,,,,,,,,,,,,,,,2015_Jun_23_1104,59.9247922643,LearningTask,1,38,
-200,q,200,,,,,,,,,,,,,,,,,0,0,0,0,10,3,43,1,,,,,,,,,,,,,,,,,,,,,,,,,,,,,q,1,0.334105014801,None,0,2.0,squarewhite.gif,stop,,,,,,,,,,,,,,,,,,,,,,,,0,0.514527797699,0.000890016555786,0.334105014801,1,q,346.413815022,,,,,,,,,,,,,,,,,,,,,,,,,,,,,,,,,,,,,,,,,2015_Jun_23_1104,59.9247922643,LearningTask,1,38,
200,s,-200,,,,,,,,,,,,,,,,,0,0,0,0,11,0,44,2,,,,,,,,,,,,,,,,,,,,,,,,,,,,,s,1,0.400920152664,None,0,1.0,crossgreen.gif,go,,,,,,,,,,,,,,,,,,,,,,,,0.78,0.514568805695,0.000908851623535,0.400920152664,1,s,349.417474031,,,,,,,,,,,,,,,,,,,,,,,,,,,,,,,,,,,,,,,,,2015_Jun_23_1104,59.9247922643,LearningTask,1,38,
200,s,-200,,,,,,,,,,,,,,,,,0,0,0,0,11,1,45,2,,,,,,,,,,,,,,,,,,,,,,,,,,,,,s,1,0.434195995331,None,0,2.0,circlecyan.gif,go,,,,,,,,,,,,,,,,,,,,,,,,1.93,0.513962030411,0.000944137573242,0.434195995331,1,s,352.420742035,,,,,,,,,,,,,,,,,,,,,,,,,,,,,,,,,,,,,,,,,2015_Jun_23_1104,59.9247922643,LearningTask,1,38,
200,w,200,,,,,,,,,,,,,,,,,0,0,0,0,11,2,46,0,,,,,,,,,,,,,,,,,,,,,,,,,,,,,w,1,0.367527008057,None,0,2.0,squarewhite.gif,stop,,,,,,,,,,,,,,,,,,,,,,,,1.77,0.514309167862,0.000882148742676,0.367527008057,1,w,355.423958063,,,,,,,,,,,,,,,,,,,,,,,,,,,,,,,,,,,,,,,,,2015_Jun_23_1104,59.9247922643,LearningTask,1,38,
200,s,-200,,,,,,,,,,,,,,,,,0,0,0,0,11,3,47,2,,,,,,,,,,,,,,,,,,,,,,,,,,,,,s,1,0.417521953583,None,0,4.0,invertedtriangleblue.gif,go,,,,,,,,,,,,,,,,,,,,,,,,0,0.514485120773,0.000899076461792,0.417521953583,1,s,358.42773509,,,,,,,,,,,,,,,,,,,,,,,,,,,,,,,,,,,,,,,,,2015_Jun_23_1104,59.9247922643,LearningTask,1,38,
-200,a,-200,,,,,,,,,,,,,,,,,0,0,0,0,12,0,48,3,,,,,,,,,,,,,,,,,,,,,,,,,,,,,a,1,0.467658042908,None,0,0.5,trianglemagenta.gif,go,,,,,,,,,,,,,,,,,,,,,,,,0.73,0.513642072678,0.00103902816772,0.467658042908,1,a,361.430941105,,,,,,,,,,,,,,,,,,,,,,,,,,,,,,,,,,,,,,,,,2015_Jun_23_1104,59.9247922643,LearningTask,1,38,
-200,a,-200,,,,,,,,,,,,,,,,,0,0,0,0,12,1,49,3,,,,,,,,,,,,,,,,,,,,,,,,,,,,,a,1,0.483752965927,None,0,1.0,diamondgray.gif,stop,,,,,,,,,,,,,,,,,,,,,,,,0,0.514190196991,0.00088906288147,0.417688846588,0,q,364.434247971,1.15,0.515418052673,0.000969886779785,0.483752965927,1,a,367.43810606,,,,,,,,,,,,,,,,,,,,,,,,,,,,,,,,,,2015_Jun_23_1104,59.9247922643,LearningTask,1,38,
-200,a,-200,,,,,,,,,,,,,,,,,0,0,0,0,12,2,50,3,,,,,,,,,,,,,,,,,,,,,,,,,,,,,a,1,0.450566053391,None,0,2.0,squarewhite.gif,stop,,,,,,,,,,,,,,,,,,,,,,,,1.79,0.513684034348,0.00089693069458,0.450566053391,1,a,370.440871,,,,,,,,,,,,,,,,,,,,,,,,,,,,,,,,,,,,,,,,,2015_Jun_23_1104,59.9247922643,LearningTask,1,38,
200,w,200,,,,,,,,,,,,,,,,,0,0,0,0,12,3,51,0,,,,,,,,,,,,,,,,,,,,,,,,,,,,,w,1,0.4845058918,None,0,0.5,trianglemagenta.gif,go,,,,,,,,,,,,,,,,,,,,,,,,0.33,0.513976097107,0.000893115997314,0.4845058918,1,w,373.444097042,,,,,,,,,,,,,,,,,,,,,,,,,,,,,,,,,,,,,,,,,2015_Jun_23_1104,59.9247922643,LearningTask,1,38,
-200,q,200,,,,,,,,,,,,,,,,,0,0,0,0,13,0,52,1,,,,,,,,,,,,,,,,,,,,,,,,,,,,,q,1,0.383857965469,None,0,4.0,lineyellow.gif,stop,,,,,,,,,,,,,,,,,,,,,,,,3.82,0.514308929443,0.000970840454102,0.383857965469,1,q,376.447755098,,,,,,,,,,,,,,,,,,,,,,,,,,,,,,,,,,,,,,,,,2015_Jun_23_1104,59.9247922643,LearningTask,1,38,
-200,a,-200,,,,,,,,,,,,,,,,,0,0,0,0,13,1,53,3,,,,,,,,,,,,,,,,,,,,,,,,,,,,,a,1,0.518048048019,None,0,0.5,trianglemagenta.gif,go,,,,,,,,,,,,,,,,,,,,,,,,0.42,0.514121055603,0.00114297866821,0.518048048019,1,a,379.450897932,,,,,,,,,,,,,,,,,,,,,,,,,,,,,,,,,,,,,,,,,2015_Jun_23_1104,59.9247922643,LearningTask,1,38,
-200,a,-200,,,,,,,,,,,,,,,,,0,0,0,0,13,2,54,3,,,,,,,,,,,,,,,,,,,,,,,,,,,,,a,1,0.434563159943,None,0,2.0,squarewhite.gif,stop,,,,,,,,,,,,,,,,,,,,,,,,1.91,0.514181852341,0.000990867614746,0.434563159943,1,a,382.454397917,,,,,,,,,,,,,,,,,,,,,,,,,,,,,,,,,,,,,,,,,2015_Jun_23_1104,59.9247922643,LearningTask,1,38,
200,w,200,,,,,,,,,,,,,,,,,0,0,0,0,13,3,55,0,,,,,,,,,,,,,,,,,,,,,,,,,,,,,w,1,0.417918920517,None,0,1.0,crossgreen.gif,go,,,,,,,,,,,,,,,,,,,,,,,,1.04,0.51388502121,0.000921964645386,0.417918920517,1,w,385.457643032,,,,,,,,,,,,,,,,,,,,,,,,,,,,,,,,,,,,,,,,,2015_Jun_23_1104,59.9247922643,LearningTask,1,38,
-200,a,-200,,,,,,,,,,,,,,,,,0,0,0,0,14,0,56,3,,,,,,,,,,,,,,,,,,,,,,,,,,,,,a,1,0.517724990845,None,0,0.5,hexagonorange.gif,stop,,,,,,,,,,,,,,,,,,,,,,,,0.44,0.514278888702,0.000903844833374,0.517724990845,1,a,388.460857868,,,,,,,,,,,,,,,,,,,,,,,,,,,,,,,,,,,,,,,,,2015_Jun_23_1104,59.9247922643,LearningTask,1,38,
200,s,-200,,,,,,,,,,,,,,,,,0,0,0,0,14,1,57,2,,,,,,,,,,,,,,,,,,,,,,,,,,,,,s,1,0.41757106781,None,0,2.0,squarewhite.gif,stop,,,,,,,,,,,,,,,,,,,,,,,,1.76,0.514189004898,0.00139999389648,0.41757106781,1,s,391.464297056,,,,,,,,,,,,,,,,,,,,,,,,,,,,,,,,,,,,,,,,,2015_Jun_23_1104,59.9247922643,LearningTask,1,38,
-200,a,-200,,,,,,,,,,,,,,,,,0,0,0,0,14,2,58,3,,,,,,,,,,,,,,,,,,,,,,,,,,,,,a,1,0.550694942474,None,0,2.0,squarewhite.gif,stop,,,,,,,,,,,,,,,,,,,,,,,,0,0.514389038086,0.000885009765625,0.550694942474,1,a,394.467691898,,,,,,,,,,,,,,,,,,,,,,,,,,,,,,,,,,,,,,,,,2015_Jun_23_1104,59.9247922643,LearningTask,1,38,
200,s,-200,,,,,,,,,,,,,,,,,0,0,0,0,14,3,59,2,,,,,,,,,,,,,,,,,,,,,,,,,,,,,s,1,0.433583021164,None,0,0.5,hexagonorange.gif,stop,,,,,,,,,,,,,,,,,,,,,,,,0.55,0.514894962311,0.000911951065063,0.433583021164,1,s,397.471175909,,,,,,,,,,,,,,,,,,,,,,,,,,,,,,,,,,,,,,,,,2015_Jun_23_1104,59.9247922643,LearningTask,1,38,
-200,q,200,,,,,,,,,,,,,,,,,0,0,0,0,15,0,60,1,,,,,,,,,,,,,,,,,,,,,,,,,,,,,q,1,0.466897010803,None,0,1.0,diamondgray.gif,stop,,,,,,,,,,,,,,,,,,,,,,,,0,0.514237880707,0.000937938690186,0.466897010803,1,q,400.474550009,,,,,,,,,,,,,,,,,,,,,,,,,,,,,,,,,,,,,,,,,2015_Jun_23_1104,59.9247922643,LearningTask,1,38,
200,s,-200,,,,,,,,,,,,,,,,,0,0,0,0,15,1,61,2,,,,,,,,,,,,,,,,,,,,,,,,,,,,,s,1,0.40044593811,None,0,2.0,squarewhite.gif,stop,,,,,,,,,,,,,,,,,,,,,,,,2.12,0.514166116714,0.000916004180908,0.40044593811,1,s,403.477693081,,,,,,,,,,,,,,,,,,,,,,,,,,,,,,,,,,,,,,,,,2015_Jun_23_1104,59.9247922643,LearningTask,1,38,
200,s,-200,,,,,,,,,,,,,,,,,0,0,0,0,15,2,62,2,,,,,,,,,,,,,,,,,,,,,,,,,,,,,s,1,0.367829084396,None,0,2.0,squarewhite.gif,stop,,,,,,,,,,,,,,,,,,,,,,,,2.07,0.514432907104,0.000900030136108,0.367829084396,1,s,406.481448889,,,,,,,,,,,,,,,,,,,,,,,,,,,,,,,,,,,,,,,,,2015_Jun_23_1104,59.9247922643,LearningTask,1,38,
200,w,200,,,,,,,,,,,,,,,,,0,0,0,0,15,3,63,0,,,,,,,,,,,,,,,,,,,,,,,,,,,,,w,1,0.401118993759,None,0,4.0,invertedtriangleblue.gif,go,,,,,,,,,,,,,,,,,,,,,,,,3.94,0.513399839401,0.000922918319702,0.401118993759,1,w,409.484651089,,,,,,,,,,,,,,,,,,,,,,,,,,,,,,,,,,,,,,,,,2015_Jun_23_1104,59.9247922643,LearningTask,1,38,
-200,q,200,,,,,,,,,,,,,,,,,0,0,0,0,16,0,64,1,,,,,,,,,,,,,,,,,,,,,,,,,,,,,q,1,0.417197942734,None,0,1.0,diamondgray.gif,stop,,,,,,,,,,,,,,,,,,,,,,,,1.06,0.514440059662,0.000890016555786,0.417197942734,1,q,412.488203049,,,,,,,,,,,,,,,,,,,,,,,,,,,,,,,,,,,,,,,,,2015_Jun_23_1104,59.9247922643,LearningTask,1,38,
200,s,-200,,,,,,,,,,,,,,,,,0,0,0,0,16,1,65,2,,,,,,,,,,,,,,,,,,,,,,,,,,,,,s,1,0.400368928909,None,0,0.5,hexagonorange.gif,stop,,,,,,,,,,,,,,,,,,,,,,,,0.54,0.514343976974,0.000976085662842,0.400368928909,1,s,415.491600037,,,,,,,,,,,,,,,,,,,,,,,,,,,,,,,,,,,,,,,,,2015_Jun_23_1104,59.9247922643,LearningTask,1,38,
-200,a,-200,,,,,,,,,,,,,,,,,0,0,0,0,16,2,66,3,,,,,,,,,,,,,,,,,,,,,,,,,,,,,a,1,0.401071071625,None,0,4.0,invertedtriangleblue.gif,go,,,,,,,,,,,,,,,,,,,,,,,,0,0.513794183731,0.000935077667236,0.401071071625,1,a,418.494498968,,,,,,,,,,,,,,,,,,,,,,,,,,,,,,,,,,,,,,,,,2015_Jun_23_1104,59.9247922643,LearningTask,1,38,
-200,a,-200,,,,,,,,,,,,,,,,,0,0,0,0,16,3,67,3,,,,,,,,,,,,,,,,,,,,,,,,,,,,,a,1,0.367555856705,None,0,4.0,invertedtriangleblue.gif,go,,,,,,,,,,,,,,,,,,,,,,,,3.84,0.514236211777,0.000899076461792,0.367555856705,1,a,421.497755051,,,,,,,,,,,,,,,,,,,,,,,,,,,,,,,,,,,,,,,,,2015_Jun_23_1104,59.9247922643,LearningTask,1,38,
-200,q,200,,,,,,,,,,,,,,,,,0,0,0,0,17,0,68,1,,,,,,,,,,,,,,,,,,,,,,,,,,,,,q,1,0.417375087738,None,0,0.5,hexagonorange.gif,stop,,,,,,,,,,,,,,,,,,,,,,,,0.44,0.514734983444,0.00103807449341,0.417375087738,1,q,424.501339912,,,,,,,,,,,,,,,,,,,,,,,,,,,,,,,,,,,,,,,,,2015_Jun_23_1104,59.9247922643,LearningTask,1,38,
-200,a,-200,,,,,,,,,,,,,,,,,0,0,0,0,17,1,69,3,,,,,,,,,,,,,,,,,,,,,,,,,,,,,a,1,0.417963981628,None,0,0.5,trianglemagenta.gif,go,,,,,,,,,,,,,,,,,,,,,,,,0.55,0.514185190201,0.000907182693481,0.417963981628,1,a,427.504431009,,,,,,,,,,,,,,,,,,,,,,,,,,,,,,,,,,,,,,,,,2015_Jun_23_1104,59.9247922643,LearningTask,1,38,
200,s,-200,,,,,,,,,,,,,,,,,0,0,0,0,17,2,70,2,,,,,,,,,,,,,,,,,,,,,,,,,,,,,s,1,0.484388113022,None,0,2.0,circlecyan.gif,go,,,,,,,,,,,,,,,,,,,,,,,,1.99,0.514184951782,0.00106596946716,0.484388113022,1,s,430.507889032,,,,,,,,,,,,,,,,,,,,,,,,,,,,,,,,,,,,,,,,,2015_Jun_23_1104,59.9247922643,LearningTask,1,38,
200,w,200,,,,,,,,,,,,,,,,,0,0,0,0,17,3,71,0,,,,,,,,,,,,,,,,,,,,,,,,,,,,,w,1,0.050479888916,None,0,0.5,hexagonorange.gif,stop,,,,,,,,,,,,,,,,,,,,,,,,0.65,0.514154911041,0.000932931900024,0.050479888916,1,w,433.511238098,,,,,,,,,,,,,,,,,,,,,,,,,,,,,,,,,,,,,,,,,2015_Jun_23_1104,59.9247922643,LearningTask,1,38,
200,w,200,,,,,,,,,,,,,,,,,0,0,0,0,18,0,72,0,,,,,,,,,,,,,,,,,,,,,,,,,,,,,w,1,0.384525060654,None,0,4.0,invertedtriangleblue.gif,go,,,,,,,,,,,,,,,,,,,,,,,,3.78,0.514434099197,0.000900030136108,0.384525060654,1,w,436.514625072,,,,,,,,,,,,,,,,,,,,,,,,,,,,,,,,,,,,,,,,,2015_Jun_23_1104,59.9247922643,LearningTask,1,38,
-200,a,-200,,,,,,,,,,,,,,,,,0,0,0,0,18,1,73,3,,,,,,,,,,,,,,,,,,,,,,,,,,,,,a,1,0.451288938522,None,0,4.0,invertedtriangleblue.gif,go,,,,,,,,,,,,,,,,,,,,,,,,0,0.514132976532,0.00103306770325,0.451288938522,1,a,439.518054962,,,,,,,,,,,,,,,,,,,,,,,,,,,,,,,,,,,,,,,,,2015_Jun_23_1104,59.9247922643,LearningTask,1,38,
200,w,200,,,,,,,,,,,,,,,,,0,0,0,0,18,2,74,0,,,,,,,,,,,,,,,,,,,,,,,,,,,,,w,1,0.434698820114,None,0,1.0,crossgreen.gif,go,,,,,,,,,,,,,,,,,,,,,,,,1.0,0.514169216156,0.000895023345947,0.434698820114,1,w,442.521403074,,,,,,,,,,,,,,,,,,,,,,,,,,,,,,,,,,,,,,,,,2015_Jun_23_1104,59.9247922643,LearningTask,1,38,
-200,q,200,,,,,,,,,,,,,,,,,0,0,0,0,18,3,75,1,,,,,,,,,,,,,,,,,,,,,,,,,,,,,q,1,0.367254972458,None,0,0.5,hexagonorange.gif,stop,,,,,,,,,,,,,,,,,,,,,,,,0.48,0.514524936676,0.000903129577637,0.367254972458,1,q,445.524770021,,,,,,,,,,,,,,,,,,,,,,,,,,,,,,,,,,,,,,,,,2015_Jun_23_1104,59.9247922643,LearningTask,1,38,
-200,a,-200,,,,,,,,,,,,,,,,,0,0,0,0,19,0,76,3,,,,,,,,,,,,,,,,,,,,,,,,,,,,,a,1,0.417486190796,None,0,0.5,hexagonorange.gif,stop,,,,,,,,,,,,,,,,,,,,,,,,0.39,0.514335870743,0.000963926315308,0.417486190796,1,a,448.527987957,,,,,,,,,,,,,,,,,,,,,,,,,,,,,,,,,,,,,,,,,2015_Jun_23_1104,59.9247922643,LearningTask,1,38,
200,w,200,,,,,,,,,,,,,,,,,0,0,0,0,19,1,77,0,,,,,,,,,,,,,,,,,,,,,,,,,,,,,w,1,0.350790023804,None,0,2.0,squarewhite.gif,stop,,,,,,,,,,,,,,,,,,,,,,,,0,0.514455080032,0.000893115997314,0.350790023804,1,w,451.531426907,,,,,,,,,,,,,,,,,,,,,,,,,,,,,,,,,,,,,,,,,2015_Jun_23_1104,59.9247922643,LearningTask,1,38,
200,w,200,,,,,,,,,,,,,,,,,0,0,0,0,19,2,78,0,,,,,,,,,,,,,,,,,,,,,,,,,,,,,w,1,0.38399887085,None,0,2.0,circlecyan.gif,go,,,,,,,,,,,,,,,,,,,,,,,,1.97,0.514404058456,0.000916004180908,0.38399887085,1,w,454.535234928,,,,,,,,,,,,,,,,,,,,,,,,,,,,,,,,,,,,,,,,,2015_Jun_23_1104,59.9247922643,LearningTask,1,38,
200,w,200,,,,,,,,,,,,,,,,,0,0,0,0,19,3,79,0,,,,,,,,,,,,,,,,,,,,,,,,,,,,,w,1,0.401014089584,None,0,2.0,circlecyan.gif,go,,,,,,,,,,,,,,,,,,,,,,,,2.16,0.513650894165,0.000982999801636,0.401014089584,1,w,457.538341999,,,,,,,,,,,,,,,,,,,,,,,,,,,,,,,,,,,,,,,,,2015_Jun_23_1104,59.9247922643,LearningTask,1,38,
200,w,200,,,,,,,,,,,,,,,,,0,0,0,0,20,0,80,0,,,,,,,,,,,,,,,,,,,,,,,,,,,,,w,1,0.31755399704,None,0,4.0,invertedtriangleblue.gif,go,,,,,,,,,,,,,,,,,,,,,,,,3.94,0.514139890671,0.000899076461792,0.31755399704,1,w,460.541511059,,,,,,,,,,,,,,,,,,,,,,,,,,,,,,,,,,,,,,,,,2015_Jun_23_1104,59.9247922643,LearningTask,1,38,
200,w,200,,,,,,,,,,,,,,,,,0,0,0,0,20,1,81,0,,,,,,,,,,,,,,,,,,,,,,,,,,,,,w,1,0.351064920425,None,0,2.0,circlecyan.gif,go,,,,,,,,,,,,,,,,,,,,,,,,2.16,0.514467000961,0.00100493431091,0.351064920425,1,w,463.545059919,,,,,,,,,,,,,,,,,,,,,,,,,,,,,,,,,,,,,,,,,2015_Jun_23_1104,59.9247922643,LearningTask,1,38,
200,s,-200,,,,,,,,,,,,,,,,,0,0,0,0,20,2,82,2,,,,,,,,,,,,,,,,,,,,,,,,,,,,,s,1,0.534364938736,None,0,4.0,invertedtriangleblue.gif,go,,,,,,,,,,,,,,,,,,,,,,,,3.82,0.513965129852,0.00120711326599,0.534364938736,1,s,466.548285007,,,,,,,,,,,,,,,,,,,,,,,,,,,,,,,,,,,,,,,,,2015_Jun_23_1104,59.9247922643,LearningTask,1,38,
200,w,200,,,,,,,,,,,,,,,,,0,0,0,0,20,3,83,0,,,,,,,,,,,,,,,,,,,,,,,,,,,,,w,1,0.36705493927,None,0,4.0,invertedtriangleblue.gif,go,,,,,,,,,,,,,,,,,,,,,,,,4.18,0.514370918274,0.00103902816772,0.36705493927,1,w,469.551527977,,,,,,,,,,,,,,,,,,,,,,,,,,,,,,,,,,,,,,,,,2015_Jun_23_1104,59.9247922643,LearningTask,1,38,
200,w,200,,,,,,,,,,,,,,,,,0,0,0,0,21,0,84,0,,,,,,,,,,,,,,,,,,,,,,,,,,,,,w,1,0.367367982864,None,0,4.0,lineyellow.gif,stop,,,,,,,,,,,,,,,,,,,,,,,,4.08,0.514341115952,0.000974178314209,0.367367982864,1,w,472.555047035,,,,,,,,,,,,,,,,,,,,,,,,,,,,,,,,,,,,,,,,,2015_Jun_23_1104,59.9247922643,LearningTask,1,38,
200,w,200,,,,,,,,,,,,,,,,,0,0,0,0,21,1,85,0,,,,,,,,,,,,,,,,,,,,,,,,,,,,,w,1,0.334020137787,None,0,0.5,trianglemagenta.gif,go,,,,,,,,,,,,,,,,,,,,,,,,0.47,0.51429104805,0.000921964645386,0.334020137787,1,w,475.558280945,,,,,,,,,,,,,,,,,,,,,,,,,,,,,,,,,,,,,,,,,2015_Jun_23_1104,59.9247922643,LearningTask,1,38,
200,w,200,,,,,,,,,,,,,,,,,0,0,0,0,21,2,86,0,,,,,,,,,,,,,,,,,,,,,,,,,,,,,w,1,0.334698915482,None,0,0.5,trianglemagenta.gif,go,,,,,,,,,,,,,,,,,,,,,,,,0.26,0.514179944992,0.00114297866821,0.334698915482,1,w,478.561946869,,,,,,,,,,,,,,,,,,,,,,,,,,,,,,,,,,,,,,,,,2015_Jun_23_1104,59.9247922643,LearningTask,1,38,
-200,a,-200,,,,,,,,,,,,,,,,,0,0,0,0,21,3,87,3,,,,,,,,,,,,,,,,,,,,,,,,,,,,,a,1,0.467687129974,None,0,4.0,lineyellow.gif,stop,,,,,,,,,,,,,,,,,,,,,,,,0,0.513689041138,0.000890970230103,0.467687129974,1,a,481.56494689,,,,,,,,,,,,,,,,,,,,,,,,,,,,,,,,,,,,,,,,,2015_Jun_23_1104,59.9247922643,LearningTask,1,38,
200,w,200,,,,,,,,,,,,,,,,,0,0,0,0,22,0,88,0,,,,,,,,,,,,,,,,,,,,,,,,,,,,,w,1,0.367488145828,None,0,2.0,circlecyan.gif,go,,,,,,,,,,,,,,,,,,,,,,,,2.14,0.514503002167,0.000900030136108,0.367488145828,1,w,484.568320036,,,,,,,,,,,,,,,,,,,,,,,,,,,,,,,,,,,,,,,,,2015_Jun_23_1104,59.9247922643,LearningTask,1,38,
-200,q,200,,,,,,,,,,,,,,,,,0,0,0,0,22,1,89,1,,,,,,,,,,,,,,,,,,,,,,,,,,,,,q,1,0.434606075287,None,0,0.5,trianglemagenta.gif,go,,,,,,,,,,,,,,,,,,,,,,,,0.6,0.513545036316,0.000962972640991,0.434606075287,1,q,487.571702957,,,,,,,,,,,,,,,,,,,,,,,,,,,,,,,,,,,,,,,,,2015_Jun_23_1104,59.9247922643,LearningTask,1,38,
-200,q,200,,,,,,,,,,,,,,,,,0,0,0,0,22,2,90,1,,,,,,,,,,,,,,,,,,,,,,,,,,,,,q,1,0.384342908859,None,0,2.0,circlecyan.gif,go,,,,,,,,,,,,,,,,,,,,,,,,1.82,0.514100074768,0.00105905532837,0.384342908859,1,q,490.575011969,,,,,,,,,,,,,,,,,,,,,,,,,,,,,,,,,,,,,,,,,2015_Jun_23_1104,59.9247922643,LearningTask,1,38,
-200,a,-200,,,,,,,,,,,,,,,,,0,0,0,0,22,3,91,3,,,,,,,,,,,,,,,,,,,,,,,,,,,,,a,1,0.401001930237,None,0,4.0,lineyellow.gif,stop,,,,,,,,,,,,,,,,,,,,,,,,3.84,0.514236211777,0.00097918510437,0.401001930237,1,a,493.578602076,,,,,,,,,,,,,,,,,,,,,,,,,,,,,,,,,,,,,,,,,2015_Jun_23_1104,59.9247922643,LearningTask,1,38,
-200,a,-200,,,,,,,,,,,,,,,,,0,0,0,0,23,0,92,3,,,,,,,,,,,,,,,,,,,,,,,,,,,,,a,1,0.400863170624,None,0,1.0,diamondgray.gif,stop,,,,,,,,,,,,,,,,,,,,,,,,0.8,0.514127016068,0.000939130783081,0.400863170624,1,a,496.581898928,,,,,,,,,,,,,,,,,,,,,,,,,,,,,,,,,,,,,,,,,2015_Jun_23_1104,59.9247922643,LearningTask,1,38,
200,w,200,,,,,,,,,,,,,,,,,0,0,0,0,23,1,93,0,,,,,,,,,,,,,,,,,,,,,,,,,,,,,w,1,0.367247104645,None,0,4.0,invertedtriangleblue.gif,go,,,,,,,,,,,,,,,,,,,,,,,,0,0.514258861542,0.00090479850769,0.367247104645,1,w,499.58512187,,,,,,,,,,,,,,,,,,,,,,,,,,,,,,,,,,,,,,,,,2015_Jun_23_1104,59.9247922643,LearningTask,1,38,
-200,a,-200,,,,,,,,,,,,,,,,,0,0,0,0,23,2,94,3,,,,,,,,,,,,,,,,,,,,,,,,,,,,,a,1,0.617878913879,None,0,0.5,trianglemagenta.gif,go,,,,,,,,,,,,,,,,,,,,,,,,0,0.514246225357,0.000891208648682,0.617878913879,1,a,502.588881016,,,,,,,,,,,,,,,,,,,,,,,,,,,,,,,,,,,,,,,,,2015_Jun_23_1104,59.9247922643,LearningTask,1,38,
200,w,200,,,,,,,,,,,,,,,,,0,0,0,0,23,3,95,0,,,,,,,,,,,,,,,,,,,,,,,,,,,,,w,1,0.384429216385,None,0,4.0,lineyellow.gif,stop,,,,,,,,,,,,,,,,,,,,,,,,3.86,0.513820886612,0.000902891159058,0.384429216385,1,w,505.591986895,,,,,,,,,,,,,,,,,,,,,,,,,,,,,,,,,,,,,,,,,2015_Jun_23_1104,59.9247922643,LearningTask,1,38,
-200,q,200,,,,,,,,,,,,,,,,,0,0,0,0,24,0,96,1,,,,,,,,,,,,,,,,,,,,,,,,,,,,,q,1,0.384322881699,None,0,0.5,trianglemagenta.gif,go,,,,,,,,,,,,,,,,,,,,,,,,0.68,0.514128923416,0.000899791717529,0.384322881699,1,q,508.595129967,,,,,,,,,,,,,,,,,,,,,,,,,,,,,,,,,,,,,,,,,2015_Jun_23_1104,59.9247922643,LearningTask,1,38,
-200,q,200,,,,,,,,,,,,,,,,,0,0,0,0,24,1,97,1,,,,,,,,,,,,,,,,,,,,,,,,,,,,,q,1,0.48430109024,None,0,1.0,crossgreen.gif,go,,,,,,,,,,,,,,,,,,,,,,,,1.18,0.514277935028,0.00129699707031,0.48430109024,1,q,511.598834038,,,,,,,,,,,,,,,,,,,,,,,,,,,,,,,,,,,,,,,,,2015_Jun_23_1104,59.9247922643,LearningTask,1,38,
-200,q,200,,,,,,,,,,,,,,,,,0,0,0,0,24,2,98,1,,,,,,,,,,,,,,,,,,,,,,,,,,,,,q,1,0.417407989502,None,0,2.0,circlecyan.gif,go,,,,,,,,,,,,,,,,,,,,,,,,1.75,0.514096975327,0.000916004180908,0.417407989502,1,q,514.601999044,,,,,,,,,,,,,,,,,,,,,,,,,,,,,,,,,,,,,,,,,2015_Jun_23_1104,59.9247922643,LearningTask,1,38,
-200,a,-200,,,,,,,,,,,,,,,,,0,0,0,0,24,3,99,3,,,,,,,,,,,,,,,,,,,,,,,,,,,,,a,1,0.417526006699,None,0,1.0,diamondgray.gif,stop,,,,,,,,,,,,,,,,,,,,,,,,0.82,0.514353990555,0.000928163528442,0.417526006699,1,a,517.605138063,,,,,,,,,,,,,,,,,,,,,,,,,,,,,,,,,,,,,,,,,2015_Jun_23_1104,59.9247922643,LearningTask,1,38,
,,,,,,,,,,,,,,,,,,,0,0,0,0,,,,,,,,,,,,,,,,,,,,,,,,,,,,,,,,,,,,,,,,,,,,,,,,,,,,,,,,,,,,,,,,,,,,,,,,,,,,,,9,24.2360191345,,,,,,,,,,,,,,,,,,,,,,,,,,,,,,,,2015_Jun_23_1104,59.9247922643,LearningTask,1,38,
-200,q,200,,,,,,,,,,,,,,,,,1,0,1,0,0,0,0,1,,,,,,,,,,,,,,,,,,,,,,,,,,,,,q,1,0.66787314415,None,0,2.0,squarewhite.gif,stop,,,,,,,,,,,,,,,,,,,,,,,,2.12,0.510386943817,0.000883102416992,0.66787314415,1,q,545.286879063,,,,,,,,,,,,,,,,,,,,,,,,,,,,,,,,,,,,,,,,,2015_Jun_23_1104,59.9247922643,LearningTask,1,38,
-200,q,200,,,,,,,,,,,,,,,,,1,0,1,0,0,1,1,1,,,,,,,,,,,,,,,,,,,,,,,,,,,,,q,1,0.450607061386,None,0,2.0,squarewhite.gif,stop,,,,,,,,,,,,,,,,,,,,,,,,1.98,0.513551950455,0.00090479850769,0.450607061386,1,q,548.28961587,,,,,,,,,,,,,,,,,,,,,,,,,,,,,,,,,,,,,,,,,2015_Jun_23_1104,59.9247922643,LearningTask,1,38,
-200,a,-200,,,,,,,,,,,,,,,,,1,0,1,0,0,2,2,3,,,,,,,,,,,,,,,,,,,,,,,,,,,,,a,1,0.534610033035,None,0,2.0,circlecyan.gif,go,,,,,,,,,,,,,,,,,,,,,,,,1.81,0.514075994492,0.000945091247559,0.534610033035,1,a,551.292788029,,,,,,,,,,,,,,,,,,,,,,,,,,,,,,,,,,,,,,,,,2015_Jun_23_1104,59.9247922643,LearningTask,1,38,
200,w,200,,,,,,,,,,,,,,,,,1,0,1,0,0,3,3,0,,,,,,,,,,,,,,,,,,,,,,,,,,,,,w,1,0.384385108948,None,0,4.0,invertedtriangleblue.gif,go,,,,,,,,,,,,,,,,,,,,,,,,4.07,0.514063835144,0.00092601776123,0.384385108948,1,w,554.296387911,,,,,,,,,,,,,,,,,,,,,,,,,,,,,,,,,,,,,,,,,2015_Jun_23_1104,59.9247922643,LearningTask,1,38,
-200,a,-200,,,,,,,,,,,,,,,,,1,0,1,0,1,0,4,3,,,,,,,,,,,,,,,,,,,,,,,,,,,,,a,1,0.651181936264,None,0,0.5,hexagonorange.gif,stop,,,,,,,,,,,,,,,,,,,,,,,,0.56,0.514173984528,0.000891923904419,0.651181936264,1,a,557.29972887,,,,,,,,,,,,,,,,,,,,,,,,,,,,,,,,,,,,,,,,,2015_Jun_23_1104,59.9247922643,LearningTask,1,38,
200,s,-200,,,,,,,,,,,,,,,,,1,0,1,0,1,1,5,2,,,,,,,,,,,,,,,,,,,,,,,,,,,,,s,1,0.384333848953,None,0,1.0,crossgreen.gif,go,,,,,,,,,,,,,,,,,,,,,,,,1.15,0.51411819458,0.0011670589447,0.384333848953,1,s,560.303030014,,,,,,,,,,,,,,,,,,,,,,,,,,,,,,,,,,,,,,,,,2015_Jun_23_1104,59.9247922643,LearningTask,1,38,
200,w,200,,,,,,,,,,,,,,,,,1,0,1,0,1,2,6,0,,,,,,,,,,,,,,,,,,,,,,,,,,,,,w,1,0.384660005569,None,0,2.0,squarewhite.gif,stop,,,,,,,,,,,,,,,,,,,,,,,,2.22,0.514242887497,0.00116896629333,0.384660005569,1,w,563.306284904,,,,,,,,,,,,,,,,,,,,,,,,,,,,,,,,,,,,,,,,,2015_Jun_23_1104,59.9247922643,LearningTask,1,38,
-200,q,200,,,,,,,,,,,,,,,,,1,0,1,0,1,3,7,1,,,,,,,,,,,,,,,,,,,,,,,,,,,,,q,1,0.384413003922,None,0,2.0,squarewhite.gif,stop,,,,,,,,,,,,,,,,,,,,,,,,1.82,0.514242887497,0.00088906288147,0.384413003922,1,q,566.310090065,,,,,,,,,,,,,,,,,,,,,,,,,,,,,,,,,,,,,,,,,2015_Jun_23_1104,59.9247922643,LearningTask,1,38,
-200,q,200,,,,,,,,,,,,,,,,,1,0,1,0,2,0,8,1,,,,,,,,,,,,,,,,,,,,,,,,,,,,,q,1,0.417577981949,None,0,2.0,squarewhite.gif,stop,,,,,,,,,,,,,,,,,,,,,,,,1.94,0.513715982437,0.00103807449341,0.417577981949,1,q,569.313021898,,,,,,,,,,,,,,,,,,,,,,,,,,,,,,,,,,,,,,,,,2015_Jun_23_1104,59.9247922643,LearningTask,1,38,
200,s,-200,,,,,,,,,,,,,,,,,1,0,1,0,2,1,9,2,,,,,,,,,,,,,,,,,,,,,,,,,,,,,s,1,0.533964157104,None,0,4.0,lineyellow.gif,stop,,,,,,,,,,,,,,,,,,,,,,,,0,0.514283895493,0.000901937484741,0.533964157104,1,s,572.316320896,,,,,,,,,,,,,,,,,,,,,,,,,,,,,,,,,,,,,,,,,2015_Jun_23_1104,59.9247922643,LearningTask,1,38,
200,w,200,,,,,,,,,,,,,,,,,1,0,1,0,2,2,10,0,,,,,,,,,,,,,,,,,,,,,,,,,,,,,w,1,0.401000022888,None,0,1.0,crossgreen.gif,go,,,,,,,,,,,,,,,,,,,,,,,,1.0,0.514209032059,0.000895977020264,0.401000022888,1,w,575.319748878,,,,,,,,,,,,,,,,,,,,,,,,,,,,,,,,,,,,,,,,,2015_Jun_23_1104,59.9247922643,LearningTask,1,38,
200,w,200,,,,,,,,,,,,,,,,,1,0,1,0,2,3,11,0,,,,,,,,,,,,,,,,,,,,,,,,,,,,,w,1,0.383792877197,None,0,1.0,diamondgray.gif,stop,,,,,,,,,,,,,,,,,,,,,,,,0,0.514404058456,0.000936985015869,0.383792877197,1,w,578.323086023,,,,,,,,,,,,,,,,,,,,,,,,,,,,,,,,,,,,,,,,,2015_Jun_23_1104,59.9247922643,LearningTask,1,38,
-200,a,-200,,,,,,,,,,,,,,,,,1,0,1,0,3,0,12,3,,,,,,,,,,,,,,,,,,,,,,,,,,,,,a,1,0.567958116531,None,0,1.0,crossgreen.gif,go,,,,,,,,,,,,,,,,,,,,,,,,1.0,0.514246940613,0.000898122787476,0.567958116531,1,a,581.326503992,,,,,,,,,,,,,,,,,,,,,,,,,,,,,,,,,,,,,,,,,2015_Jun_23_1104,59.9247922643,LearningTask,1,38,
200,s,-200,,,,,,,,,,,,,,,,,1,0,1,0,3,1,13,2,,,,,,,,,,,,,,,,,,,,,,,,,,,,,s,1,0.434398174286,None,0,0.5,trianglemagenta.gif,go,,,,,,,,,,,,,,,,,,,,,,,,0.58,0.514304876328,0.00114989280701,0.434398174286,1,s,584.330348969,,,,,,,,,,,,,,,,,,,,,,,,,,,,,,,,,,,,,,,,,2015_Jun_23_1104,59.9247922643,LearningTask,1,38,
-200,q,200,,,,,,,,,,,,,,,,,1,0,1,0,3,2,14,1,,,,,,,,,,,,,,,,,,,,,,,,,,,,,q,1,0.401010990143,None,0,0.5,trianglemagenta.gif,go,,,,,,,,,,,,,,,,,,,,,,,,0.38,0.513514995575,0.000909805297852,0.401010990143,1,q,587.333191872,,,,,,,,,,,,,,,,,,,,,,,,,,,,,,,,,,,,,,,,,2015_Jun_23_1104,59.9247922643,LearningTask,1,38,
-200,a,-200,,,,,,,,,,,,,,,,,1,0,1,0,3,3,15,3,,,,,,,,,,,,,,,,,,,,,,,,,,,,,a,1,0.433959960938,None,0,1.0,diamondgray.gif,stop,,,,,,,,,,,,,,,,,,,,,,,,0.87,0.51448392868,0.000926971435547,0.433959960938,1,a,590.336694002,,,,,,,,,,,,,,,,,,,,,,,,,,,,,,,,,,,,,,,,,2015_Jun_23_1104,59.9247922643,LearningTask,1,38,
200,w,200,,,,,,,,,,,,,,,,,1,0,1,0,4,0,16,0,,,,,,,,,,,,,,,,,,,,,,,,,,,,,w,1,0.333704948425,None,0,0.5,trianglemagenta.gif,go,,,,,,,,,,,,,,,,,,,,,,,,0.57,0.514440059662,0.000903129577637,0.333704948425,1,w,593.340368032,,,,,,,,,,,,,,,,,,,,,,,,,,,,,,,,,,,,,,,,,2015_Jun_23_1104,59.9247922643,LearningTask,1,38,
200,w,200,,,,,,,,,,,,,,,,,1,0,1,0,4,1,17,0,,,,,,,,,,,,,,,,,,,,,,,,,,,,,w,1,0.400843858719,None,0,1.0,crossgreen.gif,go,,,,,,,,,,,,,,,,,,,,,,,,1.04,0.513758182526,0.000910997390747,0.400843858719,1,w,596.343278885,,,,,,,,,,,,,,,,,,,,,,,,,,,,,,,,,,,,,,,,,2015_Jun_23_1104,59.9247922643,LearningTask,1,38,
-200,q,200,,,,,,,,,,,,,,,,,1,0,1,0,4,2,18,1,,,,,,,,,,,,,,,,,,,,,,,,,,,,,q,1,0.450993061066,None,0,4.0,lineyellow.gif,stop,,,,,,,,,,,,,,,,,,,,,,,,0,0.514270067215,0.00104403495789,0.450993061066,1,q,599.346494913,,,,,,,,,,,,,,,,,,,,,,,,,,,,,,,,,,,,,,,,,2015_Jun_23_1104,59.9247922643,LearningTask,1,38,
200,w,200,,,,,,,,,,,,,,,,,1,0,1,0,4,3,19,0,,,,,,,,,,,,,,,,,,,,,,,,,,,,,w,1,0.351348876953,None,0,4.0,invertedtriangleblue.gif,go,,,,,,,,,,,,,,,,,,,,,,,,4.23,0.514461040497,0.000875949859619,0.351348876953,1,w,602.350038052,,,,,,,,,,,,,,,,,,,,,,,,,,,,,,,,,,,,,,,,,2015_Jun_23_1104,59.9247922643,LearningTask,1,38,
-200,q,200,,,,,,,,,,,,,,,,,1,0,1,0,5,0,20,1,,,,,,,,,,,,,,,,,,,,,,,,,,,,,q,1,0.350962162018,None,0,2.0,circlecyan.gif,go,,,,,,,,,,,,,,,,,,,,,,,,1.9,0.514130830765,0.000876903533936,0.350962162018,1,q,605.353591919,,,,,,,,,,,,,,,,,,,,,,,,,,,,,,,,,,,,,,,,,2015_Jun_23_1104,59.9247922643,LearningTask,1,38,
-200,a,-200,,,,,,,,,,,,,,,,,1,0,1,0,5,1,21,3,,,,,,,,,,,,,,,,,,,,,,,,,,,,,a,1,0.434022903442,None,0,4.0,lineyellow.gif,stop,,,,,,,,,,,,,,,,,,,,,,,,0,0.51396894455,0.00092887878418,0.434022903442,1,a,608.356692076,,,,,,,,,,,,,,,,,,,,,,,,,,,,,,,,,,,,,,,,,2015_Jun_23_1104,59.9247922643,LearningTask,1,38,
-200,a,-200,,,,,,,,,,,,,,,,,1,0,1,0,5,2,22,3,,,,,,,,,,,,,,,,,,,,,,,,,,,,,a,1,0.450848817825,None,0,1.0,diamondgray.gif,stop,,,,,,,,,,,,,,,,,,,,,,,,0,0.514316082001,0.000877857208252,0.450848817825,1,a,611.359992027,,,,,,,,,,,,,,,,,,,,,,,,,,,,,,,,,,,,,,,,,2015_Jun_23_1104,59.9247922643,LearningTask,1,38,
200,w,200,,,,,,,,,,,,,,,,,1,0,1,0,5,3,23,0,,,,,,,,,,,,,,,,,,,,,,,,,,,,,w,1,0.434645175934,None,0,1.0,diamondgray.gif,stop,,,,,,,,,,,,,,,,,,,,,,,,0.79,0.514295816422,0.000881910324097,0.434645175934,1,w,614.363240004,,,,,,,,,,,,,,,,,,,,,,,,,,,,,,,,,,,,,,,,,2015_Jun_23_1104,59.9247922643,LearningTask,1,38,
200,s,-200,,,,,,,,,,,,,,,,,1,0,1,0,6,0,24,2,,,,,,,,,,,,,,,,,,,,,,,,,,,,,s,1,0.384449958801,None,0,1.0,diamondgray.gif,stop,,,,,,,,,,,,,,,,,,,,,,,,1.02,0.514292001724,0.000943899154663,0.384449958801,1,s,617.366635084,,,,,,,,,,,,,,,,,,,,,,,,,,,,,,,,,,,,,,,,,2015_Jun_23_1104,59.9247922643,LearningTask,1,38,
200,w,200,,,,,,,,,,,,,,,,,1,0,1,0,6,1,25,0,,,,,,,,,,,,,,,,,,,,,,,,,,,,,w,1,0.367208003998,None,0,0.5,trianglemagenta.gif,go,,,,,,,,,,,,,,,,,,,,,,,,0.32,0.514587163925,0.00088095664978,0.367208003998,1,w,620.370109081,,,,,,,,,,,,,,,,,,,,,,,,,,,,,,,,,,,,,,,,,2015_Jun_23_1104,59.9247922643,LearningTask,1,38,
200,s,-200,,,,,,,,,,,,,,,,,1,0,1,0,6,2,26,2,,,,,,,,,,,,,,,,,,,,,,,,,,,,,s,1,0.383995056152,None,0,2.0,circlecyan.gif,go,,,,,,,,,,,,,,,,,,,,,,,,0,0.514653921127,0.000874996185303,0.383995056152,1,s,623.37341404,,,,,,,,,,,,,,,,,,,,,,,,,,,,,,,,,,,,,,,,,2015_Jun_23_1104,59.9247922643,LearningTask,1,38,
-200,a,-200,,,,,,,,,,,,,,,,,1,0,1,0,6,3,27,3,,,,,,,,,,,,,,,,,,,,,,,,,,,,,a,1,0.517371892929,None,0,2.0,squarewhite.gif,stop,,,,,,,,,,,,,,,,,,,,,,,,1.88,0.514424085617,0.000876903533936,0.517371892929,1,a,626.376718044,,,,,,,,,,,,,,,,,,,,,,,,,,,,,,,,,,,,,,,,,2015_Jun_23_1104,59.9247922643,LearningTask,1,38,
200,s,-200,,,,,,,,,,,,,,,,,1,0,1,0,7,0,28,2,,,,,,,,,,,,,,,,,,,,,,,,,,,,,s,1,0.401158094406,None,0,4.0,lineyellow.gif,stop,,,,,,,,,,,,,,,,,,,,,,,,3.94,0.514456033707,0.000871181488037,0.401158094406,1,s,629.380285025,,,,,,,,,,,,,,,,,,,,,,,,,,,,,,,,,,,,,,,,,2015_Jun_23_1104,59.9247922643,LearningTask,1,38,
-200,q,200,,,,,,,,,,,,,,,,,1,0,1,0,7,1,29,1,,,,,,,,,,,,,,,,,,,,,,,,,,,,,q,1,0.384271144867,None,0,1.0,diamondgray.gif,stop,,,,,,,,,,,,,,,,,,,,,,,,0.91,0.514158964157,0.000880002975464,0.384271144867,1,q,632.383636951,,,,,,,,,,,,,,,,,,,,,,,,,,,,,,,,,,,,,,,,,2015_Jun_23_1104,59.9247922643,LearningTask,1,38,
200,s,-200,,,,,,,,,,,,,,,,,1,0,1,0,7,2,30,2,,,,,,,,,,,,,,,,,,,,,,,,,,,,,s,1,0.367547988892,None,0,1.0,diamondgray.gif,stop,,,,,,,,,,,,,,,,,,,,,,,,0.81,0.513846874237,0.000874996185303,0.367547988892,1,s,635.386903048,,,,,,,,,,,,,,,,,,,,,,,,,,,,,,,,,,,,,,,,,2015_Jun_23_1104,59.9247922643,LearningTask,1,38,
200,s,-200,,,,,,,,,,,,,,,,,1,0,1,0,7,3,31,2,,,,,,,,,,,,,,,,,,,,,,,,,,,,,s,1,0.384076118469,None,0,0.5,hexagonorange.gif,stop,,,,,,,,,,,,,,,,,,,,,,,,0.3,0.514303922653,0.000876903533936,0.384076118469,1,s,638.390332937,,,,,,,,,,,,,,,,,,,,,,,,,,,,,,,,,,,,,,,,,2015_Jun_23_1104,59.9247922643,LearningTask,1,38,
200,w,200,,,,,,,,,,,,,,,,,1,0,1,0,8,0,32,0,,,,,,,,,,,,,,,,,,,,,,,,,,,,,w,1,0.351035118103,None,0,2.0,circlecyan.gif,go,,,,,,,,,,,,,,,,,,,,,,,,2.09,0.514006853104,0.000880002975464,0.351035118103,1,w,641.393899918,,,,,,,,,,,,,,,,,,,,,,,,,,,,,,,,,,,,,,,,,2015_Jun_23_1104,59.9247922643,LearningTask,1,38,
200,w,200,,,,,,,,,,,,,,,,,1,0,1,0,8,1,33,0,,,,,,,,,,,,,,,,,,,,,,,,,,,,,w,1,0.400493144989,None,0,2.0,squarewhite.gif,stop,,,,,,,,,,,,,,,,,,,,,,,,2.24,0.514054059982,0.000864028930664,0.400493144989,1,w,644.396842003,,,,,,,,,,,,,,,,,,,,,,,,,,,,,,,,,,,,,,,,,2015_Jun_23_1104,59.9247922643,LearningTask,1,38,
200,w,200,,,,,,,,,,,,,,,,,1,0,1,0,8,2,34,0,,,,,,,,,,,,,,,,,,,,,,,,,,,,,w,1,0.384228944778,None,0,1.0,crossgreen.gif,go,,,,,,,,,,,,,,,,,,,,,,,,0.85,0.514446973801,0.000922918319702,0.384228944778,1,w,647.39993,,,,,,,,,,,,,,,,,,,,,,,,,,,,,,,,,,,,,,,,,2015_Jun_23_1104,59.9247922643,LearningTask,1,38,
-200,a,-200,,,,,,,,,,,,,,,,,1,0,1,0,8,3,35,3,,,,,,,,,,,,,,,,,,,,,,,,,,,,,a,1,0.401252985001,None,0,0.5,trianglemagenta.gif,go,,,,,,,,,,,,,,,,,,,,,,,,0,0.514648199081,0.000896215438843,0.401252985001,1,a,650.403786898,,,,,,,,,,,,,,,,,,,,,,,,,,,,,,,,,,,,,,,,,2015_Jun_23_1104,59.9247922643,LearningTask,1,38,
200,s,-200,,,,,,,,,,,,,,,,,1,0,1,0,9,0,36,2,,,,,,,,,,,,,,,,,,,,,,,,,,,,,s,1,0.367177009583,None,0,1.0,crossgreen.gif,go,,,,,,,,,,,,,,,,,,,,,,,,0,0.514420032501,0.000874042510986,0.367177009583,1,s,653.407025099,,,,,,,,,,,,,,,,,,,,,,,,,,,,,,,,,,,,,,,,,2015_Jun_23_1104,59.9247922643,LearningTask,1,38,
200,w,200,,,,,,,,,,,,,,,,,1,0,1,0,9,1,37,0,,,,,,,,,,,,,,,,,,,,,,,,,,,,,w,1,0.400860071182,None,0,1.0,diamondgray.gif,stop,,,,,,,,,,,,,,,,,,,,,,,,0.75,0.514240980148,0.00117206573486,0.400860071182,1,w,656.410670996,,,,,,,,,,,,,,,,,,,,,,,,,,,,,,,,,,,,,,,,,2015_Jun_23_1104,59.9247922643,LearningTask,1,38,
200,w,200,,,,,,,,,,,,,,,,,1,0,1,0,9,2,38,0,,,,,,,,,,,,,,,,,,,,,,,,,,,,,w,1,0.3178191185,None,0,0.5,trianglemagenta.gif,go,,,,,,,,,,,,,,,,,,,,,,,,0,0.514013051987,0.000874042510986,0.3178191185,1,w,659.413774967,,,,,,,,,,,,,,,,,,,,,,,,,,,,,,,,,,,,,,,,,2015_Jun_23_1104,59.9247922643,LearningTask,1,38,
-200,q,200,,,,,,,,,,,,,,,,,1,0,1,0,9,3,39,1,,,,,,,,,,,,,,,,,,,,,,,,,,,,,q,1,0.367691040039,None,0,4.0,lineyellow.gif,stop,,,,,,,,,,,,,,,,,,,,,,,,4.01,0.51432299614,0.000879049301147,0.367691040039,1,q,662.416915894,,,,,,,,,,,,,,,,,,,,,,,,,,,,,,,,,,,,,,,,,2015_Jun_23_1104,59.9247922643,LearningTask,1,38,
-200,a,-200,,,,,,,,,,,,,,,,,1,0,1,0,10,0,40,3,,,,,,,,,,,,,,,,,,,,,,,,,,,,,a,1,0.334696054459,None,0,4.0,invertedtriangleblue.gif,go,,,,,,,,,,,,,,,,,,,,,,,,4.09,0.514232158661,0.000919103622437,0.334696054459,1,a,665.420433998,,,,,,,,,,,,,,,,,,,,,,,,,,,,,,,,,,,,,,,,,2015_Jun_23_1104,59.9247922643,LearningTask,1,38,
-200,q,200,,,,,,,,,,,,,,,,,1,0,1,0,10,1,41,1,,,,,,,,,,,,,,,,,,,,,,,,,,,,,q,1,0.350830078125,None,0,1.0,crossgreen.gif,go,,,,,,,,,,,,,,,,,,,,,,,,0,0.514704942703,0.000883102416992,0.350830078125,1,q,668.423759937,,,,,,,,,,,,,,,,,,,,,,,,,,,,,,,,,,,,,,,,,2015_Jun_23_1104,59.9247922643,LearningTask,1,38,
200,s,-200,,,,,,,,,,,,,,,,,1,0,1,0,10,2,42,2,,,,,,,,,,,,,,,,,,,,,,,,,,,,,s,1,0.501052856445,None,0,4.0,invertedtriangleblue.gif,go,,,,,,,,,,,,,,,,,,,,,,,,4.14,0.514555215836,0.000940084457397,0.501052856445,1,s,671.427305937,,,,,,,,,,,,,,,,,,,,,,,,,,,,,,,,,,,,,,,,,2015_Jun_23_1104,59.9247922643,LearningTask,1,38,
200,s,-200,,,,,,,,,,,,,,,,,1,0,1,0,10,3,43,2,,,,,,,,,,,,,,,,,,,,,,,,,,,,,s,1,0.451328039169,None,0,0.5,hexagonorange.gif,stop,,,,,,,,,,,,,,,,,,,,,,,,0.29,0.513497829437,0.00089693069458,0.451328039169,1,s,674.430495977,,,,,,,,,,,,,,,,,,,,,,,,,,,,,,,,,,,,,,,,,2015_Jun_23_1104,59.9247922643,LearningTask,1,38,
200,s,-200,,,,,,,,,,,,,,,,,1,0,1,0,11,0,44,2,,,,,,,,,,,,,,,,,,,,,,,,,,,,,s,1,0.48442196846,None,0,1.0,diamondgray.gif,stop,,,,,,,,,,,,,,,,,,,,,,,,0.97,0.51425409317,0.000874042510986,0.48442196846,1,s,677.433837891,,,,,,,,,,,,,,,,,,,,,,,,,,,,,,,,,,,,,,,,,2015_Jun_23_1104,59.9247922643,LearningTask,1,38,
200,s,-200,,,,,,,,,,,,,,,,,1,0,1,0,11,1,45,2,,,,,,,,,,,,,,,,,,,,,,,,,,,,,s,1,0.334159851074,None,0,1.0,diamondgray.gif,stop,,,,,,,,,,,,,,,,,,,,,,,,0.94,0.514171123505,0.000880002975464,0.334159851074,1,s,680.437736034,,,,,,,,,,,,,,,,,,,,,,,,,,,,,,,,,,,,,,,,,2015_Jun_23_1104,59.9247922643,LearningTask,1,38,
200,s,-200,,,,,,,,,,,,,,,,,1,0,1,0,11,2,46,2,,,,,,,,,,,,,,,,,,,,,,,,,,,,,s,1,0.351054906845,None,0,4.0,invertedtriangleblue.gif,go,,,,,,,,,,,,,,,,,,,,,,,,4.06,0.513842105865,0.000894069671631,0.351054906845,1,s,683.440478086,,,,,,,,,,,,,,,,,,,,,,,,,,,,,,,,,,,,,,,,,2015_Jun_23_1104,59.9247922643,LearningTask,1,38,
200,s,-200,,,,,,,,,,,,,,,,,1,0,1,0,11,3,47,2,,,,,,,,,,,,,,,,,,,,,,,,,,,,,s,1,0.334203004837,None,0,0.5,hexagonorange.gif,stop,,,,,,,,,,,,,,,,,,,,,,,,0.67,0.514358997345,0.00117588043213,0.334203004837,1,s,686.443893909,,,,,,,,,,,,,,,,,,,,,,,,,,,,,,,,,,,,,,,,,2015_Jun_23_1104,59.9247922643,LearningTask,1,38,
200,s,-200,,,,,,,,,,,,,,,,,1,0,1,0,12,0,48,2,,,,,,,,,,,,,,,,,,,,,,,,,,,,,s,1,0.317420005798,None,0,0.5,hexagonorange.gif,stop,,,,,,,,,,,,,,,,,,,,,,,,0.46,0.514662981033,0.000890970230103,0.317420005798,1,s,689.447221041,,,,,,,,,,,,,,,,,,,,,,,,,,,,,,,,,,,,,,,,,2015_Jun_23_1104,59.9247922643,LearningTask,1,38,
200,s,-200,,,,,,,,,,,,,,,,,1,0,1,0,12,1,49,2,,,,,,,,,,,,,,,,,,,,,,,,,,,,,s,1,0.334139108658,None,0,0.5,hexagonorange.gif,stop,,,,,,,,,,,,,,,,,,,,,,,,0.3,0.514086008072,0.00108790397644,0.334139108658,1,s,692.450599909,,,,,,,,,,,,,,,,,,,,,,,,,,,,,,,,,,,,,,,,,2015_Jun_23_1104,59.9247922643,LearningTask,1,38,
-200,q,200,,,,,,,,,,,,,,,,,1,0,1,0,12,2,50,1,,,,,,,,,,,,,,,,,,,,,,,,,,,,,q,1,0.400931119919,None,0,1.0,diamondgray.gif,stop,,,,,,,,,,,,,,,,,,,,,,,,1.03,0.514323949814,0.000880002975464,0.400931119919,1,q,695.453867912,,,,,,,,,,,,,,,,,,,,,,,,,,,,,,,,,,,,,,,,,2015_Jun_23_1104,59.9247922643,LearningTask,1,38,
200,w,200,,,,,,,,,,,,,,,,,1,0,1,0,12,3,51,0,,,,,,,,,,,,,,,,,,,,,,,,,,,,,w,1,0.384597063065,None,0,0.5,trianglemagenta.gif,go,,,,,,,,,,,,,,,,,,,,,,,,0,0.514460086823,0.000921964645386,0.384597063065,1,w,698.457661867,,,,,,,,,,,,,,,,,,,,,,,,,,,,,,,,,,,,,,,,,2015_Jun_23_1104,59.9247922643,LearningTask,1,38,
-200,q,200,,,,,,,,,,,,,,,,,1,0,1,0,13,0,52,1,,,,,,,,,,,,,,,,,,,,,,,,,,,,,q,1,0.384798049927,None,0,0.5,trianglemagenta.gif,go,,,,,,,,,,,,,,,,,,,,,,,,0,0.513727903366,0.00088095664978,0.384798049927,1,q,701.460695028,,,,,,,,,,,,,,,,,,,,,,,,,,,,,,,,,,,,,,,,,2015_Jun_23_1104,59.9247922643,LearningTask,1,38,
-200,a,-200,,,,,,,,,,,,,,,,,1,0,1,0,13,1,53,3,,,,,,,,,,,,,,,,,,,,,,,,,,,,,a,1,0.41753911972,None,0,4.0,lineyellow.gif,stop,,,,,,,,,,,,,,,,,,,,,,,,0,0.514147043228,0.00101900100708,0.41753911972,1,a,704.464262009,,,,,,,,,,,,,,,,,,,,,,,,,,,,,,,,,,,,,,,,,2015_Jun_23_1104,59.9247922643,LearningTask,1,38,
-200,q,200,,,,,,,,,,,,,,,,,1,0,1,0,13,2,54,1,,,,,,,,,,,,,,,,,,,,,,,,,,,,,q,1,0.36739897728,None,0,1.0,crossgreen.gif,go,,,,,,,,,,,,,,,,,,,,,,,,0,0.514073848724,0.000880002975464,0.36739897728,1,q,707.467323065,,,,,,,,,,,,,,,,,,,,,,,,,,,,,,,,,,,,,,,,,2015_Jun_23_1104,59.9247922643,LearningTask,1,38,
-200,q,200,,,,,,,,,,,,,,,,,1,0,1,0,13,3,55,1,,,,,,,,,,,,,,,,,,,,,,,,,,,,,q,1,0.384821891785,None,0,1.0,diamondgray.gif,stop,,,,,,,,,,,,,,,,,,,,,,,,0.88,0.514333963394,0.000882148742676,0.384821891785,1,q,710.470643044,,,,,,,,,,,,,,,,,,,,,,,,,,,,,,,,,,,,,,,,,2015_Jun_23_1104,59.9247922643,LearningTask,1,38,
-200,a,-200,,,,,,,,,,,,,,,,,1,0,1,0,14,0,56,3,,,,,,,,,,,,,,,,,,,,,,,,,,,,,a,1,0.567739963531,None,0,4.0,invertedtriangleblue.gif,go,,,,,,,,,,,,,,,,,,,,,,,,4.05,0.51410317421,0.00105905532837,0.567739963531,1,a,713.474155903,,,,,,,,,,,,,,,,,,,,,,,,,,,,,,,,,,,,,,,,,2015_Jun_23_1104,59.9247922643,LearningTask,1,38,
200,w,200,,,,,,,,,,,,,,,,,1,0,1,0,14,1,57,0,,,,,,,,,,,,,,,,,,,,,,,,,,,,,w,1,0.334342002869,None,0,4.0,invertedtriangleblue.gif,go,,,,,,,,,,,,,,,,,,,,,,,,0,0.514273881912,0.000878810882568,0.334342002869,1,w,716.477421045,,,,,,,,,,,,,,,,,,,,,,,,,,,,,,,,,,,,,,,,,2015_Jun_23_1104,59.9247922643,LearningTask,1,38,
-200,q,200,,,,,,,,,,,,,,,,,1,0,1,0,14,2,58,1,,,,,,,,,,,,,,,,,,,,,,,,,,,,,q,1,0.317925930023,None,0,2.0,circlecyan.gif,go,,,,,,,,,,,,,,,,,,,,,,,,1.85,0.51406288147,0.000883817672729,0.317925930023,1,q,719.481050014,,,,,,,,,,,,,,,,,,,,,,,,,,,,,,,,,,,,,,,,,2015_Jun_23_1104,59.9247922643,LearningTask,1,38,
-200,q,200,,,,,,,,,,,,,,,,,1,0,1,0,14,3,59,1,,,,,,,,,,,,,,,,,,,,,,,,,,,,,q,1,0.350688934326,None,0,4.0,lineyellow.gif,stop,,,,,,,,,,,,,,,,,,,,,,,,0,0.513983011246,0.00088095664978,0.350688934326,1,q,722.484164953,,,,,,,,,,,,,,,,,,,,,,,,,,,,,,,,,,,,,,,,,2015_Jun_23_1104,59.9247922643,LearningTask,1,38,
200,s,-200,,,,,,,,,,,,,,,,,1,0,1,0,15,0,60,2,,,,,,,,,,,,,,,,,,,,,,,,,,,,,s,1,0.401057004929,None,0,0.5,hexagonorange.gif,stop,,,,,,,,,,,,,,,,,,,,,,,,0.58,0.514437913895,0.000886917114258,0.401057004929,1,s,725.487529993,,,,,,,,,,,,,,,,,,,,,,,,,,,,,,,,,,,,,,,,,2015_Jun_23_1104,59.9247922643,LearningTask,1,38,
-200,a,-200,,,,,,,,,,,,,,,,,1,0,1,0,15,1,61,3,,,,,,,,,,,,,,,,,,,,,,,,,,,,,a,1,0.384567022324,None,0,4.0,invertedtriangleblue.gif,go,,,,,,,,,,,,,,,,,,,,,,,,3.99,0.514240980148,0.000899076461792,0.384567022324,1,a,728.491246939,,,,,,,,,,,,,,,,,,,,,,,,,,,,,,,,,,,,,,,,,2015_Jun_23_1104,59.9247922643,LearningTask,1,38,
200,w,200,,,,,,,,,,,,,,,,,1,0,1,0,15,2,62,0,,,,,,,,,,,,,,,,,,,,,,,,,,,,,w,1,0.334470033646,None,0,0.5,trianglemagenta.gif,go,,,,,,,,,,,,,,,,,,,,,,,,0.57,0.513731002808,0.000919103622437,0.334470033646,1,w,731.494236946,,,,,,,,,,,,,,,,,,,,,,,,,,,,,,,,,,,,,,,,,2015_Jun_23_1104,59.9247922643,LearningTask,1,38,
200,s,-200,,,,,,,,,,,,,,,,,1,0,1,0,15,3,63,2,,,,,,,,,,,,,,,,,,,,,,,,,,,,,s,1,0.383740186691,None,0,1.0,diamondgray.gif,stop,,,,,,,,,,,,,,,,,,,,,,,,0,0.514118909836,0.000874042510986,0.383740186691,1,s,734.497592926,,,,,,,,,,,,,,,,,,,,,,,,,,,,,,,,,,,,,,,,,2015_Jun_23_1104,59.9247922643,LearningTask,1,38,
200,s,-200,,,,,,,,,,,,,,,,,1,0,1,0,16,0,64,2,,,,,,,,,,,,,,,,,,,,,,,,,,,,,s,1,0.351416826248,None,0,0.5,trianglemagenta.gif,go,,,,,,,,,,,,,,,,,,,,,,,,0,0.514114141464,0.000875949859619,0.351416826248,1,s,737.501260042,,,,,,,,,,,,,,,,,,,,,,,,,,,,,,,,,,,,,,,,,2015_Jun_23_1104,59.9247922643,LearningTask,1,38,
-200,a,-200,,,,,,,,,,,,,,,,,1,0,1,0,16,1,65,3,,,,,,,,,,,,,,,,,,,,,,,,,,,,,a,1,0.450843095779,None,0,0.5,trianglemagenta.gif,go,,,,,,,,,,,,,,,,,,,,,,,,0.68,0.51403093338,0.000890016555786,0.450843095779,1,a,740.504292011,,,,,,,,,,,,,,,,,,,,,,,,,,,,,,,,,,,,,,,,,2015_Jun_23_1104,59.9247922643,LearningTask,1,38,
200,w,200,,,,,,,,,,,,,,,,,1,0,1,0,16,2,66,0,,,,,,,,,,,,,,,,,,,,,,,,,,,,,w,1,0.467349052429,None,0,4.0,invertedtriangleblue.gif,go,,,,,,,,,,,,,,,,,,,,,,,,4.2,0.514424085617,0.000870943069458,0.467349052429,1,w,743.507483006,,,,,,,,,,,,,,,,,,,,,,,,,,,,,,,,,,,,,,,,,2015_Jun_23_1104,59.9247922643,LearningTask,1,38,
-200,q,200,,,,,,,,,,,,,,,,,1,0,1,0,16,3,67,1,,,,,,,,,,,,,,,,,,,,,,,,,,,,,q,1,0.384640932083,None,0,2.0,squarewhite.gif,stop,,,,,,,,,,,,,,,,,,,,,,,,1.83,0.514621019363,0.000886917114258,0.384640932083,1,q,746.511195898,,,,,,,,,,,,,,,,,,,,,,,,,,,,,,,,,,,,,,,,,2015_Jun_23_1104,59.9247922643,LearningTask,1,38,
200,s,-200,,,,,,,,,,,,,,,,,1,0,1,0,17,0,68,2,,,,,,,,,,,,,,,,,,,,,,,,,,,,,s,1,0.434226036072,None,0,2.0,squarewhite.gif,stop,,,,,,,,,,,,,,,,,,,,,,,,2.01,0.514391899109,0.000891923904419,0.434226036072,1,s,749.514471054,,,,,,,,,,,,,,,,,,,,,,,,,,,,,,,,,,,,,,,,,2015_Jun_23_1104,59.9247922643,LearningTask,1,38,
200,w,200,,,,,,,,,,,,,,,,,1,0,1,0,17,1,69,0,,,,,,,,,,,,,,,,,,,,,,,,,,,,,w,1,0.467420101166,None,0,1.0,diamondgray.gif,stop,,,,,,,,,,,,,,,,,,,,,,,,0.97,0.514595985413,0.00100588798523,0.467420101166,1,w,752.517891884,,,,,,,,,,,,,,,,,,,,,,,,,,,,,,,,,,,,,,,,,2015_Jun_23_1104,59.9247922643,LearningTask,1,38,
200,w,200,,,,,,,,,,,,,,,,,1,0,1,0,17,2,70,0,,,,,,,,,,,,,,,,,,,,,,,,,,,,,w,1,0.384029150009,None,0,1.0,crossgreen.gif,go,,,,,,,,,,,,,,,,,,,,,,,,1.14,0.514314889908,0.000874996185303,0.384029150009,1,w,755.521060944,,,,,,,,,,,,,,,,,,,,,,,,,,,,,,,,,,,,,,,,,2015_Jun_23_1104,59.9247922643,LearningTask,1,38,
-200,q,200,,,,,,,,,,,,,,,,,1,0,1,0,17,3,71,1,,,,,,,,,,,,,,,,,,,,,,,,,,,,,q,1,0.434017896652,None,0,2.0,circlecyan.gif,go,,,,,,,,,,,,,,,,,,,,,,,,1.97,0.514486074448,0.000880002975464,0.434017896652,1,q,758.524405003,,,,,,,,,,,,,,,,,,,,,,,,,,,,,,,,,,,,,,,,,2015_Jun_23_1104,59.9247922643,LearningTask,1,38,
-200,q,200,,,,,,,,,,,,,,,,,1,0,1,0,18,0,72,1,,,,,,,,,,,,,,,,,,,,,,,,,,,,,q,1,0.317954063416,None,0,2.0,circlecyan.gif,go,,,,,,,,,,,,,,,,,,,,,,,,1.82,0.514252901077,0.000996828079224,0.317954063416,1,q,761.527709961,,,,,,,,,,,,,,,,,,,,,,,,,,,,,,,,,,,,,,,,,2015_Jun_23_1104,59.9247922643,LearningTask,1,38,
200,s,-200,,,,,,,,,,,,,,,,,1,0,1,0,18,1,73,2,,,,,,,,,,,,,,,,,,,,,,,,,,,,,s,1,0.500737190247,None,0,1.0,crossgreen.gif,go,,,,,,,,,,,,,,,,,,,,,,,,1.03,0.514642953873,0.000878095626831,0.500737190247,1,s,764.531212091,,,,,,,,,,,,,,,,,,,,,,,,,,,,,,,,,,,,,,,,,2015_Jun_23_1104,59.9247922643,LearningTask,1,38,
-200,a,-200,,,,,,,,,,,,,,,,,1,0,1,0,18,2,74,3,,,,,,,,,,,,,,,,,,,,,,,,,,,,,a,1,0.568214893341,None,0,4.0,lineyellow.gif,stop,,,,,,,,,,,,,,,,,,,,,,,,3.75,0.513984918594,0.000875949859619,0.568214893341,1,a,767.534776926,,,,,,,,,,,,,,,,,,,,,,,,,,,,,,,,,,,,,,,,,2015_Jun_23_1104,59.9247922643,LearningTask,1,38,
-200,q,200,,,,,,,,,,,,,,,,,1,0,1,0,18,3,75,1,,,,,,,,,,,,,,,,,,,,,,,,,,,,,q,1,0.367129087448,None,0,0.5,trianglemagenta.gif,go,,,,,,,,,,,,,,,,,,,,,,,,0.73,0.513971090317,0.000890016555786,0.367129087448,1,q,770.537857056,,,,,,,,,,,,,,,,,,,,,,,,,,,,,,,,,,,,,,,,,2015_Jun_23_1104,59.9247922643,LearningTask,1,38,
-200,q,200,,,,,,,,,,,,,,,,,1,0,1,0,19,0,76,1,,,,,,,,,,,,,,,,,,,,,,,,,,,,,q,1,0.334127902985,None,0,0.5,hexagonorange.gif,stop,,,,,,,,,,,,,,,,,,,,,,,,0.52,0.514036178589,0.000868082046509,0.334127902985,1,q,773.54122591,,,,,,,,,,,,,,,,,,,,,,,,,,,,,,,,,,,,,,,,,2015_Jun_23_1104,59.9247922643,LearningTask,1,38,
200,s,-200,,,,,,,,,,,,,,,,,1,0,1,0,19,1,77,2,,,,,,,,,,,,,,,,,,,,,,,,,,,,,s,1,0.500952959061,None,0,2.0,circlecyan.gif,go,,,,,,,,,,,,,,,,,,,,,,,,1.89,0.514351844788,0.000872850418091,0.500952959061,1,s,776.544925928,,,,,,,,,,,,,,,,,,,,,,,,,,,,,,,,,,,,,,,,,2015_Jun_23_1104,59.9247922643,LearningTask,1,38,
-200,a,-200,,,,,,,,,,,,,,,,,1,0,1,0,19,2,78,3,,,,,,,,,,,,,,,,,,,,,,,,,,,,,a,1,0.534060955048,None,0,0.5,trianglemagenta.gif,go,,,,,,,,,,,,,,,,,,,,,,,,0.67,0.514034032822,0.000990152359009,0.534060955048,1,a,779.548075914,,,,,,,,,,,,,,,,,,,,,,,,,,,,,,,,,,,,,,,,,2015_Jun_23_1104,59.9247922643,LearningTask,1,38,
200,w,200,,,,,,,,,,,,,,,,,1,0,1,0,19,3,79,0,,,,,,,,,,,,,,,,,,,,,,,,,,,,,w,1,0.300742149353,None,0,2.0,circlecyan.gif,go,,,,,,,,,,,,,,,,,,,,,,,,2.2,0.514255046844,0.00103616714478,0.300742149353,1,w,782.551645994,,,,,,,,,,,,,,,,,,,,,,,,,,,,,,,,,,,,,,,,,2015_Jun_23_1104,59.9247922643,LearningTask,1,38,
-200,a,-200,,,,,,,,,,,,,,,,,1,0,1,0,20,0,80,3,,,,,,,,,,,,,,,,,,,,,,,,,,,,,a,1,0.384773015976,None,0,0.5,trianglemagenta.gif,go,,,,,,,,,,,,,,,,,,,,,,,,0,0.514101982117,0.000953912734985,0.384773015976,1,a,785.555025101,,,,,,,,,,,,,,,,,,,,,,,,,,,,,,,,,,,,,,,,,2015_Jun_23_1104,59.9247922643,LearningTask,1,38,
-200,a,-200,,,,,,,,,,,,,,,,,1,0,1,0,20,1,81,3,,,,,,,,,,,,,,,,,,,,,,,,,,,,,a,1,0.36794090271,None,0,4.0,invertedtriangleblue.gif,go,,,,,,,,,,,,,,,,,,,,,,,,0,0.513611078262,0.000897169113159,0.36794090271,1,a,788.558105946,,,,,,,,,,,,,,,,,,,,,,,,,,,,,,,,,,,,,,,,,2015_Jun_23_1104,59.9247922643,LearningTask,1,38,
-200,a,-200,,,,,,,,,,,,,,,,,1,0,1,0,20,2,82,3,,,,,,,,,,,,,,,,,,,,,,,,,,,,,a,1,0.517528057098,None,0,1.0,diamondgray.gif,stop,,,,,,,,,,,,,,,,,,,,,,,,0,0.514307975769,0.000880002975464,0.517528057098,1,a,791.561291933,,,,,,,,,,,,,,,,,,,,,,,,,,,,,,,,,,,,,,,,,2015_Jun_23_1104,59.9247922643,LearningTask,1,38,
200,s,-200,,,,,,,,,,,,,,,,,1,0,1,0,20,3,83,2,,,,,,,,,,,,,,,,,,,,,,,,,,,,,s,1,0.367390155792,None,0,0.5,hexagonorange.gif,stop,,,,,,,,,,,,,,,,,,,,,,,,0.3,0.514548063278,0.000893115997314,0.367390155792,1,s,794.564749956,,,,,,,,,,,,,,,,,,,,,,,,,,,,,,,,,,,,,,,,,2015_Jun_23_1104,59.9247922643,LearningTask,1,38,
-200,a,-200,,,,,,,,,,,,,,,,,1,0,1,0,21,0,84,3,,,,,,,,,,,,,,,,,,,,,,,,,,,,,a,1,0.450750827789,None,0,0.5,hexagonorange.gif,stop,,,,,,,,,,,,,,,,,,,,,,,,0.57,0.514359951019,0.000874996185303,0.450750827789,1,a,797.568190098,,,,,,,,,,,,,,,,,,,,,,,,,,,,,,,,,,,,,,,,,2015_Jun_23_1104,59.9247922643,LearningTask,1,38,
200,w,200,,,,,,,,,,,,,,,,,1,0,1,0,21,1,85,0,,,,,,,,,,,,,,,,,,,,,,,,,,,,,w,1,0.367356061935,None,0,2.0,squarewhite.gif,stop,,,,,,,,,,,,,,,,,,,,,,,,1.79,0.514213085175,0.000993013381958,0.367356061935,1,w,800.571779966,,,,,,,,,,,,,,,,,,,,,,,,,,,,,,,,,,,,,,,,,2015_Jun_23_1104,59.9247922643,LearningTask,1,38,
-200,a,-200,,,,,,,,,,,,,,,,,1,0,1,0,21,2,86,3,,,,,,,,,,,,,,,,,,,,,,,,,,,,,a,1,0.484560966492,None,0,1.0,diamondgray.gif,stop,,,,,,,,,,,,,,,,,,,,,,,,0,0.513895988464,0.000874996185303,0.484560966492,1,a,803.57489109,,,,,,,,,,,,,,,,,,,,,,,,,,,,,,,,,,,,,,,,,2015_Jun_23_1104,59.9247922643,LearningTask,1,38,
-200,q,200,,,,,,,,,,,,,,,,,1,0,1,0,21,3,87,1,,,,,,,,,,,,,,,,,,,,,,,,,,,,,q,1,0.401142120361,None,0,4.0,lineyellow.gif,stop,,,,,,,,,,,,,,,,,,,,,,,,3.99,0.514215946198,0.000902891159058,0.401142120361,1,q,806.578214884,,,,,,,,,,,,,,,,,,,,,,,,,,,,,,,,,,,,,,,,,2015_Jun_23_1104,59.9247922643,LearningTask,1,38,
200,w,200,,,,,,,,,,,,,,,,,1,0,1,0,22,0,88,0,,,,,,,,,,,,,,,,,,,,,,,,,,,,,w,1,0.384642124176,None,0,2.0,squarewhite.gif,stop,,,,,,,,,,,,,,,,,,,,,,,,2.05,0.51403093338,0.000985860824585,0.384642124176,1,w,809.581432104,,,,,,,,,,,,,,,,,,,,,,,,,,,,,,,,,,,,,,,,,2015_Jun_23_1104,59.9247922643,LearningTask,1,38,
200,s,-200,,,,,,,,,,,,,,,,,1,0,1,0,22,1,89,2,,,,,,,,,,,,,,,,,,,,,,,,,,,,,s,1,0.351199150085,None,0,2.0,squarewhite.gif,stop,,,,,,,,,,,,,,,,,,,,,,,,2.11,0.514327049255,0.000874996185303,0.351199150085,1,s,812.584857941,,,,,,,,,,,,,,,,,,,,,,,,,,,,,,,,,,,,,,,,,2015_Jun_23_1104,59.9247922643,LearningTask,1,38,
-200,a,-200,,,,,,,,,,,,,,,,,1,0,1,0,22,2,90,3,,,,,,,,,,,,,,,,,,,,,,,,,,,,,a,1,0.434221982956,None,0,2.0,circlecyan.gif,go,,,,,,,,,,,,,,,,,,,,,,,,2.21,0.514293193817,0.000871181488037,0.434221982956,1,a,815.588468075,,,,,,,,,,,,,,,,,,,,,,,,,,,,,,,,,,,,,,,,,2015_Jun_23_1104,59.9247922643,LearningTask,1,38,
-200,a,-200,,,,,,,,,,,,,,,,,1,0,1,0,22,3,91,3,,,,,,,,,,,,,,,,,,,,,,,,,,,,,a,1,0.417303085327,None,0,0.5,trianglemagenta.gif,go,,,,,,,,,,,,,,,,,,,,,,,,0.5,0.514276027679,0.000901937484741,0.417303085327,1,a,818.591541052,,,,,,,,,,,,,,,,,,,,,,,,,,,,,,,,,,,,,,,,,2015_Jun_23_1104,59.9247922643,LearningTask,1,38,
-200,q,200,,,,,,,,,,,,,,,,,1,0,1,0,23,0,92,1,,,,,,,,,,,,,,,,,,,,,,,,,,,,,q,1,0.384137153625,None,0,2.0,squarewhite.gif,stop,,,,,,,,,,,,,,,,,,,,,,,,2.01,0.514334917068,0.000866889953613,0.384137153625,1,q,821.59493804,,,,,,,,,,,,,,,,,,,,,,,,,,,,,,,,,,,,,,,,,2015_Jun_23_1104,59.9247922643,LearningTask,1,38,
-200,q,200,,,,,,,,,,,,,,,,,1,0,1,0,23,1,93,1,,,,,,,,,,,,,,,,,,,,,,,,,,,,,q,1,0.434519052505,None,0,1.0,diamondgray.gif,stop,,,,,,,,,,,,,,,,,,,,,,,,0,0.514322042465,0.000882148742676,0.434519052505,1,q,824.598586082,,,,,,,,,,,,,,,,,,,,,,,,,,,,,,,,,,,,,,,,,2015_Jun_23_1104,59.9247922643,LearningTask,1,38,
200,w,200,,,,,,,,,,,,,,,,,1,0,1,0,23,2,94,0,,,,,,,,,,,,,,,,,,,,,,,,,,,,,w,1,0.333871841431,None,0,0.5,hexagonorange.gif,stop,,,,,,,,,,,,,,,,,,,,,,,,0.71,0.514086008072,0.000900983810425,0.333871841431,1,w,827.601514101,,,,,,,,,,,,,,,,,,,,,,,,,,,,,,,,,,,,,,,,,2015_Jun_23_1104,59.9247922643,LearningTask,1,38,
-200,q,200,,,,,,,,,,,,,,,,,1,0,1,0,23,3,95,1,,,,,,,,,,,,,,,,,,,,,,,,,,,,,q,1,0.40059709549,None,0,1.0,crossgreen.gif,go,,,,,,,,,,,,,,,,,,,,,,,,0.8,0.514351129532,0.00096607208252,0.40059709549,1,q,830.605159044,,,,,,,,,,,,,,,,,,,,,,,,,,,,,,,,,,,,,,,,,2015_Jun_23_1104,59.9247922643,LearningTask,1,38,
-200,a,-200,,,,,,,,,,,,,,,,,1,0,1,0,24,0,96,3,,,,,,,,,,,,,,,,,,,,,,,,,,,,,a,1,0.400871038437,None,0,0.5,hexagonorange.gif,stop,,,,,,,,,,,,,,,,,,,,,,,,0.3,0.514156103134,0.000887155532837,0.400871038437,1,a,833.608509064,,,,,,,,,,,,,,,,,,,,,,,,,,,,,,,,,,,,,,,,,2015_Jun_23_1104,59.9247922643,LearningTask,1,38,
200,w,200,,,,,,,,,,,,,,,,,1,0,1,0,24,1,97,0,,,,,,,,,,,,,,,,,,,,,,,,,,,,,w,1,0.367218971252,None,0,4.0,invertedtriangleblue.gif,go,,,,,,,,,,,,,,,,,,,,,,,,4.15,0.51406788826,0.000907897949219,0.367218971252,1,w,836.611680031,,,,,,,,,,,,,,,,,,,,,,,,,,,,,,,,,,,,,,,,,2015_Jun_23_1104,59.9247922643,LearningTask,1,38,
-200,a,-200,,,,,,,,,,,,,,,,,1,0,1,0,24,2,98,3,,,,,,,,,,,,,,,,,,,,,,,,,,,,,a,1,0.401320934296,None,0,0.5,hexagonorange.gif,stop,,,,,,,,,,,,,,,,,,,,,,,,0,0.51435303688,0.000932931900024,0.401320934296,1,a,839.614986897,,,,,,,,,,,,,,,,,,,,,,,,,,,,,,,,,,,,,,,,,2015_Jun_23_1104,59.9247922643,LearningTask,1,38,
-200,a,-200,,,,,,,,,,,,,,,,,1,0,1,0,24,3,99,3,,,,,,,,,,,,,,,,,,,,,,,,,,,,,a,1,0.4172270298,None,0,1.0,diamondgray.gif,stop,,,,,,,,,,,,,,,,,,,,,,,,1.12,0.514555931091,0.000876903533936,0.4172270298,1,a,842.618515015,,,,,,,,,,,,,,,,,,,,,,,,,,,,,,,,,,,,,,,,,2015_Jun_23_1104,59.9247922643,LearningTask,1,38,
,,,,,,,,,,,,,,,,,,,1,0,1,0,,,,,,,,,,,,,,,,,,,,,,,,,,,,,,,,,,,,,,,,,,,,,,,,,,,,,,,,,,,,,,,,,,,,,,,,,,,,,,9,2.30158782005,,,,,,,,,,,,,,,,,,,,,,,,,,,,,,,,2015_Jun_23_1104,59.9247922643,LearningTask,1,38,
200,s,-200,,,,,,,,,,,,,,,,,2,0,2,0,0,0,0,2,,,,,,,,,,,,,,,,,,,,,,,,,,,,,s,1,0.434781074524,None,0,0.5,trianglemagenta.gif,go,,,,,,,,,,,,,,,,,,,,,,,,0.38,0.509650945663,0.000920057296753,0.434781074524,1,s,848.425396919,,,,,,,,,,,,,,,,,,,,,,,,,,,,,,,,,,,,,,,,,2015_Jun_23_1104,59.9247922643,LearningTask,1,38,
200,w,200,,,,,,,,,,,,,,,,,2,0,2,0,0,1,1,0,,,,,,,,,,,,,,,,,,,,,,,,,,,,,w,1,0.350852966309,None,0,2.0,circlecyan.gif,go,,,,,,,,,,,,,,,,,,,,,,,,1.82,0.513714790344,0.000886917114258,0.350852966309,1,w,851.428549051,,,,,,,,,,,,,,,,,,,,,,,,,,,,,,,,,,,,,,,,,2015_Jun_23_1104,59.9247922643,LearningTask,1,38,
200,w,200,,,,,,,,,,,,,,,,,2,0,2,0,0,2,2,0,,,,,,,,,,,,,,,,,,,,,,,,,,,,,w,1,0.384483098984,None,0,4.0,invertedtriangleblue.gif,go,,,,,,,,,,,,,,,,,,,,,,,,3.82,0.513618946075,0.000878095626831,0.384483098984,1,w,854.431873083,,,,,,,,,,,,,,,,,,,,,,,,,,,,,,,,,,,,,,,,,2015_Jun_23_1104,59.9247922643,LearningTask,1,38,
200,s,-200,,,,,,,,,,,,,,,,,2,0,2,0,0,3,3,2,,,,,,,,,,,,,,,,,,,,,,,,,,,,,s,1,0.350864887238,None,0,4.0,invertedtriangleblue.gif,go,,,,,,,,,,,,,,,,,,,,,,,,3.76,0.513958930969,0.00116205215454,0.350864887238,1,s,857.435190916,,,,,,,,,,,,,,,,,,,,,,,,,,,,,,,,,,,,,,,,,2015_Jun_23_1104,59.9247922643,LearningTask,1,38,
-200,a,-200,,,,,,,,,,,,,,,,,2,0,2,0,1,0,4,3,,,,,,,,,,,,,,,,,,,,,,,,,,,,,a,1,0.451071977615,None,0,1.0,crossgreen.gif,go,,,,,,,,,,,,,,,,,,,,,,,,0.82,0.514121055603,0.000885963439941,0.451071977615,1,a,860.438430071,,,,,,,,,,,,,,,,,,,,,,,,,,,,,,,,,,,,,,,,,2015_Jun_23_1104,59.9247922643,LearningTask,1,38,
-200,q,200,,,,,,,,,,,,,,,,,2,0,2,0,1,1,5,1,,,,,,,,,,,,,,,,,,,,,,,,,,,,,q,1,0.333877086639,None,0,2.0,circlecyan.gif,go,,,,,,,,,,,,,,,,,,,,,,,,2.22,0.514220952988,0.000872135162354,0.333877086639,1,q,863.441617966,,,,,,,,,,,,,,,,,,,,,,,,,,,,,,,,,,,,,,,,,2015_Jun_23_1104,59.9247922643,LearningTask,1,38,
-200,a,-200,,,,,,,,,,,,,,,,,2,0,2,0,1,2,6,3,,,,,,,,,,,,,,,,,,,,,,,,,,,,,a,1,0.417187929153,None,0,2.0,circlecyan.gif,go,,,,,,,,,,,,,,,,,,,,,,,,0,0.514134883881,0.000992059707642,0.417187929153,1,a,866.444915056,,,,,,,,,,,,,,,,,,,,,,,,,,,,,,,,,,,,,,,,,2015_Jun_23_1104,59.9247922643,LearningTask,1,38,
-200,q,200,,,,,,,,,,,,,,,,,2,0,2,0,1,3,7,1,,,,,,,,,,,,,,,,,,,,,,,,,,,,,q,1,0.434005022049,None,0,2.0,circlecyan.gif,go,,,,,,,,,,,,,,,,,,,,,,,,1.91,0.514505147934,0.000869989395142,0.434005022049,1,q,869.448451042,,,,,,,,,,,,,,,,,,,,,,,,,,,,,,,,,,,,,,,,,2015_Jun_23_1104,59.9247922643,LearningTask,1,38,
-200,q,200,,,,,,,,,,,,,,,,,2,0,2,0,2,0,8,1,,,,,,,,,,,,,,,,,,,,,,,,,,,,,q,1,0.334333896637,None,0,2.0,squarewhite.gif,stop,,,,,,,,,,,,,,,,,,,,,,,,2.18,0.514008998871,0.000868797302246,0.334333896637,1,q,872.451679945,,,,,,,,,,,,,,,,,,,,,,,,,,,,,,,,,,,,,,,,,2015_Jun_23_1104,59.9247922643,LearningTask,1,38,
200,s,-200,,,,,,,,,,,,,,,,,2,0,2,0,2,1,9,2,,,,,,,,,,,,,,,,,,,,,,,,,,,,,s,1,0.417865991592,None,0,0.5,trianglemagenta.gif,go,,,,,,,,,,,,,,,,,,,,,,,,0.27,0.513815879822,0.000955820083618,0.417865991592,1,s,875.455125093,,,,,,,,,,,,,,,,,,,,,,,,,,,,,,,,,,,,,,,,,2015_Jun_23_1104,59.9247922643,LearningTask,1,38,
-200,a,-200,,,,,,,,,,,,,,,,,2,0,2,0,2,2,10,3,,,,,,,,,,,,,,,,,,,,,,,,,,,,,a,1,0.51811003685,None,0,2.0,circlecyan.gif,go,,,,,,,,,,,,,,,,,,,,,,,,0,0.51415514946,0.00088095664978,0.401408910751,0,q,878.458313942,2.23,0.515399217606,0.000946044921875,0.51811003685,1,a,881.462037086,,,,,,,,,,,,,,,,,,,,,,,,,,,,,,,,,,2015_Jun_23_1104,59.9247922643,LearningTask,1,38,
200,s,-200,,,,,,,,,,,,,,,,,2,0,2,0,2,3,11,2,,,,,,,,,,,,,,,,,,,,,,,,,,,,,s,1,0.45099902153,None,0,0.5,hexagonorange.gif,stop,,,,,,,,,,,,,,,,,,,,,,,,0.27,0.513941049576,0.000930070877075,0.45099902153,1,s,884.465219021,,,,,,,,,,,,,,,,,,,,,,,,,,,,,,,,,,,,,,,,,2015_Jun_23_1104,59.9247922643,LearningTask,1,38,
200,s,-200,,,,,,,,,,,,,,,,,2,0,2,0,3,0,12,2,,,,,,,,,,,,,,,,,,,,,,,,,,,,,s,1,0.3847219944,None,0,2.0,circlecyan.gif,go,,,,,,,,,,,,,,,,,,,,,,,,0,0.514289855957,0.000870943069458,0.3847219944,1,s,887.469026089,,,,,,,,,,,,,,,,,,,,,,,,,,,,,,,,,,,,,,,,,2015_Jun_23_1104,59.9247922643,LearningTask,1,38,
200,s,-200,,,,,,,,,,,,,,,,,2,0,2,0,3,1,13,2,,,,,,,,,,,,,,,,,,,,,,,,,,,,,s,1,0.351058959961,None,0,2.0,circlecyan.gif,go,,,,,,,,,,,,,,,,,,,,,,,,2.23,0.513622045517,0.000886201858521,0.351058959961,1,s,890.472871065,,,,,,,,,,,,,,,,,,,,,,,,,,,,,,,,,,,,,,,,,2015_Jun_23_1104,59.9247922643,LearningTask,1,38,
200,w,200,,,,,,,,,,,,,,,,,2,0,2,0,3,2,14,0,,,,,,,,,,,,,,,,,,,,,,,,,,,,,w,1,0.56761598587,None,0,0.5,trianglemagenta.gif,go,,,,,,,,,,,,,,,,,,,,,,,,0.31,0.512891054153,0.00094199180603,0.56761598587,1,w,893.475113869,,,,,,,,,,,,,,,,,,,,,,,,,,,,,,,,,,,,,,,,,2015_Jun_23_1104,59.9247922643,LearningTask,1,38,
-200,a,-200,,,,,,,,,,,,,,,,,2,0,2,0,3,3,15,3,,,,,,,,,,,,,,,,,,,,,,,,,,,,,a,1,0.500353813171,None,0,4.0,invertedtriangleblue.gif,go,,,,,,,,,,,,,,,,,,,,,,,,3.95,0.514814853668,0.000874042510986,0.500353813171,1,a,896.478489876,,,,,,,,,,,,,,,,,,,,,,,,,,,,,,,,,,,,,,,,,2015_Jun_23_1104,59.9247922643,LearningTask,1,38,
-200,a,-200,,,,,,,,,,,,,,,,,2,0,2,0,4,0,16,3,,,,,,,,,,,,,,,,,,,,,,,,,,,,,a,1,0.517714977264,None,0,1.0,diamondgray.gif,stop,,,,,,,,,,,,,,,,,,,,,,,,0.79,0.514418840408,0.000869989395142,0.517714977264,1,a,899.481976986,,,,,,,,,,,,,,,,,,,,,,,,,,,,,,,,,,,,,,,,,2015_Jun_23_1104,59.9247922643,LearningTask,1,38,
200,w,200,,,,,,,,,,,,,,,,,2,0,2,0,4,1,17,0,,,,,,,,,,,,,,,,,,,,,,,,,,,,,w,1,0.483830928802,None,0,1.0,crossgreen.gif,go,,,,,,,,,,,,,,,,,,,,,,,,1.15,0.514446020126,0.000874042510986,0.483830928802,1,w,902.485469103,,,,,,,,,,,,,,,,,,,,,,,,,,,,,,,,,,,,,,,,,2015_Jun_23_1104,59.9247922643,LearningTask,1,38,
-200,q,200,,,,,,,,,,,,,,,,,2,0,2,0,4,2,18,1,,,,,,,,,,,,,,,,,,,,,,,,,,,,,q,1,0.400861978531,None,0,1.0,crossgreen.gif,go,,,,,,,,,,,,,,,,,,,,,,,,0.8,0.514105081558,0.00113916397095,0.400861978531,1,q,905.488641977,,,,,,,,,,,,,,,,,,,,,,,,,,,,,,,,,,,,,,,,,2015_Jun_23_1104,59.9247922643,LearningTask,1,38,
-200,q,200,,,,,,,,,,,,,,,,,2,0,2,0,4,3,19,1,,,,,,,,,,,,,,,,,,,,,,,,,,,,,q,1,0.367702007294,None,0,4.0,lineyellow.gif,stop,,,,,,,,,,,,,,,,,,,,,,,,4.02,0.514161109924,0.000892162322998,0.367702007294,1,q,908.49201107,,,,,,,,,,,,,,,,,,,,,,,,,,,,,,,,,,,,,,,,,2015_Jun_23_1104,59.9247922643,LearningTask,1,38,
-200,a,-200,,,,,,,,,,,,,,,,,2,0,2,0,5,0,20,3,,,,,,,,,,,,,,,,,,,,,,,,,,,,,a,1,0.43420791626,None,0,0.5,trianglemagenta.gif,go,,,,,,,,,,,,,,,,,,,,,,,,0.4,0.514136075974,0.000874042510986,0.43420791626,1,a,911.495233059,,,,,,,,,,,,,,,,,,,,,,,,,,,,,,,,,,,,,,,,,2015_Jun_23_1104,59.9247922643,LearningTask,1,38,
200,s,-200,,,,,,,,,,,,,,,,,2,0,2,0,5,1,21,2,,,,,,,,,,,,,,,,,,,,,,,,,,,,,s,1,0.400645971298,None,0,0.5,hexagonorange.gif,stop,,,,,,,,,,,,,,,,,,,,,,,,0.3,0.514299869537,0.000933885574341,0.400645971298,1,s,914.500408888,,,,,,,,,,,,,,,,,,,,,,,,,,,,,,,,,,,,,,,,,2015_Jun_23_1104,59.9247922643,LearningTask,1,38,
-200,a,-200,,,,,,,,,,,,,,,,,2,0,2,0,5,2,22,3,,,,,,,,,,,,,,,,,,,,,,,,,,,,,a,1,0.484304904938,None,0,1.0,crossgreen.gif,go,,,,,,,,,,,,,,,,,,,,,,,,0.77,0.511739015579,0.00160884857178,0.484304904938,1,a,917.502238989,,,,,,,,,,,,,,,,,,,,,,,,,,,,,,,,,,,,,,,,,2015_Jun_23_1104,59.9247922643,LearningTask,1,38,
-200,a,-200,,,,,,,,,,,,,,,,,2,0,2,0,5,3,23,3,,,,,,,,,,,,,,,,,,,,,,,,,,,,,a,1,0.401180028915,None,0,2.0,squarewhite.gif,stop,,,,,,,,,,,,,,,,,,,,,,,,2.18,0.513867139816,0.000885009765625,0.401180028915,1,a,920.505316973,,,,,,,,,,,,,,,,,,,,,,,,,,,,,,,,,,,,,,,,,2015_Jun_23_1104,59.9247922643,LearningTask,1,38,
200,w,200,,,,,,,,,,,,,,,,,2,0,2,0,6,0,24,0,,,,,,,,,,,,,,,,,,,,,,,,,,,,,w,1,0.384354114532,None,0,2.0,squarewhite.gif,stop,,,,,,,,,,,,,,,,,,,,,,,,0,0.513329982758,0.00126481056213,0.384354114532,1,w,923.508760929,,,,,,,,,,,,,,,,,,,,,,,,,,,,,,,,,,,,,,,,,2015_Jun_23_1104,59.9247922643,LearningTask,1,38,
-200,q,200,,,,,,,,,,,,,,,,,2,0,2,0,6,1,25,1,,,,,,,,,,,,,,,,,,,,,,,,,,,,,q,1,0.46790599823,None,0,1.0,crossgreen.gif,go,,,,,,,,,,,,,,,,,,,,,,,,0,0.513992071152,0.00121808052063,0.46790599823,1,q,926.512115955,,,,,,,,,,,,,,,,,,,,,,,,,,,,,,,,,,,,,,,,,2015_Jun_23_1104,59.9247922643,LearningTask,1,38,
200,w,200,,,,,,,,,,,,,,,,,2,0,2,0,6,2,26,0,,,,,,,,,,,,,,,,,,,,,,,,,,,,,w,1,0.36737704277,None,0,4.0,invertedtriangleblue.gif,go,,,,,,,,,,,,,,,,,,,,,,,,4.14,0.514268875122,0.0012629032135,0.36737704277,1,w,929.515753031,,,,,,,,,,,,,,,,,,,,,,,,,,,,,,,,,,,,,,,,,2015_Jun_23_1104,59.9247922643,LearningTask,1,38,
-200,q,200,,,,,,,,,,,,,,,,,2,0,2,0,6,3,27,1,,,,,,,,,,,,,,,,,,,,,,,,,,,,,q,1,0.384401082993,None,0,1.0,diamondgray.gif,stop,,,,,,,,,,,,,,,,,,,,,,,,1.21,0.513614177704,0.00131106376648,0.384401082993,1,q,932.518945932,,,,,,,,,,,,,,,,,,,,,,,,,,,,,,,,,,,,,,,,,2015_Jun_23_1104,59.9247922643,LearningTask,1,38,
200,s,-200,,,,,,,,,,,,,,,,,2,0,2,0,7,0,28,2,,,,,,,,,,,,,,,,,,,,,,,,,,,,,s,1,0.501034021378,None,0,4.0,lineyellow.gif,stop,,,,,,,,,,,,,,,,,,,,,,,,4.05,0.514247894287,0.00125598907471,0.501034021378,1,s,935.522515059,,,,,,,,,,,,,,,,,,,,,,,,,,,,,,,,,,,,,,,,,2015_Jun_23_1104,59.9247922643,LearningTask,1,38,
200,w,200,,,,,,,,,,,,,,,,,2,0,2,0,7,1,29,0,,,,,,,,,,,,,,,,,,,,,,,,,,,,,w,1,0.401298046112,None,0,0.5,hexagonorange.gif,stop,,,,,,,,,,,,,,,,,,,,,,,,0.7,0.513831853867,0.00133180618286,0.401298046112,1,w,938.525871038,,,,,,,,,,,,,,,,,,,,,,,,,,,,,,,,,,,,,,,,,2015_Jun_23_1104,59.9247922643,LearningTask,1,38,
-200,q,200,,,,,,,,,,,,,,,,,2,0,2,0,7,2,30,1,,,,,,,,,,,,,,,,,,,,,,,,,,,,,q,1,0.350764036179,None,0,4.0,lineyellow.gif,stop,,,,,,,,,,,,,,,,,,,,,,,,3.89,0.513807058334,0.00090217590332,0.350764036179,1,q,941.528882027,,,,,,,,,,,,,,,,,,,,,,,,,,,,,,,,,,,,,,,,,2015_Jun_23_1104,59.9247922643,LearningTask,1,38,
200,w,200,,,,,,,,,,,,,,,,,2,0,2,0,7,3,31,0,,,,,,,,,,,,,,,,,,,,,,,,,,,,,w,1,0.401338100433,None,0,2.0,circlecyan.gif,go,,,,,,,,,,,,,,,,,,,,,,,,2.17,0.514320135117,0.00126814842224,0.401338100433,1,w,944.532274961,,,,,,,,,,,,,,,,,,,,,,,,,,,,,,,,,,,,,,,,,2015_Jun_23_1104,59.9247922643,LearningTask,1,38,
-200,a,-200,,,,,,,,,,,,,,,,,2,0,2,0,8,0,32,3,,,,,,,,,,,,,,,,,,,,,,,,,,,,,a,1,0.584737062454,None,0,4.0,invertedtriangleblue.gif,go,,,,,,,,,,,,,,,,,,,,,,,,4.15,0.513903856277,0.000902891159058,0.584737062454,1,a,947.535650969,,,,,,,,,,,,,,,,,,,,,,,,,,,,,,,,,,,,,,,,,2015_Jun_23_1104,59.9247922643,LearningTask,1,38,
-200,a,-200,,,,,,,,,,,,,,,,,2,0,2,0,8,1,33,3,,,,,,,,,,,,,,,,,,,,,,,,,,,,,a,1,0.467344045639,None,0,2.0,squarewhite.gif,stop,,,,,,,,,,,,,,,,,,,,,,,,0,0.514452934265,0.000862836837769,0.467344045639,1,a,950.539083004,,,,,,,,,,,,,,,,,,,,,,,,,,,,,,,,,,,,,,,,,2015_Jun_23_1104,59.9247922643,LearningTask,1,38,
-200,q,200,,,,,,,,,,,,,,,,,2,0,2,0,8,2,34,1,,,,,,,,,,,,,,,,,,,,,,,,,,,,,q,1,0.400851011276,None,0,4.0,lineyellow.gif,stop,,,,,,,,,,,,,,,,,,,,,,,,4.25,0.514142036438,0.00100111961365,0.400851011276,1,q,953.542579889,,,,,,,,,,,,,,,,,,,,,,,,,,,,,,,,,,,,,,,,,2015_Jun_23_1104,59.9247922643,LearningTask,1,38,
200,s,-200,,,,,,,,,,,,,,,,,2,0,2,0,8,3,35,2,,,,,,,,,,,,,,,,,,,,,,,,,,,,,s,1,0.351295948029,None,0,4.0,invertedtriangleblue.gif,go,,,,,,,,,,,,,,,,,,,,,,,,4.02,0.513988018036,0.00088095664978,0.351295948029,1,s,956.545799017,,,,,,,,,,,,,,,,,,,,,,,,,,,,,,,,,,,,,,,,,2015_Jun_23_1104,59.9247922643,LearningTask,1,38,
200,w,200,,,,,,,,,,,,,,,,,2,0,2,0,9,0,36,0,,,,,,,,,,,,,,,,,,,,,,,,,,,,,w,1,0.384122848511,None,0,1.0,crossgreen.gif,go,,,,,,,,,,,,,,,,,,,,,,,,0,0.514276981354,0.000871896743774,0.384122848511,1,w,959.549020052,,,,,,,,,,,,,,,,,,,,,,,,,,,,,,,,,,,,,,,,,2015_Jun_23_1104,59.9247922643,LearningTask,1,38,
200,s,-200,,,,,,,,,,,,,,,,,2,0,2,0,9,1,37,2,,,,,,,,,,,,,,,,,,,,,,,,,,,,,s,1,0.400167942047,None,0,2.0,squarewhite.gif,stop,,,,,,,,,,,,,,,,,,,,,,,,1.94,0.514201164246,0.000964164733887,0.400167942047,1,s,962.552460909,,,,,,,,,,,,,,,,,,,,,,,,,,,,,,,,,,,,,,,,,2015_Jun_23_1104,59.9247922643,LearningTask,1,38,
200,w,200,,,,,,,,,,,,,,,,,2,0,2,0,9,2,38,0,,,,,,,,,,,,,,,,,,,,,,,,,,,,,w,1,0.367605924606,None,0,2.0,squarewhite.gif,stop,,,,,,,,,,,,,,,,,,,,,,,,2.25,0.51456284523,0.00086498260498,0.367605924606,1,w,965.556025028,,,,,,,,,,,,,,,,,,,,,,,,,,,,,,,,,,,,,,,,,2015_Jun_23_1104,59.9247922643,LearningTask,1,38,
-200,a,-200,,,,,,,,,,,,,,,,,2,0,2,0,9,3,39,3,,,,,,,,,,,,,,,,,,,,,,,,,,,,,a,1,0.468111038208,None,0,1.0,crossgreen.gif,go,,,,,,,,,,,,,,,,,,,,,,,,1.25,0.513875961304,0.000882863998413,0.468111038208,1,a,968.559458017,,,,,,,,,,,,,,,,,,,,,,,,,,,,,,,,,,,,,,,,,2015_Jun_23_1104,59.9247922643,LearningTask,1,38,
-200,q,200,,,,,,,,,,,,,,,,,2,0,2,0,10,0,40,1,,,,,,,,,,,,,,,,,,,,,,,,,,,,,q,1,0.400255918503,None,0,2.0,squarewhite.gif,stop,,,,,,,,,,,,,,,,,,,,,,,,1.89,0.514101982117,0.000968933105469,0.400255918503,1,q,971.562486887,,,,,,,,,,,,,,,,,,,,,,,,,,,,,,,,,,,,,,,,,2015_Jun_23_1104,59.9247922643,LearningTask,1,38,
200,w,200,,,,,,,,,,,,,,,,,2,0,2,0,10,1,41,0,,,,,,,,,,,,,,,,,,,,,,,,,,,,,w,1,0.434352874756,None,0,2.0,circlecyan.gif,go,,,,,,,,,,,,,,,,,,,,,,,,0,0.514375925064,0.000875949859619,0.434352874756,1,w,974.565910101,,,,,,,,,,,,,,,,,,,,,,,,,,,,,,,,,,,,,,,,,2015_Jun_23_1104,59.9247922643,LearningTask,1,38,
-200,a,-200,,,,,,,,,,,,,,,,,2,0,2,0,10,2,42,3,,,,,,,,,,,,,,,,,,,,,,,,,,,,,a,1,0.401061058044,None,0,1.0,diamondgray.gif,stop,,,,,,,,,,,,,,,,,,,,,,,,0,0.5140209198,0.0011510848999,0.401061058044,1,a,977.569715977,,,,,,,,,,,,,,,,,,,,,,,,,,,,,,,,,,,,,,,,,2015_Jun_23_1104,59.9247922643,LearningTask,1,38,
-200,a,-200,,,,,,,,,,,,,,,,,2,0,2,0,10,3,43,3,,,,,,,,,,,,,,,,,,,,,,,,,,,,,a,1,0.400979995728,None,0,0.5,trianglemagenta.gif,go,,,,,,,,,,,,,,,,,,,,,,,,0.25,0.51384305954,0.00129699707031,0.400979995728,1,a,980.572620869,,,,,,,,,,,,,,,,,,,,,,,,,,,,,,,,,,,,,,,,,2015_Jun_23_1104,59.9247922643,LearningTask,1,38,
200,s,-200,,,,,,,,,,,,,,,,,2,0,2,0,11,0,44,2,,,,,,,,,,,,,,,,,,,,,,,,,,,,,s,1,0.4005382061,None,0,0.5,hexagonorange.gif,stop,,,,,,,,,,,,,,,,,,,,,,,,0,0.51438498497,0.000879049301147,0.4005382061,1,s,983.575994968,,,,,,,,,,,,,,,,,,,,,,,,,,,,,,,,,,,,,,,,,2015_Jun_23_1104,59.9247922643,LearningTask,1,38,
200,w,200,,,,,,,,,,,,,,,,,2,0,2,0,11,1,45,0,,,,,,,,,,,,,,,,,,,,,,,,,,,,,w,1,0.434174060822,None,0,2.0,squarewhite.gif,stop,,,,,,,,,,,,,,,,,,,,,,,,2.04,0.514177083969,0.000879049301147,0.434174060822,1,w,986.579535961,,,,,,,,,,,,,,,,,,,,,,,,,,,,,,,,,,,,,,,,,2015_Jun_23_1104,59.9247922643,LearningTask,1,38,
200,w,200,,,,,,,,,,,,,,,,,2,0,2,0,11,2,46,0,,,,,,,,,,,,,,,,,,,,,,,,,,,,,w,1,0.451020956039,None,0,4.0,lineyellow.gif,stop,,,,,,,,,,,,,,,,,,,,,,,,3.82,0.513813018799,0.000884056091309,0.451020956039,1,w,989.582593918,,,,,,,,,,,,,,,,,,,,,,,,,,,,,,,,,,,,,,,,,2015_Jun_23_1104,59.9247922643,LearningTask,1,38,
-200,a,-200,,,,,,,,,,,,,,,,,2,0,2,0,11,3,47,3,,,,,,,,,,,,,,,,,,,,,,,,,,,,,a,1,0.634210109711,None,0,0.5,hexagonorange.gif,stop,,,,,,,,,,,,,,,,,,,,,,,,0,0.514351844788,0.000875949859619,0.634210109711,1,a,992.586025,,,,,,,,,,,,,,,,,,,,,,,,,,,,,,,,,,,,,,,,,2015_Jun_23_1104,59.9247922643,LearningTask,1,38,
-200,q,200,,,,,,,,,,,,,,,,,2,0,2,0,12,0,48,1,,,,,,,,,,,,,,,,,,,,,,,,,,,,,q,1,0.56826210022,None,0,2.0,squarewhite.gif,stop,,,,,,,,,,,,,,,,,,,,,,,,1.93,0.514155864716,0.000878810882568,0.56826210022,1,q,995.58937192,,,,,,,,,,,,,,,,,,,,,,,,,,,,,,,,,,,,,,,,,2015_Jun_23_1104,59.9247922643,LearningTask,1,38,
-200,a,-200,,,,,,,,,,,,,,,,,2,0,2,0,12,1,49,3,,,,,,,,,,,,,,,,,,,,,,,,,,,,,a,1,0.434177875519,None,0,0.5,hexagonorange.gif,stop,,,,,,,,,,,,,,,,,,,,,,,,0,0.514219045639,0.000882148742676,0.434177875519,1,a,998.592576981,,,,,,,,,,,,,,,,,,,,,,,,,,,,,,,,,,,,,,,,,2015_Jun_23_1104,59.9247922643,LearningTask,1,38,
-200,q,200,,,,,,,,,,,,,,,,,2,0,2,0,12,2,50,1,,,,,,,,,,,,,,,,,,,,,,,,,,,,,q,1,0.417722940445,None,0,4.0,invertedtriangleblue.gif,go,,,,,,,,,,,,,,,,,,,,,,,,4.06,0.514238119125,0.000944137573242,0.417722940445,1,q,1001.596416,,,,,,,,,,,,,,,,,,,,,,,,,,,,,,,,,,,,,,,,,2015_Jun_23_1104,59.9247922643,LearningTask,1,38,
200,s,-200,,,,,,,,,,,,,,,,,2,0,2,0,12,3,51,2,,,,,,,,,,,,,,,,,,,,,,,,,,,,,s,1,0.517780065536,None,0,1.0,crossgreen.gif,go,,,,,,,,,,,,,,,,,,,,,,,,1.11,0.513879060745,0.000915050506592,0.517780065536,1,s,1004.59953904,,,,,,,,,,,,,,,,,,,,,,,,,,,,,,,,,,,,,,,,,2015_Jun_23_1104,59.9247922643,LearningTask,1,38,
200,w,200,,,,,,,,,,,,,,,,,2,0,2,0,13,0,52,0,,,,,,,,,,,,,,,,,,,,,,,,,,,,,w,1,0.350942134857,None,0,2.0,squarewhite.gif,stop,,,,,,,,,,,,,,,,,,,,,,,,1.79,0.514110088348,0.000871181488037,0.350942134857,1,w,1007.60282302,,,,,,,,,,,,,,,,,,,,,,,,,,,,,,,,,,,,,,,,,2015_Jun_23_1104,59.9247922643,LearningTask,1,38,
200,w,200,,,,,,,,,,,,,,,,,2,0,2,0,13,1,53,0,,,,,,,,,,,,,,,,,,,,,,,,,,,,,w,1,0.567449092865,None,0,4.0,lineyellow.gif,stop,,,,,,,,,,,,,,,,,,,,,,,,3.76,0.514043092728,0.00101709365845,0.567449092865,1,w,1010.60606503,,,,,,,,,,,,,,,,,,,,,,,,,,,,,,,,,,,,,,,,,2015_Jun_23_1104,59.9247922643,LearningTask,1,38,
-200,q,200,,,,,,,,,,,,,,,,,2,0,2,0,13,2,54,1,,,,,,,,,,,,,,,,,,,,,,,,,,,,,q,1,0.384664773941,None,0,2.0,squarewhite.gif,stop,,,,,,,,,,,,,,,,,,,,,,,,2.18,0.514505147934,0.00087308883667,0.384664773941,1,q,1013.60946107,,,,,,,,,,,,,,,,,,,,,,,,,,,,,,,,,,,,,,,,,2015_Jun_23_1104,59.9247922643,LearningTask,1,38,
-200,q,200,,,,,,,,,,,,,,,,,2,0,2,0,13,3,55,1,,,,,,,,,,,,,,,,,,,,,,,,,,,,,q,1,0.334346055984,None,0,4.0,lineyellow.gif,stop,,,,,,,,,,,,,,,,,,,,,,,,3.85,0.514569044113,0.000882148742676,0.334346055984,1,q,1016.61317897,,,,,,,,,,,,,,,,,,,,,,,,,,,,,,,,,,,,,,,,,2015_Jun_23_1104,59.9247922643,LearningTask,1,38,
-200,a,-200,,,,,,,,,,,,,,,,,2,0,2,0,14,0,56,3,,,,,,,,,,,,,,,,,,,,,,,,,,,,,a,1,0.567226886749,None,0,2.0,circlecyan.gif,go,,,,,,,,,,,,,,,,,,,,,,,,0,0.514090061188,0.000972986221313,0.567226886749,1,a,1019.61603093,,,,,,,,,,,,,,,,,,,,,,,,,,,,,,,,,,,,,,,,,2015_Jun_23_1104,59.9247922643,LearningTask,1,38,
200,w,200,,,,,,,,,,,,,,,,,2,0,2,0,14,1,57,0,,,,,,,,,,,,,,,,,,,,,,,,,,,,,w,1,0.33442401886,None,0,1.0,crossgreen.gif,go,,,,,,,,,,,,,,,,,,,,,,,,1.22,0.514481067657,0.000883102416992,0.33442401886,1,w,1022.61979699,,,,,,,,,,,,,,,,,,,,,,,,,,,,,,,,,,,,,,,,,2015_Jun_23_1104,59.9247922643,LearningTask,1,38,
-200,a,-200,,,,,,,,,,,,,,,,,2,0,2,0,14,2,58,3,,,,,,,,,,,,,,,,,,,,,,,,,,,,,a,1,0.400703907013,None,0,0.5,trianglemagenta.gif,go,,,,,,,,,,,,,,,,,,,,,,,,0.54,0.513988018036,0.000878095626831,0.400703907013,1,a,1025.62318397,,,,,,,,,,,,,,,,,,,,,,,,,,,,,,,,,,,,,,,,,2015_Jun_23_1104,59.9247922643,LearningTask,1,38,
-200,q,200,,,,,,,,,,,,,,,,,2,0,2,0,14,3,59,1,,,,,,,,,,,,,,,,,,,,,,,,,,,,,q,1,0.367875099182,None,0,4.0,lineyellow.gif,stop,,,,,,,,,,,,,,,,,,,,,,,,4.09,0.513657093048,0.000926971435547,0.367875099182,1,q,1028.62637305,,,,,,,,,,,,,,,,,,,,,,,,,,,,,,,,,,,,,,,,,2015_Jun_23_1104,59.9247922643,LearningTask,1,38,
200,w,200,,,,,,,,,,,,,,,,,2,0,2,0,15,0,60,0,,,,,,,,,,,,,,,,,,,,,,,,,,,,,w,1,0.351010084152,None,0,0.5,hexagonorange.gif,stop,,,,,,,,,,,,,,,,,,,,,,,,0.31,0.51414513588,0.000880002975464,0.351010084152,1,w,1031.62948108,,,,,,,,,,,,,,,,,,,,,,,,,,,,,,,,,,,,,,,,,2015_Jun_23_1104,59.9247922643,LearningTask,1,38,
200,w,200,,,,,,,,,,,,,,,,,2,0,2,0,15,1,61,0,,,,,,,,,,,,,,,,,,,,,,,,,,,,,w,1,0.367879867554,None,0,2.0,circlecyan.gif,go,,,,,,,,,,,,,,,,,,,,,,,,0,0.514343976974,0.000877857208252,0.284183979034,0,s,1034.63359904,2.03,0.514526844025,0.000962018966675,0.367879867554,1,w,1037.63625789,,,,,,,,,,,,,,,,,,,,,,,,,,,,,,,,,,2015_Jun_23_1104,59.9247922643,LearningTask,1,38,
200,s,-200,,,,,,,,,,,,,,,,,2,0,2,0,15,2,62,2,,,,,,,,,,,,,,,,,,,,,,,,,,,,,s,1,0.467462062836,None,0,2.0,circlecyan.gif,go,,,,,,,,,,,,,,,,,,,,,,,,0,0.51452088356,0.000874042510986,0.467462062836,1,s,1040.63967299,,,,,,,,,,,,,,,,,,,,,,,,,,,,,,,,,,,,,,,,,2015_Jun_23_1104,59.9247922643,LearningTask,1,38,
-200,q,200,,,,,,,,,,,,,,,,,2,0,2,0,15,3,63,1,,,,,,,,,,,,,,,,,,,,,,,,,,,,,q,1,0.451054096222,None,0,2.0,squarewhite.gif,stop,,,,,,,,,,,,,,,,,,,,,,,,1.76,0.514041900635,0.000939846038818,0.451054096222,1,q,1043.64345789,,,,,,,,,,,,,,,,,,,,,,,,,,,,,,,,,,,,,,,,,2015_Jun_23_1104,59.9247922643,LearningTask,1,38,
200,s,-200,,,,,,,,,,,,,,,,,2,0,2,0,16,0,64,2,,,,,,,,,,,,,,,,,,,,,,,,,,,,,s,1,0.383955955505,None,0,1.0,crossgreen.gif,go,,,,,,,,,,,,,,,,,,,,,,,,0,0.513621091843,0.00103807449341,0.383955955505,1,s,1046.64653206,,,,,,,,,,,,,,,,,,,,,,,,,,,,,,,,,,,,,,,,,2015_Jun_23_1104,59.9247922643,LearningTask,1,38,
-200,q,200,,,,,,,,,,,,,,,,,2,0,2,0,16,1,65,1,,,,,,,,,,,,,,,,,,,,,,,,,,,,,q,1,0.334201812744,None,0,1.0,crossgreen.gif,go,,,,,,,,,,,,,,,,,,,,,,,,0,0.514035224915,0.00114011764526,0.334201812744,1,q,1049.65006399,,,,,,,,,,,,,,,,,,,,,,,,,,,,,,,,,,,,,,,,,2015_Jun_23_1104,59.9247922643,LearningTask,1,38,
200,w,200,,,,,,,,,,,,,,,,,2,0,2,0,16,2,66,0,,,,,,,,,,,,,,,,,,,,,,,,,,,,,w,1,0.36786198616,None,0,0.5,trianglemagenta.gif,go,,,,,,,,,,,,,,,,,,,,,,,,0.26,0.513894081116,0.00135517120361,0.36786198616,1,w,1052.65320587,,,,,,,,,,,,,,,,,,,,,,,,,,,,,,,,,,,,,,,,,2015_Jun_23_1104,59.9247922643,LearningTask,1,38,
-200,a,-200,,,,,,,,,,,,,,,,,2,0,2,0,16,3,67,3,,,,,,,,,,,,,,,,,,,,,,,,,,,,,a,1,0.66775393486,None,0,4.0,lineyellow.gif,stop,,,,,,,,,,,,,,,,,,,,,,,,0,0.514375925064,0.000882863998413,0.317081928253,0,q,1055.65680504,3.81,0.514983892441,0.000927925109863,0.66775393486,1,a,1058.66041303,,,,,,,,,,,,,,,,,,,,,,,,,,,,,,,,,,2015_Jun_23_1104,59.9247922643,LearningTask,1,38,
200,w,200,,,,,,,,,,,,,,,,,2,0,2,0,17,0,68,0,,,,,,,,,,,,,,,,,,,,,,,,,,,,,w,1,0.384034872055,None,0,1.0,diamondgray.gif,stop,,,,,,,,,,,,,,,,,,,,,,,,0,0.513766050339,0.000901937484741,0.384034872055,1,w,1061.66321898,,,,,,,,,,,,,,,,,,,,,,,,,,,,,,,,,,,,,,,,,2015_Jun_23_1104,59.9247922643,LearningTask,1,38,
200,w,200,,,,,,,,,,,,,,,,,2,0,2,0,17,1,69,0,,,,,,,,,,,,,,,,,,,,,,,,,,,,,w,1,0.384168863297,None,0,4.0,lineyellow.gif,stop,,,,,,,,,,,,,,,,,,,,,,,,0,0.514081001282,0.000958204269409,0.384168863297,1,w,1064.66652203,,,,,,,,,,,,,,,,,,,,,,,,,,,,,,,,,,,,,,,,,2015_Jun_23_1104,59.9247922643,LearningTask,1,38,
-200,a,-200,,,,,,,,,,,,,,,,,2,0,2,0,17,2,70,3,,,,,,,,,,,,,,,,,,,,,,,,,,,,,a,1,0.551064968109,None,0,0.5,hexagonorange.gif,stop,,,,,,,,,,,,,,,,,,,,,,,,0.64,0.514305114746,0.000900030136108,0.551064968109,1,a,1067.6697619,,,,,,,,,,,,,,,,,,,,,,,,,,,,,,,,,,,,,,,,,2015_Jun_23_1104,59.9247922643,LearningTask,1,38,
200,s,-200,,,,,,,,,,,,,,,,,2,0,2,0,17,3,71,2,,,,,,,,,,,,,,,,,,,,,,,,,,,,,s,1,0.417111873627,None,0,0.5,trianglemagenta.gif,go,,,,,,,,,,,,,,,,,,,,,,,,0,0.514665126801,0.000924110412598,0.417111873627,1,s,1070.67329907,,,,,,,,,,,,,,,,,,,,,,,,,,,,,,,,,,,,,,,,,2015_Jun_23_1104,59.9247922643,LearningTask,1,38,
-200,a,-200,,,,,,,,,,,,,,,,,2,0,2,0,18,0,72,3,,,,,,,,,,,,,,,,,,,,,,,,,,,,,a,1,0.401263952255,None,0,2.0,circlecyan.gif,go,,,,,,,,,,,,,,,,,,,,,,,,2.0,0.514177083969,0.00100898742676,0.401263952255,1,a,1073.67687988,,,,,,,,,,,,,,,,,,,,,,,,,,,,,,,,,,,,,,,,,2015_Jun_23_1104,59.9247922643,LearningTask,1,38,
200,s,-200,,,,,,,,,,,,,,,,,2,0,2,0,18,1,73,2,,,,,,,,,,,,,,,,,,,,,,,,,,,,,s,1,0.384176015854,None,0,4.0,lineyellow.gif,stop,,,,,,,,,,,,,,,,,,,,,,,,3.9,0.513872861862,0.000931024551392,0.384176015854,1,s,1076.68008804,,,,,,,,,,,,,,,,,,,,,,,,,,,,,,,,,,,,,,,,,2015_Jun_23_1104,59.9247922643,LearningTask,1,38,
200,s,-200,,,,,,,,,,,,,,,,,2,0,2,0,18,2,74,2,,,,,,,,,,,,,,,,,,,,,,,,,,,,,s,1,0.401403903961,None,0,1.0,diamondgray.gif,stop,,,,,,,,,,,,,,,,,,,,,,,,1.23,0.514157056808,0.000872850418091,0.401403903961,1,s,1079.68328691,,,,,,,,,,,,,,,,,,,,,,,,,,,,,,,,,,,,,,,,,2015_Jun_23_1104,59.9247922643,LearningTask,1,38,
-200,a,-200,,,,,,,,,,,,,,,,,2,0,2,0,18,3,75,3,,,,,,,,,,,,,,,,,,,,,,,,,,,,,a,1,0.534548997879,None,0,4.0,lineyellow.gif,stop,,,,,,,,,,,,,,,,,,,,,,,,3.76,0.513790845871,0.000994920730591,0.534548997879,1,a,1082.68656993,,,,,,,,,,,,,,,,,,,,,,,,,,,,,,,,,,,,,,,,,2015_Jun_23_1104,59.9247922643,LearningTask,1,38,
-200,a,-200,,,,,,,,,,,,,,,,,2,0,2,0,19,0,76,3,,,,,,,,,,,,,,,,,,,,,,,,,,,,,a,1,0.534540891647,None,0,4.0,invertedtriangleblue.gif,go,,,,,,,,,,,,,,,,,,,,,,,,3.81,0.514024972916,0.00105810165405,0.534540891647,1,a,1085.69009399,,,,,,,,,,,,,,,,,,,,,,,,,,,,,,,,,,,,,,,,,2015_Jun_23_1104,59.9247922643,LearningTask,1,38,
-200,q,200,,,,,,,,,,,,,,,,,2,0,2,0,19,1,77,1,,,,,,,,,,,,,,,,,,,,,,,,,,,,,q,1,0.468019962311,None,0,4.0,invertedtriangleblue.gif,go,,,,,,,,,,,,,,,,,,,,,,,,4.03,0.514090061188,0.000883102416992,0.468019962311,1,q,1088.69316697,,,,,,,,,,,,,,,,,,,,,,,,,,,,,,,,,,,,,,,,,2015_Jun_23_1104,59.9247922643,LearningTask,1,38,
200,s,-200,,,,,,,,,,,,,,,,,2,0,2,0,19,2,78,2,,,,,,,,,,,,,,,,,,,,,,,,,,,,,s,1,0.467911958694,None,0,0.5,hexagonorange.gif,stop,,,,,,,,,,,,,,,,,,,,,,,,0.5,0.513910055161,0.000928163528442,0.467911958694,1,s,1091.69686007,,,,,,,,,,,,,,,,,,,,,,,,,,,,,,,,,,,,,,,,,2015_Jun_23_1104,59.9247922643,LearningTask,1,38,
200,s,-200,,,,,,,,,,,,,,,,,2,0,2,0,19,3,79,2,,,,,,,,,,,,,,,,,,,,,,,,,,,,,s,1,0.450867176056,None,0,4.0,invertedtriangleblue.gif,go,,,,,,,,,,,,,,,,,,,,,,,,3.88,0.514179944992,0.00087308883667,0.450867176056,1,s,1094.71715999,,,,,,,,,,,,,,,,,,,,,,,,,,,,,,,,,,,,,,,,,2015_Jun_23_1104,59.9247922643,LearningTask,1,38,
-200,a,-200,,,,,,,,,,,,,,,,,2,0,2,0,20,0,80,3,,,,,,,,,,,,,,,,,,,,,,,,,,,,,a,1,0.467833042145,None,0,2.0,circlecyan.gif,go,,,,,,,,,,,,,,,,,,,,,,,,0,0.513720989227,0.00088095664978,0.467833042145,1,a,1097.72016788,,,,,,,,,,,,,,,,,,,,,,,,,,,,,,,,,,,,,,,,,2015_Jun_23_1104,59.9247922643,LearningTask,1,38,
200,s,-200,,,,,,,,,,,,,,,,,2,0,2,0,20,1,81,2,,,,,,,,,,,,,,,,,,,,,,,,,,,,,s,1,0.40065908432,None,0,2.0,circlecyan.gif,go,,,,,,,,,,,,,,,,,,,,,,,,0,0.514252901077,0.000917911529541,0.40065908432,1,s,1100.72352791,,,,,,,,,,,,,,,,,,,,,,,,,,,,,,,,,,,,,,,,,2015_Jun_23_1104,59.9247922643,LearningTask,1,38,
-200,q,200,,,,,,,,,,,,,,,,,2,0,2,0,20,2,82,1,,,,,,,,,,,,,,,,,,,,,,,,,,,,,q,1,0.401304960251,None,0,4.0,lineyellow.gif,stop,,,,,,,,,,,,,,,,,,,,,,,,0,0.514127969742,0.000875949859619,0.401304960251,1,q,1103.72688699,,,,,,,,,,,,,,,,,,,,,,,,,,,,,,,,,,,,,,,,,2015_Jun_23_1104,59.9247922643,LearningTask,1,38,
-200,a,-200,,,,,,,,,,,,,,,,,2,0,2,0,20,3,83,3,,,,,,,,,,,,,,,,,,,,,,,,,,,,,a,1,0.751355886459,None,0,2.0,squarewhite.gif,stop,,,,,,,,,,,,,,,,,,,,,,,,0,0.513977050781,0.00102496147156,0.751355886459,1,a,1106.73034596,,,,,,,,,,,,,,,,,,,,,,,,,,,,,,,,,,,,,,,,,2015_Jun_23_1104,59.9247922643,LearningTask,1,38,
-200,q,200,,,,,,,,,,,,,,,,,2,0,2,0,21,0,84,1,,,,,,,,,,,,,,,,,,,,,,,,,,,,,q,1,0.451097011566,None,0,0.5,trianglemagenta.gif,go,,,,,,,,,,,,,,,,,,,,,,,,0.46,0.514014005661,0.000947952270508,0.451097011566,1,q,1109.73390198,,,,,,,,,,,,,,,,,,,,,,,,,,,,,,,,,,,,,,,,,2015_Jun_23_1104,59.9247922643,LearningTask,1,38,
-200,q,200,,,,,,,,,,,,,,,,,2,0,2,0,21,1,85,1,,,,,,,,,,,,,,,,,,,,,,,,,,,,,q,1,0.384058952332,None,0,2.0,circlecyan.gif,go,,,,,,,,,,,,,,,,,,,,,,,,2.07,0.51390004158,0.000874996185303,0.384058952332,1,q,1112.73688698,,,,,,,,,,,,,,,,,,,,,,,,,,,,,,,,,,,,,,,,,2015_Jun_23_1104,59.9247922643,LearningTask,1,38,
-200,a,-200,,,,,,,,,,,,,,,,,2,0,2,0,21,2,86,3,,,,,,,,,,,,,,,,,,,,,,,,,,,,,a,1,0.517474889755,None,0,4.0,invertedtriangleblue.gif,go,,,,,,,,,,,,,,,,,,,,,,,,3.79,0.514089107513,0.00093412399292,0.517474889755,1,a,1115.74028587,,,,,,,,,,,,,,,,,,,,,,,,,,,,,,,,,,,,,,,,,2015_Jun_23_1104,59.9247922643,LearningTask,1,38,
-200,q,200,,,,,,,,,,,,,,,,,2,0,2,0,21,3,87,1,,,,,,,,,,,,,,,,,,,,,,,,,,,,,q,1,0.3839199543,None,0,0.5,hexagonorange.gif,stop,,,,,,,,,,,,,,,,,,,,,,,,0.56,0.514310836792,0.000922918319702,0.3839199543,1,q,1118.74356103,,,,,,,,,,,,,,,,,,,,,,,,,,,,,,,,,,,,,,,,,2015_Jun_23_1104,59.9247922643,LearningTask,1,38,
-200,q,200,,,,,,,,,,,,,,,,,2,0,2,0,22,0,88,1,,,,,,,,,,,,,,,,,,,,,,,,,,,,,q,1,0.333966970444,None,0,4.0,lineyellow.gif,stop,,,,,,,,,,,,,,,,,,,,,,,,4.05,0.514274835587,0.000882863998413,0.333966970444,1,q,1121.74713588,,,,,,,,,,,,,,,,,,,,,,,,,,,,,,,,,,,,,,,,,2015_Jun_23_1104,59.9247922643,LearningTask,1,38,
-200,q,200,,,,,,,,,,,,,,,,,2,0,2,0,22,1,89,1,,,,,,,,,,,,,,,,,,,,,,,,,,,,,q,1,0.367670059204,None,0,0.5,hexagonorange.gif,stop,,,,,,,,,,,,,,,,,,,,,,,,0.42,0.513792991638,0.000914096832275,0.367670059204,1,q,1124.7504859,,,,,,,,,,,,,,,,,,,,,,,,,,,,,,,,,,,,,,,,,2015_Jun_23_1104,59.9247922643,LearningTask,1,38,
200,w,200,,,,,,,,,,,,,,,,,2,0,2,0,22,2,90,0,,,,,,,,,,,,,,,,,,,,,,,,,,,,,w,1,0.484565019608,None,0,2.0,squarewhite.gif,stop,,,,,,,,,,,,,,,,,,,,,,,,2.15,0.51380610466,0.000874042510986,0.484565019608,1,w,1127.7537601,,,,,,,,,,,,,,,,,,,,,,,,,,,,,,,,,,,,,,,,,2015_Jun_23_1104,59.9247922643,LearningTask,1,38,
200,w,200,,,,,,,,,,,,,,,,,2,0,2,0,22,3,91,0,,,,,,,,,,,,,,,,,,,,,,,,,,,,,w,1,0.434293031693,None,0,2.0,squarewhite.gif,stop,,,,,,,,,,,,,,,,,,,,,,,,0,0.514182090759,0.000866174697876,0.434293031693,1,w,1130.75722599,,,,,,,,,,,,,,,,,,,,,,,,,,,,,,,,,,,,,,,,,2015_Jun_23_1104,59.9247922643,LearningTask,1,38,
200,s,-200,,,,,,,,,,,,,,,,,2,0,2,0,23,0,92,2,,,,,,,,,,,,,,,,,,,,,,,,,,,,,s,1,0.434299945831,None,0,0.5,trianglemagenta.gif,go,,,,,,,,,,,,,,,,,,,,,,,,0.62,0.513726949692,0.000870943069458,0.434299945831,1,s,1133.76065707,,,,,,,,,,,,,,,,,,,,,,,,,,,,,,,,,,,,,,,,,2015_Jun_23_1104,59.9247922643,LearningTask,1,38,
-200,q,200,,,,,,,,,,,,,,,,,2,0,2,0,23,1,93,1,,,,,,,,,,,,,,,,,,,,,,,,,,,,,q,1,0.41765999794,None,0,1.0,crossgreen.gif,go,,,,,,,,,,,,,,,,,,,,,,,,1.01,0.514042139053,0.000899076461792,0.41765999794,1,q,1136.76386404,,,,,,,,,,,,,,,,,,,,,,,,,,,,,,,,,,,,,,,,,2015_Jun_23_1104,59.9247922643,LearningTask,1,38,
