xPos,corrAns,yPos,corrGoResp,yPosGoStim,xPosGoStim,pracTrials.thisRepN,pracTrials.thisTrialN,pracTrials.thisN,pracTrials.thisIndex,ReDoLoopPrac.thisRepN,ReDoLoopPrac.thisTrialN,ReDoLoopPrac.thisN,ReDoLoopPrac.thisIndex,ReDoLoopPrac.thisTrial,pracStopTrials.thisRepN,pracStopTrials.thisTrialN,pracStopTrials.thisN,pracStopTrials.thisIndex,Blocks.thisRepN,Blocks.thisTrialN,Blocks.thisN,Blocks.thisIndex,trials.thisRepN,trials.thisTrialN,trials.thisN,trials.thisIndex,ReDoLoopMain.thisRepN,ReDoLoopMain.thisTrialN,ReDoLoopMain.thisN,ReDoLoopMain.thisIndex,ReDoLoopMain.thisTrial,StopBlocks.thisRepN,StopBlocks.thisTrialN,StopBlocks.thisN,StopBlocks.thisIndex,StopTrials.thisRepN,StopTrials.thisTrialN,StopTrials.thisN,StopTrials.thisIndex,auctionBlocks.thisRepN,auctionBlocks.thisTrialN,auctionBlocks.thisN,auctionBlocks.thisIndex,auctionTrials.thisRepN,auctionTrials.thisTrialN,auctionTrials.thisN,auctionTrials.thisIndex,learningTrialList,learningPracTrialList,stopTrialList,stopPracTrialList,auctionTrialList,ok1.keys,ok1.rt,resp.keys,resp.corr,feedbackResp.keys,feedbackResp.corr,feedbackResp.rt,currentReward,currentStimulus,currentStimType,firstPracComputedRewardOutput,firstPracLearningStimOnset,firstPracLearningFixOnset,firstPracPresentationRT,firstPracPresentationAcc,firstPracPresentationResp,firstPracEndTrialTimeStamp,secondPracComputedRewardOutput,secondPracLearningStimOnset,secondPracLearningFixOnset,secondPracPresentationRT,secondPracPresentationAcc,secondPracPresentationResp,secondPracEndTrialTimeStamp,resp.rt,thirdPracComputedRewardOutput,thirdPracLearningStimOnset,thirdPracLearningFixOnset,thirdPracPresentationRT,thirdPracPresentationAcc,thirdPracPresentationResp,thirdPracEndTrialTimeStamp,StartTrialTimeStamp,trialType,goStim,stimType,stopStimValue,goResp.keys,goResp.corr,goResp.rt,key_resp_9.keys,key_resp_9.corr,fixStopOnset,goStimOnset,EndTrialTimeStamp,stopSignalOnset,key_resp_3.keys,key_resp_3.rt,firstComputedRewardOutput,firstLearningStimOnset,firstLearningFixOnset,firstPresentationRT,firstPresentationAcc,firstPresentationResp,firstEndTrialTimeStamp,secondComputedRewardOutput,secondLearningStimOnset,secondLearningFixOnset,secondPresentationRT,secondPresentationAcc,secondPresentationResp,secondEndTrialTimeStamp,key_resp_7.keys,key_resp_7.rt,beginningSSD,EndingSSD,key_resp_9.rt,key_resp_4.keys,key_resp_4.rt,auctionResponse.keys,auctionResponse.rt,auctionStimDuration,auctionStim,auctionAmounts,auctionStimValue,auctionCondition,chosenAuctionAmount,key_resp_5.keys,key_resp_5.rt,shuffledRewardList,chosenReward1,chosenReward2,chosenReward3,chosenReward4,chosenReward5,key_resp_6.keys,key_resp_6.rt,date,frameRate,expName,session,participant,
,,,,,,,,,,,,,,,,,,,,,,,,,,,,,,,,,,,,,,,,,,,,,,,,[],[],[],[],[],9,46.5485448837,,,,,,,,,,,,,,,,,,,,,,,,,,,,,,,,,,,,,,,,,,,,,,,,,,,,,,,,,,,,,,,,,,,,,,,,,,,,,,,,,,,,,,2015_Jun_24_1444,59.9035671031,LearningTask,1,39,
200,s,-200,,,,0,0,0,2,,,,,,,,,,,,,,,,,,,,,,,,,,,,,,,,,,,,,,,,,,,,,,s,1,None,0,0.327845096588,2.0,squareblue.gif,go,0,0.507636070251,0.0379769802094,[],0,None,66.1947731972,0,0.51558303833,0.00117588043213,[],0,None,69.1979060173,0.451472043991,1.88,0.515788078308,0.000972032546997,0.451472043991,1,s,72.2013070583,,,,,,,,,,,,,,,,,,,,,,,,,,,,,,,,,,,,,,,,,,,,,,,,,,,,,,,,2015_Jun_24_1444,59.9035671031,LearningTask,1,39,
200,s,-200,,,,0,1,1,6,,,,,,,,,,,,,,,,,,,,,,,,,,,,,,,,,,,,,,,,,,,,,,s,1,None,0,,4.0,diamondwhite.gif,stop,4.09,0.514952898026,0.0109479427338,0.618135929108,1,s,75.2044110298,,,,,,,,0.618135929108,,,,,,,,,,,,,,,,,,,,,,,,,,,,,,,,,,,,,,,,,,,,,,,,,,,,,,,,,,,,,,,2015_Jun_24_1444,59.9035671031,LearningTask,1,39,
-200,q,200,,,,0,2,2,9,,,,,,,,,,,,,,,,,,,,,,,,,,,,,,,,,,,,,,,,,,,,,,q,1,None,0,,4.0,diamondwhite.gif,stop,3.83,0.5151720047,0.000903129577637,0.618235111237,1,q,78.207681179,,,,,,,,0.618235111237,,,,,,,,,,,,,,,,,,,,,,,,,,,,,,,,,,,,,,,,,,,,,,,,,,,,,,,,,,,,,,,2015_Jun_24_1444,59.9035671031,LearningTask,1,39,
-200,a,-200,,,,0,3,3,7,,,,,,,,,,,,,,,,,,,,,,,,,,,,,,,,,,,,,,,,,,,,,,a,1,a,1,0.12290096283,2.0,squareblue.gif,go,2.12,0.51466012001,0.000935077667236,0.517799139023,1,a,81.2110261917,,,,,,,,0.517799139023,,,,,,,,,,,,,,,,,,,,,,,,,,,,,,,,,,,,,,,,,,,,,,,,,,,,,,,,,,,,,,,2015_Jun_24_1444,59.9035671031,LearningTask,1,39,
200,w,200,,,,0,4,4,8,,,,,,,,,,,,,,,,,,,,,,,,,,,,,,,,,,,,,,,,,,,,,,w,1,None,0,,4.0,invertedtriangleorange.gif,go,4.0,0.515332937241,0.0131680965424,0.384541988373,1,w,84.2145030499,,,,,,,,0.384541988373,,,,,,,,,,,,,,,,,,,,,,,,,,,,,,,,,,,,,,,,,,,,,,,,,,,,,,,,,,,,,,,2015_Jun_24_1444,59.9035671031,LearningTask,1,39,
200,w,200,,,,0,5,5,0,,,,,,,,,,,,,,,,,,,,,,,,,,,,,,,,,,,,,,,,,,,,,,w,1,None,0,,1.0,trianglegreen.gif,stop,0.84,0.515218019485,0.00181198120117,0.534309148788,1,w,87.217689991,,,,,,,,0.534309148788,,,,,,,,,,,,,,,,,,,,,,,,,,,,,,,,,,,,,,,,,,,,,,,,,,,,,,,,,,,,,,,2015_Jun_24_1444,59.9035671031,LearningTask,1,39,
200,w,200,,,,0,6,6,4,,,,,,,,,,,,,,,,,,,,,,,,,,,,,,,,,,,,,,,,,,,,,,w,1,None,0,,1.0,trianglegreen.gif,stop,1.21,0.515170097351,0.000986099243164,0.33388710022,1,w,90.2209210396,,,,,,,,0.33388710022,,,,,,,,,,,,,,,,,,,,,,,,,,,,,,,,,,,,,,,,,,,,,,,,,,,,,,,,,,,,,,,2015_Jun_24_1444,59.9035671031,LearningTask,1,39,
-200,q,200,,,,0,7,7,1,,,,,,,,,,,,,,,,,,,,,,,,,,,,,,,,,,,,,,,,,,,,,,q,1,None,0,,1.0,hexagonmagenta.gif,go,1.0,0.515385150909,0.0363450050354,0.417984962463,1,q,93.2246291637,,,,,,,,0.417984962463,,,,,,,,,,,,,,,,,,,,,,,,,,,,,,,,,,,,,,,,,,,,,,,,,,,,,,,,,,,,,,,2015_Jun_24_1444,59.9035671031,LearningTask,1,39,
-200,a,-200,,,,0,8,8,3,,,,,,,,,,,,,,,,,,,,,,,,,,,,,,,,,,,,,,,,,,,,,,a,1,None,0,,2.0,crosscyan.gif,stop,2.02,0.514985084534,0.00175023078918,0.534705162048,1,a,96.2281410694,,,,,,,,0.534705162048,,,,,,,,,,,,,,,,,,,,,,,,,,,,,,,,,,,,,,,,,,,,,,,,,,,,,,,,,,,,,,,2015_Jun_24_1444,59.9035671031,LearningTask,1,39,
-200,q,200,,,,0,9,9,5,,,,,,,,,,,,,,,,,,,,,,,,,,,,,,,,,,,,,,,,,,,,,,q,1,None,0,,2.0,squareblue.gif,go,0,0.514696121216,0.000893115997314,0.467787027359,1,q,99.2310531139,,,,,,,,0.467787027359,,,,,,,,,,,,,,,,,,,,,,,,,,,,,,,,,,,,,,,,,,,,,,,,,,,,,,,,,,,,,,,2015_Jun_24_1444,59.9035671031,LearningTask,1,39,
,,,z,0,-200,,,,,,,,,,0,0,0,0,,,,,,,,,,,,,,,,,,,,,,,,,,,,,,,,,,,,,,,,,,,,,,,,,,,,,,,,,,,,,,,,,,,168.364498138,go,hexagonmagenta.gif,go,1.0,z,1,0.568123102188,None,0,0.00144791603088,0.509652853012,171.361675978,,,,,,,,,,,,,,,,,,,,,,,,,,,,,,,,,,,,,,,,,,,2015_Jun_24_1444,59.9035671031,LearningTask,1,39,
,,,m,0,200,,,,,,,,,,0,1,1,1,,,,,,,,,,,,,,,,,,,,,,,,,,,,,,,,,,,,,,,,,,,,,,,,,,,,,,,,,,,,,,,,,,,171.36206913,go,invertedtriangleorange.gif,go,4.0,m,1,0.417536973953,None,0,0.000952005386353,0.515671014786,174.365090132,,,,,,,,,,,,,,,,,,,,,,,,,,,,,,,,,,,,,,,,,,,2015_Jun_24_1444,59.9035671031,LearningTask,1,39,
,,,z,0,-200,,,,,,,,,,1,0,2,0,,,,,,,,,,,,,,,,,,,,,,,,,,,,,,,,,,,,,,,,,,,,,,,,,,,,,,,,,,,,,,,,,,,174.36552906,go,invertedtriangleorange.gif,go,4.0,z,1,0.385064840317,None,0,0.000967979431152,0.515398979187,177.36829114,,,,,,,,,,,,,,,,,,,,,,,,,,,,,,,,,,,,,,,,,,,2015_Jun_24_1444,59.9035671031,LearningTask,1,39,
,,,m,0,200,,,,,,,,,,1,1,3,1,,,,,,,,,,,,,,,,,,,,,,,,,,,,,,,,,,,,,,,,,,,,,,,,,,,,,,,,,,,,,,,,,,,177.368654013,stop,lineyellow.gif,stop,0.5,m,1,0.417982816696,None,0,0.0400788784027,0.515706062317,180.371848106,0.765970945358,,,,,,,,,,,,,,,,,,,,,,,,,,,,,,,,,,,,,,,,,,2015_Jun_24_1444,59.9035671031,LearningTask,1,39,
,,,m,0,200,,,,,,,,,,2,0,4,1,,,,,,,,,,,,,,,,,,,,,,,,,,,,,,,,,,,,,,,,,,,,,,,,,,,,,,,,,,,,,,,,,,,180.372210979,stop,lineyellow.gif,stop,0.5,None,0,,None,0,0.00095009803772,0.515834093094,183.375138044,0.766004085541,,,,,,,,,,,,,,,,,,,,,,,,,,,,,,,,,,,,,,,,,,2015_Jun_24_1444,59.9035671031,LearningTask,1,39,
,,,z,0,-200,,,,,,,,,,2,1,5,0,,,,,,,,,,,,,,,,,,,,,,,,,,,,,,,,,,,,,,,,,,,,,,,,,,,,,,,,,,,,,,,,,,,183.375504017,stop,crosscyan.gif,stop,2.0,z,1,0.550924062729,None,0,0.000951051712036,0.515742063522,186.378504992,0.766332864761,,,,,,,,,,,,,,,,,,,,,,,,,,,,,,,,,,,,,,,,,,2015_Jun_24_1444,59.9035671031,LearningTask,1,39,
,,,m,0,200,,,,,,,,,,3,0,6,1,,,,,,,,,,,,,,,,,,,,,,,,,,,,,,,,,,,,,,,,,,,,,,,,,,,,,,,,,,,,,,,,,,,186.378871202,go,circlegray.gif,go,0.5,m,1,0.601702928543,None,0,0.0382289886475,0.515548944473,189.381740093,,,,,,,,,,,,,,,,,,,,,,,,,,,,,,,,,,,,,,,,,,,2015_Jun_24_1444,59.9035671031,LearningTask,1,39,
,,,z,0,-200,,,,,,,,,,3,1,7,0,,,,,,,,,,,,,,,,,,,,,,,,,,,,,,,,,,,,,,,,,,,,,,,,,,,,,,,,,,,,,,,,,,,189.382105112,stop,trianglegreen.gif,stop,1.0,None,0,,None,0,0.000951051712036,0.515964984894,192.385219097,0.766206979752,,,,,,,,,,,,,,,,,,,,,,,,,,,,,,,,,,,,,,,,,,2015_Jun_24_1444,59.9035671031,LearningTask,1,39,
,,,z,0,-200,,,,,,,,,,4,0,8,0,,,,,,,,,,,,,,,,,,,,,,,,,,,,,,,,,,,,,,,,,,,,,,,,,,,,,,,,,,,,,,,,,,,192.385580063,stop,trianglegreen.gif,stop,1.0,None,0,,None,0,0.000951051712036,0.515672206879,195.388628006,0.765780210495,,,,,,,,,,,,,,,,,,,,,,,,,,,,,,,,,,,,,,,,,,2015_Jun_24_1444,59.9035671031,LearningTask,1,39,
,,,m,0,200,,,,,,,,,,4,1,9,1,,,,,,,,,,,,,,,,,,,,,,,,,,,,,,,,,,,,,,,,,,,,,,,,,,,,,,,,,,,,,,,,,,,195.389032125,stop,diamondwhite.gif,stop,4.0,None,0,,None,0,0.00119304656982,0.515532016754,198.391841173,0.765758991241,,,,,,,,,,,,,,,,,,,,,,,,,,,,,,,,,,,,,,,,,,2015_Jun_24_1444,59.9035671031,LearningTask,1,39,
,,,,,,,,,,,,,,,,,,,,,,,,,,,,,,,,,,,,,,,,,,,,,,,,,,,,,,,,,,,,,,,,,,,,,,,,,,,,,,,,,,,,,,,,,,,,,,,,,,,9,55.0626192093,,,,,,,,,,,,,,,,,,,,,,,,,,,,,,,,,,,,,,,,2015_Jun_24_1444,59.9035671031,LearningTask,1,39,
,,,,,,,,,,,,,,,,,,,,,,,,,,,,,,,,,,,,,,,,,,,,,,,,,,,,,9,13.0147988796,,,,,,,,,,,,,,,,,,,,,,,,,,,,,,,,,,,,,,,,,,,,,,,,,,,,,,,,,,,,,,,,,,,,,,,,,,,,,,,,,,,,,,2015_Jun_24_1444,59.9035671031,LearningTask,1,39,
-200,q,200,,,,,,,,,,,,,,,,,0,0,0,0,0,0,0,1,,,,,,,,,,,,,,,,,,,,,,,,,,,,,q,1,None,0,,4.0,diamondwhite.gif,stop,,,,,,,,,,,,,,,0.500607013702,,,,,,,,,,,,,,,,,,,,,,,,4.02,0.509160995483,0.000901222229004,0.500607013702,1,q,269.622859001,,,,,,,,,,,,,,,,,,,,,,,,,,,,,,,,,2015_Jun_24_1444,59.9035671031,LearningTask,1,39,
200,w,200,,,,,,,,,,,,,,,,,0,0,0,0,0,1,1,0,,,,,,,,,,,,,,,,,,,,,,,,,,,,,w,1,None,0,,0.5,lineyellow.gif,stop,,,,,,,,,,,,,,,0.467523097992,,,,,,,,,,,,,,,,,,,,,,,,0.46,0.513846874237,0.000931978225708,0.467523097992,1,w,272.625723124,,,,,,,,,,,,,,,,,,,,,,,,,,,,,,,,,2015_Jun_24_1444,59.9035671031,LearningTask,1,39,
200,s,-200,,,,,,,,,,,,,,,,,0,0,0,0,0,2,2,2,,,,,,,,,,,,,,,,,,,,,,,,,,,,,s,1,None,0,,4.0,invertedtriangleorange.gif,go,,,,,,,,,,,,,,,0.367766857147,,,,,,,,,,,,,,,,,,,,,,,,3.91,0.514239788055,0.000926971435547,0.367766857147,1,s,275.628906012,,,,,,,,,,,,,,,,,,,,,,,,,,,,,,,,,2015_Jun_24_1444,59.9035671031,LearningTask,1,39,
200,s,-200,,,,,,,,,,,,,,,,,0,0,0,0,0,3,3,2,,,,,,,,,,,,,,,,,,,,,,,,,,,,,s,1,None,0,,0.5,lineyellow.gif,stop,,,,,,,,,,,,,,,0.400695085526,,,,,,,,,,,,,,,,,,,,,,,,0.71,0.514459133148,0.000909090042114,0.400695085526,1,s,278.632209063,,,,,,,,,,,,,,,,,,,,,,,,,,,,,,,,,2015_Jun_24_1444,59.9035671031,LearningTask,1,39,
-200,a,-200,,,,,,,,,,,,,,,,,0,0,0,0,1,0,4,3,,,,,,,,,,,,,,,,,,,,,,,,,,,,,a,1,None,0,,2.0,crosscyan.gif,stop,,,,,,,,,,,,,,,0.367496013641,,,,,,,,,,,,,,,,,,,,,,,,2.09,0.51433300972,0.000936031341553,0.367496013641,1,a,281.635607004,,,,,,,,,,,,,,,,,,,,,,,,,,,,,,,,,2015_Jun_24_1444,59.9035671031,LearningTask,1,39,
200,w,200,,,,,,,,,,,,,,,,,0,0,0,0,1,1,5,0,,,,,,,,,,,,,,,,,,,,,,,,,,,,,w,1,None,0,,1.0,hexagonmagenta.gif,go,,,,,,,,,,,,,,,0.33429980278,,,,,,,,,,,,,,,,,,,,,,,,1.07,0.514353990555,0.000906944274902,0.33429980278,1,w,284.639032125,,,,,,,,,,,,,,,,,,,,,,,,,,,,,,,,,2015_Jun_24_1444,59.9035671031,LearningTask,1,39,
200,w,200,,,,,,,,,,,,,,,,,0,0,0,0,1,2,6,0,,,,,,,,,,,,,,,,,,,,,,,,,,,,,w,1,None,0,,4.0,invertedtriangleorange.gif,go,,,,,,,,,,,,,,,0.400882005692,,,,,,,,,,,,,,,,,,,,,,,,3.75,0.514403104782,0.000911235809326,0.400882005692,1,w,287.642511129,,,,,,,,,,,,,,,,,,,,,,,,,,,,,,,,,2015_Jun_24_1444,59.9035671031,LearningTask,1,39,
-200,a,-200,,,,,,,,,,,,,,,,,0,0,0,0,1,3,7,3,,,,,,,,,,,,,,,,,,,,,,,,,,,,,a,1,None,0,,4.0,invertedtriangleorange.gif,go,,,,,,,,,,,,,,,0.417443037033,,,,,,,,,,,,,,,,,,,,,,,,4.01,0.51401591301,0.000920057296753,0.417443037033,1,a,290.645673037,,,,,,,,,,,,,,,,,,,,,,,,,,,,,,,,,2015_Jun_24_1444,59.9035671031,LearningTask,1,39,
-200,a,-200,,,,,,,,,,,,,,,,,0,0,0,0,2,0,8,3,,,,,,,,,,,,,,,,,,,,,,,,,,,,,a,1,None,0,,2.0,crosscyan.gif,stop,,,,,,,,,,,,,,,0.417532920837,,,,,,,,,,,,,,,,,,,,,,,,1.92,0.514511108398,0.000904083251953,0.417532920837,1,a,293.649177074,,,,,,,,,,,,,,,,,,,,,,,,,,,,,,,,,2015_Jun_24_1444,59.9035671031,LearningTask,1,39,
200,w,200,,,,,,,,,,,,,,,,,0,0,0,0,2,1,9,0,,,,,,,,,,,,,,,,,,,,,,,,,,,,,w,1,None,0,,2.0,crosscyan.gif,stop,,,,,,,,,,,,,,,0.333995103836,,,,,,,,,,,,,,,,,,,,,,,,2.13,0.514245986938,0.00090503692627,0.333995103836,1,w,296.652793169,,,,,,,,,,,,,,,,,,,,,,,,,,,,,,,,,2015_Jun_24_1444,59.9035671031,LearningTask,1,39,
-200,q,200,,,,,,,,,,,,,,,,,0,0,0,0,2,2,10,1,,,,,,,,,,,,,,,,,,,,,,,,,,,,,q,1,None,0,,4.0,diamondwhite.gif,stop,,,,,,,,,,,,,,,0.401009082794,,,,,,,,,,,,,,,,,,,,,,,,3.99,0.514242887497,0.00119686126709,0.401009082794,1,q,299.655805111,,,,,,,,,,,,,,,,,,,,,,,,,,,,,,,,,2015_Jun_24_1444,59.9035671031,LearningTask,1,39,
200,s,-200,,,,,,,,,,,,,,,,,0,0,0,0,2,3,11,2,,,,,,,,,,,,,,,,,,,,,,,,,,,,,s,1,None,0,,4.0,diamondwhite.gif,stop,,,,,,,,,,,,,,,0.333792209625,,,,,,,,,,,,,,,,,,,,,,,,0,0.514616012573,0.000977993011475,0.333792209625,1,s,302.659373999,,,,,,,,,,,,,,,,,,,,,,,,,,,,,,,,,2015_Jun_24_1444,59.9035671031,LearningTask,1,39,
200,s,-200,,,,,,,,,,,,,,,,,0,0,0,0,3,0,12,2,,,,,,,,,,,,,,,,,,,,,,,,,,,,,s,1,None,0,,0.5,circlegray.gif,go,,,,,,,,,,,,,,,0.351314783096,,,,,,,,,,,,,,,,,,,,,,,,0.45,0.514137983322,0.000905990600586,0.351314783096,1,s,305.662463188,,,,,,,,,,,,,,,,,,,,,,,,,,,,,,,,,2015_Jun_24_1444,59.9035671031,LearningTask,1,39,
200,w,200,,,,,,,,,,,,,,,,,0,0,0,0,3,1,13,0,,,,,,,,,,,,,,,,,,,,,,,,,,,,,w,1,None,0,,4.0,invertedtriangleorange.gif,go,,,,,,,,,,,,,,,0.384201049805,,,,,,,,,,,,,,,,,,,,,,,,3.83,0.51448392868,0.000911951065063,0.384201049805,1,w,308.665874004,,,,,,,,,,,,,,,,,,,,,,,,,,,,,,,,,2015_Jun_24_1444,59.9035671031,LearningTask,1,39,
200,s,-200,,,,,,,,,,,,,,,,,0,0,0,0,3,2,14,2,,,,,,,,,,,,,,,,,,,,,,,,,,,,,s,1,None,0,,1.0,trianglegreen.gif,stop,,,,,,,,,,,,,,,0.384078979492,,,,,,,,,,,,,,,,,,,,,,,,0,0.514290094376,0.00102996826172,0.384078979492,1,s,311.669209003,,,,,,,,,,,,,,,,,,,,,,,,,,,,,,,,,2015_Jun_24_1444,59.9035671031,LearningTask,1,39,
200,w,200,,,,,,,,,,,,,,,,,0,0,0,0,3,3,15,0,,,,,,,,,,,,,,,,,,,,,,,,,,,,,w,1,None,0,,2.0,squareblue.gif,go,,,,,,,,,,,,,,,0.417500019073,,,,,,,,,,,,,,,,,,,,,,,,1.9,0.514352083206,0.000895023345947,0.417500019073,1,w,314.673032999,,,,,,,,,,,,,,,,,,,,,,,,,,,,,,,,,2015_Jun_24_1444,59.9035671031,LearningTask,1,39,
-200,q,200,,,,,,,,,,,,,,,,,0,0,0,0,4,0,16,1,,,,,,,,,,,,,,,,,,,,,,,,,,,,,q,1,None,0,,1.0,trianglegreen.gif,stop,,,,,,,,,,,,,,,0.451026916504,,,,,,,,,,,,,,,,,,,,,,,,0.82,0.514165878296,0.000906944274902,0.451026916504,1,q,317.676032066,,,,,,,,,,,,,,,,,,,,,,,,,,,,,,,,,2015_Jun_24_1444,59.9035671031,LearningTask,1,39,
200,w,200,,,,,,,,,,,,,,,,,0,0,0,0,4,1,17,0,,,,,,,,,,,,,,,,,,,,,,,,,,,,,w,1,None,0,,2.0,squareblue.gif,go,,,,,,,,,,,,,,,0.317770957947,,,,,,,,,,,,,,,,,,,,,,,,1.98,0.513690948486,0.000936031341553,0.317770957947,1,w,320.679480076,,,,,,,,,,,,,,,,,,,,,,,,,,,,,,,,,2015_Jun_24_1444,59.9035671031,LearningTask,1,39,
-200,q,200,,,,,,,,,,,,,,,,,0,0,0,0,4,2,18,1,,,,,,,,,,,,,,,,,,,,,,,,,,,,,q,1,None,0,,1.0,hexagonmagenta.gif,go,,,,,,,,,,,,,,,0.434572935104,,,,,,,,,,,,,,,,,,,,,,,,1.1,0.514171123505,0.000904083251953,0.434572935104,1,q,323.682357073,,,,,,,,,,,,,,,,,,,,,,,,,,,,,,,,,2015_Jun_24_1444,59.9035671031,LearningTask,1,39,
-200,a,-200,,,,,,,,,,,,,,,,,0,0,0,0,4,3,19,3,,,,,,,,,,,,,,,,,,,,,,,,,,,,,a,1,None,0,,2.0,crosscyan.gif,stop,,,,,,,,,,,,,,,0.500532865524,,,,,,,,,,,,,,,,,,,,,,,,2.09,0.514652967453,0.000998973846436,0.500532865524,1,a,326.686073065,,,,,,,,,,,,,,,,,,,,,,,,,,,,,,,,,2015_Jun_24_1444,59.9035671031,LearningTask,1,39,
-200,q,200,,,,,,,,,,,,,,,,,0,0,0,0,5,0,20,1,,,,,,,,,,,,,,,,,,,,,,,,,,,,,q,1,None,0,,4.0,invertedtriangleorange.gif,go,,,,,,,,,,,,,,,0.384350061417,,,,,,,,,,,,,,,,,,,,,,,,0,0.514159917831,0.000940084457397,0.384350061417,1,q,329.68939209,,,,,,,,,,,,,,,,,,,,,,,,,,,,,,,,,2015_Jun_24_1444,59.9035671031,LearningTask,1,39,
-200,a,-200,,,,,,,,,,,,,,,,,0,0,0,0,5,1,21,3,,,,,,,,,,,,,,,,,,,,,,,,,,,,,a,1,None,0,,4.0,invertedtriangleorange.gif,go,,,,,,,,,,,,,,,0.450675964355,,,,,,,,,,,,,,,,,,,,,,,,0,0.514600038528,0.000893115997314,0.450675964355,1,a,332.692811966,,,,,,,,,,,,,,,,,,,,,,,,,,,,,,,,,2015_Jun_24_1444,59.9035671031,LearningTask,1,39,
-200,a,-200,,,,,,,,,,,,,,,,,0,0,0,0,5,2,22,3,,,,,,,,,,,,,,,,,,,,,,,,,,,,,a,1,None,0,,0.5,lineyellow.gif,stop,,,,,,,,,,,,,,,0.41724896431,,,,,,,,,,,,,,,,,,,,,,,,0.32,0.514575004578,0.000895023345947,0.41724896431,1,a,335.696353197,,,,,,,,,,,,,,,,,,,,,,,,,,,,,,,,,2015_Jun_24_1444,59.9035671031,LearningTask,1,39,
200,s,-200,,,,,,,,,,,,,,,,,0,0,0,0,5,3,23,2,,,,,,,,,,,,,,,,,,,,,,,,,,,,,s,1,None,0,,0.5,lineyellow.gif,stop,,,,,,,,,,,,,,,0.417411088943,,,,,,,,,,,,,,,,,,,,,,,,0.29,0.513803005219,0.00089693069458,0.417411088943,1,s,338.699515104,,,,,,,,,,,,,,,,,,,,,,,,,,,,,,,,,2015_Jun_24_1444,59.9035671031,LearningTask,1,39,
-200,q,200,,,,,,,,,,,,,,,,,0,0,0,0,6,0,24,1,,,,,,,,,,,,,,,,,,,,,,,,,,,,,q,1,None,0,,0.5,lineyellow.gif,stop,,,,,,,,,,,,,,,0.501155853271,,,,,,,,,,,,,,,,,,,,,,,,0,0.514258861542,0.000918865203857,0.501155853271,1,q,341.702723026,,,,,,,,,,,,,,,,,,,,,,,,,,,,,,,,,2015_Jun_24_1444,59.9035671031,LearningTask,1,39,
200,w,200,,,,,,,,,,,,,,,,,0,0,0,0,6,1,25,0,,,,,,,,,,,,,,,,,,,,,,,,,,,,,w,1,None,0,,1.0,trianglegreen.gif,stop,,,,,,,,,,,,,,,0.367809057236,,,,,,,,,,,,,,,,,,,,,,,,1.0,0.514519929886,0.000900983810425,0.367809057236,1,w,344.706513166,,,,,,,,,,,,,,,,,,,,,,,,,,,,,,,,,2015_Jun_24_1444,59.9035671031,LearningTask,1,39,
200,s,-200,,,,,,,,,,,,,,,,,0,0,0,0,6,2,26,2,,,,,,,,,,,,,,,,,,,,,,,,,,,,,s,1,None,0,,1.0,trianglegreen.gif,stop,,,,,,,,,,,,,,,0.417781114578,,,,,,,,,,,,,,,,,,,,,,,,0,0.51385807991,0.000912189483643,0.417781114578,1,s,347.709527016,,,,,,,,,,,,,,,,,,,,,,,,,,,,,,,,,2015_Jun_24_1444,59.9035671031,LearningTask,1,39,
200,w,200,,,,,,,,,,,,,,,,,0,0,0,0,6,3,27,0,,,,,,,,,,,,,,,,,,,,,,,,,,,,,w,1,None,0,,4.0,diamondwhite.gif,stop,,,,,,,,,,,,,,,0.400750875473,,,,,,,,,,,,,,,,,,,,,,,,4.14,0.514704227448,0.00092601776123,0.400750875473,1,w,350.713142157,,,,,,,,,,,,,,,,,,,,,,,,,,,,,,,,,2015_Jun_24_1444,59.9035671031,LearningTask,1,39,
-200,q,200,,,,,,,,,,,,,,,,,0,0,0,0,7,0,28,1,,,,,,,,,,,,,,,,,,,,,,,,,,,,,q,1,None,0,,4.0,invertedtriangleorange.gif,go,,,,,,,,,,,,,,,0.351159095764,,,,,,,,,,,,,,,,,,,,,,,,4.19,0.514215946198,0.000907897949219,0.351159095764,1,q,353.716456175,,,,,,,,,,,,,,,,,,,,,,,,,,,,,,,,,2015_Jun_24_1444,59.9035671031,LearningTask,1,39,
200,w,200,,,,,,,,,,,,,,,,,0,0,0,0,7,1,29,0,,,,,,,,,,,,,,,,,,,,,,,,,,,,,w,1,None,0,,0.5,circlegray.gif,go,,,,,,,,,,,,,,,0.367832899094,,,,,,,,,,,,,,,,,,,,,,,,0.51,0.514157056808,0.00113487243652,0.367832899094,1,w,356.71957016,,,,,,,,,,,,,,,,,,,,,,,,,,,,,,,,,2015_Jun_24_1444,59.9035671031,LearningTask,1,39,
-200,a,-200,,,,,,,,,,,,,,,,,0,0,0,0,7,2,30,3,,,,,,,,,,,,,,,,,,,,,,,,,,,,,a,1,None,0,,4.0,diamondwhite.gif,stop,,,,,,,,,,,,,,,0.518154144287,,,,,,,,,,,,,,,,,,,,,,,,4.08,0.51434803009,0.000962972640991,0.518154144287,1,a,359.722773075,,,,,,,,,,,,,,,,,,,,,,,,,,,,,,,,,2015_Jun_24_1444,59.9035671031,LearningTask,1,39,
200,s,-200,,,,,,,,,,,,,,,,,0,0,0,0,7,3,31,2,,,,,,,,,,,,,,,,,,,,,,,,,,,,,s,1,None,0,,4.0,invertedtriangleorange.gif,go,,,,,,,,,,,,,,,0.384158849716,,,,,,,,,,,,,,,,,,,,,,,,4.09,0.514693975449,0.000895023345947,0.384158849716,1,s,362.726319075,,,,,,,,,,,,,,,,,,,,,,,,,,,,,,,,,2015_Jun_24_1444,59.9035671031,LearningTask,1,39,
-200,q,200,,,,,,,,,,,,,,,,,0,0,0,0,8,0,32,1,,,,,,,,,,,,,,,,,,,,,,,,,,,,,q,1,None,0,,1.0,trianglegreen.gif,stop,,,,,,,,,,,,,,,0.367327928543,,,,,,,,,,,,,,,,,,,,,,,,1.19,0.514547109604,0.000902891159058,0.367327928543,1,q,365.730406046,,,,,,,,,,,,,,,,,,,,,,,,,,,,,,,,,2015_Jun_24_1444,59.9035671031,LearningTask,1,39,
-200,a,-200,,,,,,,,,,,,,,,,,0,0,0,0,8,1,33,3,,,,,,,,,,,,,,,,,,,,,,,,,,,,,a,1,None,0,,0.5,circlegray.gif,go,,,,,,,,,,,,,,,0.417709112167,,,,,,,,,,,,,,,,,,,,,,,,0,0.513431072235,0.00107383728027,0.417709112167,1,a,368.733170033,,,,,,,,,,,,,,,,,,,,,,,,,,,,,,,,,2015_Jun_24_1444,59.9035671031,LearningTask,1,39,
-200,a,-200,,,,,,,,,,,,,,,,,0,0,0,0,8,2,34,3,,,,,,,,,,,,,,,,,,,,,,,,,,,,,a,1,None,0,,2.0,squareblue.gif,go,,,,,,,,,,,,,,,0.38436293602,,,,,,,,,,,,,,,,,,,,,,,,2.07,0.514265060425,0.000890016555786,0.38436293602,1,a,371.736361027,,,,,,,,,,,,,,,,,,,,,,,,,,,,,,,,,2015_Jun_24_1444,59.9035671031,LearningTask,1,39,
200,w,200,,,,,,,,,,,,,,,,,0,0,0,0,8,3,35,0,,,,,,,,,,,,,,,,,,,,,,,,,,,,,w,1,None,0,,0.5,circlegray.gif,go,,,,,,,,,,,,,,,0.435161113739,,,,,,,,,,,,,,,,,,,,,,,,0.69,0.514093160629,0.00090217590332,0.435161113739,1,w,374.739761114,,,,,,,,,,,,,,,,,,,,,,,,,,,,,,,,,2015_Jun_24_1444,59.9035671031,LearningTask,1,39,
-200,q,200,,,,,,,,,,,,,,,,,0,0,0,0,9,0,36,1,,,,,,,,,,,,,,,,,,,,,,,,,,,,,q,1,None,0,0.426753997803,2.0,crosscyan.gif,stop,,,,,,,,,,,,,,,0.45047211647,,,,,,,,,,,,,,,,,,,,,,,,0,0.513961076736,0.000927925109863,0.468106985092,0,a,377.743093014,1.83,0.515878200531,0.000967025756836,0.45047211647,1,q,380.746741056,,,,,,,,,,,,,,,,,,,,,,,,,,2015_Jun_24_1444,59.9035671031,LearningTask,1,39,
200,s,-200,,,,,,,,,,,,,,,,,0,0,0,0,9,1,37,2,,,,,,,,,,,,,,,,,,,,,,,,,,,,,s,1,None,0,,4.0,invertedtriangleorange.gif,go,,,,,,,,,,,,,,,0.400593042374,,,,,,,,,,,,,,,,,,,,,,,,4.11,0.514232873917,0.00091290473938,0.400593042374,1,s,383.749987125,,,,,,,,,,,,,,,,,,,,,,,,,,,,,,,,,2015_Jun_24_1444,59.9035671031,LearningTask,1,39,
200,w,200,,,,,,,,,,,,,,,,,0,0,0,0,9,2,38,0,,,,,,,,,,,,,,,,,,,,,,,,,,,,,w,1,None,0,,2.0,crosscyan.gif,stop,,,,,,,,,,,,,,,0.334356069565,,,,,,,,,,,,,,,,,,,,,,,,2.04,0.514096021652,0.000923871994019,0.334356069565,1,w,386.75308919,,,,,,,,,,,,,,,,,,,,,,,,,,,,,,,,,2015_Jun_24_1444,59.9035671031,LearningTask,1,39,
-200,q,200,,,,,,,,,,,,,,,,,0,0,0,0,9,3,39,1,,,,,,,,,,,,,,,,,,,,,,,,,,,,,q,1,None,0,,2.0,squareblue.gif,go,,,,,,,,,,,,,,,0.384428977966,,,,,,,,,,,,,,,,,,,,,,,,1.82,0.514445781708,0.000909805297852,0.384428977966,1,q,389.756523132,,,,,,,,,,,,,,,,,,,,,,,,,,,,,,,,,2015_Jun_24_1444,59.9035671031,LearningTask,1,39,
200,s,-200,,,,,,,,,,,,,,,,,0,0,0,0,10,0,40,2,,,,,,,,,,,,,,,,,,,,,,,,,,,,,s,1,None,0,,2.0,crosscyan.gif,stop,,,,,,,,,,,,,,,0.434376955032,,,,,,,,,,,,,,,,,,,,,,,,1.79,0.514315128326,0.000892162322998,0.434376955032,1,s,392.760601044,,,,,,,,,,,,,,,,,,,,,,,,,,,,,,,,,2015_Jun_24_1444,59.9035671031,LearningTask,1,39,
-200,q,200,,,,,,,,,,,,,,,,,0,0,0,0,10,1,41,1,,,,,,,,,,,,,,,,,,,,,,,,,,,,,q,1,None,0,,2.0,squareblue.gif,go,,,,,,,,,,,,,,,0.368016958237,,,,,,,,,,,,,,,,,,,,,,,,1.91,0.513329029083,0.00090503692627,0.368016958237,1,q,395.763242006,,,,,,,,,,,,,,,,,,,,,,,,,,,,,,,,,2015_Jun_24_1444,59.9035671031,LearningTask,1,39,
-200,a,-200,,,,,,,,,,,,,,,,,0,0,0,0,10,2,42,3,,,,,,,,,,,,,,,,,,,,,,,,,,,,,a,1,None,0,,4.0,invertedtriangleorange.gif,go,,,,,,,,,,,,,,,0.400936841965,,,,,,,,,,,,,,,,,,,,,,,,3.94,0.514203071594,0.000976085662842,0.400936841965,1,a,398.766836166,,,,,,,,,,,,,,,,,,,,,,,,,,,,,,,,,2015_Jun_24_1444,59.9035671031,LearningTask,1,39,
200,w,200,,,,,,,,,,,,,,,,,0,0,0,0,10,3,43,0,,,,,,,,,,,,,,,,,,,,,,,,,,,,,w,1,None,0,,0.5,lineyellow.gif,stop,,,,,,,,,,,,,,,0.400805950165,,,,,,,,,,,,,,,,,,,,,,,,0.34,0.51402592659,0.000895977020264,0.400805950165,1,w,401.770524025,,,,,,,,,,,,,,,,,,,,,,,,,,,,,,,,,2015_Jun_24_1444,59.9035671031,LearningTask,1,39,
200,w,200,,,,,,,,,,,,,,,,,0,0,0,0,11,0,44,0,,,,,,,,,,,,,,,,,,,,,,,,,,,,,w,1,None,0,,4.0,invertedtriangleorange.gif,go,,,,,,,,,,,,,,,0.334273815155,,,,,,,,,,,,,,,,,,,,,,,,3.85,0.513559818268,0.000945806503296,0.334273815155,1,w,404.773257971,,,,,,,,,,,,,,,,,,,,,,,,,,,,,,,,,2015_Jun_24_1444,59.9035671031,LearningTask,1,39,
-200,a,-200,,,,,,,,,,,,,,,,,0,0,0,0,11,1,45,3,,,,,,,,,,,,,,,,,,,,,,,,,,,,,a,1,None,0,,2.0,crosscyan.gif,stop,,,,,,,,,,,,,,,0.534524202347,,,,,,,,,,,,,,,,,,,,,,,,2.23,0.514292001724,0.0010621547699,0.534524202347,1,a,407.776508093,,,,,,,,,,,,,,,,,,,,,,,,,,,,,,,,,2015_Jun_24_1444,59.9035671031,LearningTask,1,39,
-200,a,-200,,,,,,,,,,,,,,,,,0,0,0,0,11,2,46,3,,,,,,,,,,,,,,,,,,,,,,,,,,,,,a,1,None,0,,2.0,squareblue.gif,go,,,,,,,,,,,,,,,0.500726938248,,,,,,,,,,,,,,,,,,,,,,,,2.09,0.514662027359,0.000885009765625,0.500726938248,1,a,410.780039072,,,,,,,,,,,,,,,,,,,,,,,,,,,,,,,,,2015_Jun_24_1444,59.9035671031,LearningTask,1,39,
-200,q,200,,,,,,,,,,,,,,,,,0,0,0,0,11,3,47,1,,,,,,,,,,,,,,,,,,,,,,,,,,,,,q,1,None,0,0.245585918427,4.0,diamondwhite.gif,stop,,,,,,,,,,,,,,,0.484122991562,,,,,,,,,,,,,,,,,,,,,,,,0,0.514541864395,0.000913858413696,0.384095907211,0,a,413.783667088,0,0.515404939651,0.000990867614746,0.484122991562,1,q,416.786841154,,,,,,,,,,,,,,,,,,,,,,,,,,2015_Jun_24_1444,59.9035671031,LearningTask,1,39,
200,w,200,,,,,,,,,,,,,,,,,0,0,0,0,12,0,48,0,,,,,,,,,,,,,,,,,,,,,,,,,,,,,w,1,None,0,,1.0,hexagonmagenta.gif,go,,,,,,,,,,,,,,,0.384449005127,,,,,,,,,,,,,,,,,,,,,,,,0.99,0.514317035675,0.000901937484741,0.384449005127,1,w,419.790122986,,,,,,,,,,,,,,,,,,,,,,,,,,,,,,,,,2015_Jun_24_1444,59.9035671031,LearningTask,1,39,
200,s,-200,,,,,,,,,,,,,,,,,0,0,0,0,12,1,49,2,,,,,,,,,,,,,,,,,,,,,,,,,,,,,s,1,None,0,,0.5,lineyellow.gif,stop,,,,,,,,,,,,,,,0.417171001434,,,,,,,,,,,,,,,,,,,,,,,,0.63,0.514309883118,0.000902891159058,0.417171001434,1,s,422.79380703,,,,,,,,,,,,,,,,,,,,,,,,,,,,,,,,,2015_Jun_24_1444,59.9035671031,LearningTask,1,39,
200,w,200,,,,,,,,,,,,,,,,,0,0,0,0,12,2,50,0,,,,,,,,,,,,,,,,,,,,,,,,,,,,,w,1,None,0,,4.0,diamondwhite.gif,stop,,,,,,,,,,,,,,,0.401569128036,,,,,,,,,,,,,,,,,,,,,,,,4.05,0.51349902153,0.00092601776123,0.401569128036,1,w,425.796734095,,,,,,,,,,,,,,,,,,,,,,,,,,,,,,,,,2015_Jun_24_1444,59.9035671031,LearningTask,1,39,
200,s,-200,,,,,,,,,,,,,,,,,0,0,0,0,12,3,51,2,,,,,,,,,,,,,,,,,,,,,,,,,,,,,s,1,None,0,,1.0,trianglegreen.gif,stop,,,,,,,,,,,,,,,0.417396783829,,,,,,,,,,,,,,,,,,,,,,,,1.19,0.514501810074,0.000908851623535,0.417396783829,1,s,428.800008059,,,,,,,,,,,,,,,,,,,,,,,,,,,,,,,,,2015_Jun_24_1444,59.9035671031,LearningTask,1,39,
-200,q,200,,,,,,,,,,,,,,,,,0,0,0,0,13,0,52,1,,,,,,,,,,,,,,,,,,,,,,,,,,,,,q,1,None,0,,4.0,diamondwhite.gif,stop,,,,,,,,,,,,,,,0.4175760746,,,,,,,,,,,,,,,,,,,,,,,,4.21,0.514826059341,0.000895023345947,0.4175760746,1,q,431.8038311,,,,,,,,,,,,,,,,,,,,,,,,,,,,,,,,,2015_Jun_24_1444,59.9035671031,LearningTask,1,39,
-200,a,-200,,,,,,,,,,,,,,,,,0,0,0,0,13,1,53,3,,,,,,,,,,,,,,,,,,,,,,,,,,,,,a,1,None,0,,2.0,squareblue.gif,go,,,,,,,,,,,,,,,0.400863170624,,,,,,,,,,,,,,,,,,,,,,,,1.79,0.513387918472,0.000945091247559,0.400863170624,1,a,434.806915045,,,,,,,,,,,,,,,,,,,,,,,,,,,,,,,,,2015_Jun_24_1444,59.9035671031,LearningTask,1,39,
-200,q,200,,,,,,,,,,,,,,,,,0,0,0,0,13,2,54,1,,,,,,,,,,,,,,,,,,,,,,,,,,,,,q,1,None,0,,1.0,trianglegreen.gif,stop,,,,,,,,,,,,,,,0.417344093323,,,,,,,,,,,,,,,,,,,,,,,,0.87,0.514486074448,0.000910043716431,0.417344093323,1,q,437.810279131,,,,,,,,,,,,,,,,,,,,,,,,,,,,,,,,,2015_Jun_24_1444,59.9035671031,LearningTask,1,39,
-200,a,-200,,,,,,,,,,,,,,,,,0,0,0,0,13,3,55,3,,,,,,,,,,,,,,,,,,,,,,,,,,,,,a,1,None,0,,1.0,hexagonmagenta.gif,go,,,,,,,,,,,,,,,0.417717933655,,,,,,,,,,,,,,,,,,,,,,,,1.23,0.514188051224,0.000916004180908,0.417717933655,1,a,440.813935041,,,,,,,,,,,,,,,,,,,,,,,,,,,,,,,,,2015_Jun_24_1444,59.9035671031,LearningTask,1,39,
-200,q,200,,,,,,,,,,,,,,,,,0,0,0,0,14,0,56,1,,,,,,,,,,,,,,,,,,,,,,,,,,,,,q,1,None,0,,0.5,lineyellow.gif,stop,,,,,,,,,,,,,,,0.417726993561,,,,,,,,,,,,,,,,,,,,,,,,0.47,0.513803005219,0.000953912734985,0.417726993561,1,q,443.816926003,,,,,,,,,,,,,,,,,,,,,,,,,,,,,,,,,2015_Jun_24_1444,59.9035671031,LearningTask,1,39,
-200,q,200,,,,,,,,,,,,,,,,,0,0,0,0,14,1,57,1,,,,,,,,,,,,,,,,,,,,,,,,,,,,,q,1,None,0,,1.0,hexagonmagenta.gif,go,,,,,,,,,,,,,,,0.417498826981,,,,,,,,,,,,,,,,,,,,,,,,0.92,0.514502048492,0.000936985015869,0.417498826981,1,q,446.820405006,,,,,,,,,,,,,,,,,,,,,,,,,,,,,,,,,2015_Jun_24_1444,59.9035671031,LearningTask,1,39,
200,s,-200,,,,,,,,,,,,,,,,,0,0,0,0,14,2,58,2,,,,,,,,,,,,,,,,,,,,,,,,,,,,,s,1,None,0,,1.0,hexagonmagenta.gif,go,,,,,,,,,,,,,,,0.367323875427,,,,,,,,,,,,,,,,,,,,,,,,0.97,0.514497995377,0.000898122787476,0.367323875427,1,s,449.823747158,,,,,,,,,,,,,,,,,,,,,,,,,,,,,,,,,2015_Jun_24_1444,59.9035671031,LearningTask,1,39,
200,w,200,,,,,,,,,,,,,,,,,0,0,0,0,14,3,59,0,,,,,,,,,,,,,,,,,,,,,,,,,,,,,w,1,None,0,,2.0,squareblue.gif,go,,,,,,,,,,,,,,,0.400855064392,,,,,,,,,,,,,,,,,,,,,,,,2.03,0.514220952988,0.00089693069458,0.400855064392,1,w,452.827018976,,,,,,,,,,,,,,,,,,,,,,,,,,,,,,,,,2015_Jun_24_1444,59.9035671031,LearningTask,1,39,
200,s,-200,,,,,,,,,,,,,,,,,0,0,0,0,15,0,60,2,,,,,,,,,,,,,,,,,,,,,,,,,,,,,s,1,None,0,,4.0,invertedtriangleorange.gif,go,,,,,,,,,,,,,,,0.517538070679,,,,,,,,,,,,,,,,,,,,,,,,3.85,0.514294862747,0.00106883049011,0.517538070679,1,s,455.830217123,,,,,,,,,,,,,,,,,,,,,,,,,,,,,,,,,2015_Jun_24_1444,59.9035671031,LearningTask,1,39,
200,s,-200,,,,,,,,,,,,,,,,,0,0,0,0,15,1,61,2,,,,,,,,,,,,,,,,,,,,,,,,,,,,,s,1,None,0,,2.0,squareblue.gif,go,,,,,,,,,,,,,,,0.401127099991,,,,,,,,,,,,,,,,,,,,,,,,1.85,0.514519929886,0.000891923904419,0.401127099991,1,s,458.833781004,,,,,,,,,,,,,,,,,,,,,,,,,,,,,,,,,2015_Jun_24_1444,59.9035671031,LearningTask,1,39,
200,s,-200,,,,,,,,,,,,,,,,,0,0,0,0,15,2,62,2,,,,,,,,,,,,,,,,,,,,,,,,,,,,,s,1,None,0,,0.5,lineyellow.gif,stop,,,,,,,,,,,,,,,0.400759935379,,,,,,,,,,,,,,,,,,,,,,,,0.38,0.514513015747,0.000898838043213,0.400759935379,1,s,461.837095022,,,,,,,,,,,,,,,,,,,,,,,,,,,,,,,,,2015_Jun_24_1444,59.9035671031,LearningTask,1,39,
-200,q,200,,,,,,,,,,,,,,,,,0,0,0,0,15,3,63,1,,,,,,,,,,,,,,,,,,,,,,,,,,,,,q,1,None,0,,2.0,squareblue.gif,go,,,,,,,,,,,,,,,0.40074801445,,,,,,,,,,,,,,,,,,,,,,,,1.75,0.514043092728,0.000969171524048,0.40074801445,1,q,464.840461016,,,,,,,,,,,,,,,,,,,,,,,,,,,,,,,,,2015_Jun_24_1444,59.9035671031,LearningTask,1,39,
200,w,200,,,,,,,,,,,,,,,,,0,0,0,0,16,0,64,0,,,,,,,,,,,,,,,,,,,,,,,,,,,,,w,1,None,0,,4.0,diamondwhite.gif,stop,,,,,,,,,,,,,,,0.367298126221,,,,,,,,,,,,,,,,,,,,,,,,4.19,0.51435303688,0.000904083251953,0.367298126221,1,w,467.843760014,,,,,,,,,,,,,,,,,,,,,,,,,,,,,,,,,2015_Jun_24_1444,59.9035671031,LearningTask,1,39,
200,s,-200,,,,,,,,,,,,,,,,,0,0,0,0,16,1,65,2,,,,,,,,,,,,,,,,,,,,,,,,,,,,,s,1,None,0,,0.5,lineyellow.gif,stop,,,,,,,,,,,,,,,0.417335987091,,,,,,,,,,,,,,,,,,,,,,,,0.31,0.51464009285,0.00089693069458,0.417335987091,1,s,470.847290993,,,,,,,,,,,,,,,,,,,,,,,,,,,,,,,,,2015_Jun_24_1444,59.9035671031,LearningTask,1,39,
200,w,200,,,,,,,,,,,,,,,,,0,0,0,0,16,2,66,0,,,,,,,,,,,,,,,,,,,,,,,,,,,,,w,1,None,0,,1.0,hexagonmagenta.gif,go,,,,,,,,,,,,,,,0.401301145554,,,,,,,,,,,,,,,,,,,,,,,,1.23,0.513730049133,0.000935077667236,0.401301145554,1,w,473.850547075,,,,,,,,,,,,,,,,,,,,,,,,,,,,,,,,,2015_Jun_24_1444,59.9035671031,LearningTask,1,39,
-200,q,200,,,,,,,,,,,,,,,,,0,0,0,0,16,3,67,1,,,,,,,,,,,,,,,,,,,,,,,,,,,,,q,1,None,0,,2.0,crosscyan.gif,stop,,,,,,,,,,,,,,,0.401304960251,,,,,,,,,,,,,,,,,,,,,,,,1.94,0.514235019684,0.000896215438843,0.401304960251,1,q,476.854107141,,,,,,,,,,,,,,,,,,,,,,,,,,,,,,,,,2015_Jun_24_1444,59.9035671031,LearningTask,1,39,
200,w,200,,,,,,,,,,,,,,,,,0,0,0,0,17,0,68,0,,,,,,,,,,,,,,,,,,,,,,,,,,,,,w,1,None,0,,2.0,crosscyan.gif,stop,,,,,,,,,,,,,,,0.334331035614,,,,,,,,,,,,,,,,,,,,,,,,1.77,0.514266014099,0.000900983810425,0.334331035614,1,w,479.857532978,,,,,,,,,,,,,,,,,,,,,,,,,,,,,,,,,2015_Jun_24_1444,59.9035671031,LearningTask,1,39,
-200,q,200,,,,,,,,,,,,,,,,,0,0,0,0,17,1,69,1,,,,,,,,,,,,,,,,,,,,,,,,,,,,,q,1,None,0,,1.0,trianglegreen.gif,stop,,,,,,,,,,,,,,,0.417468070984,,,,,,,,,,,,,,,,,,,,,,,,1.04,0.513849020004,0.000915050506592,0.417468070984,1,q,482.860751152,,,,,,,,,,,,,,,,,,,,,,,,,,,,,,,,,2015_Jun_24_1444,59.9035671031,LearningTask,1,39,
-200,a,-200,,,,,,,,,,,,,,,,,0,0,0,0,17,2,70,3,,,,,,,,,,,,,,,,,,,,,,,,,,,,,a,1,None,0,,4.0,invertedtriangleorange.gif,go,,,,,,,,,,,,,,,0.417488098145,,,,,,,,,,,,,,,,,,,,,,,,3.8,0.513932943344,0.000902891159058,0.417488098145,1,a,485.86413908,,,,,,,,,,,,,,,,,,,,,,,,,,,,,,,,,2015_Jun_24_1444,59.9035671031,LearningTask,1,39,
-200,q,200,,,,,,,,,,,,,,,,,0,0,0,0,17,3,71,1,,,,,,,,,,,,,,,,,,,,,,,,,,,,,q,1,None,0,,4.0,invertedtriangleorange.gif,go,,,,,,,,,,,,,,,0.450925111771,,,,,,,,,,,,,,,,,,,,,,,,0,0.514136075974,0.000917196273804,0.450925111771,1,q,488.86778307,,,,,,,,,,,,,,,,,,,,,,,,,,,,,,,,,2015_Jun_24_1444,59.9035671031,LearningTask,1,39,
-200,a,-200,,,,,,,,,,,,,,,,,0,0,0,0,18,0,72,3,,,,,,,,,,,,,,,,,,,,,,,,,,,,,a,1,None,0,,4.0,diamondwhite.gif,stop,,,,,,,,,,,,,,,0.467403888702,,,,,,,,,,,,,,,,,,,,,,,,3.89,0.513900995255,0.000892877578735,0.467403888702,1,a,491.870622158,,,,,,,,,,,,,,,,,,,,,,,,,,,,,,,,,2015_Jun_24_1444,59.9035671031,LearningTask,1,39,
-200,a,-200,,,,,,,,,,,,,,,,,0,0,0,0,18,1,73,3,,,,,,,,,,,,,,,,,,,,,,,,,,,,,a,1,None,0,,4.0,invertedtriangleorange.gif,go,,,,,,,,,,,,,,,0.417055130005,,,,,,,,,,,,,,,,,,,,,,,,4.11,0.514807939529,0.000931024551392,0.417055130005,1,a,494.874090195,,,,,,,,,,,,,,,,,,,,,,,,,,,,,,,,,2015_Jun_24_1444,59.9035671031,LearningTask,1,39,
200,s,-200,,,,,,,,,,,,,,,,,0,0,0,0,18,2,74,2,,,,,,,,,,,,,,,,,,,,,,,,,,,,,s,1,None,0,,0.5,circlegray.gif,go,,,,,,,,,,,,,,,0.41770195961,,,,,,,,,,,,,,,,,,,,,,,,0.47,0.514317035675,0.000898122787476,0.41770195961,1,s,497.877799988,,,,,,,,,,,,,,,,,,,,,,,,,,,,,,,,,2015_Jun_24_1444,59.9035671031,LearningTask,1,39,
200,w,200,,,,,,,,,,,,,,,,,0,0,0,0,18,3,75,0,,,,,,,,,,,,,,,,,,,,,,,,,,,,,w,1,None,0,,2.0,squareblue.gif,go,,,,,,,,,,,,,,,0.384349107742,,,,,,,,,,,,,,,,,,,,,,,,0,0.513778924942,0.00102591514587,0.384349107742,1,w,500.880707026,,,,,,,,,,,,,,,,,,,,,,,,,,,,,,,,,2015_Jun_24_1444,59.9035671031,LearningTask,1,39,
-200,a,-200,,,,,,,,,,,,,,,,,0,0,0,0,19,0,76,3,,,,,,,,,,,,,,,,,,,,,,,,,,,,,a,1,None,0,,4.0,diamondwhite.gif,stop,,,,,,,,,,,,,,,0.401016950607,,,,,,,,,,,,,,,,,,,,,,,,3.91,0.514237880707,0.00108790397644,0.401016950607,1,a,503.883867979,,,,,,,,,,,,,,,,,,,,,,,,,,,,,,,,,2015_Jun_24_1444,59.9035671031,LearningTask,1,39,
-200,q,200,,,,,,,,,,,,,,,,,0,0,0,0,19,1,77,1,,,,,,,,,,,,,,,,,,,,,,,,,,,,,q,1,None,0,,4.0,diamondwhite.gif,stop,,,,,,,,,,,,,,,0.434448003769,,,,,,,,,,,,,,,,,,,,,,,,3.95,0.514460086823,0.00090503692627,0.434448003769,1,q,506.887449026,,,,,,,,,,,,,,,,,,,,,,,,,,,,,,,,,2015_Jun_24_1444,59.9035671031,LearningTask,1,39,
200,w,200,,,,,,,,,,,,,,,,,0,0,0,0,19,2,78,0,,,,,,,,,,,,,,,,,,,,,,,,,,,,,w,1,None,0,,0.5,lineyellow.gif,stop,,,,,,,,,,,,,,,0.367532014847,,,,,,,,,,,,,,,,,,,,,,,,0,0.514453172684,0.00090217590332,0.367532014847,1,w,509.890719175,,,,,,,,,,,,,,,,,,,,,,,,,,,,,,,,,2015_Jun_24_1444,59.9035671031,LearningTask,1,39,
200,w,200,,,,,,,,,,,,,,,,,0,0,0,0,19,3,79,0,,,,,,,,,,,,,,,,,,,,,,,,,,,,,w,1,None,0,,0.5,circlegray.gif,go,,,,,,,,,,,,,,,0.4673640728,,,,,,,,,,,,,,,,,,,,,,,,0.64,0.514559984207,0.00117993354797,0.4673640728,1,w,512.894265175,,,,,,,,,,,,,,,,,,,,,,,,,,,,,,,,,2015_Jun_24_1444,59.9035671031,LearningTask,1,39,
-200,a,-200,,,,,,,,,,,,,,,,,0,0,0,0,20,0,80,3,,,,,,,,,,,,,,,,,,,,,,,,,,,,,a,1,None,0,,1.0,trianglegreen.gif,stop,,,,,,,,,,,,,,,0.450616121292,,,,,,,,,,,,,,,,,,,,,,,,0.89,0.514392852783,0.000939846038818,0.450616121292,1,a,515.897448063,,,,,,,,,,,,,,,,,,,,,,,,,,,,,,,,,2015_Jun_24_1444,59.9035671031,LearningTask,1,39,
200,s,-200,,,,,,,,,,,,,,,,,0,0,0,0,20,1,81,2,,,,,,,,,,,,,,,,,,,,,,,,,,,,,s,1,None,0,,1.0,trianglegreen.gif,stop,,,,,,,,,,,,,,,0.350824117661,,,,,,,,,,,,,,,,,,,,,,,,1.01,0.514467954636,0.00088906288147,0.350824117661,1,s,518.901223183,,,,,,,,,,,,,,,,,,,,,,,,,,,,,,,,,2015_Jun_24_1444,59.9035671031,LearningTask,1,39,
-200,a,-200,,,,,,,,,,,,,,,,,0,0,0,0,20,2,82,3,,,,,,,,,,,,,,,,,,,,,,,,,,,,,a,1,None,0,,4.0,diamondwhite.gif,stop,,,,,,,,,,,,,,,0.367617845535,,,,,,,,,,,,,,,,,,,,,,,,4.17,0.513493061066,0.000917911529541,0.367617845535,1,a,521.904851198,,,,,,,,,,,,,,,,,,,,,,,,,,,,,,,,,2015_Jun_24_1444,59.9035671031,LearningTask,1,39,
200,w,200,,,,,,,,,,,,,,,,,0,0,0,0,20,3,83,0,,,,,,,,,,,,,,,,,,,,,,,,,,,,,w,1,None,0,,0.5,circlegray.gif,go,,,,,,,,,,,,,,,0.383973121643,,,,,,,,,,,,,,,,,,,,,,,,0.62,0.514148950577,0.000907897949219,0.383973121643,1,w,524.907711983,,,,,,,,,,,,,,,,,,,,,,,,,,,,,,,,,2015_Jun_24_1444,59.9035671031,LearningTask,1,39,
-200,a,-200,,,,,,,,,,,,,,,,,0,0,0,0,21,0,84,3,,,,,,,,,,,,,,,,,,,,,,,,,,,,,a,1,None,0,,2.0,squareblue.gif,go,,,,,,,,,,,,,,,0.467604875565,,,,,,,,,,,,,,,,,,,,,,,,1.82,0.514319181442,0.00088906288147,0.467604875565,1,a,527.91130805,,,,,,,,,,,,,,,,,,,,,,,,,,,,,,,,,2015_Jun_24_1444,59.9035671031,LearningTask,1,39,
200,s,-200,,,,,,,,,,,,,,,,,0,0,0,0,21,1,85,2,,,,,,,,,,,,,,,,,,,,,,,,,,,,,s,1,None,0,,1.0,hexagonmagenta.gif,go,,,,,,,,,,,,,,,0.434251070023,,,,,,,,,,,,,,,,,,,,,,,,1.15,0.513495922089,0.000910997390747,0.434251070023,1,s,530.914304972,,,,,,,,,,,,,,,,,,,,,,,,,,,,,,,,,2015_Jun_24_1444,59.9035671031,LearningTask,1,39,
200,s,-200,,,,,,,,,,,,,,,,,0,0,0,0,21,2,86,2,,,,,,,,,,,,,,,,,,,,,,,,,,,,,s,1,None,0,,2.0,crosscyan.gif,stop,,,,,,,,,,,,,,,0.501006126404,,,,,,,,,,,,,,,,,,,,,,,,0,0.514337062836,0.00090503692627,0.501006126404,1,s,533.917668104,,,,,,,,,,,,,,,,,,,,,,,,,,,,,,,,,2015_Jun_24_1444,59.9035671031,LearningTask,1,39,
-200,a,-200,,,,,,,,,,,,,,,,,0,0,0,0,21,3,87,3,,,,,,,,,,,,,,,,,,,,,,,,,,,,,a,1,None,0,,0.5,lineyellow.gif,stop,,,,,,,,,,,,,,,0.417645931244,,,,,,,,,,,,,,,,,,,,,,,,0.61,0.514097929001,0.00089693069458,0.417645931244,1,a,536.921387196,,,,,,,,,,,,,,,,,,,,,,,,,,,,,,,,,2015_Jun_24_1444,59.9035671031,LearningTask,1,39,
-200,a,-200,,,,,,,,,,,,,,,,,0,0,0,0,22,0,88,3,,,,,,,,,,,,,,,,,,,,,,,,,,,,,a,1,None,0,,4.0,diamondwhite.gif,stop,,,,,,,,,,,,,,,0.41767001152,,,,,,,,,,,,,,,,,,,,,,,,0,0.513873100281,0.000905990600586,0.41767001152,1,a,539.924450159,,,,,,,,,,,,,,,,,,,,,,,,,,,,,,,,,2015_Jun_24_1444,59.9035671031,LearningTask,1,39,
200,s,-200,,,,,,,,,,,,,,,,,0,0,0,0,22,1,89,2,,,,,,,,,,,,,,,,,,,,,,,,,,,,,s,1,None,0,,4.0,invertedtriangleorange.gif,go,,,,,,,,,,,,,,,0.400521993637,,,,,,,,,,,,,,,,,,,,,,,,0,0.514304876328,0.000944852828979,0.400521993637,1,s,542.927980185,,,,,,,,,,,,,,,,,,,,,,,,,,,,,,,,,2015_Jun_24_1444,59.9035671031,LearningTask,1,39,
-200,a,-200,,,,,,,,,,,,,,,,,0,0,0,0,22,2,90,3,,,,,,,,,,,,,,,,,,,,,,,,,,,,,a,1,None,0,,2.0,crosscyan.gif,stop,,,,,,,,,,,,,,,0.417304992676,,,,,,,,,,,,,,,,,,,,,,,,1.95,0.514091014862,0.000895977020264,0.417304992676,1,a,545.931256056,,,,,,,,,,,,,,,,,,,,,,,,,,,,,,,,,2015_Jun_24_1444,59.9035671031,LearningTask,1,39,
200,s,-200,,,,,,,,,,,,,,,,,0,0,0,0,22,3,91,2,,,,,,,,,,,,,,,,,,,,,,,,,,,,,s,1,None,0,,2.0,crosscyan.gif,stop,,,,,,,,,,,,,,,0.384443044662,,,,,,,,,,,,,,,,,,,,,,,,1.88,0.51424908638,0.000912189483643,0.384443044662,1,s,548.934261084,,,,,,,,,,,,,,,,,,,,,,,,,,,,,,,,,2015_Jun_24_1444,59.9035671031,LearningTask,1,39,
200,s,-200,,,,,,,,,,,,,,,,,0,0,0,0,23,0,92,2,,,,,,,,,,,,,,,,,,,,,,,,,,,,,s,1,None,0,,2.0,squareblue.gif,go,,,,,,,,,,,,,,,0.351102113724,,,,,,,,,,,,,,,,,,,,,,,,1.98,0.514461040497,0.000936985015869,0.351102113724,1,s,551.937623024,,,,,,,,,,,,,,,,,,,,,,,,,,,,,,,,,2015_Jun_24_1444,59.9035671031,LearningTask,1,39,
-200,q,200,,,,,,,,,,,,,,,,,0,0,0,0,23,1,93,1,,,,,,,,,,,,,,,,,,,,,,,,,,,,,q,1,None,0,,4.0,invertedtriangleorange.gif,go,,,,,,,,,,,,,,,0.417603969574,,,,,,,,,,,,,,,,,,,,,,,,3.88,0.514663934708,0.000907897949219,0.417603969574,1,q,554.941227198,,,,,,,,,,,,,,,,,,,,,,,,,,,,,,,,,2015_Jun_24_1444,59.9035671031,LearningTask,1,39,
-200,q,200,,,,,,,,,,,,,,,,,0,0,0,0,23,2,94,1,,,,,,,,,,,,,,,,,,,,,,,,,,,,,q,1,None,0,,0.5,circlegray.gif,go,,,,,,,,,,,,,,,0.384248018265,,,,,,,,,,,,,,,,,,,,,,,,0,0.514529943466,0.000895023345947,0.384248018265,1,q,557.944342136,,,,,,,,,,,,,,,,,,,,,,,,,,,,,,,,,2015_Jun_24_1444,59.9035671031,LearningTask,1,39,
-200,q,200,,,,,,,,,,,,,,,,,0,0,0,0,23,3,95,1,,,,,,,,,,,,,,,,,,,,,,,,,,,,,q,1,None,0,,2.0,squareblue.gif,go,,,,,,,,,,,,,,,0.434417963028,,,,,,,,,,,,,,,,,,,,,,,,1.78,0.514672994614,0.000967025756836,0.434417963028,1,q,560.948391199,,,,,,,,,,,,,,,,,,,,,,,,,,,,,,,,,2015_Jun_24_1444,59.9035671031,LearningTask,1,39,
-200,q,200,,,,,,,,,,,,,,,,,0,0,0,0,24,0,96,1,,,,,,,,,,,,,,,,,,,,,,,,,,,,,q,1,None,0,,4.0,invertedtriangleorange.gif,go,,,,,,,,,,,,,,,0.417854070663,,,,,,,,,,,,,,,,,,,,,,,,4.22,0.513833045959,0.000907182693481,0.417854070663,1,q,563.95124197,,,,,,,,,,,,,,,,,,,,,,,,,,,,,,,,,2015_Jun_24_1444,59.9035671031,LearningTask,1,39,
200,s,-200,,,,,,,,,,,,,,,,,0,0,0,0,24,1,97,2,,,,,,,,,,,,,,,,,,,,,,,,,,,,,s,1,None,0,,4.0,diamondwhite.gif,stop,,,,,,,,,,,,,,,0.418184041977,,,,,,,,,,,,,,,,,,,,,,,,0,0.514379024506,0.000899076461792,0.418184041977,1,s,566.9545362,,,,,,,,,,,,,,,,,,,,,,,,,,,,,,,,,2015_Jun_24_1444,59.9035671031,LearningTask,1,39,
-200,a,-200,,,,,,,,,,,,,,,,,0,0,0,0,24,2,98,3,,,,,,,,,,,,,,,,,,,,,,,,,,,,,a,1,None,0,,0.5,circlegray.gif,go,,,,,,,,,,,,,,,0.501017808914,,,,,,,,,,,,,,,,,,,,,,,,0,0.513996839523,0.000949859619141,0.501017808914,1,a,569.957893133,,,,,,,,,,,,,,,,,,,,,,,,,,,,,,,,,2015_Jun_24_1444,59.9035671031,LearningTask,1,39,
200,w,200,,,,,,,,,,,,,,,,,0,0,0,0,24,3,99,0,,,,,,,,,,,,,,,,,,,,,,,,,,,,,w,1,None,0,,0.5,lineyellow.gif,stop,,,,,,,,,,,,,,,0.417618989944,,,,,,,,,,,,,,,,,,,,,,,,0.65,0.514619112015,0.000900030136108,0.417618989944,1,w,572.961287022,,,,,,,,,,,,,,,,,,,,,,,,,,,,,,,,,2015_Jun_24_1444,59.9035671031,LearningTask,1,39,
,,,,,,,,,,,,,,,,,,,0,0,0,0,,,,,,,,,,,,,,,,,,,,,,,,,,,,,,,,,,,,,,,,,,,,,,,,,,,,,,,,,,,,,,,,,,,,,,,,,,,,,,,,,,,,,,,,,,,,,9,2.93806910515,,,,,,,,,,,,,,,,,,,,,,,,2015_Jun_24_1444,59.9035671031,LearningTask,1,39,
200,w,200,,,,,,,,,,,,,,,,,1,0,1,0,0,0,0,0,,,,,,,,,,,,,,,,,,,,,,,,,,,,,w,1,None,0,,0.5,circlegray.gif,go,,,,,,,,,,,,,,,0.467511892319,,,,,,,,,,,,,,,,,,,,,,,,0.34,0.509845018387,0.000900983810425,0.467511892319,1,w,579.352306128,,,,,,,,,,,,,,,,,,,,,,,,,,,,,,,,,2015_Jun_24_1444,59.9035671031,LearningTask,1,39,
-200,q,200,,,,,,,,,,,,,,,,,1,0,1,0,0,1,1,1,,,,,,,,,,,,,,,,,,,,,,,,,,,,,q,1,None,0,,2.0,squareblue.gif,go,,,,,,,,,,,,,,,0.384691953659,,,,,,,,,,,,,,,,,,,,,,,,1.87,0.513438940048,0.000976800918579,0.384691953659,1,q,582.355563164,,,,,,,,,,,,,,,,,,,,,,,,,,,,,,,,,2015_Jun_24_1444,59.9035671031,LearningTask,1,39,
200,s,-200,,,,,,,,,,,,,,,,,1,0,1,0,0,2,2,2,,,,,,,,,,,,,,,,,,,,,,,,,,,,,s,1,None,0,,0.5,circlegray.gif,go,,,,,,,,,,,,,,,0.3674929142,,,,,,,,,,,,,,,,,,,,,,,,0.67,0.513839006424,0.00090479850769,0.3674929142,1,s,585.358571053,,,,,,,,,,,,,,,,,,,,,,,,,,,,,,,,,2015_Jun_24_1444,59.9035671031,LearningTask,1,39,
-200,a,-200,,,,,,,,,,,,,,,,,1,0,1,0,0,3,3,3,,,,,,,,,,,,,,,,,,,,,,,,,,,,,a,1,None,0,,2.0,crosscyan.gif,stop,,,,,,,,,,,,,,,0.400707960129,,,,,,,,,,,,,,,,,,,,,,,,2.25,0.51424908638,0.000900983810425,0.400707960129,1,a,588.361796141,,,,,,,,,,,,,,,,,,,,,,,,,,,,,,,,,2015_Jun_24_1444,59.9035671031,LearningTask,1,39,
-200,a,-200,,,,,,,,,,,,,,,,,1,0,1,0,1,0,4,3,,,,,,,,,,,,,,,,,,,,,,,,,,,,,a,1,None,0,,0.5,circlegray.gif,go,,,,,,,,,,,,,,,0.367411851883,,,,,,,,,,,,,,,,,,,,,,,,0.5,0.514154195786,0.000936031341553,0.367411851883,1,a,591.365118027,,,,,,,,,,,,,,,,,,,,,,,,,,,,,,,,,2015_Jun_24_1444,59.9035671031,LearningTask,1,39,
200,s,-200,,,,,,,,,,,,,,,,,1,0,1,0,1,1,5,2,,,,,,,,,,,,,,,,,,,,,,,,,,,,,s,1,None,0,,2.0,squareblue.gif,go,,,,,,,,,,,,,,,0.417308092117,,,,,,,,,,,,,,,,,,,,,,,,1.89,0.51446390152,0.000890016555786,0.417308092117,1,s,594.368946075,,,,,,,,,,,,,,,,,,,,,,,,,,,,,,,,,2015_Jun_24_1444,59.9035671031,LearningTask,1,39,
-200,q,200,,,,,,,,,,,,,,,,,1,0,1,0,1,2,6,1,,,,,,,,,,,,,,,,,,,,,,,,,,,,,q,1,None,0,,1.0,hexagonmagenta.gif,go,,,,,,,,,,,,,,,0.334270000458,,,,,,,,,,,,,,,,,,,,,,,,0.8,0.513704061508,0.000982046127319,0.334270000458,1,q,597.371973038,,,,,,,,,,,,,,,,,,,,,,,,,,,,,,,,,2015_Jun_24_1444,59.9035671031,LearningTask,1,39,
-200,q,200,,,,,,,,,,,,,,,,,1,0,1,0,1,3,7,1,,,,,,,,,,,,,,,,,,,,,,,,,,,,,q,1,None,0,,1.0,trianglegreen.gif,stop,,,,,,,,,,,,,,,0.384124040604,,,,,,,,,,,,,,,,,,,,,,,,1.19,0.514163017273,0.000982046127319,0.384124040604,1,q,600.375363111,,,,,,,,,,,,,,,,,,,,,,,,,,,,,,,,,2015_Jun_24_1444,59.9035671031,LearningTask,1,39,
-200,a,-200,,,,,,,,,,,,,,,,,1,0,1,0,2,0,8,3,,,,,,,,,,,,,,,,,,,,,,,,,,,,,a,1,None,0,,2.0,crosscyan.gif,stop,,,,,,,,,,,,,,,0.425594091415,,,,,,,,,,,,,,,,,,,,,,,,2.2,0.513895988464,0.000908136367798,0.425594091415,1,a,603.378617048,,,,,,,,,,,,,,,,,,,,,,,,,,,,,,,,,2015_Jun_24_1444,59.9035671031,LearningTask,1,39,
200,s,-200,,,,,,,,,,,,,,,,,1,0,1,0,2,1,9,2,,,,,,,,,,,,,,,,,,,,,,,,,,,,,s,1,None,0,,4.0,invertedtriangleorange.gif,go,,,,,,,,,,,,,,,0.417474985123,,,,,,,,,,,,,,,,,,,,,,,,4.14,0.514245033264,0.000915050506592,0.417474985123,1,s,606.381978989,,,,,,,,,,,,,,,,,,,,,,,,,,,,,,,,,2015_Jun_24_1444,59.9035671031,LearningTask,1,39,
-200,a,-200,,,,,,,,,,,,,,,,,1,0,1,0,2,2,10,3,,,,,,,,,,,,,,,,,,,,,,,,,,,,,a,1,None,0,,2.0,crosscyan.gif,stop,,,,,,,,,,,,,,,0.718072891235,,,,,,,,,,,,,,,,,,,,,,,,0,0.51415681839,0.000910997390747,0.718072891235,1,a,609.385310173,,,,,,,,,,,,,,,,,,,,,,,,,,,,,,,,,2015_Jun_24_1444,59.9035671031,LearningTask,1,39,
-200,q,200,,,,,,,,,,,,,,,,,1,0,1,0,2,3,11,1,,,,,,,,,,,,,,,,,,,,,,,,,,,,,q,1,None,0,,4.0,invertedtriangleorange.gif,go,,,,,,,,,,,,,,,0.334167003632,,,,,,,,,,,,,,,,,,,,,,,,4.2,0.513871908188,0.00121402740479,0.334167003632,1,q,612.388913155,,,,,,,,,,,,,,,,,,,,,,,,,,,,,,,,,2015_Jun_24_1444,59.9035671031,LearningTask,1,39,
200,w,200,,,,,,,,,,,,,,,,,1,0,1,0,3,0,12,0,,,,,,,,,,,,,,,,,,,,,,,,,,,,,w,1,None,0,,4.0,diamondwhite.gif,stop,,,,,,,,,,,,,,,0.284120082855,,,,,,,,,,,,,,,,,,,,,,,,4.09,0.51393699646,0.00137805938721,0.284120082855,1,w,615.392404079,,,,,,,,,,,,,,,,,,,,,,,,,,,,,,,,,2015_Jun_24_1444,59.9035671031,LearningTask,1,39,
200,w,200,,,,,,,,,,,,,,,,,1,0,1,0,3,1,13,0,,,,,,,,,,,,,,,,,,,,,,,,,,,,,w,1,None,0,,1.0,hexagonmagenta.gif,go,,,,,,,,,,,,,,,0.351243019104,,,,,,,,,,,,,,,,,,,,,,,,0,0.513643980026,0.00130915641785,0.384114027023,0,s,618.39531517,1.05,0.515658140182,0.000969171524048,0.351243019104,1,w,621.399027109,,,,,,,,,,,,,,,,,,,,,,,,,,2015_Jun_24_1444,59.9035671031,LearningTask,1,39,
-200,q,200,,,,,,,,,,,,,,,,,1,0,1,0,3,2,14,1,,,,,,,,,,,,,,,,,,,,,,,,,,,,,q,1,None,0,,0.5,lineyellow.gif,stop,,,,,,,,,,,,,,,0.317373991013,,,,,,,,,,,,,,,,,,,,,,,,0.37,0.513852119446,0.00131916999817,0.317373991013,1,q,624.402152061,,,,,,,,,,,,,,,,,,,,,,,,,,,,,,,,,2015_Jun_24_1444,59.9035671031,LearningTask,1,39,
200,s,-200,,,,,,,,,,,,,,,,,1,0,1,0,3,3,15,2,,,,,,,,,,,,,,,,,,,,,,,,,,,,,s,1,None,0,,4.0,invertedtriangleorange.gif,go,,,,,,,,,,,,,,,0.417485952377,,,,,,,,,,,,,,,,,,,,,,,,4.21,0.514318227768,0.000875234603882,0.417485952377,1,s,627.405826092,,,,,,,,,,,,,,,,,,,,,,,,,,,,,,,,,2015_Jun_24_1444,59.9035671031,LearningTask,1,39,
200,w,200,,,,,,,,,,,,,,,,,1,0,1,0,4,0,16,0,,,,,,,,,,,,,,,,,,,,,,,,,,,,,w,1,None,0,,4.0,invertedtriangleorange.gif,go,,,,,,,,,,,,,,,0.384373903275,,,,,,,,,,,,,,,,,,,,,,,,4.05,0.513869047165,0.00103902816772,0.384373903275,1,w,630.408612013,,,,,,,,,,,,,,,,,,,,,,,,,,,,,,,,,2015_Jun_24_1444,59.9035671031,LearningTask,1,39,
-200,a,-200,,,,,,,,,,,,,,,,,1,0,1,0,4,1,17,3,,,,,,,,,,,,,,,,,,,,,,,,,,,,,a,1,None,0,,4.0,invertedtriangleorange.gif,go,,,,,,,,,,,,,,,0.367182970047,,,,,,,,,,,,,,,,,,,,,,,,4.01,0.514739990234,0.000877141952515,0.367182970047,1,a,633.412185192,,,,,,,,,,,,,,,,,,,,,,,,,,,,,,,,,2015_Jun_24_1444,59.9035671031,LearningTask,1,39,
200,s,-200,,,,,,,,,,,,,,,,,1,0,1,0,4,2,18,2,,,,,,,,,,,,,,,,,,,,,,,,,,,,,s,1,None,0,,0.5,lineyellow.gif,stop,,,,,,,,,,,,,,,0.417340993881,,,,,,,,,,,,,,,,,,,,,,,,0.28,0.514350175858,0.00088095664978,0.417340993881,1,s,636.415557146,,,,,,,,,,,,,,,,,,,,,,,,,,,,,,,,,2015_Jun_24_1444,59.9035671031,LearningTask,1,39,
-200,q,200,,,,,,,,,,,,,,,,,1,0,1,0,4,3,19,1,,,,,,,,,,,,,,,,,,,,,,,,,,,,,q,1,None,0,,1.0,hexagonmagenta.gif,go,,,,,,,,,,,,,,,0.383773803711,,,,,,,,,,,,,,,,,,,,,,,,0.82,0.51461482048,0.000934839248657,0.383773803711,1,q,639.418892145,,,,,,,,,,,,,,,,,,,,,,,,,,,,,,,,,2015_Jun_24_1444,59.9035671031,LearningTask,1,39,
200,w,200,,,,,,,,,,,,,,,,,1,0,1,0,5,0,20,0,,,,,,,,,,,,,,,,,,,,,,,,,,,,,w,1,None,0,,4.0,diamondwhite.gif,stop,,,,,,,,,,,,,,,0.350718021393,,,,,,,,,,,,,,,,,,,,,,,,4.2,0.514479875565,0.000897884368896,0.350718021393,1,w,642.423108101,,,,,,,,,,,,,,,,,,,,,,,,,,,,,,,,,2015_Jun_24_1444,59.9035671031,LearningTask,1,39,
-200,q,200,,,,,,,,,,,,,,,,,1,0,1,0,5,1,21,1,,,,,,,,,,,,,,,,,,,,,,,,,,,,,q,1,None,0,,0.5,circlegray.gif,go,,,,,,,,,,,,,,,0.384491920471,,,,,,,,,,,,,,,,,,,,,,,,0,0.513073921204,0.00133204460144,0.384491920471,1,q,645.426198006,,,,,,,,,,,,,,,,,,,,,,,,,,,,,,,,,2015_Jun_24_1444,59.9035671031,LearningTask,1,39,
-200,q,200,,,,,,,,,,,,,,,,,1,0,1,0,5,2,22,1,,,,,,,,,,,,,,,,,,,,,,,,,,,,,q,1,None,0,,2.0,crosscyan.gif,stop,,,,,,,,,,,,,,,0.417150974274,,,,,,,,,,,,,,,,,,,,,,,,2.0,0.513698101044,0.000890970230103,0.417150974274,1,q,648.429013014,,,,,,,,,,,,,,,,,,,,,,,,,,,,,,,,,2015_Jun_24_1444,59.9035671031,LearningTask,1,39,
200,s,-200,,,,,,,,,,,,,,,,,1,0,1,0,5,3,23,2,,,,,,,,,,,,,,,,,,,,,,,,,,,,,s,1,None,0,,4.0,invertedtriangleorange.gif,go,,,,,,,,,,,,,,,0.451286077499,,,,,,,,,,,,,,,,,,,,,,,,4.03,0.514272928238,0.000880002975464,0.451286077499,1,s,651.432278156,,,,,,,,,,,,,,,,,,,,,,,,,,,,,,,,,2015_Jun_24_1444,59.9035671031,LearningTask,1,39,
-200,q,200,,,,,,,,,,,,,,,,,1,0,1,0,6,0,24,1,,,,,,,,,,,,,,,,,,,,,,,,,,,,,q,1,None,0,,0.5,lineyellow.gif,stop,,,,,,,,,,,,,,,0.450929880142,,,,,,,,,,,,,,,,,,,,,,,,0.71,0.514299869537,0.000875949859619,0.450929880142,1,q,654.435964108,,,,,,,,,,,,,,,,,,,,,,,,,,,,,,,,,2015_Jun_24_1444,59.9035671031,LearningTask,1,39,
-200,a,-200,,,,,,,,,,,,,,,,,1,0,1,0,6,1,25,3,,,,,,,,,,,,,,,,,,,,,,,,,,,,,a,1,None,0,,2.0,crosscyan.gif,stop,,,,,,,,,,,,,,,0.500895023346,,,,,,,,,,,,,,,,,,,,,,,,1.77,0.513897895813,0.000932931900024,0.500895023346,1,a,657.439077139,,,,,,,,,,,,,,,,,,,,,,,,,,,,,,,,,2015_Jun_24_1444,59.9035671031,LearningTask,1,39,
-200,q,200,,,,,,,,,,,,,,,,,1,0,1,0,6,2,26,1,,,,,,,,,,,,,,,,,,,,,,,,,,,,,q,1,None,0,,0.5,circlegray.gif,go,,,,,,,,,,,,,,,0.40074300766,,,,,,,,,,,,,,,,,,,,,,,,0,0.514304876328,0.000885009765625,0.40074300766,1,q,660.442546129,,,,,,,,,,,,,,,,,,,,,,,,,,,,,,,,,2015_Jun_24_1444,59.9035671031,LearningTask,1,39,
200,w,200,,,,,,,,,,,,,,,,,1,0,1,0,6,3,27,0,,,,,,,,,,,,,,,,,,,,,,,,,,,,,w,1,None,0,,4.0,diamondwhite.gif,stop,,,,,,,,,,,,,,,0.350598812103,,,,,,,,,,,,,,,,,,,,,,,,4.19,0.514586925507,0.000874996185303,0.350598812103,1,w,663.446274996,,,,,,,,,,,,,,,,,,,,,,,,,,,,,,,,,2015_Jun_24_1444,59.9035671031,LearningTask,1,39,
-200,q,200,,,,,,,,,,,,,,,,,1,0,1,0,7,0,28,1,,,,,,,,,,,,,,,,,,,,,,,,,,,,,q,1,None,0,,0.5,circlegray.gif,go,,,,,,,,,,,,,,,0.400986909866,,,,,,,,,,,,,,,,,,,,,,,,0,0.513652086258,0.00088095664978,0.400986909866,1,q,666.449249029,,,,,,,,,,,,,,,,,,,,,,,,,,,,,,,,,2015_Jun_24_1444,59.9035671031,LearningTask,1,39,
-200,a,-200,,,,,,,,,,,,,,,,,1,0,1,0,7,1,29,3,,,,,,,,,,,,,,,,,,,,,,,,,,,,,a,1,None,0,,1.0,trianglegreen.gif,stop,,,,,,,,,,,,,,,0.45094203949,,,,,,,,,,,,,,,,,,,,,,,,1.0,0.51446390152,0.00132703781128,0.45094203949,1,a,669.452536106,,,,,,,,,,,,,,,,,,,,,,,,,,,,,,,,,2015_Jun_24_1444,59.9035671031,LearningTask,1,39,
200,s,-200,,,,,,,,,,,,,,,,,1,0,1,0,7,2,30,2,,,,,,,,,,,,,,,,,,,,,,,,,,,,,s,1,None,0,,2.0,squareblue.gif,go,,,,,,,,,,,,,,,0.367759943008,,,,,,,,,,,,,,,,,,,,,,,,2.15,0.514466047287,0.00126791000366,0.367759943008,1,s,672.456115007,,,,,,,,,,,,,,,,,,,,,,,,,,,,,,,,,2015_Jun_24_1444,59.9035671031,LearningTask,1,39,
200,w,200,,,,,,,,,,,,,,,,,1,0,1,0,7,3,31,0,,,,,,,,,,,,,,,,,,,,,,,,,,,,,w,1,None,0,,4.0,invertedtriangleorange.gif,go,,,,,,,,,,,,,,,0.484447002411,,,,,,,,,,,,,,,,,,,,,,,,3.79,0.514142036438,0.000874042510986,0.484447002411,1,w,675.459280014,,,,,,,,,,,,,,,,,,,,,,,,,,,,,,,,,2015_Jun_24_1444,59.9035671031,LearningTask,1,39,
-200,q,200,,,,,,,,,,,,,,,,,1,0,1,0,8,0,32,1,,,,,,,,,,,,,,,,,,,,,,,,,,,,,q,1,None,0,,0.5,lineyellow.gif,stop,,,,,,,,,,,,,,,0.334118843079,,,,,,,,,,,,,,,,,,,,,,,,0.47,0.514643907547,0.000953912734985,0.334118843079,1,q,678.462990999,,,,,,,,,,,,,,,,,,,,,,,,,,,,,,,,,2015_Jun_24_1444,59.9035671031,LearningTask,1,39,
200,s,-200,,,,,,,,,,,,,,,,,1,0,1,0,8,1,33,2,,,,,,,,,,,,,,,,,,,,,,,,,,,,,s,1,None,0,,1.0,trianglegreen.gif,stop,,,,,,,,,,,,,,,0.400707960129,,,,,,,,,,,,,,,,,,,,,,,,0,0.513969898224,0.000886917114258,0.400707960129,1,s,681.46639514,,,,,,,,,,,,,,,,,,,,,,,,,,,,,,,,,2015_Jun_24_1444,59.9035671031,LearningTask,1,39,
200,s,-200,,,,,,,,,,,,,,,,,1,0,1,0,8,2,34,2,,,,,,,,,,,,,,,,,,,,,,,,,,,,,s,1,None,0,,1.0,hexagonmagenta.gif,go,,,,,,,,,,,,,,,0.41757106781,,,,,,,,,,,,,,,,,,,,,,,,0,0.513619184494,0.00110006332397,0.41757106781,1,s,684.469377041,,,,,,,,,,,,,,,,,,,,,,,,,,,,,,,,,2015_Jun_24_1444,59.9035671031,LearningTask,1,39,
200,w,200,,,,,,,,,,,,,,,,,1,0,1,0,8,3,35,0,,,,,,,,,,,,,,,,,,,,,,,,,,,,,w,1,None,0,,1.0,hexagonmagenta.gif,go,,,,,,,,,,,,,,,0.384161949158,,,,,,,,,,,,,,,,,,,,,,,,0,0.513921022415,0.000989198684692,0.384161949158,1,w,687.472661018,,,,,,,,,,,,,,,,,,,,,,,,,,,,,,,,,2015_Jun_24_1444,59.9035671031,LearningTask,1,39,
-200,q,200,,,,,,,,,,,,,,,,,1,0,1,0,9,0,36,1,,,,,,,,,,,,,,,,,,,,,,,,,,,,,q,1,None,0,,4.0,invertedtriangleorange.gif,go,,,,,,,,,,,,,,,0.400923967361,,,,,,,,,,,,,,,,,,,,,,,,3.95,0.514430999756,0.000895023345947,0.400923967361,1,q,690.475983143,,,,,,,,,,,,,,,,,,,,,,,,,,,,,,,,,2015_Jun_24_1444,59.9035671031,LearningTask,1,39,
200,s,-200,,,,,,,,,,,,,,,,,1,0,1,0,9,1,37,2,,,,,,,,,,,,,,,,,,,,,,,,,,,,,s,1,None,0,,2.0,squareblue.gif,go,,,,,,,,,,,,,,,0.384139060974,,,,,,,,,,,,,,,,,,,,,,,,2.11,0.514637947083,0.000869989395142,0.384139060974,1,s,693.479575157,,,,,,,,,,,,,,,,,,,,,,,,,,,,,,,,,2015_Jun_24_1444,59.9035671031,LearningTask,1,39,
-200,q,200,,,,,,,,,,,,,,,,,1,0,1,0,9,2,38,1,,,,,,,,,,,,,,,,,,,,,,,,,,,,,q,1,None,0,,1.0,hexagonmagenta.gif,go,,,,,,,,,,,,,,,0.334239006042,,,,,,,,,,,,,,,,,,,,,,,,1.11,0.514317989349,0.00089693069458,0.334239006042,1,q,696.482949972,,,,,,,,,,,,,,,,,,,,,,,,,,,,,,,,,2015_Jun_24_1444,59.9035671031,LearningTask,1,39,
-200,a,-200,,,,,,,,,,,,,,,,,1,0,1,0,9,3,39,3,,,,,,,,,,,,,,,,,,,,,,,,,,,,,a,1,None,0,,1.0,trianglegreen.gif,stop,,,,,,,,,,,,,,,0.41771197319,,,,,,,,,,,,,,,,,,,,,,,,0.8,0.513990879059,0.000937938690186,0.41771197319,1,a,699.485894203,,,,,,,,,,,,,,,,,,,,,,,,,,,,,,,,,2015_Jun_24_1444,59.9035671031,LearningTask,1,39,
200,w,200,,,,,,,,,,,,,,,,,1,0,1,0,10,0,40,0,,,,,,,,,,,,,,,,,,,,,,,,,,,,,w,1,None,0,,4.0,invertedtriangleorange.gif,go,,,,,,,,,,,,,,,0.384212970734,,,,,,,,,,,,,,,,,,,,,,,,4.17,0.514630079269,0.00110912322998,0.384212970734,1,w,702.489459038,,,,,,,,,,,,,,,,,,,,,,,,,,,,,,,,,2015_Jun_24_1444,59.9035671031,LearningTask,1,39,
200,s,-200,,,,,,,,,,,,,,,,,1,0,1,0,10,1,41,2,,,,,,,,,,,,,,,,,,,,,,,,,,,,,s,1,None,0,,1.0,trianglegreen.gif,stop,,,,,,,,,,,,,,,0.384303092957,,,,,,,,,,,,,,,,,,,,,,,,0,0.514132022858,0.000894069671631,0.384604930878,0,a,705.492846012,1.18,0.515579938889,0.000940799713135,0.384303092957,1,s,708.496245146,,,,,,,,,,,,,,,,,,,,,,,,,,2015_Jun_24_1444,59.9035671031,LearningTask,1,39,
-200,a,-200,,,,,,,,,,,,,,,,,1,0,1,0,10,2,42,3,,,,,,,,,,,,,,,,,,,,,,,,,,,,,a,1,None,0,,1.0,hexagonmagenta.gif,go,,,,,,,,,,,,,,,0.40084695816,,,,,,,,,,,,,,,,,,,,,,,,0.85,0.514050006866,0.000882863998413,0.40084695816,1,a,711.499966145,,,,,,,,,,,,,,,,,,,,,,,,,,,,,,,,,2015_Jun_24_1444,59.9035671031,LearningTask,1,39,
200,s,-200,,,,,,,,,,,,,,,,,1,0,1,0,10,3,43,2,,,,,,,,,,,,,,,,,,,,,,,,,,,,,s,1,None,0,,4.0,invertedtriangleorange.gif,go,,,,,,,,,,,,,,,0.384131908417,,,,,,,,,,,,,,,,,,,,,,,,0,0.513855934143,0.000900983810425,0.384131908417,1,s,714.502833128,,,,,,,,,,,,,,,,,,,,,,,,,,,,,,,,,2015_Jun_24_1444,59.9035671031,LearningTask,1,39,
-200,q,200,,,,,,,,,,,,,,,,,1,0,1,0,11,0,44,1,,,,,,,,,,,,,,,,,,,,,,,,,,,,,q,1,None,0,,2.0,squareblue.gif,go,,,,,,,,,,,,,,,0.333995103836,,,,,,,,,,,,,,,,,,,,,,,,2.2,0.514347076416,0.000867128372192,0.333995103836,1,q,717.506313086,,,,,,,,,,,,,,,,,,,,,,,,,,,,,,,,,2015_Jun_24_1444,59.9035671031,LearningTask,1,39,
-200,a,-200,,,,,,,,,,,,,,,,,1,0,1,0,11,1,45,3,,,,,,,,,,,,,,,,,,,,,,,,,,,,,a,1,None,0,,0.5,circlegray.gif,go,,,,,,,,,,,,,,,0.434215068817,,,,,,,,,,,,,,,,,,,,,,,,0.38,0.514373064041,0.000887155532837,0.434215068817,1,a,720.509680986,,,,,,,,,,,,,,,,,,,,,,,,,,,,,,,,,2015_Jun_24_1444,59.9035671031,LearningTask,1,39,
-200,a,-200,,,,,,,,,,,,,,,,,1,0,1,0,11,2,46,3,,,,,,,,,,,,,,,,,,,,,,,,,,,,,a,1,None,0,,0.5,lineyellow.gif,stop,,,,,,,,,,,,,,,0.450637102127,,,,,,,,,,,,,,,,,,,,,,,,0,0.514605045319,0.000929117202759,0.450637102127,1,a,723.512876987,,,,,,,,,,,,,,,,,,,,,,,,,,,,,,,,,2015_Jun_24_1444,59.9035671031,LearningTask,1,39,
200,s,-200,,,,,,,,,,,,,,,,,1,0,1,0,11,3,47,2,,,,,,,,,,,,,,,,,,,,,,,,,,,,,s,1,None,0,,4.0,invertedtriangleorange.gif,go,,,,,,,,,,,,,,,0.417781829834,,,,,,,,,,,,,,,,,,,,,,,,3.95,0.51419210434,0.0010941028595,0.417781829834,1,s,726.51662612,,,,,,,,,,,,,,,,,,,,,,,,,,,,,,,,,2015_Jun_24_1444,59.9035671031,LearningTask,1,39,
200,s,-200,,,,,,,,,,,,,,,,,1,0,1,0,12,0,48,2,,,,,,,,,,,,,,,,,,,,,,,,,,,,,s,1,None,0,,2.0,crosscyan.gif,stop,,,,,,,,,,,,,,,0.400916099548,,,,,,,,,,,,,,,,,,,,,,,,1.87,0.514074087143,0.000899076461792,0.400916099548,1,s,729.519966125,,,,,,,,,,,,,,,,,,,,,,,,,,,,,,,,,2015_Jun_24_1444,59.9035671031,LearningTask,1,39,
-200,a,-200,,,,,,,,,,,,,,,,,1,0,1,0,12,1,49,3,,,,,,,,,,,,,,,,,,,,,,,,,,,,,a,1,None,0,,1.0,trianglegreen.gif,stop,,,,,,,,,,,,,,,0.434466838837,,,,,,,,,,,,,,,,,,,,,,,,1.11,0.513899087906,0.000890970230103,0.434466838837,1,a,732.523452044,,,,,,,,,,,,,,,,,,,,,,,,,,,,,,,,,2015_Jun_24_1444,59.9035671031,LearningTask,1,39,
200,w,200,,,,,,,,,,,,,,,,,1,0,1,0,12,2,50,0,,,,,,,,,,,,,,,,,,,,,,,,,,,,,w,1,None,0,,2.0,squareblue.gif,go,,,,,,,,,,,,,,,0.401625871658,,,,,,,,,,,,,,,,,,,,,,,,1.82,0.513738870621,0.000906944274902,0.401625871658,1,w,735.526348114,,,,,,,,,,,,,,,,,,,,,,,,,,,,,,,,,2015_Jun_24_1444,59.9035671031,LearningTask,1,39,
-200,a,-200,,,,,,,,,,,,,,,,,1,0,1,0,12,3,51,3,,,,,,,,,,,,,,,,,,,,,,,,,,,,,a,1,None,0,,2.0,crosscyan.gif,stop,,,,,,,,,,,,,,,0.484117984772,,,,,,,,,,,,,,,,,,,,,,,,1.8,0.514373064041,0.000883102416992,0.484117984772,1,a,738.529510021,,,,,,,,,,,,,,,,,,,,,,,,,,,,,,,,,2015_Jun_24_1444,59.9035671031,LearningTask,1,39,
200,w,200,,,,,,,,,,,,,,,,,1,0,1,0,13,0,52,0,,,,,,,,,,,,,,,,,,,,,,,,,,,,,w,1,None,0,,2.0,squareblue.gif,go,,,,,,,,,,,,,,,0.383857965469,,,,,,,,,,,,,,,,,,,,,,,,1.98,0.51430106163,0.000885009765625,0.383857965469,1,w,741.533406973,,,,,,,,,,,,,,,,,,,,,,,,,,,,,,,,,2015_Jun_24_1444,59.9035671031,LearningTask,1,39,
200,s,-200,,,,,,,,,,,,,,,,,1,0,1,0,13,1,53,2,,,,,,,,,,,,,,,,,,,,,,,,,,,,,s,1,None,0,,0.5,circlegray.gif,go,,,,,,,,,,,,,,,0.384076118469,,,,,,,,,,,,,,,,,,,,,,,,0,0.513413906097,0.000899076461792,0.384076118469,1,s,744.536453009,,,,,,,,,,,,,,,,,,,,,,,,,,,,,,,,,2015_Jun_24_1444,59.9035671031,LearningTask,1,39,
-200,q,200,,,,,,,,,,,,,,,,,1,0,1,0,13,2,54,1,,,,,,,,,,,,,,,,,,,,,,,,,,,,,q,1,None,0,,1.0,hexagonmagenta.gif,go,,,,,,,,,,,,,,,0.350697040558,,,,,,,,,,,,,,,,,,,,,,,,0.84,0.514250040054,0.00088095664978,0.350697040558,1,q,747.539738178,,,,,,,,,,,,,,,,,,,,,,,,,,,,,,,,,2015_Jun_24_1444,59.9035671031,LearningTask,1,39,
200,s,-200,,,,,,,,,,,,,,,,,1,0,1,0,13,3,55,2,,,,,,,,,,,,,,,,,,,,,,,,,,,,,s,1,None,0,,1.0,trianglegreen.gif,stop,,,,,,,,,,,,,,,0.384117126465,,,,,,,,,,,,,,,,,,,,,,,,0,0.514266967773,0.000880002975464,0.384117126465,1,s,750.543296099,,,,,,,,,,,,,,,,,,,,,,,,,,,,,,,,,2015_Jun_24_1444,59.9035671031,LearningTask,1,39,
200,s,-200,,,,,,,,,,,,,,,,,1,0,1,0,14,0,56,2,,,,,,,,,,,,,,,,,,,,,,,,,,,,,s,1,None,0,,0.5,lineyellow.gif,stop,,,,,,,,,,,,,,,0.384140968323,,,,,,,,,,,,,,,,,,,,,,,,0,0.513879060745,0.000886917114258,0.384140968323,1,s,753.546554089,,,,,,,,,,,,,,,,,,,,,,,,,,,,,,,,,2015_Jun_24_1444,59.9035671031,LearningTask,1,39,
-200,q,200,,,,,,,,,,,,,,,,,1,0,1,0,14,1,57,1,,,,,,,,,,,,,,,,,,,,,,,,,,,,,q,1,None,0,,0.5,circlegray.gif,go,,,,,,,,,,,,,,,0.551170825958,,,,,,,,,,,,,,,,,,,,,,,,0.29,0.514314889908,0.00087308883667,0.551170825958,1,q,756.550266027,,,,,,,,,,,,,,,,,,,,,,,,,,,,,,,,,2015_Jun_24_1444,59.9035671031,LearningTask,1,39,
-200,q,200,,,,,,,,,,,,,,,,,1,0,1,0,14,2,58,1,,,,,,,,,,,,,,,,,,,,,,,,,,,,,q,1,None,0,,1.0,trianglegreen.gif,stop,,,,,,,,,,,,,,,0.418004989624,,,,,,,,,,,,,,,,,,,,,,,,1.01,0.513829946518,0.000873804092407,0.418004989624,1,q,759.553688049,,,,,,,,,,,,,,,,,,,,,,,,,,,,,,,,,2015_Jun_24_1444,59.9035671031,LearningTask,1,39,
200,w,200,,,,,,,,,,,,,,,,,1,0,1,0,14,3,59,0,,,,,,,,,,,,,,,,,,,,,,,,,,,,,w,1,None,0,,1.0,trianglegreen.gif,stop,,,,,,,,,,,,,,,0.350806951523,,,,,,,,,,,,,,,,,,,,,,,,1.18,0.513877868652,0.000885009765625,0.350806951523,1,w,762.556591034,,,,,,,,,,,,,,,,,,,,,,,,,,,,,,,,,2015_Jun_24_1444,59.9035671031,LearningTask,1,39,
200,w,200,,,,,,,,,,,,,,,,,1,0,1,0,15,0,60,0,,,,,,,,,,,,,,,,,,,,,,,,,,,,,w,1,None,0,,2.0,crosscyan.gif,stop,,,,,,,,,,,,,,,0.400873184204,,,,,,,,,,,,,,,,,,,,,,,,1.79,0.514380931854,0.000872850418091,0.400873184204,1,w,765.55993104,,,,,,,,,,,,,,,,,,,,,,,,,,,,,,,,,2015_Jun_24_1444,59.9035671031,LearningTask,1,39,
-200,a,-200,,,,,,,,,,,,,,,,,1,0,1,0,15,1,61,3,,,,,,,,,,,,,,,,,,,,,,,,,,,,,a,1,None,0,,4.0,diamondwhite.gif,stop,,,,,,,,,,,,,,,0.384078025818,,,,,,,,,,,,,,,,,,,,,,,,3.84,0.514450073242,0.000874996185303,0.384078025818,1,a,768.563413143,,,,,,,,,,,,,,,,,,,,,,,,,,,,,,,,,2015_Jun_24_1444,59.9035671031,LearningTask,1,39,
-200,q,200,,,,,,,,,,,,,,,,,1,0,1,0,15,2,62,1,,,,,,,,,,,,,,,,,,,,,,,,,,,,,q,1,None,0,,0.5,lineyellow.gif,stop,,,,,,,,,,,,,,,0.384163856506,,,,,,,,,,,,,,,,,,,,,,,,0.61,0.51437997818,0.000890016555786,0.384163856506,1,q,771.566732168,,,,,,,,,,,,,,,,,,,,,,,,,,,,,,,,,2015_Jun_24_1444,59.9035671031,LearningTask,1,39,
-200,a,-200,,,,,,,,,,,,,,,,,1,0,1,0,15,3,63,3,,,,,,,,,,,,,,,,,,,,,,,,,,,,,a,1,None,0,,2.0,squareblue.gif,go,,,,,,,,,,,,,,,0.433917999268,,,,,,,,,,,,,,,,,,,,,,,,0,0.514344930649,0.000970840454102,0.433917999268,1,a,774.570262194,,,,,,,,,,,,,,,,,,,,,,,,,,,,,,,,,2015_Jun_24_1444,59.9035671031,LearningTask,1,39,
200,s,-200,,,,,,,,,,,,,,,,,1,0,1,0,16,0,64,2,,,,,,,,,,,,,,,,,,,,,,,,,,,,,s,1,None,0,,0.5,circlegray.gif,go,,,,,,,,,,,,,,,0.41791677475,,,,,,,,,,,,,,,,,,,,,,,,0.59,0.513881206512,0.000977993011475,0.41791677475,1,s,777.573441982,,,,,,,,,,,,,,,,,,,,,,,,,,,,,,,,,2015_Jun_24_1444,59.9035671031,LearningTask,1,39,
200,w,200,,,,,,,,,,,,,,,,,1,0,1,0,16,1,65,0,,,,,,,,,,,,,,,,,,,,,,,,,,,,,w,1,None,0,,4.0,invertedtriangleorange.gif,go,,,,,,,,,,,,,,,0.317319869995,,,,,,,,,,,,,,,,,,,,,,,,0,0.514323949814,0.000921964645386,0.317319869995,1,w,780.576635122,,,,,,,,,,,,,,,,,,,,,,,,,,,,,,,,,2015_Jun_24_1444,59.9035671031,LearningTask,1,39,
-200,a,-200,,,,,,,,,,,,,,,,,1,0,1,0,16,2,66,3,,,,,,,,,,,,,,,,,,,,,,,,,,,,,a,1,None,0,,0.5,circlegray.gif,go,,,,,,,,,,,,,,,0.434611082077,,,,,,,,,,,,,,,,,,,,,,,,0.45,0.514059066772,0.000926971435547,0.434611082077,1,a,783.58021307,,,,,,,,,,,,,,,,,,,,,,,,,,,,,,,,,2015_Jun_24_1444,59.9035671031,LearningTask,1,39,
200,w,200,,,,,,,,,,,,,,,,,1,0,1,0,16,3,67,0,,,,,,,,,,,,,,,,,,,,,,,,,,,,,w,1,None,0,,0.5,circlegray.gif,go,,,,,,,,,,,,,,,0.500653028488,,,,,,,,,,,,,,,,,,,,,,,,0.48,0.514442920685,0.000885963439941,0.500653028488,1,w,786.583533049,,,,,,,,,,,,,,,,,,,,,,,,,,,,,,,,,2015_Jun_24_1444,59.9035671031,LearningTask,1,39,
-200,q,200,,,,,,,,,,,,,,,,,1,0,1,0,17,0,68,1,,,,,,,,,,,,,,,,,,,,,,,,,,,,,q,1,None,0,,4.0,diamondwhite.gif,stop,,,,,,,,,,,,,,,0.36767911911,,,,,,,,,,,,,,,,,,,,,,,,0,0.514268875122,0.000885963439941,0.36767911911,1,q,789.586987019,,,,,,,,,,,,,,,,,,,,,,,,,,,,,,,,,2015_Jun_24_1444,59.9035671031,LearningTask,1,39,
200,w,200,,,,,,,,,,,,,,,,,1,0,1,0,17,1,69,0,,,,,,,,,,,,,,,,,,,,,,,,,,,,,w,1,None,0,,2.0,crosscyan.gif,stop,,,,,,,,,,,,,,,0.317436218262,,,,,,,,,,,,,,,,,,,,,,,,0,0.513734817505,0.000885963439941,0.317436218262,1,w,792.590178967,,,,,,,,,,,,,,,,,,,,,,,,,,,,,,,,,2015_Jun_24_1444,59.9035671031,LearningTask,1,39,
200,s,-200,,,,,,,,,,,,,,,,,1,0,1,0,17,2,70,2,,,,,,,,,,,,,,,,,,,,,,,,,,,,,s,1,None,0,,0.5,lineyellow.gif,stop,,,,,,,,,,,,,,,0.617609024048,,,,,,,,,,,,,,,,,,,,,,,,0.44,0.514587879181,0.000879049301147,0.617609024048,1,s,795.593579054,,,,,,,,,,,,,,,,,,,,,,,,,,,,,,,,,2015_Jun_24_1444,59.9035671031,LearningTask,1,39,
200,w,200,,,,,,,,,,,,,,,,,1,0,1,0,17,3,71,0,,,,,,,,,,,,,,,,,,,,,,,,,,,,,w,1,None,0,,1.0,trianglegreen.gif,stop,,,,,,,,,,,,,,,0.384580850601,,,,,,,,,,,,,,,,,,,,,,,,1.11,0.514317035675,0.000885009765625,0.384580850601,1,w,798.596779108,,,,,,,,,,,,,,,,,,,,,,,,,,,,,,,,,2015_Jun_24_1444,59.9035671031,LearningTask,1,39,
-200,a,-200,,,,,,,,,,,,,,,,,1,0,1,0,18,0,72,3,,,,,,,,,,,,,,,,,,,,,,,,,,,,,a,1,None,0,,1.0,hexagonmagenta.gif,go,,,,,,,,,,,,,,,0.484061956406,,,,,,,,,,,,,,,,,,,,,,,,1.06,0.51417016983,0.000895977020264,0.484061956406,1,a,801.600190163,,,,,,,,,,,,,,,,,,,,,,,,,,,,,,,,,2015_Jun_24_1444,59.9035671031,LearningTask,1,39,
200,s,-200,,,,,,,,,,,,,,,,,1,0,1,0,18,1,73,2,,,,,,,,,,,,,,,,,,,,,,,,,,,,,s,1,None,0,,2.0,crosscyan.gif,stop,,,,,,,,,,,,,,,0.417608976364,,,,,,,,,,,,,,,,,,,,,,,,1.93,0.514101982117,0.000905990600586,0.417608976364,1,s,804.60367012,,,,,,,,,,,,,,,,,,,,,,,,,,,,,,,,,2015_Jun_24_1444,59.9035671031,LearningTask,1,39,
200,s,-200,,,,,,,,,,,,,,,,,1,0,1,0,18,2,74,2,,,,,,,,,,,,,,,,,,,,,,,,,,,,,s,1,None,0,,1.0,hexagonmagenta.gif,go,,,,,,,,,,,,,,,0.383936882019,,,,,,,,,,,,,,,,,,,,,,,,1.07,0.514347076416,0.000901937484741,0.383936882019,1,s,807.607172966,,,,,,,,,,,,,,,,,,,,,,,,,,,,,,,,,2015_Jun_24_1444,59.9035671031,LearningTask,1,39,
200,w,200,,,,,,,,,,,,,,,,,1,0,1,0,18,3,75,0,,,,,,,,,,,,,,,,,,,,,,,,,,,,,w,1,None,0,,1.0,hexagonmagenta.gif,go,,,,,,,,,,,,,,,0.367702007294,,,,,,,,,,,,,,,,,,,,,,,,1.19,0.514001131058,0.000883102416992,0.367702007294,1,w,810.610264063,,,,,,,,,,,,,,,,,,,,,,,,,,,,,,,,,2015_Jun_24_1444,59.9035671031,LearningTask,1,39,
-200,a,-200,,,,,,,,,,,,,,,,,1,0,1,0,19,0,76,3,,,,,,,,,,,,,,,,,,,,,,,,,,,,,a,1,None,0,0.278517007828,0.5,lineyellow.gif,stop,,,,,,,,,,,,,,,0.31730890274,,,,,,,,,,,,,,,,,,,,,,,,0,0.514518976212,0.000880002975464,0.384438991547,0,q,813.613479137,0.55,0.515685796738,0.000944852828979,0.31730890274,1,a,816.617082119,,,,,,,,,,,,,,,,,,,,,,,,,,2015_Jun_24_1444,59.9035671031,LearningTask,1,39,
-200,a,-200,,,,,,,,,,,,,,,,,1,0,1,0,19,1,77,3,,,,,,,,,,,,,,,,,,,,,,,,,,,,,a,1,None,0,,1.0,trianglegreen.gif,stop,,,,,,,,,,,,,,,0.317157030106,,,,,,,,,,,,,,,,,,,,,,,,0.9,0.514497995377,0.000874042510986,0.317157030106,1,a,819.620450974,,,,,,,,,,,,,,,,,,,,,,,,,,,,,,,,,2015_Jun_24_1444,59.9035671031,LearningTask,1,39,
-200,a,-200,,,,,,,,,,,,,,,,,1,0,1,0,19,2,78,3,,,,,,,,,,,,,,,,,,,,,,,,,,,,,a,1,None,0,,4.0,diamondwhite.gif,stop,,,,,,,,,,,,,,,0.350878953934,,,,,,,,,,,,,,,,,,,,,,,,3.81,0.514263868332,0.00104904174805,0.350878953934,1,a,822.623989105,,,,,,,,,,,,,,,,,,,,,,,,,,,,,,,,,2015_Jun_24_1444,59.9035671031,LearningTask,1,39,
-200,a,-200,,,,,,,,,,,,,,,,,1,0,1,0,19,3,79,3,,,,,,,,,,,,,,,,,,,,,,,,,,,,,a,1,None,0,,4.0,diamondwhite.gif,stop,,,,,,,,,,,,,,,0.317431926727,,,,,,,,,,,,,,,,,,,,,,,,3.93,0.513871908188,0.00088095664978,0.317431926727,1,a,825.627068996,,,,,,,,,,,,,,,,,,,,,,,,,,,,,,,,,2015_Jun_24_1444,59.9035671031,LearningTask,1,39,
-200,a,-200,,,,,,,,,,,,,,,,,1,0,1,0,20,0,80,3,,,,,,,,,,,,,,,,,,,,,,,,,,,,,a,1,a,1,0.640871047974,2.0,squareblue.gif,go,,,,,,,,,,,,,,,0.18396115303,,,,,,,,,,,,,,,,,,,,,,,,0,0.514364004135,0.00112700462341,0.18396115303,1,a,828.630460024,,,,,,,,,,,,,,,,,,,,,,,,,,,,,,,,,2015_Jun_24_1444,59.9035671031,LearningTask,1,39,
200,w,200,,,,,,,,,,,,,,,,,1,0,1,0,20,1,81,0,,,,,,,,,,,,,,,,,,,,,,,,,,,,,w,1,None,0,,4.0,diamondwhite.gif,stop,,,,,,,,,,,,,,,0.501389026642,,,,,,,,,,,,,,,,,,,,,,,,3.95,0.514163017273,0.000932931900024,0.501389026642,1,w,831.633785009,,,,,,,,,,,,,,,,,,,,,,,,,,,,,,,,,2015_Jun_24_1444,59.9035671031,LearningTask,1,39,
-200,a,-200,,,,,,,,,,,,,,,,,1,0,1,0,20,2,82,3,,,,,,,,,,,,,,,,,,,,,,,,,,,,,a,1,None,0,,1.0,hexagonmagenta.gif,go,,,,,,,,,,,,,,,0.467685937881,,,,,,,,,,,,,,,,,,,,,,,,1.0,0.514398097992,0.000882148742676,0.467685937881,1,a,834.637264967,,,,,,,,,,,,,,,,,,,,,,,,,,,,,,,,,2015_Jun_24_1444,59.9035671031,LearningTask,1,39,
200,w,200,,,,,,,,,,,,,,,,,1,0,1,0,20,3,83,0,,,,,,,,,,,,,,,,,,,,,,,,,,,,,w,1,None,0,,0.5,lineyellow.gif,stop,,,,,,,,,,,,,,,0.434376955032,,,,,,,,,,,,,,,,,,,,,,,,0,0.514188051224,0.000875949859619,0.434376955032,1,w,837.640900135,,,,,,,,,,,,,,,,,,,,,,,,,,,,,,,,,2015_Jun_24_1444,59.9035671031,LearningTask,1,39,
200,s,-200,,,,,,,,,,,,,,,,,1,0,1,0,21,0,84,2,,,,,,,,,,,,,,,,,,,,,,,,,,,,,s,1,None,0,,0.5,lineyellow.gif,stop,,,,,,,,,,,,,,,0.601238012314,,,,,,,,,,,,,,,,,,,,,,,,0.43,0.51388001442,0.000879049301147,0.601238012314,1,s,840.643813133,,,,,,,,,,,,,,,,,,,,,,,,,,,,,,,,,2015_Jun_24_1444,59.9035671031,LearningTask,1,39,
200,w,200,,,,,,,,,,,,,,,,,1,0,1,0,21,1,85,0,,,,,,,,,,,,,,,,,,,,,,,,,,,,,w,1,None,0,,1.0,hexagonmagenta.gif,go,,,,,,,,,,,,,,,0.417505979538,,,,,,,,,,,,,,,,,,,,,,,,0,0.514518976212,0.000879049301147,0.417505979538,1,w,843.647559166,,,,,,,,,,,,,,,,,,,,,,,,,,,,,,,,,2015_Jun_24_1444,59.9035671031,LearningTask,1,39,
200,s,-200,,,,,,,,,,,,,,,,,1,0,1,0,21,2,86,2,,,,,,,,,,,,,,,,,,,,,,,,,,,,,s,1,None,0,,4.0,invertedtriangleorange.gif,go,,,,,,,,,,,,,,,0.400826931,,,,,,,,,,,,,,,,,,,,,,,,4.14,0.513736009598,0.000874996185303,0.400826931,1,s,846.650804043,,,,,,,,,,,,,,,,,,,,,,,,,,,,,,,,,2015_Jun_24_1444,59.9035671031,LearningTask,1,39,
-200,q,200,,,,,,,,,,,,,,,,,1,0,1,0,21,3,87,1,,,,,,,,,,,,,,,,,,,,,,,,,,,,,q,1,None,0,,0.5,circlegray.gif,go,,,,,,,,,,,,,,,0.367731809616,,,,,,,,,,,,,,,,,,,,,,,,0.61,0.513904094696,0.000925064086914,0.367731809616,1,q,849.654306173,,,,,,,,,,,,,,,,,,,,,,,,,,,,,,,,,2015_Jun_24_1444,59.9035671031,LearningTask,1,39,
200,s,-200,,,,,,,,,,,,,,,,,1,0,1,0,22,0,88,2,,,,,,,,,,,,,,,,,,,,,,,,,,,,,s,1,None,0,,4.0,diamondwhite.gif,stop,,,,,,,,,,,,,,,0.367414951324,,,,,,,,,,,,,,,,,,,,,,,,3.88,0.514068126678,0.000874042510986,0.367414951324,1,s,852.657521009,,,,,,,,,,,,,,,,,,,,,,,,,,,,,,,,,2015_Jun_24_1444,59.9035671031,LearningTask,1,39,
200,w,200,,,,,,,,,,,,,,,,,1,0,1,0,22,1,89,0,,,,,,,,,,,,,,,,,,,,,,,,,,,,,w,1,None,0,,2.0,squareblue.gif,go,,,,,,,,,,,,,,,0.334444046021,,,,,,,,,,,,,,,,,,,,,,,,2.18,0.513893842697,0.000871896743774,0.334444046021,1,w,855.660891056,,,,,,,,,,,,,,,,,,,,,,,,,,,,,,,,,2015_Jun_24_1444,59.9035671031,LearningTask,1,39,
200,s,-200,,,,,,,,,,,,,,,,,1,0,1,0,22,2,90,2,,,,,,,,,,,,,,,,,,,,,,,,,,,,,s,1,None,0,,0.5,lineyellow.gif,stop,,,,,,,,,,,,,,,0.367409944534,,,,,,,,,,,,,,,,,,,,,,,,0.49,0.513982057571,0.000982046127319,0.367409944534,1,s,858.664083004,,,,,,,,,,,,,,,,,,,,,,,,,,,,,,,,,2015_Jun_24_1444,59.9035671031,LearningTask,1,39,
200,w,200,,,,,,,,,,,,,,,,,1,0,1,0,22,3,91,0,,,,,,,,,,,,,,,,,,,,,,,,,,,,,w,1,None,0,,0.5,circlegray.gif,go,,,,,,,,,,,,,,,0.43415594101,,,,,,,,,,,,,,,,,,,,,,,,0.42,0.514355182648,0.000903129577637,0.43415594101,1,w,861.66726017,,,,,,,,,,,,,,,,,,,,,,,,,,,,,,,,,2015_Jun_24_1444,59.9035671031,LearningTask,1,39,
-200,q,200,,,,,,,,,,,,,,,,,1,0,1,0,23,0,92,1,,,,,,,,,,,,,,,,,,,,,,,,,,,,,q,1,None,0,,1.0,hexagonmagenta.gif,go,,,,,,,,,,,,,,,0.334566116333,,,,,,,,,,,,,,,,,,,,,,,,1.19,0.514496088028,0.000882148742676,0.334566116333,1,q,864.670885086,,,,,,,,,,,,,,,,,,,,,,,,,,,,,,,,,2015_Jun_24_1444,59.9035671031,LearningTask,1,39,
200,w,200,,,,,,,,,,,,,,,,,1,0,1,0,23,1,93,0,,,,,,,,,,,,,,,,,,,,,,,,,,,,,w,1,None,0,,4.0,diamondwhite.gif,stop,,,,,,,,,,,,,,,0.284063816071,,,,,,,,,,,,,,,,,,,,,,,,3.9,0.514209985733,0.000887155532837,0.284063816071,1,w,867.67417717,,,,,,,,,,,,,,,,,,,,,,,,,,,,,,,,,2015_Jun_24_1444,59.9035671031,LearningTask,1,39,
-200,q,200,,,,,,,,,,,,,,,,,1,0,1,0,23,2,94,1,,,,,,,,,,,,,,,,,,,,,,,,,,,,,q,1,None,0,,1.0,trianglegreen.gif,stop,,,,,,,,,,,,,,,0.500804185867,,,,,,,,,,,,,,,,,,,,,,,,1.16,0.514776945114,0.00103402137756,0.500804185867,1,q,870.677764177,,,,,,,,,,,,,,,,,,,,,,,,,,,,,,,,,2015_Jun_24_1444,59.9035671031,LearningTask,1,39,
200,w,200,,,,,,,,,,,,,,,,,1,0,1,0,23,3,95,0,,,,,,,,,,,,,,,,,,,,,,,,,,,,,w,1,None,0,,2.0,crosscyan.gif,stop,,,,,,,,,,,,,,,0.367652893066,,,,,,,,,,,,,,,,,,,,,,,,0,0.514290094376,0.000877141952515,0.367652893066,1,w,873.680528164,,,,,,,,,,,,,,,,,,,,,,,,,,,,,,,,,2015_Jun_24_1444,59.9035671031,LearningTask,1,39,
-200,a,-200,,,,,,,,,,,,,,,,,1,0,1,0,24,0,96,3,,,,,,,,,,,,,,,,,,,,,,,,,,,,,a,1,None,0,,0.5,circlegray.gif,go,,,,,,,,,,,,,,,0.417609930038,,,,,,,,,,,,,,,,,,,,,,,,0,0.514755010605,0.000931024551392,0.417609930038,1,a,876.683854103,,,,,,,,,,,,,,,,,,,,,,,,,,,,,,,,,2015_Jun_24_1444,59.9035671031,LearningTask,1,39,
-200,q,200,,,,,,,,,,,,,,,,,1,0,1,0,24,1,97,1,,,,,,,,,,,,,,,,,,,,,,,,,,,,,q,1,None,0,,0.5,lineyellow.gif,stop,,,,,,,,,,,,,,,0.417499780655,,,,,,,,,,,,,,,,,,,,,,,,0.39,0.514508962631,0.000930070877075,0.417499780655,1,q,879.687458992,,,,,,,,,,,,,,,,,,,,,,,,,,,,,,,,,2015_Jun_24_1444,59.9035671031,LearningTask,1,39,
-200,q,200,,,,,,,,,,,,,,,,,1,0,1,0,24,2,98,1,,,,,,,,,,,,,,,,,,,,,,,,,,,,,q,1,None,0,,2.0,squareblue.gif,go,,,,,,,,,,,,,,,0.433841943741,,,,,,,,,,,,,,,,,,,,,,,,1.92,0.514673948288,0.000883102416992,0.433841943741,1,q,882.690873146,,,,,,,,,,,,,,,,,,,,,,,,,,,,,,,,,2015_Jun_24_1444,59.9035671031,LearningTask,1,39,
-200,a,-200,,,,,,,,,,,,,,,,,1,0,1,0,24,3,99,3,,,,,,,,,,,,,,,,,,,,,,,,,,,,,a,1,None,0,,1.0,hexagonmagenta.gif,go,,,,,,,,,,,,,,,0.434386968613,,,,,,,,,,,,,,,,,,,,,,,,0.95,0.514290094376,0.000883102416992,0.434386968613,1,a,885.694455147,,,,,,,,,,,,,,,,,,,,,,,,,,,,,,,,,2015_Jun_24_1444,59.9035671031,LearningTask,1,39,
,,,,,,,,,,,,,,,,,,,1,0,1,0,,,,,,,,,,,,,,,,,,,,,,,,,,,,,,,,,,,,,,,,,,,,,,,,,,,,,,,,,,,,,,,,,,,,,,,,,,,,,,,,,,,,,,,,,,,,,9,2.37818408012,,,,,,,,,,,,,,,,,,,,,,,,2015_Jun_24_1444,59.9035671031,LearningTask,1,39,
-200,q,200,,,,,,,,,,,,,,,,,2,0,2,0,0,0,0,1,,,,,,,,,,,,,,,,,,,,,,,,,,,,,q,1,None,0,,1.0,hexagonmagenta.gif,go,,,,,,,,,,,,,,,0.467841863632,,,,,,,,,,,,,,,,,,,,,,,,0.75,0.508806943893,0.000873804092407,0.467841863632,1,q,891.785233021,,,,,,,,,,,,,,,,,,,,,,,,,,,,,,,,,2015_Jun_24_1444,59.9035671031,LearningTask,1,39,
200,s,-200,,,,,,,,,,,,,,,,,2,0,2,0,0,1,1,2,,,,,,,,,,,,,,,,,,,,,,,,,,,,,s,1,None,0,,1.0,hexagonmagenta.gif,go,,,,,,,,,,,,,,,0.384113073349,,,,,,,,,,,,,,,,,,,,,,,,1.03,0.51388001442,0.000914096832275,0.384113073349,1,s,894.787822008,,,,,,,,,,,,,,,,,,,,,,,,,,,,,,,,,2015_Jun_24_1444,59.9035671031,LearningTask,1,39,
-200,a,-200,,,,,,,,,,,,,,,,,2,0,2,0,0,2,2,3,,,,,,,,,,,,,,,,,,,,,,,,,,,,,a,1,None,0,,4.0,diamondwhite.gif,stop,,,,,,,,,,,,,,,0.351315975189,,,,,,,,,,,,,,,,,,,,,,,,0,0.514241933823,0.000872850418091,0.351315975189,1,a,897.791290045,,,,,,,,,,,,,,,,,,,,,,,,,,,,,,,,,2015_Jun_24_1444,59.9035671031,LearningTask,1,39,
-200,a,-200,,,,,,,,,,,,,,,,,2,0,2,0,0,3,3,3,,,,,,,,,,,,,,,,,,,,,,,,,,,,,a,1,None,0,,1.0,hexagonmagenta.gif,go,,,,,,,,,,,,,,,0.500903844833,,,,,,,,,,,,,,,,,,,,,,,,0.83,0.513955116272,0.00100302696228,0.500903844833,1,a,900.794485092,,,,,,,,,,,,,,,,,,,,,,,,,,,,,,,,,2015_Jun_24_1444,59.9035671031,LearningTask,1,39,
200,w,200,,,,,,,,,,,,,,,,,2,0,2,0,1,0,4,0,,,,,,,,,,,,,,,,,,,,,,,,,,,,,w,1,None,0,,2.0,crosscyan.gif,stop,,,,,,,,,,,,,,,0.317442893982,,,,,,,,,,,,,,,,,,,,,,,,1.84,0.514404058456,0.000879049301147,0.317442893982,1,w,903.797824144,,,,,,,,,,,,,,,,,,,,,,,,,,,,,,,,,2015_Jun_24_1444,59.9035671031,LearningTask,1,39,
-200,q,200,,,,,,,,,,,,,,,,,2,0,2,0,1,1,5,1,,,,,,,,,,,,,,,,,,,,,,,,,,,,,q,1,None,0,,0.5,circlegray.gif,go,,,,,,,,,,,,,,,0.367342948914,,,,,,,,,,,,,,,,,,,,,,,,0.72,0.514258861542,0.000874996185303,0.367342948914,1,q,906.80134511,,,,,,,,,,,,,,,,,,,,,,,,,,,,,,,,,2015_Jun_24_1444,59.9035671031,LearningTask,1,39,
-200,a,-200,,,,,,,,,,,,,,,,,2,0,2,0,1,2,6,3,,,,,,,,,,,,,,,,,,,,,,,,,,,,,a,1,None,0,,4.0,diamondwhite.gif,stop,,,,,,,,,,,,,,,0.484492063522,,,,,,,,,,,,,,,,,,,,,,,,4.02,0.513585090637,0.000890016555786,0.484492063522,1,a,909.804646015,,,,,,,,,,,,,,,,,,,,,,,,,,,,,,,,,2015_Jun_24_1444,59.9035671031,LearningTask,1,39,
-200,a,-200,,,,,,,,,,,,,,,,,2,0,2,0,1,3,7,3,,,,,,,,,,,,,,,,,,,,,,,,,,,,,a,1,None,0,,1.0,trianglegreen.gif,stop,,,,,,,,,,,,,,,0.41769194603,,,,,,,,,,,,,,,,,,,,,,,,0.97,0.51430606842,0.000872135162354,0.41769194603,1,a,912.808192968,,,,,,,,,,,,,,,,,,,,,,,,,,,,,,,,,2015_Jun_24_1444,59.9035671031,LearningTask,1,39,
200,s,-200,,,,,,,,,,,,,,,,,2,0,2,0,2,0,8,2,,,,,,,,,,,,,,,,,,,,,,,,,,,,,s,1,None,0,,1.0,trianglegreen.gif,stop,,,,,,,,,,,,,,,0.384407997131,,,,,,,,,,,,,,,,,,,,,,,,1.04,0.513917922974,0.000875949859619,0.384407997131,1,s,915.811376095,,,,,,,,,,,,,,,,,,,,,,,,,,,,,,,,,2015_Jun_24_1444,59.9035671031,LearningTask,1,39,
-200,q,200,,,,,,,,,,,,,,,,,2,0,2,0,2,1,9,1,,,,,,,,,,,,,,,,,,,,,,,,,,,,,q,1,None,0,,2.0,crosscyan.gif,stop,,,,,,,,,,,,,,,0.283699035645,,,,,,,,,,,,,,,,,,,,,,,,1.78,0.514137983322,0.000891923904419,0.283699035645,1,q,918.814738035,,,,,,,,,,,,,,,,,,,,,,,,,,,,,,,,,2015_Jun_24_1444,59.9035671031,LearningTask,1,39,
200,s,-200,,,,,,,,,,,,,,,,,2,0,2,0,2,2,10,2,,,,,,,,,,,,,,,,,,,,,,,,,,,,,s,1,None,0,,0.5,lineyellow.gif,stop,,,,,,,,,,,,,,,0.383947849274,,,,,,,,,,,,,,,,,,,,,,,,0.38,0.514295101166,0.00107908248901,0.383947849274,1,s,921.818004131,,,,,,,,,,,,,,,,,,,,,,,,,,,,,,,,,2015_Jun_24_1444,59.9035671031,LearningTask,1,39,
200,w,200,,,,,,,,,,,,,,,,,2,0,2,0,2,3,11,0,,,,,,,,,,,,,,,,,,,,,,,,,,,,,w,1,None,0,,0.5,circlegray.gif,go,,,,,,,,,,,,,,,0.366641998291,,,,,,,,,,,,,,,,,,,,,,,,0.3,0.514723062515,0.000877141952515,0.366641998291,1,w,924.821777105,,,,,,,,,,,,,,,,,,,,,,,,,,,,,,,,,2015_Jun_24_1444,59.9035671031,LearningTask,1,39,
200,s,-200,,,,,,,,,,,,,,,,,2,0,2,0,3,0,12,2,,,,,,,,,,,,,,,,,,,,,,,,,,,,,s,1,None,0,,4.0,diamondwhite.gif,stop,,,,,,,,,,,,,,,0.401098012924,,,,,,,,,,,,,,,,,,,,,,,,4.09,0.513672828674,0.000890970230103,0.401098012924,1,s,927.824767113,,,,,,,,,,,,,,,,,,,,,,,,,,,,,,,,,2015_Jun_24_1444,59.9035671031,LearningTask,1,39,
200,s,-200,,,,,,,,,,,,,,,,,2,0,2,0,3,1,13,2,,,,,,,,,,,,,,,,,,,,,,,,,,,,,s,1,None,0,,0.5,lineyellow.gif,stop,,,,,,,,,,,,,,,0.434235811234,,,,,,,,,,,,,,,,,,,,,,,,0.43,0.514284133911,0.000878095626831,0.434235811234,1,s,930.828095198,,,,,,,,,,,,,,,,,,,,,,,,,,,,,,,,,2015_Jun_24_1444,59.9035671031,LearningTask,1,39,
-200,q,200,,,,,,,,,,,,,,,,,2,0,2,0,3,2,14,1,,,,,,,,,,,,,,,,,,,,,,,,,,,,,q,1,None,0,,2.0,crosscyan.gif,stop,,,,,,,,,,,,,,,0.434083223343,,,,,,,,,,,,,,,,,,,,,,,,2.17,0.514333963394,0.000875949859619,0.434083223343,1,q,933.831449986,,,,,,,,,,,,,,,,,,,,,,,,,,,,,,,,,2015_Jun_24_1444,59.9035671031,LearningTask,1,39,
200,s,-200,,,,,,,,,,,,,,,,,2,0,2,0,3,3,15,2,,,,,,,,,,,,,,,,,,,,,,,,,,,,,s,1,None,0,,1.0,hexagonmagenta.gif,go,,,,,,,,,,,,,,,0.400707006454,,,,,,,,,,,,,,,,,,,,,,,,1.09,0.514305114746,0.000890970230103,0.400707006454,1,s,936.834938049,,,,,,,,,,,,,,,,,,,,,,,,,,,,,,,,,2015_Jun_24_1444,59.9035671031,LearningTask,1,39,
200,w,200,,,,,,,,,,,,,,,,,2,0,2,0,4,0,16,0,,,,,,,,,,,,,,,,,,,,,,,,,,,,,w,1,None,0,,1.0,trianglegreen.gif,stop,,,,,,,,,,,,,,,0.367769002914,,,,,,,,,,,,,,,,,,,,,,,,0.78,0.513406991959,0.000939130783081,0.367769002914,1,w,939.838245153,,,,,,,,,,,,,,,,,,,,,,,,,,,,,,,,,2015_Jun_24_1444,59.9035671031,LearningTask,1,39,
200,s,-200,,,,,,,,,,,,,,,,,2,0,2,0,4,1,17,2,,,,,,,,,,,,,,,,,,,,,,,,,,,,,s,1,None,0,,4.0,invertedtriangleorange.gif,go,,,,,,,,,,,,,,,0.40074801445,,,,,,,,,,,,,,,,,,,,,,,,3.82,0.514158010483,0.000964879989624,0.40074801445,1,s,942.841613054,,,,,,,,,,,,,,,,,,,,,,,,,,,,,,,,,2015_Jun_24_1444,59.9035671031,LearningTask,1,39,
200,s,-200,,,,,,,,,,,,,,,,,2,0,2,0,4,2,18,2,,,,,,,,,,,,,,,,,,,,,,,,,,,,,s,1,None,0,,2.0,crosscyan.gif,stop,,,,,,,,,,,,,,,0.43462395668,,,,,,,,,,,,,,,,,,,,,,,,1.77,0.514227867126,0.000878095626831,0.43462395668,1,s,945.844707012,,,,,,,,,,,,,,,,,,,,,,,,,,,,,,,,,2015_Jun_24_1444,59.9035671031,LearningTask,1,39,
-200,a,-200,,,,,,,,,,,,,,,,,2,0,2,0,4,3,19,3,,,,,,,,,,,,,,,,,,,,,,,,,,,,,a,1,None,0,,0.5,circlegray.gif,go,,,,,,,,,,,,,,,0.484707117081,,,,,,,,,,,,,,,,,,,,,,,,0.25,0.514424085617,0.000984191894531,0.484707117081,1,a,948.848110199,,,,,,,,,,,,,,,,,,,,,,,,,,,,,,,,,2015_Jun_24_1444,59.9035671031,LearningTask,1,39,
200,s,-200,,,,,,,,,,,,,,,,,2,0,2,0,5,0,20,2,,,,,,,,,,,,,,,,,,,,,,,,,,,,,s,1,None,0,,1.0,hexagonmagenta.gif,go,,,,,,,,,,,,,,,0.450728178024,,,,,,,,,,,,,,,,,,,,,,,,0.85,0.514477968216,0.000879049301147,0.450728178024,1,s,951.851514101,,,,,,,,,,,,,,,,,,,,,,,,,,,,,,,,,2015_Jun_24_1444,59.9035671031,LearningTask,1,39,
-200,q,200,,,,,,,,,,,,,,,,,2,0,2,0,5,1,21,1,,,,,,,,,,,,,,,,,,,,,,,,,,,,,q,1,None,0,,2.0,crosscyan.gif,stop,,,,,,,,,,,,,,,0.384157896042,,,,,,,,,,,,,,,,,,,,,,,,1.99,0.514236927032,0.000880002975464,0.384157896042,1,q,954.85497117,,,,,,,,,,,,,,,,,,,,,,,,,,,,,,,,,2015_Jun_24_1444,59.9035671031,LearningTask,1,39,
-200,q,200,,,,,,,,,,,,,,,,,2,0,2,0,5,2,22,1,,,,,,,,,,,,,,,,,,,,,,,,,,,,,q,1,None,0,,0.5,circlegray.gif,go,,,,,,,,,,,,,,,0.401261091232,,,,,,,,,,,,,,,,,,,,,,,,0.25,0.513701915741,0.00088906288147,0.401261091232,1,q,957.858108044,,,,,,,,,,,,,,,,,,,,,,,,,,,,,,,,,2015_Jun_24_1444,59.9035671031,LearningTask,1,39,
200,w,200,,,,,,,,,,,,,,,,,2,0,2,0,5,3,23,0,,,,,,,,,,,,,,,,,,,,,,,,,,,,,w,1,None,0,,0.5,lineyellow.gif,stop,,,,,,,,,,,,,,,0.418064117432,,,,,,,,,,,,,,,,,,,,,,,,0.65,0.514511108398,0.000874996185303,0.418064117432,1,w,960.86175108,,,,,,,,,,,,,,,,,,,,,,,,,,,,,,,,,2015_Jun_24_1444,59.9035671031,LearningTask,1,39,
-200,q,200,,,,,,,,,,,,,,,,,2,0,2,0,6,0,24,1,,,,,,,,,,,,,,,,,,,,,,,,,,,,,q,1,None,0,,2.0,crosscyan.gif,stop,,,,,,,,,,,,,,,0.401041030884,,,,,,,,,,,,,,,,,,,,,,,,1.79,0.513675928116,0.000915050506592,0.401041030884,1,q,963.865346193,,,,,,,,,,,,,,,,,,,,,,,,,,,,,,,,,2015_Jun_24_1444,59.9035671031,LearningTask,1,39,
200,s,-200,,,,,,,,,,,,,,,,,2,0,2,0,6,1,25,2,,,,,,,,,,,,,,,,,,,,,,,,,,,,,s,1,None,0,,0.5,lineyellow.gif,stop,,,,,,,,,,,,,,,0.400377035141,,,,,,,,,,,,,,,,,,,,,,,,0,0.513988018036,0.000894069671631,0.400377035141,1,s,966.868263006,,,,,,,,,,,,,,,,,,,,,,,,,,,,,,,,,2015_Jun_24_1444,59.9035671031,LearningTask,1,39,
-200,q,200,,,,,,,,,,,,,,,,,2,0,2,0,6,2,26,1,,,,,,,,,,,,,,,,,,,,,,,,,,,,,q,1,None,0,,2.0,crosscyan.gif,stop,,,,,,,,,,,,,,,0.384238004684,,,,,,,,,,,,,,,,,,,,,,,,2.08,0.514412164688,0.000876188278198,0.384238004684,1,q,969.871592045,,,,,,,,,,,,,,,,,,,,,,,,,,,,,,,,,2015_Jun_24_1444,59.9035671031,LearningTask,1,39,
200,s,-200,,,,,,,,,,,,,,,,,2,0,2,0,6,3,27,2,,,,,,,,,,,,,,,,,,,,,,,,,,,,,s,1,None,0,,1.0,trianglegreen.gif,stop,,,,,,,,,,,,,,,0.35124707222,,,,,,,,,,,,,,,,,,,,,,,,0.9,0.514272928238,0.000875949859619,0.35124707222,1,s,972.875436068,,,,,,,,,,,,,,,,,,,,,,,,,,,,,,,,,2015_Jun_24_1444,59.9035671031,LearningTask,1,39,
-200,a,-200,,,,,,,,,,,,,,,,,2,0,2,0,7,0,28,3,,,,,,,,,,,,,,,,,,,,,,,,,,,,,a,1,None,0,,2.0,squareblue.gif,go,,,,,,,,,,,,,,,0.367562770844,,,,,,,,,,,,,,,,,,,,,,,,0,0.513767957687,0.000890970230103,0.367562770844,1,a,975.878406048,,,,,,,,,,,,,,,,,,,,,,,,,,,,,,,,,2015_Jun_24_1444,59.9035671031,LearningTask,1,39,
-200,q,200,,,,,,,,,,,,,,,,,2,0,2,0,7,1,29,1,,,,,,,,,,,,,,,,,,,,,,,,,,,,,q,1,None,0,,4.0,invertedtriangleorange.gif,go,,,,,,,,,,,,,,,0.467742919922,,,,,,,,,,,,,,,,,,,,,,,,4.18,0.514281988144,0.000882863998413,0.467742919922,1,q,978.881695032,,,,,,,,,,,,,,,,,,,,,,,,,,,,,,,,,2015_Jun_24_1444,59.9035671031,LearningTask,1,39,
-200,a,-200,,,,,,,,,,,,,,,,,2,0,2,0,7,2,30,3,,,,,,,,,,,,,,,,,,,,,,,,,,,,,a,1,None,0,,2.0,crosscyan.gif,stop,,,,,,,,,,,,,,,0.451009988785,,,,,,,,,,,,,,,,,,,,,,,,0,0.514430999756,0.000887155532837,0.400842189789,0,q,981.885192156,2.02,0.515161991119,0.000948905944824,0.451009988785,1,a,984.888916016,,,,,,,,,,,,,,,,,,,,,,,,,,2015_Jun_24_1444,59.9035671031,LearningTask,1,39,
-200,a,-200,,,,,,,,,,,,,,,,,2,0,2,0,7,3,31,3,,,,,,,,,,,,,,,,,,,,,,,,,,,,,a,1,None,0,,2.0,squareblue.gif,go,,,,,,,,,,,,,,,0.317966938019,,,,,,,,,,,,,,,,,,,,,,,,2.17,0.513565063477,0.000922918319702,0.317966938019,1,a,987.891986132,,,,,,,,,,,,,,,,,,,,,,,,,,,,,,,,,2015_Jun_24_1444,59.9035671031,LearningTask,1,39,
200,s,-200,,,,,,,,,,,,,,,,,2,0,2,0,8,0,32,2,,,,,,,,,,,,,,,,,,,,,,,,,,,,,s,1,None,0,,4.0,diamondwhite.gif,stop,,,,,,,,,,,,,,,0.41726899147,,,,,,,,,,,,,,,,,,,,,,,,0,0.514376163483,0.000879049301147,0.41726899147,1,s,990.895234108,,,,,,,,,,,,,,,,,,,,,,,,,,,,,,,,,2015_Jun_24_1444,59.9035671031,LearningTask,1,39,
-200,q,200,,,,,,,,,,,,,,,,,2,0,2,0,8,1,33,1,,,,,,,,,,,,,,,,,,,,,,,,,,,,,q,1,None,0,,2.0,squareblue.gif,go,,,,,,,,,,,,,,,0.334053993225,,,,,,,,,,,,,,,,,,,,,,,,0,0.51447892189,0.000869035720825,0.334053993225,1,q,993.898576021,,,,,,,,,,,,,,,,,,,,,,,,,,,,,,,,,2015_Jun_24_1444,59.9035671031,LearningTask,1,39,
-200,a,-200,,,,,,,,,,,,,,,,,2,0,2,0,8,2,34,3,,,,,,,,,,,,,,,,,,,,,,,,,,,,,a,1,None,0,,4.0,invertedtriangleorange.gif,go,,,,,,,,,,,,,,,0.351013898849,,,,,,,,,,,,,,,,,,,,,,,,3.98,0.514044046402,0.000932931900024,0.351013898849,1,a,996.901849031,,,,,,,,,,,,,,,,,,,,,,,,,,,,,,,,,2015_Jun_24_1444,59.9035671031,LearningTask,1,39,
200,w,200,,,,,,,,,,,,,,,,,2,0,2,0,8,3,35,0,,,,,,,,,,,,,,,,,,,,,,,,,,,,,w,1,None,0,,1.0,hexagonmagenta.gif,go,,,,,,,,,,,,,,,0.400858879089,,,,,,,,,,,,,,,,,,,,,,,,1.21,0.514292001724,0.000879049301147,0.400858879089,1,w,999.905265093,,,,,,,,,,,,,,,,,,,,,,,,,,,,,,,,,2015_Jun_24_1444,59.9035671031,LearningTask,1,39,
200,s,-200,,,,,,,,,,,,,,,,,2,0,2,0,9,0,36,2,,,,,,,,,,,,,,,,,,,,,,,,,,,,,s,1,None,0,,0.5,circlegray.gif,go,,,,,,,,,,,,,,,0.33443403244,,,,,,,,,,,,,,,,,,,,,,,,0,0.514164924622,0.000887870788574,0.33443403244,1,s,1002.908566,,,,,,,,,,,,,,,,,,,,,,,,,,,,,,,,,2015_Jun_24_1444,59.9035671031,LearningTask,1,39,
200,s,-200,,,,,,,,,,,,,,,,,2,0,2,0,9,1,37,2,,,,,,,,,,,,,,,,,,,,,,,,,,,,,s,1,None,0,,2.0,crosscyan.gif,stop,,,,,,,,,,,,,,,0.383645057678,,,,,,,,,,,,,,,,,,,,,,,,1.78,0.514472961426,0.00089693069458,0.383645057678,1,s,1005.91200113,,,,,,,,,,,,,,,,,,,,,,,,,,,,,,,,,2015_Jun_24_1444,59.9035671031,LearningTask,1,39,
200,w,200,,,,,,,,,,,,,,,,,2,0,2,0,9,2,38,0,,,,,,,,,,,,,,,,,,,,,,,,,,,,,w,1,None,0,,1.0,hexagonmagenta.gif,go,,,,,,,,,,,,,,,0.333956003189,,,,,,,,,,,,,,,,,,,,,,,,0.95,0.514500141144,0.000884056091309,0.333956003189,1,w,1008.91529012,,,,,,,,,,,,,,,,,,,,,,,,,,,,,,,,,2015_Jun_24_1444,59.9035671031,LearningTask,1,39,
-200,a,-200,,,,,,,,,,,,,,,,,2,0,2,0,9,3,39,3,,,,,,,,,,,,,,,,,,,,,,,,,,,,,a,1,None,0,,1.0,trianglegreen.gif,stop,,,,,,,,,,,,,,,0.417109012604,,,,,,,,,,,,,,,,,,,,,,,,1.24,0.514383077621,0.000875949859619,0.417109012604,1,a,1011.9188931,,,,,,,,,,,,,,,,,,,,,,,,,,,,,,,,,2015_Jun_24_1444,59.9035671031,LearningTask,1,39,
-200,a,-200,,,,,,,,,,,,,,,,,2,0,2,0,10,0,40,3,,,,,,,,,,,,,,,,,,,,,,,,,,,,,a,1,None,0,,0.5,lineyellow.gif,stop,,,,,,,,,,,,,,,0.45082116127,,,,,,,,,,,,,,,,,,,,,,,,0,0.514065980911,0.00087308883667,0.367828845978,0,q,1014.92193317,0.5,0.515804052353,0.00093412399292,0.45082116127,1,a,1017.92513609,,,,,,,,,,,,,,,,,,,,,,,,,,2015_Jun_24_1444,59.9035671031,LearningTask,1,39,
200,w,200,,,,,,,,,,,,,,,,,2,0,2,0,10,1,41,0,,,,,,,,,,,,,,,,,,,,,,,,,,,,,w,1,None,0,,2.0,crosscyan.gif,stop,,,,,,,,,,,,,,,0.434420824051,,,,,,,,,,,,,,,,,,,,,,,,2.24,0.514292001724,0.00090503692627,0.434420824051,1,w,1020.92920113,,,,,,,,,,,,,,,,,,,,,,,,,,,,,,,,,2015_Jun_24_1444,59.9035671031,LearningTask,1,39,
200,s,-200,,,,,,,,,,,,,,,,,2,0,2,0,10,2,42,2,,,,,,,,,,,,,,,,,,,,,,,,,,,,,s,1,None,0,,2.0,squareblue.gif,go,,,,,,,,,,,,,,,0.384531021118,,,,,,,,,,,,,,,,,,,,,,,,1.95,0.513796806335,0.000890970230103,0.384531021118,1,s,1023.93214798,,,,,,,,,,,,,,,,,,,,,,,,,,,,,,,,,2015_Jun_24_1444,59.9035671031,LearningTask,1,39,
-200,a,-200,,,,,,,,,,,,,,,,,2,0,2,0,10,3,43,3,,,,,,,,,,,,,,,,,,,,,,,,,,,,,a,1,None,0,,4.0,diamondwhite.gif,stop,,,,,,,,,,,,,,,0.417216062546,,,,,,,,,,,,,,,,,,,,,,,,4.17,0.514342069626,0.000933170318604,0.417216062546,1,a,1026.93536615,,,,,,,,,,,,,,,,,,,,,,,,,,,,,,,,,2015_Jun_24_1444,59.9035671031,LearningTask,1,39,
-200,q,200,,,,,,,,,,,,,,,,,2,0,2,0,11,0,44,1,,,,,,,,,,,,,,,,,,,,,,,,,,,,,q,1,None,0,,2.0,squareblue.gif,go,,,,,,,,,,,,,,,0.41767001152,,,,,,,,,,,,,,,,,,,,,,,,2.03,0.514480113983,0.000869989395142,0.41767001152,1,q,1029.93892813,,,,,,,,,,,,,,,,,,,,,,,,,,,,,,,,,2015_Jun_24_1444,59.9035671031,LearningTask,1,39,
200,w,200,,,,,,,,,,,,,,,,,2,0,2,0,11,1,45,0,,,,,,,,,,,,,,,,,,,,,,,,,,,,,w,1,None,0,,0.5,circlegray.gif,go,,,,,,,,,,,,,,,0.384532928467,,,,,,,,,,,,,,,,,,,,,,,,0.69,0.51416015625,0.000885009765625,0.384532928467,1,w,1032.94239211,,,,,,,,,,,,,,,,,,,,,,,,,,,,,,,,,2015_Jun_24_1444,59.9035671031,LearningTask,1,39,
200,w,200,,,,,,,,,,,,,,,,,2,0,2,0,11,2,46,0,,,,,,,,,,,,,,,,,,,,,,,,,,,,,w,1,None,0,,1.0,trianglegreen.gif,stop,,,,,,,,,,,,,,,0.317755937576,,,,,,,,,,,,,,,,,,,,,,,,1.01,0.514074087143,0.000988006591797,0.317755937576,1,w,1035.94576406,,,,,,,,,,,,,,,,,,,,,,,,,,,,,,,,,2015_Jun_24_1444,59.9035671031,LearningTask,1,39,
-200,a,-200,,,,,,,,,,,,,,,,,2,0,2,0,11,3,47,3,,,,,,,,,,,,,,,,,,,,,,,,,,,,,a,1,None,0,,0.5,lineyellow.gif,stop,,,,,,,,,,,,,,,0.417859077454,,,,,,,,,,,,,,,,,,,,,,,,0.7,0.514055967331,0.000869989395142,0.417859077454,1,a,1038.94886398,,,,,,,,,,,,,,,,,,,,,,,,,,,,,,,,,2015_Jun_24_1444,59.9035671031,LearningTask,1,39,
200,s,-200,,,,,,,,,,,,,,,,,2,0,2,0,12,0,48,2,,,,,,,,,,,,,,,,,,,,,,,,,,,,,s,1,None,0,,0.5,lineyellow.gif,stop,,,,,,,,,,,,,,,0.43420290947,,,,,,,,,,,,,,,,,,,,,,,,0.38,0.514467000961,0.000873804092407,0.43420290947,1,s,1041.95221615,,,,,,,,,,,,,,,,,,,,,,,,,,,,,,,,,2015_Jun_24_1444,59.9035671031,LearningTask,1,39,
-200,q,200,,,,,,,,,,,,,,,,,2,0,2,0,12,1,49,1,,,,,,,,,,,,,,,,,,,,,,,,,,,,,q,1,None,0,,4.0,diamondwhite.gif,stop,,,,,,,,,,,,,,,0.384001016617,,,,,,,,,,,,,,,,,,,,,,,,4.22,0.514194965363,0.000991106033325,0.384001016617,1,q,1044.95574307,,,,,,,,,,,,,,,,,,,,,,,,,,,,,,,,,2015_Jun_24_1444,59.9035671031,LearningTask,1,39,
200,s,-200,,,,,,,,,,,,,,,,,2,0,2,0,12,2,50,2,,,,,,,,,,,,,,,,,,,,,,,,,,,,,s,1,None,0,,0.5,circlegray.gif,go,,,,,,,,,,,,,,,0.383945941925,,,,,,,,,,,,,,,,,,,,,,,,0.43,0.514304876328,0.000878810882568,0.383945941925,1,s,1047.95902205,,,,,,,,,,,,,,,,,,,,,,,,,,,,,,,,,2015_Jun_24_1444,59.9035671031,LearningTask,1,39,
-200,q,200,,,,,,,,,,,,,,,,,2,0,2,0,12,3,51,1,,,,,,,,,,,,,,,,,,,,,,,,,,,,,q,1,None,0,,0.5,lineyellow.gif,stop,,,,,,,,,,,,,,,0.401045084,,,,,,,,,,,,,,,,,,,,,,,,0,0.514220952988,0.000879049301147,0.401045084,1,q,1050.96261501,,,,,,,,,,,,,,,,,,,,,,,,,,,,,,,,,2015_Jun_24_1444,59.9035671031,LearningTask,1,39,
200,s,-200,,,,,,,,,,,,,,,,,2,0,2,0,13,0,52,2,,,,,,,,,,,,,,,,,,,,,,,,,,,,,s,1,None,0,,4.0,invertedtriangleorange.gif,go,,,,,,,,,,,,,,,0.433613061905,,,,,,,,,,,,,,,,,,,,,,,,4.21,0.51425409317,0.000900030136108,0.433613061905,1,s,1053.96585798,,,,,,,,,,,,,,,,,,,,,,,,,,,,,,,,,2015_Jun_24_1444,59.9035671031,LearningTask,1,39,
-200,a,-200,,,,,,,,,,,,,,,,,2,0,2,0,13,1,53,3,,,,,,,,,,,,,,,,,,,,,,,,,,,,,a,1,None,0,,4.0,invertedtriangleorange.gif,go,,,,,,,,,,,,,,,0.501419782639,,,,,,,,,,,,,,,,,,,,,,,,3.84,0.514174938202,0.000874042510986,0.501419782639,1,a,1056.96895814,,,,,,,,,,,,,,,,,,,,,,,,,,,,,,,,,2015_Jun_24_1444,59.9035671031,LearningTask,1,39,
-200,a,-200,,,,,,,,,,,,,,,,,2,0,2,0,13,2,54,3,,,,,,,,,,,,,,,,,,,,,,,,,,,,,a,1,None,0,,2.0,crosscyan.gif,stop,,,,,,,,,,,,,,,0.400649785995,,,,,,,,,,,,,,,,,,,,,,,,1.86,0.514452934265,0.000884056091309,0.400649785995,1,a,1059.97246003,,,,,,,,,,,,,,,,,,,,,,,,,,,,,,,,,2015_Jun_24_1444,59.9035671031,LearningTask,1,39,
200,s,-200,,,,,,,,,,,,,,,,,2,0,2,0,13,3,55,2,,,,,,,,,,,,,,,,,,,,,,,,,,,,,s,1,None,0,,4.0,diamondwhite.gif,stop,,,,,,,,,,,,,,,0.450649023056,,,,,,,,,,,,,,,,,,,,,,,,4.02,0.514065027237,0.000885009765625,0.450649023056,1,s,1062.97586203,,,,,,,,,,,,,,,,,,,,,,,,,,,,,,,,,2015_Jun_24_1444,59.9035671031,LearningTask,1,39,
200,s,-200,,,,,,,,,,,,,,,,,2,0,2,0,14,0,56,2,,,,,,,,,,,,,,,,,,,,,,,,,,,,,s,1,None,0,,1.0,hexagonmagenta.gif,go,,,,,,,,,,,,,,,0.350842952728,,,,,,,,,,,,,,,,,,,,,,,,1.09,0.514242887497,0.00088095664978,0.350842952728,1,s,1065.97929215,,,,,,,,,,,,,,,,,,,,,,,,,,,,,,,,,2015_Jun_24_1444,59.9035671031,LearningTask,1,39,
-200,a,-200,,,,,,,,,,,,,,,,,2,0,2,0,14,1,57,3,,,,,,,,,,,,,,,,,,,,,,,,,,,,,a,1,None,0,,2.0,crosscyan.gif,stop,,,,,,,,,,,,,,,0.417707920074,,,,,,,,,,,,,,,,,,,,,,,,1.89,0.51420712471,0.000874042510986,0.417707920074,1,a,1068.98295212,,,,,,,,,,,,,,,,,,,,,,,,,,,,,,,,,2015_Jun_24_1444,59.9035671031,LearningTask,1,39,
-200,q,200,,,,,,,,,,,,,,,,,2,0,2,0,14,2,58,1,,,,,,,,,,,,,,,,,,,,,,,,,,,,,q,1,None,0,,4.0,invertedtriangleorange.gif,go,,,,,,,,,,,,,,,0.384752988815,,,,,,,,,,,,,,,,,,,,,,,,4.16,0.513450860977,0.00088095664978,0.384752988815,1,q,1071.98587418,,,,,,,,,,,,,,,,,,,,,,,,,,,,,,,,,2015_Jun_24_1444,59.9035671031,LearningTask,1,39,
-200,a,-200,,,,,,,,,,,,,,,,,2,0,2,0,14,3,59,3,,,,,,,,,,,,,,,,,,,,,,,,,,,,,a,1,None,0,,2.0,squareblue.gif,go,,,,,,,,,,,,,,,0.450673103333,,,,,,,,,,,,,,,,,,,,,,,,2.08,0.514305830002,0.000863790512085,0.450673103333,1,a,1074.98911905,,,,,,,,,,,,,,,,,,,,,,,,,,,,,,,,,2015_Jun_24_1444,59.9035671031,LearningTask,1,39,
-200,a,-200,,,,,,,,,,,,,,,,,2,0,2,0,15,0,60,3,,,,,,,,,,,,,,,,,,,,,,,,,,,,,a,1,None,0,,1.0,trianglegreen.gif,stop,,,,,,,,,,,,,,,0.450801134109,,,,,,,,,,,,,,,,,,,,,,,,0.98,0.514492988586,0.000875949859619,0.450801134109,1,a,1077.99272013,,,,,,,,,,,,,,,,,,,,,,,,,,,,,,,,,2015_Jun_24_1444,59.9035671031,LearningTask,1,39,
200,w,200,,,,,,,,,,,,,,,,,2,0,2,0,15,1,61,0,,,,,,,,,,,,,,,,,,,,,,,,,,,,,w,1,None,0,,2.0,squareblue.gif,go,,,,,,,,,,,,,,,0.467941045761,,,,,,,,,,,,,,,,,,,,,,,,1.87,0.514085054398,0.000886917114258,0.467941045761,1,w,1080.995785,,,,,,,,,,,,,,,,,,,,,,,,,,,,,,,,,2015_Jun_24_1444,59.9035671031,LearningTask,1,39,
-200,a,-200,,,,,,,,,,,,,,,,,2,0,2,0,15,2,62,3,,,,,,,,,,,,,,,,,,,,,,,,,,,,,a,1,None,0,,1.0,hexagonmagenta.gif,go,,,,,,,,,,,,,,,0.400778055191,,,,,,,,,,,,,,,,,,,,,,,,0.75,0.514400959015,0.00112891197205,0.400778055191,1,a,1083.99946213,,,,,,,,,,,,,,,,,,,,,,,,,,,,,,,,,2015_Jun_24_1444,59.9035671031,LearningTask,1,39,
200,s,-200,,,,,,,,,,,,,,,,,2,0,2,0,15,3,63,2,,,,,,,,,,,,,,,,,,,,,,,,,,,,,s,1,None,0,,0.5,lineyellow.gif,stop,,,,,,,,,,,,,,,0.450906991959,,,,,,,,,,,,,,,,,,,,,,,,0.29,0.513979911804,0.000874996185303,0.450906991959,1,s,1087.00265598,,,,,,,,,,,,,,,,,,,,,,,,,,,,,,,,,2015_Jun_24_1444,59.9035671031,LearningTask,1,39,
-200,q,200,,,,,,,,,,,,,,,,,2,0,2,0,16,0,64,1,,,,,,,,,,,,,,,,,,,,,,,,,,,,,q,1,None,0,,4.0,diamondwhite.gif,stop,,,,,,,,,,,,,,,0.450925827026,,,,,,,,,,,,,,,,,,,,,,,,3.75,0.514339923859,0.00088095664978,0.450925827026,1,q,1090.00587606,,,,,,,,,,,,,,,,,,,,,,,,,,,,,,,,,2015_Jun_24_1444,59.9035671031,LearningTask,1,39,
-200,q,200,,,,,,,,,,,,,,,,,2,0,2,0,16,1,65,1,,,,,,,,,,,,,,,,,,,,,,,,,,,,,q,1,None,0,,4.0,diamondwhite.gif,stop,,,,,,,,,,,,,,,0.384096860886,,,,,,,,,,,,,,,,,,,,,,,,0,0.514222860336,0.000972032546997,0.384096860886,1,q,1093.00955415,,,,,,,,,,,,,,,,,,,,,,,,,,,,,,,,,2015_Jun_24_1444,59.9035671031,LearningTask,1,39,
200,w,200,,,,,,,,,,,,,,,,,2,0,2,0,16,2,66,0,,,,,,,,,,,,,,,,,,,,,,,,,,,,,w,1,None,0,,1.0,trianglegreen.gif,stop,,,,,,,,,,,,,,,0.384385108948,,,,,,,,,,,,,,,,,,,,,,,,0.91,0.514112949371,0.000876903533936,0.384385108948,1,w,1096.01266217,,,,,,,,,,,,,,,,,,,,,,,,,,,,,,,,,2015_Jun_24_1444,59.9035671031,LearningTask,1,39,
-200,q,200,,,,,,,,,,,,,,,,,2,0,2,0,16,3,67,1,,,,,,,,,,,,,,,,,,,,,,,,,,,,,q,1,None,0,,0.5,lineyellow.gif,stop,,,,,,,,,,,,,,,0.367091178894,,,,,,,,,,,,,,,,,,,,,,,,0,0.514530897141,0.000870943069458,0.367091178894,1,q,1099.01606417,,,,,,,,,,,,,,,,,,,,,,,,,,,,,,,,,2015_Jun_24_1444,59.9035671031,LearningTask,1,39,
-200,q,200,,,,,,,,,,,,,,,,,2,0,2,0,17,0,68,1,,,,,,,,,,,,,,,,,,,,,,,,,,,,,q,1,None,0,,2.0,squareblue.gif,go,,,,,,,,,,,,,,,0.433980226517,,,,,,,,,,,,,,,,,,,,,,,,2.11,0.514330863953,0.000939846038818,0.433980226517,1,q,1102.01943111,,,,,,,,,,,,,,,,,,,,,,,,,,,,,,,,,2015_Jun_24_1444,59.9035671031,LearningTask,1,39,
-200,a,-200,,,,,,,,,,,,,,,,,2,0,2,0,17,1,69,3,,,,,,,,,,,,,,,,,,,,,,,,,,,,,a,1,None,0,,4.0,invertedtriangleorange.gif,go,,,,,,,,,,,,,,,0.383949041367,,,,,,,,,,,,,,,,,,,,,,,,4.13,0.514454126358,0.000917911529541,0.383949041367,1,a,1105.02277899,,,,,,,,,,,,,,,,,,,,,,,,,,,,,,,,,2015_Jun_24_1444,59.9035671031,LearningTask,1,39,
200,w,200,,,,,,,,,,,,,,,,,2,0,2,0,17,2,70,0,,,,,,,,,,,,,,,,,,,,,,,,,,,,,w,1,None,0,,2.0,crosscyan.gif,stop,,,,,,,,,,,,,,,0.35132598877,,,,,,,,,,,,,,,,,,,,,,,,2.05,0.514315843582,0.000885963439941,0.35132598877,1,w,1108.02625418,,,,,,,,,,,,,,,,,,,,,,,,,,,,,,,,,2015_Jun_24_1444,59.9035671031,LearningTask,1,39,
-200,a,-200,,,,,,,,,,,,,,,,,2,0,2,0,17,3,71,3,,,,,,,,,,,,,,,,,,,,,,,,,,,,,a,1,None,0,,1.0,trianglegreen.gif,stop,,,,,,,,,,,,,,,0.383969068527,,,,,,,,,,,,,,,,,,,,,,,,1.12,0.514106035233,0.000891923904419,0.383969068527,1,a,1111.0293982,,,,,,,,,,,,,,,,,,,,,,,,,,,,,,,,,2015_Jun_24_1444,59.9035671031,LearningTask,1,39,
200,w,200,,,,,,,,,,,,,,,,,2,0,2,0,18,0,72,0,,,,,,,,,,,,,,,,,,,,,,,,,,,,,w,1,None,0,,4.0,diamondwhite.gif,stop,,,,,,,,,,,,,,,0.334228992462,,,,,,,,,,,,,,,,,,,,,,,,3.98,0.514196872711,0.000877857208252,0.334228992462,1,w,1114.03300405,,,,,,,,,,,,,,,,,,,,,,,,,,,,,,,,,2015_Jun_24_1444,59.9035671031,LearningTask,1,39,
200,w,200,,,,,,,,,,,,,,,,,2,0,2,0,18,1,73,0,,,,,,,,,,,,,,,,,,,,,,,,,,,,,w,1,None,0,,0.5,circlegray.gif,go,,,,,,,,,,,,,,,0.317244052887,,,,,,,,,,,,,,,,,,,,,,,,0,0.514317035675,0.000881910324097,0.317244052887,1,w,1117.036726,,,,,,,,,,,,,,,,,,,,,,,,,,,,,,,,,2015_Jun_24_1444,59.9035671031,LearningTask,1,39,
200,s,-200,,,,,,,,,,,,,,,,,2,0,2,0,18,2,74,2,,,,,,,,,,,,,,,,,,,,,,,,,,,,,s,1,None,0,,0.5,circlegray.gif,go,,,,,,,,,,,,,,,0.400579929352,,,,,,,,,,,,,,,,,,,,,,,,0.43,0.513823032379,0.000879049301147,0.400579929352,1,s,1120.0395,,,,,,,,,,,,,,,,,,,,,,,,,,,,,,,,,2015_Jun_24_1444,59.9035671031,LearningTask,1,39,
200,w,200,,,,,,,,,,,,,,,,,2,0,2,0,18,3,75,0,,,,,,,,,,,,,,,,,,,,,,,,,,,,,w,1,None,0,,2.0,squareblue.gif,go,,,,,,,,,,,,,,,0.351362943649,,,,,,,,,,,,,,,,,,,,,,,,2.02,0.513977050781,0.000975131988525,0.351362943649,1,w,1123.04280615,,,,,,,,,,,,,,,,,,,,,,,,,,,,,,,,,2015_Jun_24_1444,59.9035671031,LearningTask,1,39,
-200,a,-200,,,,,,,,,,,,,,,,,2,0,2,0,19,0,76,3,,,,,,,,,,,,,,,,,,,,,,,,,,,,,a,1,None,0,,0.5,circlegray.gif,go,,,,,,,,,,,,,,,0.401360988617,,,,,,,,,,,,,,,,,,,,,,,,0,0.514341115952,0.000893115997314,0.401360988617,1,a,1126.04640603,,,,,,,,,,,,,,,,,,,,,,,,,,,,,,,,,2015_Jun_24_1444,59.9035671031,LearningTask,1,39,
200,s,-200,,,,,,,,,,,,,,,,,2,0,2,0,19,1,77,2,,,,,,,,,,,,,,,,,,,,,,,,,,,,,s,1,None,0,,4.0,diamondwhite.gif,stop,,,,,,,,,,,,,,,0.401329994202,,,,,,,,,,,,,,,,,,,,,,,,0,0.514219999313,0.000885963439941,0.467285871506,0,w,1129.04980206,4.04,0.515100002289,0.000946044921875,0.401329994202,1,s,1132.05331016,,,,,,,,,,,,,,,,,,,,,,,,,,2015_Jun_24_1444,59.9035671031,LearningTask,1,39,
-200,q,200,,,,,,,,,,,,,,,,,2,0,2,0,19,2,78,1,,,,,,,,,,,,,,,,,,,,,,,,,,,,,q,1,None,0,,1.0,hexagonmagenta.gif,go,,,,,,,,,,,,,,,0.434021949768,,,,,,,,,,,,,,,,,,,,,,,,0,0.514156103134,0.000881910324097,0.434021949768,1,q,1135.0563221,,,,,,,,,,,,,,,,,,,,,,,,,,,,,,,,,2015_Jun_24_1444,59.9035671031,LearningTask,1,39,
200,w,200,,,,,,,,,,,,,,,,,2,0,2,0,19,3,79,0,,,,,,,,,,,,,,,,,,,,,,,,,,,,,w,1,None,0,,2.0,crosscyan.gif,stop,,,,,,,,,,,,,,,0.384077787399,,,,,,,,,,,,,,,,,,,,,,,,1.94,0.514468193054,0.000879049301147,0.384077787399,1,w,1138.05963206,,,,,,,,,,,,,,,,,,,,,,,,,,,,,,,,,2015_Jun_24_1444,59.9035671031,LearningTask,1,39,
200,w,200,,,,,,,,,,,,,,,,,2,0,2,0,20,0,80,0,,,,,,,,,,,,,,,,,,,,,,,,,,,,,w,1,None,0,,1.0,trianglegreen.gif,stop,,,,,,,,,,,,,,,0.384006023407,,,,,,,,,,,,,,,,,,,,,,,,1.25,0.514161109924,0.00092601776123,0.384006023407,1,w,1141.06307697,,,,,,,,,,,,,,,,,,,,,,,,,,,,,,,,,2015_Jun_24_1444,59.9035671031,LearningTask,1,39,
200,w,200,,,,,,,,,,,,,,,,,2,0,2,0,20,1,81,0,,,,,,,,,,,,,,,,,,,,,,,,,,,,,w,1,None,0,,0.5,lineyellow.gif,stop,,,,,,,,,,,,,,,0.38436794281,,,,,,,,,,,,,,,,,,,,,,,,0.26,0.514029979706,0.00088906288147,0.38436794281,1,w,1144.06687903,,,,,,,,,,,,,,,,,,,,,,,,,,,,,,,,,2015_Jun_24_1444,59.9035671031,LearningTask,1,39,
200,s,-200,,,,,,,,,,,,,,,,,2,0,2,0,20,2,82,2,,,,,,,,,,,,,,,,,,,,,,,,,,,,,s,1,None,0,,4.0,invertedtriangleorange.gif,go,,,,,,,,,,,,,,,0.450777053833,,,,,,,,,,,,,,,,,,,,,,,,0,0.513739109039,0.000874996185303,0.450777053833,1,s,1147.0701592,,,,,,,,,,,,,,,,,,,,,,,,,,,,,,,,,2015_Jun_24_1444,59.9035671031,LearningTask,1,39,
200,s,-200,,,,,,,,,,,,,,,,,2,0,2,0,20,3,83,2,,,,,,,,,,,,,,,,,,,,,,,,,,,,,s,1,None,0,,1.0,hexagonmagenta.gif,go,,,,,,,,,,,,,,,0.350892066956,,,,,,,,,,,,,,,,,,,,,,,,1.04,0.51403594017,0.000895023345947,0.350892066956,1,s,1150.07309818,,,,,,,,,,,,,,,,,,,,,,,,,,,,,,,,,2015_Jun_24_1444,59.9035671031,LearningTask,1,39,
200,w,200,,,,,,,,,,,,,,,,,2,0,2,0,21,0,84,0,,,,,,,,,,,,,,,,,,,,,,,,,,,,,w,1,None,0,,0.5,circlegray.gif,go,,,,,,,,,,,,,,,0.367846012115,,,,,,,,,,,,,,,,,,,,,,,,0.63,0.514349937439,0.00107002258301,0.367846012115,1,w,1153.07643104,,,,,,,,,,,,,,,,,,,,,,,,,,,,,,,,,2015_Jun_24_1444,59.9035671031,LearningTask,1,39,
