xPos,corrAns,yPos,corrGoResp,yPosGoStim,xPosGoStim,pracTrials.thisRepN,pracTrials.thisTrialN,pracTrials.thisN,pracTrials.thisIndex,ReDoLoopPrac.thisRepN,ReDoLoopPrac.thisTrialN,ReDoLoopPrac.thisN,ReDoLoopPrac.thisIndex,ReDoLoopPrac.thisTrial,pracStopTrials.thisRepN,pracStopTrials.thisTrialN,pracStopTrials.thisN,pracStopTrials.thisIndex,Blocks.thisRepN,Blocks.thisTrialN,Blocks.thisN,Blocks.thisIndex,trials.thisRepN,trials.thisTrialN,trials.thisN,trials.thisIndex,ReDoLoopMain.thisRepN,ReDoLoopMain.thisTrialN,ReDoLoopMain.thisN,ReDoLoopMain.thisIndex,ReDoLoopMain.thisTrial,StopBlocks.thisRepN,StopBlocks.thisTrialN,StopBlocks.thisN,StopBlocks.thisIndex,StopTrials.thisRepN,StopTrials.thisTrialN,StopTrials.thisN,StopTrials.thisIndex,auctionBlocks.thisRepN,auctionBlocks.thisTrialN,auctionBlocks.thisN,auctionBlocks.thisIndex,auctionTrials.thisRepN,auctionTrials.thisTrialN,auctionTrials.thisN,auctionTrials.thisIndex,learningTrialList,learningPracTrialList,stopTrialList,stopPracTrialList,auctionTrialList,ok1.keys,ok1.rt,resp.keys,resp.corr,resp.rt,feedbackResp.keys,feedbackResp.corr,currentReward,currentStimulus,currentStimType,firstPracComputedRewardOutput,firstPracLearningStimOnset,firstPracLearningFixOnset,firstPracPresentationRT,firstPracPresentationAcc,firstPracPresentationResp,firstPracEndTrialTimeStamp,StartTrialTimeStamp,trialType,goStim,stimType,stopStimValue,goResp.keys,goResp.corr,goResp.rt,key_resp_9.keys,key_resp_9.corr,fixStopOnset,goStimOnset,stopSignalOnset,EndTrialTimeStamp,key_resp_3.keys,key_resp_3.rt,firstComputedRewardOutput,firstLearningStimOnset,firstLearningFixOnset,firstPresentationRT,firstPresentationAcc,firstPresentationResp,firstEndTrialTimeStamp,secondComputedRewardOutput,secondLearningStimOnset,secondLearningFixOnset,secondPresentationRT,secondPresentationAcc,secondPresentationResp,secondEndTrialTimeStamp,key_resp_7.keys,key_resp_7.rt,beginningSSD,EndingSSD,key_resp_4.keys,key_resp_4.rt,auctionResponse.keys,auctionStimDuration,auctionStim,auctionAmounts,auctionStimValue,auctionCondition,chosenAuctionAmount,auctionResponse.rt,key_resp_5.keys,key_resp_5.rt,shuffledRewardList,chosenReward1,chosenReward2,chosenReward3,chosenReward4,chosenReward5,key_resp_6.keys,key_resp_6.rt,date,frameRate,expName,session,participant,
,,,,,,,,,,,,,,,,,,,,,,,,,,,,,,,,,,,,,,,,,,,,,,,,[],[],[],[],[],9,69.2855169773,,,,,,,,,,,,,,,,,,,,,,,,,,,,,,,,,,,,,,,,,,,,,,,,,,,,,,,,,,,,,,,,,,,,,,2015_Jul_08_1245,59.9538300345,LearningTask,1,52,
200,w,200,,,,0,0,0,0,,,,,,,,,,,,,,,,,,,,,,,,,,,,,,,,,,,,,,,,,,,,,,w,1,0.600984096527,None,0,2.0,crosscyan.gif,stop,1.76,0.508558034897,0.0301280021667,0.600984096527,1,w,86.5481610298,,,,,,,,,,,,,,,,,,,,,,,,,,,,,,,,,,,,,,,,,,,,,,,,,,,,,,,2015_Jul_08_1245,59.9538300345,LearningTask,1,52,
200,w,200,,,,0,1,1,4,,,,,,,,,,,,,,,,,,,,,,,,,,,,,,,,,,,,,,,,,,,,,,w,1,0.451081991196,None,0,2.0,squareyellow.gif,go,1.99,0.514414072037,0.0357720851898,0.451081991196,1,w,89.5508341789,,,,,,,,,,,,,,,,,,,,,,,,,,,,,,,,,,,,,,,,,,,,,,,,,,,,,,,2015_Jul_08_1245,59.9538300345,LearningTask,1,52,
200,s,-200,,,,0,2,2,2,,,,,,,,,,,,,,,,,,,,,,,,,,,,,,,,,,,,,,,,,,,,,,s,1,0.434171915054,None,0,1.0,hexagonorange.gif,stop,0.75,0.515198945999,0.0443279743195,0.434171915054,1,s,92.5543041229,,,,,,,,,,,,,,,,,,,,,,,,,,,,,,,,,,,,,,,,,,,,,,,,,,,,,,,2015_Jul_08_1245,59.9538300345,LearningTask,1,52,
-200,q,200,,,,0,3,3,5,,,,,,,,,,,,,,,,,,,,,,,,,,,,,,,,,,,,,,,,,,,,,,q,1,0.367558956146,None,0,1.0,hexagonorange.gif,stop,1.25,0.515378952026,0.000897884368896,0.367558956146,1,q,95.5579481125,,,,,,,,,,,,,,,,,,,,,,,,,,,,,,,,,,,,,,,,,,,,,,,,,,,,,,,2015_Jul_08_1245,59.9538300345,LearningTask,1,52,
-200,q,200,,,,0,4,4,1,,,,,,,,,,,,,,,,,,,,,,,,,,,,,,,,,,,,,,,,,,,,,,q,1,0.51798915863,None,0,2.0,crosscyan.gif,stop,1.94,0.514425039291,0.000924110412598,0.51798915863,1,q,98.560958147,,,,,,,,,,,,,,,,,,,,,,,,,,,,,,,,,,,,,,,,,,,,,,,,,,,,,,,2015_Jul_08_1245,59.9538300345,LearningTask,1,52,
200,w,200,,,,0,5,5,8,,,,,,,,,,,,,,,,,,,,,,,,,,,,,,,,,,,,,,,,,,,,,,w,1,0.317322969437,None,0,2.0,squareyellow.gif,go,1.82,0.515231847763,0.00108790397644,0.317322969437,1,w,101.564280987,,,,,,,,,,,,,,,,,,,,,,,,,,,,,,,,,,,,,,,,,,,,,,,,,,,,,,,2015_Jul_08_1245,59.9538300345,LearningTask,1,52,
-200,a,-200,,,,0,6,6,3,,,,,,,,,,,,,,,,,,,,,,,,,,,,,,,,,,,,,,,,,,,,,,a,1,0.31755900383,None,0,1.0,circleblue.gif,go,0.94,0.515300035477,0.0437180995941,0.31755900383,1,a,104.567826986,,,,,,,,,,,,,,,,,,,,,,,,,,,,,,,,,,,,,,,,,,,,,,,,,,,,,,,2015_Jul_08_1245,59.9538300345,LearningTask,1,52,
200,s,-200,,,,0,7,7,6,,,,,,,,,,,,,,,,,,,,,,,,,,,,,,,,,,,,,,,,,,,,,,s,1,0.367454051971,None,0,1.0,circleblue.gif,go,0.84,0.515021085739,0.000890016555786,0.367454051971,1,s,107.571271181,,,,,,,,,,,,,,,,,,,,,,,,,,,,,,,,,,,,,,,,,,,,,,,,,,,,,,,2015_Jul_08_1245,59.9538300345,LearningTask,1,52,
-200,q,200,,,,0,8,8,9,,,,,,,,,,,,,,,,,,,,,,,,,,,,,,,,,,,,,,,,,,,,,,q,1,0.351024150848,None,0,2.0,crosscyan.gif,stop,1.77,0.51501083374,0.00124192237854,0.351024150848,1,q,110.575109005,,,,,,,,,,,,,,,,,,,,,,,,,,,,,,,,,,,,,,,,,,,,,,,,,,,,,,,2015_Jul_08_1245,59.9538300345,LearningTask,1,52,
-200,a,-200,,,,0,9,9,7,,,,,,,,,,,,,,,,,,,,,,,,,,,,,,,,,,,,,,,,,,,,,,a,1,0.351003170013,None,0,1.0,circleblue.gif,go,1.21,0.514518976212,0.00097393989563,0.351003170013,1,a,113.577927113,,,,,,,,,,,,,,,,,,,,,,,,,,,,,,,,,,,,,,,,,,,,,,,,,,,,,,,2015_Jul_08_1245,59.9538300345,LearningTask,1,52,
,,,m,0,200,,,,,,,,,,0,0,0,1,,,,,,,,,,,,,,,,,,,,,,,,,,,,,,,,,,,,,,,,,,,,,,,,,,,,159.050024033,stop,crosscyan.gif,stop,2.0,m,1,0.450750827789,None,0,0.00133895874023,0.511564016342,0.761548995972,162.049120188,,,,,,,,,,,,,,,,,,,,,,,,,,,,,,,,,,,,,,,,,2015_Jul_08_1245,59.9538300345,LearningTask,1,52,
,,,z,0,-200,,,,,,,,,,0,1,1,0,,,,,,,,,,,,,,,,,,,,,,,,,,,,,,,,,,,,,,,,,,,,,,,,,,,,162.049514055,go,squareyellow.gif,go,2.0,z,1,0.651530981064,None,0,0.000952005386353,0.51564002037,,165.052146196,,,,,,,,,,,,,,,,,,,,,,,,,,,,,,,,,,,,,,,,,2015_Jul_08_1245,59.9538300345,LearningTask,1,52,
,,,z,0,-200,,,,,,,,,,1,0,2,0,,,,,,,,,,,,,,,,,,,,,,,,,,,,,,,,,,,,,,,,,,,,,,,,,,,,165.052510023,stop,trianglewhite.gif,stop,0.5,None,0,,None,0,0.0759708881378,0.51596903801,0.766637802124,168.055730104,,,,,,,,,,,,,,,,,,,,,,,,,,,,,,,,,,,,,,,,,2015_Jul_08_1245,59.9538300345,LearningTask,1,52,
,,,z,0,-200,,,,,,,,,,1,1,3,0,,,,,,,,,,,,,,,,,,,,,,,,,,,,,,,,,,,,,,,,,,,,,,,,,,,,168.056093216,go,diamondmagenta.gif,go,4.0,None,0,,None,0,0.0419528484344,0.515508890152,,171.059357166,,,,,,,,,,,,,,,,,,,,,,,,,,,,,,,,,,,,,,,,,2015_Jul_08_1245,59.9538300345,LearningTask,1,52,
,,,m,0,200,,,,,,,,,,2,0,4,1,,,,,,,,,,,,,,,,,,,,,,,,,,,,,,,,,,,,,,,,,,,,,,,,,,,,171.059728146,stop,trianglewhite.gif,stop,0.5,m,1,0.450927019119,None,0,0.001140832901,0.515504837036,0.765786886215,174.062763214,,,,,,,,,,,,,,,,,,,,,,,,,,,,,,,,,,,,,,,,,2015_Jul_08_1245,59.9538300345,LearningTask,1,52,
,,,m,0,200,,,,,,,,,,2,1,5,1,,,,,,,,,,,,,,,,,,,,,,,,,,,,,,,,,,,,,,,,,,,,,,,,,,,,174.063378096,stop,trianglewhite.gif,stop,0.5,None,0,,None,0,0.000977993011475,0.5153901577,0.765478134155,177.065700054,,,,,,,,,,,,,,,,,,,,,,,,,,,,,,,,,,,,,,,,,2015_Jul_08_1245,59.9538300345,LearningTask,1,52,
,,,z,0,-200,,,,,,,,,,3,0,6,0,,,,,,,,,,,,,,,,,,,,,,,,,,,,,,,,,,,,,,,,,,,,,,,,,,,,177.066062212,go,circleblue.gif,go,1.0,z,1,0.734513998032,None,0,0.000952959060669,0.51603603363,,180.069128036,,,,,,,,,,,,,,,,,,,,,,,,,,,,,,,,,,,,,,,,,2015_Jul_08_1245,59.9538300345,LearningTask,1,52,
,,,z,0,-200,,,,,,,,,,3,1,7,0,,,,,,,,,,,,,,,,,,,,,,,,,,,,,,,,,,,,,,,,,,,,,,,,,,,,180.069493055,stop,invertedtrianglegray.gif,stop,4.0,None,0,,None,0,0.0358819961548,0.515574932098,0.765851020813,183.072669029,,,,,,,,,,,,,,,,,,,,,,,,,,,,,,,,,,,,,,,,,2015_Jul_08_1245,59.9538300345,LearningTask,1,52,
,,,m,0,200,,,,,,,,,,4,0,8,1,,,,,,,,,,,,,,,,,,,,,,,,,,,,,,,,,,,,,,,,,,,,,,,,,,,,183.073086023,stop,invertedtrianglegray.gif,stop,4.0,None,0,,None,0,0.000998020172119,0.515814065933,0.765836000443,186.076008081,,,,,,,,,,,,,,,,,,,,,,,,,,,,,,,,,,,,,,,,,2015_Jul_08_1245,59.9538300345,LearningTask,1,52,
,,,m,0,200,,,,,,,,,,4,1,9,1,,,,,,,,,,,,,,,,,,,,,,,,,,,,,,,,,,,,,,,,,,,,,,,,,,,,186.076371193,go,linegreen.gif,go,0.5,m,1,0.601500034332,None,0,0.0406079292297,0.515736818314,,189.079124212,,,,,,,,,,,,,,,,,,,,,,,,,,,,,,,,,,,,,,,,,2015_Jul_08_1245,59.9538300345,LearningTask,1,52,
,,,,,,,,,,,,,,,,,,,,,,,,,,,,,,,,,,,,,,,,,,,,,,,,,,,,,,,,,,,,,,,,,,,,,,,,,,,,,,,,,,,,9,72.1751801968,,,,,,,,,,,,,,,,,,,,,,,,,,,,,,,,,,,,,,,2015_Jul_08_1245,59.9538300345,LearningTask,1,52,
,,,,,,,,,,,,,,,,,,,,,,,,,,,,,,,,,,,,,,,,,,,,,,,,,,,,,9,4.25545907021,,,,,,,,,,,,,,,,,,,,,,,,,,,,,,,,,,,,,,,,,,,,,,,,,,,,,,,,,,,,,,,,,,,,,,2015_Jul_08_1245,59.9538300345,LearningTask,1,52,
-200,a,-200,,,,,,,,,,,,,,,,,0,0,0,0,0,0,0,3,,,,,,,,,,,,,,,,,,,,,,,,,,,,,a,1,0.400606155396,None,0,2.0,crosscyan.gif,stop,,,,,,,,,,,,,,,,,,,,,,,,1.91,0.509645938873,0.000922918319702,0.400606155396,1,a,268.653400183,,,,,,,,,,,,,,,,,,,,,,,,,,,,,,,,2015_Jul_08_1245,59.9538300345,LearningTask,1,52,
200,w,200,,,,,,,,,,,,,,,,,0,0,0,0,0,1,1,0,,,,,,,,,,,,,,,,,,,,,,,,,,,,,w,1,0.334381103516,None,0,0.5,linegreen.gif,go,,,,,,,,,,,,,,,,,,,,,,,,0.35,0.513657093048,0.000940084457397,0.334381103516,1,w,271.656208038,,,,,,,,,,,,,,,,,,,,,,,,,,,,,,,,2015_Jul_08_1245,59.9538300345,LearningTask,1,52,
200,s,-200,,,,,,,,,,,,,,,,,0,0,0,0,0,2,2,2,,,,,,,,,,,,,,,,,,,,,,,,,,,,,s,1,0.334024906158,None,0,1.0,circleblue.gif,go,,,,,,,,,,,,,,,,,,,,,,,,0.96,0.514400005341,0.000990152359009,0.334024906158,1,s,274.659530163,,,,,,,,,,,,,,,,,,,,,,,,,,,,,,,,2015_Jul_08_1245,59.9538300345,LearningTask,1,52,
200,w,200,,,,,,,,,,,,,,,,,0,0,0,0,0,3,3,0,,,,,,,,,,,,,,,,,,,,,,,,,,,,,w,1,0.334443092346,None,0,2.0,squareyellow.gif,go,,,,,,,,,,,,,,,,,,,,,,,,1.9,0.514503955841,0.000890970230103,0.334443092346,1,w,277.662844181,,,,,,,,,,,,,,,,,,,,,,,,,,,,,,,,2015_Jul_08_1245,59.9538300345,LearningTask,1,52,
200,w,200,,,,,,,,,,,,,,,,,0,0,0,0,1,0,4,0,,,,,,,,,,,,,,,,,,,,,,,,,,,,,w,1,0.334537029266,None,0,1.0,circleblue.gif,go,,,,,,,,,,,,,,,,,,,,,,,,1.18,0.514607906342,0.000937938690186,0.334537029266,1,w,280.666380167,,,,,,,,,,,,,,,,,,,,,,,,,,,,,,,,2015_Jul_08_1245,59.9538300345,LearningTask,1,52,
-200,a,-200,,,,,,,,,,,,,,,,,0,0,0,0,1,1,5,3,,,,,,,,,,,,,,,,,,,,,,,,,,,,,a,1,0.400929927826,None,0,0.5,trianglewhite.gif,stop,,,,,,,,,,,,,,,,,,,,,,,,0,0.514261960983,0.000944852828979,0.400929927826,1,a,283.669831038,,,,,,,,,,,,,,,,,,,,,,,,,,,,,,,,2015_Jul_08_1245,59.9538300345,LearningTask,1,52,
-200,a,-200,,,,,,,,,,,,,,,,,0,0,0,0,1,2,6,3,,,,,,,,,,,,,,,,,,,,,,,,,,,,,a,1,0.384366035461,None,0,4.0,diamondmagenta.gif,go,,,,,,,,,,,,,,,,,,,,,,,,3.83,0.514312028885,0.000895977020264,0.384366035461,1,a,286.673423052,,,,,,,,,,,,,,,,,,,,,,,,,,,,,,,,2015_Jul_08_1245,59.9538300345,LearningTask,1,52,
200,s,-200,,,,,,,,,,,,,,,,,0,0,0,0,1,3,7,2,,,,,,,,,,,,,,,,,,,,,,,,,,,,,s,1,0.400842905045,None,0,4.0,invertedtrianglegray.gif,stop,,,,,,,,,,,,,,,,,,,,,,,,0,0.51371717453,0.00091814994812,0.400842905045,1,s,289.676638126,,,,,,,,,,,,,,,,,,,,,,,,,,,,,,,,2015_Jul_08_1245,59.9538300345,LearningTask,1,52,
-200,q,200,,,,,,,,,,,,,,,,,0,0,0,0,2,0,8,1,,,,,,,,,,,,,,,,,,,,,,,,,,,,,q,1,0.334182024002,None,0,2.0,squareyellow.gif,go,,,,,,,,,,,,,,,,,,,,,,,,2.18,0.514250993729,0.000896215438843,0.334182024002,1,q,292.679824114,,,,,,,,,,,,,,,,,,,,,,,,,,,,,,,,2015_Jul_08_1245,59.9538300345,LearningTask,1,52,
-200,q,200,,,,,,,,,,,,,,,,,0,0,0,0,2,1,9,1,,,,,,,,,,,,,,,,,,,,,,,,,,,,,q,1,0.417812824249,None,0,0.5,linegreen.gif,go,,,,,,,,,,,,,,,,,,,,,,,,0.65,0.514261007309,0.000926971435547,0.417812824249,1,q,295.683977127,,,,,,,,,,,,,,,,,,,,,,,,,,,,,,,,2015_Jul_08_1245,59.9538300345,LearningTask,1,52,
-200,q,200,,,,,,,,,,,,,,,,,0,0,0,0,2,2,10,1,,,,,,,,,,,,,,,,,,,,,,,,,,,,,q,1,0.317223072052,None,0,1.0,circleblue.gif,go,,,,,,,,,,,,,,,,,,,,,,,,0.89,0.51350402832,0.000904083251953,0.317223072052,1,q,298.686946154,,,,,,,,,,,,,,,,,,,,,,,,,,,,,,,,2015_Jul_08_1245,59.9538300345,LearningTask,1,52,
200,w,200,,,,,,,,,,,,,,,,,0,0,0,0,2,3,11,0,,,,,,,,,,,,,,,,,,,,,,,,,,,,,w,1,0.284081935883,None,0,0.5,trianglewhite.gif,stop,,,,,,,,,,,,,,,,,,,,,,,,0.46,0.514071941376,0.000906944274902,0.284081935883,1,w,301.689962149,,,,,,,,,,,,,,,,,,,,,,,,,,,,,,,,2015_Jul_08_1245,59.9538300345,LearningTask,1,52,
-200,a,-200,,,,,,,,,,,,,,,,,0,0,0,0,3,0,12,3,,,,,,,,,,,,,,,,,,,,,,,,,,,,,a,1,0.351358890533,None,0,2.0,squareyellow.gif,go,,,,,,,,,,,,,,,,,,,,,,,,2.08,0.514143943787,0.00100994110107,0.351358890533,1,a,304.694009066,,,,,,,,,,,,,,,,,,,,,,,,,,,,,,,,2015_Jul_08_1245,59.9538300345,LearningTask,1,52,
200,w,200,,,,,,,,,,,,,,,,,0,0,0,0,3,1,13,0,,,,,,,,,,,,,,,,,,,,,,,,,,,,,w,1,0.35111284256,None,0,0.5,trianglewhite.gif,stop,,,,,,,,,,,,,,,,,,,,,,,,0.63,0.513823986053,0.000915050506592,0.35111284256,1,w,307.696911097,,,,,,,,,,,,,,,,,,,,,,,,,,,,,,,,2015_Jul_08_1245,59.9538300345,LearningTask,1,52,
200,s,-200,,,,,,,,,,,,,,,,,0,0,0,0,3,2,14,2,,,,,,,,,,,,,,,,,,,,,,,,,,,,,s,1,0.384391069412,None,0,1.0,hexagonorange.gif,stop,,,,,,,,,,,,,,,,,,,,,,,,0,0.514081954956,0.0012629032135,0.384391069412,1,s,310.700380087,,,,,,,,,,,,,,,,,,,,,,,,,,,,,,,,2015_Jul_08_1245,59.9538300345,LearningTask,1,52,
-200,a,-200,,,,,,,,,,,,,,,,,0,0,0,0,3,3,15,3,,,,,,,,,,,,,,,,,,,,,,,,,,,,,a,1,0.401090860367,None,0,2.0,crosscyan.gif,stop,,,,,,,,,,,,,,,,,,,,,,,,0,0.514033079147,0.000967979431152,0.401090860367,1,a,313.70346117,,,,,,,,,,,,,,,,,,,,,,,,,,,,,,,,2015_Jul_08_1245,59.9538300345,LearningTask,1,52,
-200,q,200,,,,,,,,,,,,,,,,,0,0,0,0,4,0,16,1,,,,,,,,,,,,,,,,,,,,,,,,,,,,,q,1,0.333412885666,None,0,0.5,linegreen.gif,go,,,,,,,,,,,,,,,,,,,,,,,,0.36,0.514961957932,0.000874042510986,0.333412885666,1,q,316.706988096,,,,,,,,,,,,,,,,,,,,,,,,,,,,,,,,2015_Jul_08_1245,59.9538300345,LearningTask,1,52,
200,w,200,,,,,,,,,,,,,,,,,0,0,0,0,4,1,17,0,,,,,,,,,,,,,,,,,,,,,,,,,,,,,w,1,0.317440986633,None,0,2.0,crosscyan.gif,stop,,,,,,,,,,,,,,,,,,,,,,,,1.89,0.514068126678,0.000944137573242,0.317440986633,1,w,319.710430145,,,,,,,,,,,,,,,,,,,,,,,,,,,,,,,,2015_Jul_08_1245,59.9538300345,LearningTask,1,52,
-200,a,-200,,,,,,,,,,,,,,,,,0,0,0,0,4,2,18,3,,,,,,,,,,,,,,,,,,,,,,,,,,,,,a,1,0.350152015686,None,0,0.5,trianglewhite.gif,stop,,,,,,,,,,,,,,,,,,,,,,,,0.31,0.514695882797,0.000901937484741,0.350152015686,1,a,322.713661194,,,,,,,,,,,,,,,,,,,,,,,,,,,,,,,,2015_Jul_08_1245,59.9538300345,LearningTask,1,52,
-200,a,-200,,,,,,,,,,,,,,,,,0,0,0,0,4,3,19,3,,,,,,,,,,,,,,,,,,,,,,,,,,,,,a,1,0.367457151413,None,0,1.0,circleblue.gif,go,,,,,,,,,,,,,,,,,,,,,,,,0,0.514490842819,0.00090503692627,0.367457151413,1,a,325.717063189,,,,,,,,,,,,,,,,,,,,,,,,,,,,,,,,2015_Jul_08_1245,59.9538300345,LearningTask,1,52,
200,w,200,,,,,,,,,,,,,,,,,0,0,0,0,5,0,20,0,,,,,,,,,,,,,,,,,,,,,,,,,,,,,w,1,0.367170095444,None,0,4.0,diamondmagenta.gif,go,,,,,,,,,,,,,,,,,,,,,,,,4.14,0.514283895493,0.000932931900024,0.367170095444,1,w,328.72045517,,,,,,,,,,,,,,,,,,,,,,,,,,,,,,,,2015_Jul_08_1245,59.9538300345,LearningTask,1,52,
200,w,200,,,,,,,,,,,,,,,,,0,0,0,0,5,1,21,0,,,,,,,,,,,,,,,,,,,,,,,,,,,,,w,1,0.334002971649,None,0,1.0,hexagonorange.gif,stop,,,,,,,,,,,,,,,,,,,,,,,,1.25,0.514241933823,0.000901937484741,0.334002971649,1,w,331.723609209,,,,,,,,,,,,,,,,,,,,,,,,,,,,,,,,2015_Jul_08_1245,59.9538300345,LearningTask,1,52,
200,s,-200,,,,,,,,,,,,,,,,,0,0,0,0,5,2,22,2,,,,,,,,,,,,,,,,,,,,,,,,,,,,,s,1,0.384246110916,None,0,4.0,diamondmagenta.gif,go,,,,,,,,,,,,,,,,,,,,,,,,3.85,0.514616012573,0.000897169113159,0.384246110916,1,s,334.727673054,,,,,,,,,,,,,,,,,,,,,,,,,,,,,,,,2015_Jul_08_1245,59.9538300345,LearningTask,1,52,
200,w,200,,,,,,,,,,,,,,,,,0,0,0,0,5,3,23,0,,,,,,,,,,,,,,,,,,,,,,,,,,,,,w,1,0.300911188126,None,0,1.0,hexagonorange.gif,stop,,,,,,,,,,,,,,,,,,,,,,,,0.95,0.513478040695,0.000932216644287,0.300911188126,1,w,337.730733156,,,,,,,,,,,,,,,,,,,,,,,,,,,,,,,,2015_Jul_08_1245,59.9538300345,LearningTask,1,52,
-200,q,200,,,,,,,,,,,,,,,,,0,0,0,0,6,0,24,1,,,,,,,,,,,,,,,,,,,,,,,,,,,,,q,1,0.434402942657,None,0,4.0,invertedtrianglegray.gif,stop,,,,,,,,,,,,,,,,,,,,,,,,4.03,0.514204025269,0.000893831253052,0.434402942657,1,q,340.733823061,,,,,,,,,,,,,,,,,,,,,,,,,,,,,,,,2015_Jul_08_1245,59.9538300345,LearningTask,1,52,
-200,q,200,,,,,,,,,,,,,,,,,0,0,0,0,6,1,25,1,,,,,,,,,,,,,,,,,,,,,,,,,,,,,q,1,0.417344808578,None,0,0.5,linegreen.gif,go,,,,,,,,,,,,,,,,,,,,,,,,0,0.514439105988,0.00089693069458,0.417344808578,1,q,343.737490177,,,,,,,,,,,,,,,,,,,,,,,,,,,,,,,,2015_Jul_08_1245,59.9538300345,LearningTask,1,52,
-200,q,200,,,,,,,,,,,,,,,,,0,0,0,0,6,2,26,1,,,,,,,,,,,,,,,,,,,,,,,,,,,,,q,1,0.333959102631,None,0,0.5,linegreen.gif,go,,,,,,,,,,,,,,,,,,,,,,,,0,0.51416683197,0.000893831253052,0.333959102631,1,q,346.740739107,,,,,,,,,,,,,,,,,,,,,,,,,,,,,,,,2015_Jul_08_1245,59.9538300345,LearningTask,1,52,
200,w,200,,,,,,,,,,,,,,,,,0,0,0,0,6,3,27,0,,,,,,,,,,,,,,,,,,,,,,,,,,,,,w,1,0.368036031723,None,0,1.0,hexagonorange.gif,stop,,,,,,,,,,,,,,,,,,,,,,,,1.18,0.514333963394,0.00096583366394,0.368036031723,1,w,349.743906021,,,,,,,,,,,,,,,,,,,,,,,,,,,,,,,,2015_Jul_08_1245,59.9538300345,LearningTask,1,52,
-200,a,-200,,,,,,,,,,,,,,,,,0,0,0,0,7,0,28,3,,,,,,,,,,,,,,,,,,,,,,,,,,,,,a,1,0.351326942444,None,0,4.0,diamondmagenta.gif,go,,,,,,,,,,,,,,,,,,,,,,,,3.87,0.514256954193,0.00100588798523,0.351326942444,1,a,352.747676134,,,,,,,,,,,,,,,,,,,,,,,,,,,,,,,,2015_Jul_08_1245,59.9538300345,LearningTask,1,52,
-200,q,200,,,,,,,,,,,,,,,,,0,0,0,0,7,1,29,1,,,,,,,,,,,,,,,,,,,,,,,,,,,,,q,1,0.400601863861,None,0,1.0,hexagonorange.gif,stop,,,,,,,,,,,,,,,,,,,,,,,,1.12,0.514247179031,0.000923156738281,0.400601863861,1,q,355.750733137,,,,,,,,,,,,,,,,,,,,,,,,,,,,,,,,2015_Jul_08_1245,59.9538300345,LearningTask,1,52,
200,w,200,,,,,,,,,,,,,,,,,0,0,0,0,7,2,30,0,,,,,,,,,,,,,,,,,,,,,,,,,,,,,w,1,0.350646018982,None,0,4.0,diamondmagenta.gif,go,,,,,,,,,,,,,,,,,,,,,,,,0,0.514357805252,0.000944852828979,0.350646018982,1,w,358.754190207,,,,,,,,,,,,,,,,,,,,,,,,,,,,,,,,2015_Jul_08_1245,59.9538300345,LearningTask,1,52,
200,s,-200,,,,,,,,,,,,,,,,,0,0,0,0,7,3,31,2,,,,,,,,,,,,,,,,,,,,,,,,,,,,,s,1,0.351097106934,None,0,2.0,squareyellow.gif,go,,,,,,,,,,,,,,,,,,,,,,,,0,0.514199018478,0.000946998596191,0.351097106934,1,s,361.757498026,,,,,,,,,,,,,,,,,,,,,,,,,,,,,,,,2015_Jul_08_1245,59.9538300345,LearningTask,1,52,
-200,q,200,,,,,,,,,,,,,,,,,0,0,0,0,8,0,32,1,,,,,,,,,,,,,,,,,,,,,,,,,,,,,q,1,0.317257881165,None,0,2.0,squareyellow.gif,go,,,,,,,,,,,,,,,,,,,,,,,,1.8,0.514748096466,0.000894069671631,0.317257881165,1,q,364.760841131,,,,,,,,,,,,,,,,,,,,,,,,,,,,,,,,2015_Jul_08_1245,59.9538300345,LearningTask,1,52,
-200,q,200,,,,,,,,,,,,,,,,,0,0,0,0,8,1,33,1,,,,,,,,,,,,,,,,,,,,,,,,,,,,,q,1,0.36806178093,None,0,0.5,linegreen.gif,go,,,,,,,,,,,,,,,,,,,,,,,,0.64,0.514072179794,0.00092601776123,0.36806178093,1,q,367.764705181,,,,,,,,,,,,,,,,,,,,,,,,,,,,,,,,2015_Jul_08_1245,59.9538300345,LearningTask,1,52,
200,s,-200,,,,,,,,,,,,,,,,,0,0,0,0,8,2,34,2,,,,,,,,,,,,,,,,,,,,,,,,,,,,,s,1,0.400752782822,None,0,4.0,invertedtrianglegray.gif,stop,,,,,,,,,,,,,,,,,,,,,,,,4.08,0.51398897171,0.000899076461792,0.400752782822,1,s,370.767543077,,,,,,,,,,,,,,,,,,,,,,,,,,,,,,,,2015_Jul_08_1245,59.9538300345,LearningTask,1,52,
200,s,-200,,,,,,,,,,,,,,,,,0,0,0,0,8,3,35,2,,,,,,,,,,,,,,,,,,,,,,,,,,,,,s,1,0.40127491951,None,0,1.0,circleblue.gif,go,,,,,,,,,,,,,,,,,,,,,,,,1.19,0.514587163925,0.000920057296753,0.40127491951,1,s,373.771291018,,,,,,,,,,,,,,,,,,,,,,,,,,,,,,,,2015_Jul_08_1245,59.9538300345,LearningTask,1,52,
-200,q,200,,,,,,,,,,,,,,,,,0,0,0,0,9,0,36,1,,,,,,,,,,,,,,,,,,,,,,,,,,,,,q,1,0.367548942566,None,0,2.0,crosscyan.gif,stop,,,,,,,,,,,,,,,,,,,,,,,,2.22,0.513772010803,0.00092887878418,0.367548942566,1,q,376.774568081,,,,,,,,,,,,,,,,,,,,,,,,,,,,,,,,2015_Jul_08_1245,59.9538300345,LearningTask,1,52,
200,w,200,,,,,,,,,,,,,,,,,0,0,0,0,9,1,37,0,,,,,,,,,,,,,,,,,,,,,,,,,,,,,w,1,0.334415912628,None,0,4.0,invertedtrianglegray.gif,stop,,,,,,,,,,,,,,,,,,,,,,,,3.77,0.514185190201,0.00090217590332,0.334415912628,1,w,379.777676105,,,,,,,,,,,,,,,,,,,,,,,,,,,,,,,,2015_Jul_08_1245,59.9538300345,LearningTask,1,52,
-200,a,-200,,,,,,,,,,,,,,,,,0,0,0,0,9,2,38,3,,,,,,,,,,,,,,,,,,,,,,,,,,,,,a,1,0.36795592308,None,0,2.0,crosscyan.gif,stop,,,,,,,,,,,,,,,,,,,,,,,,1.94,0.514393091202,0.00118207931519,0.36795592308,1,a,382.781785011,,,,,,,,,,,,,,,,,,,,,,,,,,,,,,,,2015_Jul_08_1245,59.9538300345,LearningTask,1,52,
-200,a,-200,,,,,,,,,,,,,,,,,0,0,0,0,9,3,39,3,,,,,,,,,,,,,,,,,,,,,,,,,,,,,a,1,0.40069103241,None,0,0.5,linegreen.gif,go,,,,,,,,,,,,,,,,,,,,,,,,0.33,0.513787984848,0.000903844833374,0.40069103241,1,a,385.784708023,,,,,,,,,,,,,,,,,,,,,,,,,,,,,,,,2015_Jul_08_1245,59.9538300345,LearningTask,1,52,
-200,q,200,,,,,,,,,,,,,,,,,0,0,0,0,10,0,40,1,,,,,,,,,,,,,,,,,,,,,,,,,,,,,q,1,0.334140062332,None,0,4.0,diamondmagenta.gif,go,,,,,,,,,,,,,,,,,,,,,,,,0,0.514271974564,0.000900030136108,0.334140062332,1,q,388.787924051,,,,,,,,,,,,,,,,,,,,,,,,,,,,,,,,2015_Jul_08_1245,59.9538300345,LearningTask,1,52,
-200,a,-200,,,,,,,,,,,,,,,,,0,0,0,0,10,1,41,3,,,,,,,,,,,,,,,,,,,,,,,,,,,,,a,1,0.334328174591,None,0,4.0,invertedtrianglegray.gif,stop,,,,,,,,,,,,,,,,,,,,,,,,4.22,0.514400959015,0.000972986221313,0.334328174591,1,a,391.791191101,,,,,,,,,,,,,,,,,,,,,,,,,,,,,,,,2015_Jul_08_1245,59.9538300345,LearningTask,1,52,
200,s,-200,,,,,,,,,,,,,,,,,0,0,0,0,10,2,42,2,,,,,,,,,,,,,,,,,,,,,,,,,,,,,s,1,0.367769956589,None,0,0.5,trianglewhite.gif,stop,,,,,,,,,,,,,,,,,,,,,,,,0.37,0.514602899551,0.000918865203857,0.367769956589,1,s,394.794683218,,,,,,,,,,,,,,,,,,,,,,,,,,,,,,,,2015_Jul_08_1245,59.9538300345,LearningTask,1,52,
200,w,200,,,,,,,,,,,,,,,,,0,0,0,0,10,3,43,0,,,,,,,,,,,,,,,,,,,,,,,,,,,,,w,1,0.300559997559,None,0,1.0,circleblue.gif,go,,,,,,,,,,,,,,,,,,,,,,,,1.05,0.514342069626,0.00095009803772,0.300559997559,1,w,397.798676014,,,,,,,,,,,,,,,,,,,,,,,,,,,,,,,,2015_Jul_08_1245,59.9538300345,LearningTask,1,52,
-200,q,200,,,,,,,,,,,,,,,,,0,0,0,0,11,0,44,1,,,,,,,,,,,,,,,,,,,,,,,,,,,,,q,1,0.384029150009,None,0,4.0,invertedtrianglegray.gif,stop,,,,,,,,,,,,,,,,,,,,,,,,3.91,0.513752937317,0.000921010971069,0.384029150009,1,q,400.801567078,,,,,,,,,,,,,,,,,,,,,,,,,,,,,,,,2015_Jul_08_1245,59.9538300345,LearningTask,1,52,
200,s,-200,,,,,,,,,,,,,,,,,0,0,0,0,11,1,45,2,,,,,,,,,,,,,,,,,,,,,,,,,,,,,s,1,0.350614070892,None,0,2.0,squareyellow.gif,go,,,,,,,,,,,,,,,,,,,,,,,,1.9,0.514374017715,0.000930070877075,0.350614070892,1,s,403.804849148,,,,,,,,,,,,,,,,,,,,,,,,,,,,,,,,2015_Jul_08_1245,59.9538300345,LearningTask,1,52,
200,w,200,,,,,,,,,,,,,,,,,0,0,0,0,11,2,46,0,,,,,,,,,,,,,,,,,,,,,,,,,,,,,w,1,0.351003885269,None,0,0.5,linegreen.gif,go,,,,,,,,,,,,,,,,,,,,,,,,0,0.514055967331,0.00103783607483,0.351003885269,1,w,406.808086157,,,,,,,,,,,,,,,,,,,,,,,,,,,,,,,,2015_Jul_08_1245,59.9538300345,LearningTask,1,52,
200,s,-200,,,,,,,,,,,,,,,,,0,0,0,0,11,3,47,2,,,,,,,,,,,,,,,,,,,,,,,,,,,,,s,1,0.367760896683,None,0,1.0,hexagonorange.gif,stop,,,,,,,,,,,,,,,,,,,,,,,,1.17,0.514127016068,0.000935077667236,0.367760896683,1,s,409.811511993,,,,,,,,,,,,,,,,,,,,,,,,,,,,,,,,2015_Jul_08_1245,59.9538300345,LearningTask,1,52,
-200,q,200,,,,,,,,,,,,,,,,,0,0,0,0,12,0,48,1,,,,,,,,,,,,,,,,,,,,,,,,,,,,,q,1,0.300591945648,None,0,2.0,squareyellow.gif,go,,,,,,,,,,,,,,,,,,,,,,,,2.02,0.514460086823,0.000916957855225,0.300591945648,1,q,412.814745188,,,,,,,,,,,,,,,,,,,,,,,,,,,,,,,,2015_Jul_08_1245,59.9538300345,LearningTask,1,52,
200,w,200,,,,,,,,,,,,,,,,,0,0,0,0,12,1,49,0,,,,,,,,,,,,,,,,,,,,,,,,,,,,,w,1,0.333921194077,None,0,4.0,diamondmagenta.gif,go,,,,,,,,,,,,,,,,,,,,,,,,4.25,0.514356136322,0.00095009803772,0.333921194077,1,w,415.818594217,,,,,,,,,,,,,,,,,,,,,,,,,,,,,,,,2015_Jul_08_1245,59.9538300345,LearningTask,1,52,
-200,a,-200,,,,,,,,,,,,,,,,,0,0,0,0,12,2,50,3,,,,,,,,,,,,,,,,,,,,,,,,,,,,,a,1,0.318102121353,None,0,1.0,circleblue.gif,go,,,,,,,,,,,,,,,,,,,,,,,,0,0.513864994049,0.000905990600586,0.318102121353,1,a,418.821892023,,,,,,,,,,,,,,,,,,,,,,,,,,,,,,,,2015_Jul_08_1245,59.9538300345,LearningTask,1,52,
200,s,-200,,,,,,,,,,,,,,,,,0,0,0,0,12,3,51,2,,,,,,,,,,,,,,,,,,,,,,,,,,,,,s,1,0.417645931244,None,0,2.0,crosscyan.gif,stop,,,,,,,,,,,,,,,,,,,,,,,,1.86,0.514154911041,0.000911951065063,0.417645931244,1,s,421.825453997,,,,,,,,,,,,,,,,,,,,,,,,,,,,,,,,2015_Jul_08_1245,59.9538300345,LearningTask,1,52,
200,s,-200,,,,,,,,,,,,,,,,,0,0,0,0,13,0,52,2,,,,,,,,,,,,,,,,,,,,,,,,,,,,,s,1,0.400681972504,None,0,0.5,linegreen.gif,go,,,,,,,,,,,,,,,,,,,,,,,,0,0.513546228409,0.000908136367798,0.400681972504,1,s,424.828547001,,,,,,,,,,,,,,,,,,,,,,,,,,,,,,,,2015_Jul_08_1245,59.9538300345,LearningTask,1,52,
-200,q,200,,,,,,,,,,,,,,,,,0,0,0,0,13,1,53,1,,,,,,,,,,,,,,,,,,,,,,,,,,,,,q,1,0.333925008774,None,0,2.0,squareyellow.gif,go,,,,,,,,,,,,,,,,,,,,,,,,1.82,0.514231920242,0.000895977020264,0.333925008774,1,q,427.831979036,,,,,,,,,,,,,,,,,,,,,,,,,,,,,,,,2015_Jul_08_1245,59.9538300345,LearningTask,1,52,
200,w,200,,,,,,,,,,,,,,,,,0,0,0,0,13,2,54,0,,,,,,,,,,,,,,,,,,,,,,,,,,,,,w,1,0.367826938629,None,0,1.0,circleblue.gif,go,,,,,,,,,,,,,,,,,,,,,,,,0.94,0.514276027679,0.000903129577637,0.367826938629,1,w,430.835520029,,,,,,,,,,,,,,,,,,,,,,,,,,,,,,,,2015_Jul_08_1245,59.9538300345,LearningTask,1,52,
-200,q,200,,,,,,,,,,,,,,,,,0,0,0,0,13,3,55,1,,,,,,,,,,,,,,,,,,,,,,,,,,,,,q,1,0.384126901627,None,0,1.0,hexagonorange.gif,stop,,,,,,,,,,,,,,,,,,,,,,,,0,0.514173030853,0.000904083251953,0.384126901627,1,q,433.838739157,,,,,,,,,,,,,,,,,,,,,,,,,,,,,,,,2015_Jul_08_1245,59.9538300345,LearningTask,1,52,
200,s,-200,,,,,,,,,,,,,,,,,0,0,0,0,14,0,56,2,,,,,,,,,,,,,,,,,,,,,,,,,,,,,s,1,0.367854118347,None,0,2.0,crosscyan.gif,stop,,,,,,,,,,,,,,,,,,,,,,,,2.09,0.514158010483,0.000905990600586,0.367854118347,1,s,436.841904163,,,,,,,,,,,,,,,,,,,,,,,,,,,,,,,,2015_Jul_08_1245,59.9538300345,LearningTask,1,52,
200,s,-200,,,,,,,,,,,,,,,,,0,0,0,0,14,1,57,2,,,,,,,,,,,,,,,,,,,,,,,,,,,,,s,1,0.384340047836,None,0,2.0,crosscyan.gif,stop,,,,,,,,,,,,,,,,,,,,,,,,2.01,0.514376878738,0.00103497505188,0.384340047836,1,s,439.845504999,,,,,,,,,,,,,,,,,,,,,,,,,,,,,,,,2015_Jul_08_1245,59.9538300345,LearningTask,1,52,
-200,a,-200,,,,,,,,,,,,,,,,,0,0,0,0,14,2,58,3,,,,,,,,,,,,,,,,,,,,,,,,,,,,,a,1,0.401278018951,None,0,2.0,squareyellow.gif,go,,,,,,,,,,,,,,,,,,,,,,,,2.12,0.51430606842,0.000893115997314,0.401278018951,1,a,442.848814011,,,,,,,,,,,,,,,,,,,,,,,,,,,,,,,,2015_Jul_08_1245,59.9538300345,LearningTask,1,52,
200,w,200,,,,,,,,,,,,,,,,,0,0,0,0,14,3,59,0,,,,,,,,,,,,,,,,,,,,,,,,,,,,,w,1,0.317955970764,None,0,2.0,squareyellow.gif,go,,,,,,,,,,,,,,,,,,,,,,,,2.19,0.513939142227,0.00103807449341,0.317955970764,1,w,445.852165222,,,,,,,,,,,,,,,,,,,,,,,,,,,,,,,,2015_Jul_08_1245,59.9538300345,LearningTask,1,52,
200,w,200,,,,,,,,,,,,,,,,,0,0,0,0,15,0,60,0,,,,,,,,,,,,,,,,,,,,,,,,,,,,,w,1,0.317360877991,None,0,0.5,trianglewhite.gif,stop,,,,,,,,,,,,,,,,,,,,,,,,0.39,0.514059066772,0.00098991394043,0.317360877991,1,w,448.855542183,,,,,,,,,,,,,,,,,,,,,,,,,,,,,,,,2015_Jul_08_1245,59.9538300345,LearningTask,1,52,
200,s,-200,,,,,,,,,,,,,,,,,0,0,0,0,15,1,61,2,,,,,,,,,,,,,,,,,,,,,,,,,,,,,s,1,0.367348194122,None,0,0.5,trianglewhite.gif,stop,,,,,,,,,,,,,,,,,,,,,,,,0,0.514415979385,0.00090217590332,0.367348194122,1,s,451.858761072,,,,,,,,,,,,,,,,,,,,,,,,,,,,,,,,2015_Jul_08_1245,59.9538300345,LearningTask,1,52,
200,s,-200,,,,,,,,,,,,,,,,,0,0,0,0,15,2,62,2,,,,,,,,,,,,,,,,,,,,,,,,,,,,,s,1,0.40150308609,None,0,2.0,squareyellow.gif,go,,,,,,,,,,,,,,,,,,,,,,,,1.91,0.51419210434,0.000975131988525,0.40150308609,1,s,454.862094164,,,,,,,,,,,,,,,,,,,,,,,,,,,,,,,,2015_Jul_08_1245,59.9538300345,LearningTask,1,52,
-200,a,-200,,,,,,,,,,,,,,,,,0,0,0,0,15,3,63,3,,,,,,,,,,,,,,,,,,,,,,,,,,,,,a,1,0.400691986084,None,0,4.0,diamondmagenta.gif,go,,,,,,,,,,,,,,,,,,,,,,,,3.85,0.514289140701,0.000903129577637,0.400691986084,1,a,457.865616083,,,,,,,,,,,,,,,,,,,,,,,,,,,,,,,,2015_Jul_08_1245,59.9538300345,LearningTask,1,52,
-200,a,-200,,,,,,,,,,,,,,,,,0,0,0,0,16,0,64,3,,,,,,,,,,,,,,,,,,,,,,,,,,,,,a,1,0.434113025665,None,0,2.0,crosscyan.gif,stop,,,,,,,,,,,,,,,,,,,,,,,,1.82,0.514391899109,0.00089693069458,0.434113025665,1,a,460.869337082,,,,,,,,,,,,,,,,,,,,,,,,,,,,,,,,2015_Jul_08_1245,59.9538300345,LearningTask,1,52,
-200,q,200,,,,,,,,,,,,,,,,,0,0,0,0,16,1,65,1,,,,,,,,,,,,,,,,,,,,,,,,,,,,,q,1,0.400885105133,None,0,2.0,squareyellow.gif,go,,,,,,,,,,,,,,,,,,,,,,,,2.13,0.513839960098,0.000910043716431,0.400885105133,1,q,463.872420073,,,,,,,,,,,,,,,,,,,,,,,,,,,,,,,,2015_Jul_08_1245,59.9538300345,LearningTask,1,52,
200,s,-200,,,,,,,,,,,,,,,,,0,0,0,0,16,2,66,2,,,,,,,,,,,,,,,,,,,,,,,,,,,,,s,1,0.383839130402,None,0,0.5,linegreen.gif,go,,,,,,,,,,,,,,,,,,,,,,,,0.26,0.51426410675,0.000893115997314,0.383839130402,1,s,466.875655174,,,,,,,,,,,,,,,,,,,,,,,,,,,,,,,,2015_Jul_08_1245,59.9538300345,LearningTask,1,52,
-200,a,-200,,,,,,,,,,,,,,,,,0,0,0,0,16,3,67,3,,,,,,,,,,,,,,,,,,,,,,,,,,,,,a,1,0.384124040604,None,0,0.5,trianglewhite.gif,stop,,,,,,,,,,,,,,,,,,,,,,,,0.55,0.514372110367,0.000914096832275,0.384124040604,1,a,469.879720211,,,,,,,,,,,,,,,,,,,,,,,,,,,,,,,,2015_Jul_08_1245,59.9538300345,LearningTask,1,52,
200,s,-200,,,,,,,,,,,,,,,,,0,0,0,0,17,0,68,2,,,,,,,,,,,,,,,,,,,,,,,,,,,,,s,1,0.38387799263,None,0,4.0,diamondmagenta.gif,go,,,,,,,,,,,,,,,,,,,,,,,,3.97,0.513954877853,0.00140190124512,0.38387799263,1,s,472.882647991,,,,,,,,,,,,,,,,,,,,,,,,,,,,,,,,2015_Jul_08_1245,59.9538300345,LearningTask,1,52,
-200,a,-200,,,,,,,,,,,,,,,,,0,0,0,0,17,1,69,3,,,,,,,,,,,,,,,,,,,,,,,,,,,,,a,1,0.350424051285,None,0,2.0,crosscyan.gif,stop,,,,,,,,,,,,,,,,,,,,,,,,2.18,0.514375209808,0.000899076461792,0.350424051285,1,a,475.885823011,,,,,,,,,,,,,,,,,,,,,,,,,,,,,,,,2015_Jul_08_1245,59.9538300345,LearningTask,1,52,
-200,a,-200,,,,,,,,,,,,,,,,,0,0,0,0,17,2,70,3,,,,,,,,,,,,,,,,,,,,,,,,,,,,,a,1,0.383790969849,None,0,4.0,invertedtrianglegray.gif,stop,,,,,,,,,,,,,,,,,,,,,,,,0,0.515033960342,0.000901937484741,0.383790969849,1,a,478.889332056,,,,,,,,,,,,,,,,,,,,,,,,,,,,,,,,2015_Jul_08_1245,59.9538300345,LearningTask,1,52,
200,w,200,,,,,,,,,,,,,,,,,0,0,0,0,17,3,71,0,,,,,,,,,,,,,,,,,,,,,,,,,,,,,w,1,0.584352016449,None,0,1.0,circleblue.gif,go,,,,,,,,,,,,,,,,,,,,,,,,0,0.51430606842,0.00090503692627,0.584352016449,1,w,481.892644167,,,,,,,,,,,,,,,,,,,,,,,,,,,,,,,,2015_Jul_08_1245,59.9538300345,LearningTask,1,52,
-200,q,200,,,,,,,,,,,,,,,,,0,0,0,0,18,0,72,1,,,,,,,,,,,,,,,,,,,,,,,,,,,,,q,1,0.351067781448,None,0,1.0,hexagonorange.gif,stop,,,,,,,,,,,,,,,,,,,,,,,,0.96,0.514297962189,0.0010359287262,0.351067781448,1,q,484.896596193,,,,,,,,,,,,,,,,,,,,,,,,,,,,,,,,2015_Jul_08_1245,59.9538300345,LearningTask,1,52,
200,w,200,,,,,,,,,,,,,,,,,0,0,0,0,18,1,73,0,,,,,,,,,,,,,,,,,,,,,,,,,,,,,w,1,0.317456007004,None,0,1.0,hexagonorange.gif,stop,,,,,,,,,,,,,,,,,,,,,,,,0.87,0.513679981232,0.000967025756836,0.317456007004,1,w,487.899572134,,,,,,,,,,,,,,,,,,,,,,,,,,,,,,,,2015_Jul_08_1245,59.9538300345,LearningTask,1,52,
-200,q,200,,,,,,,,,,,,,,,,,0,0,0,0,18,2,74,1,,,,,,,,,,,,,,,,,,,,,,,,,,,,,q,1,0.317339897156,None,0,0.5,trianglewhite.gif,stop,,,,,,,,,,,,,,,,,,,,,,,,0.32,0.514260053635,0.000895977020264,0.317339897156,1,q,490.902793169,,,,,,,,,,,,,,,,,,,,,,,,,,,,,,,,2015_Jul_08_1245,59.9538300345,LearningTask,1,52,
-200,a,-200,,,,,,,,,,,,,,,,,0,0,0,0,18,3,75,3,,,,,,,,,,,,,,,,,,,,,,,,,,,,,a,1,0.350487947464,None,0,4.0,diamondmagenta.gif,go,,,,,,,,,,,,,,,,,,,,,,,,4.18,0.514246940613,0.000972032546997,0.350487947464,1,a,493.906056166,,,,,,,,,,,,,,,,,,,,,,,,,,,,,,,,2015_Jul_08_1245,59.9538300345,LearningTask,1,52,
200,s,-200,,,,,,,,,,,,,,,,,0,0,0,0,19,0,76,2,,,,,,,,,,,,,,,,,,,,,,,,,,,,,s,1,0.434055089951,None,0,0.5,linegreen.gif,go,,,,,,,,,,,,,,,,,,,,,,,,0,0.514152050018,0.000931024551392,0.317940950394,0,w,496.909504175,0.53,0.515603065491,0.000992059707642,0.434055089951,1,s,499.913487196,,,,,,,,,,,,,,,,,,,,,,,,,2015_Jul_08_1245,59.9538300345,LearningTask,1,52,
-200,a,-200,,,,,,,,,,,,,,,,,0,0,0,0,19,1,77,3,,,,,,,,,,,,,,,,,,,,,,,,,,,,,a,1,0.383879899979,None,0,2.0,crosscyan.gif,stop,,,,,,,,,,,,,,,,,,,,,,,,2.01,0.513705968857,0.000902891159058,0.383879899979,1,a,502.916330099,,,,,,,,,,,,,,,,,,,,,,,,,,,,,,,,2015_Jul_08_1245,59.9538300345,LearningTask,1,52,
200,w,200,,,,,,,,,,,,,,,,,0,0,0,0,19,2,78,0,,,,,,,,,,,,,,,,,,,,,,,,,,,,,w,1,0.317368030548,None,0,1.0,hexagonorange.gif,stop,,,,,,,,,,,,,,,,,,,,,,,,1.12,0.514569044113,0.00091290473938,0.317368030548,1,w,505.919659138,,,,,,,,,,,,,,,,,,,,,,,,,,,,,,,,2015_Jul_08_1245,59.9538300345,LearningTask,1,52,
200,s,-200,,,,,,,,,,,,,,,,,0,0,0,0,19,3,79,2,,,,,,,,,,,,,,,,,,,,,,,,,,,,,s,1,0.367280006409,None,0,4.0,invertedtrianglegray.gif,stop,,,,,,,,,,,,,,,,,,,,,,,,3.88,0.514269113541,0.000910043716431,0.367280006409,1,s,508.923205137,,,,,,,,,,,,,,,,,,,,,,,,,,,,,,,,2015_Jul_08_1245,59.9538300345,LearningTask,1,52,
200,s,-200,,,,,,,,,,,,,,,,,0,0,0,0,20,0,80,2,,,,,,,,,,,,,,,,,,,,,,,,,,,,,s,1,0.367722034454,None,0,1.0,circleblue.gif,go,,,,,,,,,,,,,,,,,,,,,,,,0.84,0.51367688179,0.000924825668335,0.367722034454,1,s,511.926689148,,,,,,,,,,,,,,,,,,,,,,,,,,,,,,,,2015_Jul_08_1245,59.9538300345,LearningTask,1,52,
-200,a,-200,,,,,,,,,,,,,,,,,0,0,0,0,20,1,81,3,,,,,,,,,,,,,,,,,,,,,,,,,,,,,a,1,0.334188938141,None,0,4.0,invertedtrianglegray.gif,stop,,,,,,,,,,,,,,,,,,,,,,,,4.11,0.514052152634,0.000903129577637,0.334188938141,1,a,514.930030107,,,,,,,,,,,,,,,,,,,,,,,,,,,,,,,,2015_Jul_08_1245,59.9538300345,LearningTask,1,52,
-200,a,-200,,,,,,,,,,,,,,,,,0,0,0,0,20,2,82,3,,,,,,,,,,,,,,,,,,,,,,,,,,,,,a,1,0.334700107574,None,0,2.0,crosscyan.gif,stop,,,,,,,,,,,,,,,,,,,,,,,,2.15,0.513906955719,0.000937938690186,0.334700107574,1,a,517.933545113,,,,,,,,,,,,,,,,,,,,,,,,,,,,,,,,2015_Jul_08_1245,59.9538300345,LearningTask,1,52,
-200,a,-200,,,,,,,,,,,,,,,,,0,0,0,0,20,3,83,3,,,,,,,,,,,,,,,,,,,,,,,,,,,,,a,1,0.317737817764,None,0,2.0,crosscyan.gif,stop,,,,,,,,,,,,,,,,,,,,,,,,1.85,0.513901948929,0.000913143157959,0.317737817764,1,a,520.936935186,,,,,,,,,,,,,,,,,,,,,,,,,,,,,,,,2015_Jul_08_1245,59.9538300345,LearningTask,1,52,
200,w,200,,,,,,,,,,,,,,,,,0,0,0,0,21,0,84,0,,,,,,,,,,,,,,,,,,,,,,,,,,,,,w,1,0.334163188934,None,0,1.0,hexagonorange.gif,stop,,,,,,,,,,,,,,,,,,,,,,,,0.83,0.514096021652,0.000977039337158,0.334163188934,1,w,523.939880133,,,,,,,,,,,,,,,,,,,,,,,,,,,,,,,,2015_Jul_08_1245,59.9538300345,LearningTask,1,52,
-200,a,-200,,,,,,,,,,,,,,,,,0,0,0,0,21,1,85,3,,,,,,,,,,,,,,,,,,,,,,,,,,,,,a,1,0.334316968918,None,0,4.0,invertedtrianglegray.gif,stop,,,,,,,,,,,,,,,,,,,,,,,,3.8,0.514400005341,0.000946044921875,0.334316968918,1,a,526.943695068,,,,,,,,,,,,,,,,,,,,,,,,,,,,,,,,2015_Jul_08_1245,59.9538300345,LearningTask,1,52,
200,w,200,,,,,,,,,,,,,,,,,0,0,0,0,21,2,86,0,,,,,,,,,,,,,,,,,,,,,,,,,,,,,w,1,0.31712603569,None,0,2.0,squareyellow.gif,go,,,,,,,,,,,,,,,,,,,,,,,,2.11,0.514251947403,0.000901937484741,0.31712603569,1,w,529.946452141,,,,,,,,,,,,,,,,,,,,,,,,,,,,,,,,2015_Jul_08_1245,59.9538300345,LearningTask,1,52,
200,s,-200,,,,,,,,,,,,,,,,,0,0,0,0,21,3,87,2,,,,,,,,,,,,,,,,,,,,,,,,,,,,,s,1,0.367125988007,None,0,4.0,diamondmagenta.gif,go,,,,,,,,,,,,,,,,,,,,,,,,4.14,0.514826059341,0.0011260509491,0.367125988007,1,s,532.95016408,,,,,,,,,,,,,,,,,,,,,,,,,,,,,,,,2015_Jul_08_1245,59.9538300345,LearningTask,1,52,
-200,q,200,,,,,,,,,,,,,,,,,0,0,0,0,22,0,88,1,,,,,,,,,,,,,,,,,,,,,,,,,,,,,q,1,0.317591190338,None,0,4.0,diamondmagenta.gif,go,,,,,,,,,,,,,,,,,,,,,,,,4.03,0.514214038849,0.00094199180603,0.317591190338,1,q,535.953388214,,,,,,,,,,,,,,,,,,,,,,,,,,,,,,,,2015_Jul_08_1245,59.9538300345,LearningTask,1,52,
200,w,200,,,,,,,,,,,,,,,,,0,0,0,0,22,1,89,0,,,,,,,,,,,,,,,,,,,,,,,,,,,,,w,1,0.351120948792,None,0,2.0,squareyellow.gif,go,,,,,,,,,,,,,,,,,,,,,,,,0,0.514425992966,0.000899076461792,0.334424972534,0,s,538.956824064,1.76,0.515448093414,0.00109815597534,0.351120948792,1,w,541.960415125,,,,,,,,,,,,,,,,,,,,,,,,,2015_Jul_08_1245,59.9538300345,LearningTask,1,52,
200,s,-200,,,,,,,,,,,,,,,,,0,0,0,0,22,2,90,2,,,,,,,,,,,,,,,,,,,,,,,,,,,,,s,1,0.383906841278,None,0,1.0,hexagonorange.gif,stop,,,,,,,,,,,,,,,,,,,,,,,,0.97,0.514371156693,0.000903129577637,0.383906841278,1,s,544.963506222,,,,,,,,,,,,,,,,,,,,,,,,,,,,,,,,2015_Jul_08_1245,59.9538300345,LearningTask,1,52,
-200,a,-200,,,,,,,,,,,,,,,,,0,0,0,0,22,3,91,3,,,,,,,,,,,,,,,,,,,,,,,,,,,,,a,1,0.384514093399,None,0,0.5,trianglewhite.gif,stop,,,,,,,,,,,,,,,,,,,,,,,,0,0.514482975006,0.000897884368896,0.384514093399,1,a,547.967006207,,,,,,,,,,,,,,,,,,,,,,,,,,,,,,,,2015_Jul_08_1245,59.9538300345,LearningTask,1,52,
-200,q,200,,,,,,,,,,,,,,,,,0,0,0,0,23,0,92,1,,,,,,,,,,,,,,,,,,,,,,,,,,,,,q,1,0.367759943008,None,0,4.0,invertedtrianglegray.gif,stop,,,,,,,,,,,,,,,,,,,,,,,,4.24,0.514205217361,0.000917196273804,0.367759943008,1,q,550.970243216,,,,,,,,,,,,,,,,,,,,,,,,,,,,,,,,2015_Jul_08_1245,59.9538300345,LearningTask,1,52,
-200,q,200,,,,,,,,,,,,,,,,,0,0,0,0,23,1,93,1,,,,,,,,,,,,,,,,,,,,,,,,,,,,,q,1,0.333849906921,None,0,4.0,invertedtrianglegray.gif,stop,,,,,,,,,,,,,,,,,,,,,,,,4.16,0.514503955841,0.000910997390747,0.333849906921,1,q,553.973631144,,,,,,,,,,,,,,,,,,,,,,,,,,,,,,,,2015_Jul_08_1245,59.9538300345,LearningTask,1,52,
-200,q,200,,,,,,,,,,,,,,,,,0,0,0,0,23,2,94,1,,,,,,,,,,,,,,,,,,,,,,,,,,,,,q,1,0.367290019989,None,0,4.0,diamondmagenta.gif,go,,,,,,,,,,,,,,,,,,,,,,,,4.04,0.514522075653,0.00090503692627,0.367290019989,1,q,556.977668047,,,,,,,,,,,,,,,,,,,,,,,,,,,,,,,,2015_Jul_08_1245,59.9538300345,LearningTask,1,52,
200,w,200,,,,,,,,,,,,,,,,,0,0,0,0,23,3,95,0,,,,,,,,,,,,,,,,,,,,,,,,,,,,,w,1,0.367762804031,None,0,4.0,diamondmagenta.gif,go,,,,,,,,,,,,,,,,,,,,,,,,4.14,0.513323068619,0.000913143157959,0.367762804031,1,w,559.980782032,,,,,,,,,,,,,,,,,,,,,,,,,,,,,,,,2015_Jul_08_1245,59.9538300345,LearningTask,1,52,
-200,q,200,,,,,,,,,,,,,,,,,0,0,0,0,24,0,96,1,,,,,,,,,,,,,,,,,,,,,,,,,,,,,q,1,0.401293039322,None,0,2.0,squareyellow.gif,go,,,,,,,,,,,,,,,,,,,,,,,,1.8,0.514111995697,0.000891923904419,0.401293039322,1,q,562.983844042,,,,,,,,,,,,,,,,,,,,,,,,,,,,,,,,2015_Jul_08_1245,59.9538300345,LearningTask,1,52,
200,s,-200,,,,,,,,,,,,,,,,,0,0,0,0,24,1,97,2,,,,,,,,,,,,,,,,,,,,,,,,,,,,,s,1,0.417411088943,None,0,4.0,invertedtrianglegray.gif,stop,,,,,,,,,,,,,,,,,,,,,,,,3.79,0.514532804489,0.000898838043213,0.417411088943,1,s,565.987390995,,,,,,,,,,,,,,,,,,,,,,,,,,,,,,,,2015_Jul_08_1245,59.9538300345,LearningTask,1,52,
200,s,-200,,,,,,,,,,,,,,,,,0,0,0,0,24,2,98,2,,,,,,,,,,,,,,,,,,,,,,,,,,,,,s,1,0.333986997604,None,0,4.0,diamondmagenta.gif,go,,,,,,,,,,,,,,,,,,,,,,,,0,0.513803005219,0.00106811523438,0.333986997604,1,s,568.990804195,,,,,,,,,,,,,,,,,,,,,,,,,,,,,,,,2015_Jul_08_1245,59.9538300345,LearningTask,1,52,
-200,q,200,,,,,,,,,,,,,,,,,0,0,0,0,24,3,99,1,,,,,,,,,,,,,,,,,,,,,,,,,,,,,q,1,0.334157943726,None,0,4.0,diamondmagenta.gif,go,,,,,,,,,,,,,,,,,,,,,,,,0,0.514162063599,0.00105690956116,0.334157943726,1,q,571.994281054,,,,,,,,,,,,,,,,,,,,,,,,,,,,,,,,2015_Jul_08_1245,59.9538300345,LearningTask,1,52,
,,,,,,,,,,,,,,,,,,,0,0,0,0,,,,,,,,,,,,,,,,,,,,,,,,,,,,,,,,,,,,,,,,,,,,,,,,,,,,,,,,,,,,,,,,,,,,,,,,,,,,,,9,10.1819519997,,,,,,,,,,,,,,,,,,,,,,,2015_Jul_08_1245,59.9538300345,LearningTask,1,52,
200,s,-200,,,,,,,,,,,,,,,,,1,0,1,0,0,0,0,2,,,,,,,,,,,,,,,,,,,,,,,,,,,,,s,1,0.383908033371,None,0,2.0,squareyellow.gif,go,,,,,,,,,,,,,,,,,,,,,,,,1.75,0.50944185257,0.000952005386353,0.383908033371,1,s,585.659960032,,,,,,,,,,,,,,,,,,,,,,,,,,,,,,,,2015_Jul_08_1245,59.9538300345,LearningTask,1,52,
200,s,-200,,,,,,,,,,,,,,,,,1,0,1,0,0,1,1,2,,,,,,,,,,,,,,,,,,,,,,,,,,,,,s,1,0.350647926331,None,0,2.0,crosscyan.gif,stop,,,,,,,,,,,,,,,,,,,,,,,,1.96,0.513646125793,0.000897169113159,0.350647926331,1,s,588.662900209,,,,,,,,,,,,,,,,,,,,,,,,,,,,,,,,2015_Jul_08_1245,59.9538300345,LearningTask,1,52,
-200,a,-200,,,,,,,,,,,,,,,,,1,0,1,0,0,2,2,3,,,,,,,,,,,,,,,,,,,,,,,,,,,,,a,1,0.367702007294,None,0,2.0,crosscyan.gif,stop,,,,,,,,,,,,,,,,,,,,,,,,2.2,0.513601064682,0.000954151153564,0.367702007294,1,a,591.666120052,,,,,,,,,,,,,,,,,,,,,,,,,,,,,,,,2015_Jul_08_1245,59.9538300345,LearningTask,1,52,
200,w,200,,,,,,,,,,,,,,,,,1,0,1,0,0,3,3,0,,,,,,,,,,,,,,,,,,,,,,,,,,,,,w,1,0.31748008728,None,0,0.5,trianglewhite.gif,stop,,,,,,,,,,,,,,,,,,,,,,,,0.49,0.514256000519,0.000895023345947,0.31748008728,1,w,594.669594049,,,,,,,,,,,,,,,,,,,,,,,,,,,,,,,,2015_Jul_08_1245,59.9538300345,LearningTask,1,52,
-200,q,200,,,,,,,,,,,,,,,,,1,0,1,0,1,0,4,1,,,,,,,,,,,,,,,,,,,,,,,,,,,,,q,1,0.284142971039,None,0,2.0,squareyellow.gif,go,,,,,,,,,,,,,,,,,,,,,,,,1.77,0.514512062073,0.000895023345947,0.284142971039,1,q,597.673119068,,,,,,,,,,,,,,,,,,,,,,,,,,,,,,,,2015_Jul_08_1245,59.9538300345,LearningTask,1,52,
200,w,200,,,,,,,,,,,,,,,,,1,0,1,0,1,1,5,0,,,,,,,,,,,,,,,,,,,,,,,,,,,,,w,1,0.367760181427,None,0,1.0,hexagonorange.gif,stop,,,,,,,,,,,,,,,,,,,,,,,,0,0.513879060745,0.000899076461792,0.367760181427,1,w,600.676275015,,,,,,,,,,,,,,,,,,,,,,,,,,,,,,,,2015_Jul_08_1245,59.9538300345,LearningTask,1,52,
-200,q,200,,,,,,,,,,,,,,,,,1,0,1,0,1,2,6,1,,,,,,,,,,,,,,,,,,,,,,,,,,,,,q,1,0.384095907211,None,0,4.0,diamondmagenta.gif,go,,,,,,,,,,,,,,,,,,,,,,,,0,0.514360189438,0.000890016555786,0.384095907211,1,q,603.680255175,,,,,,,,,,,,,,,,,,,,,,,,,,,,,,,,2015_Jul_08_1245,59.9538300345,LearningTask,1,52,
-200,q,200,,,,,,,,,,,,,,,,,1,0,1,0,1,3,7,1,,,,,,,,,,,,,,,,,,,,,,,,,,,,,q,1,0.36750793457,None,0,2.0,crosscyan.gif,stop,,,,,,,,,,,,,,,,,,,,,,,,0,0.513798952103,0.000908851623535,0.36750793457,1,q,606.683474064,,,,,,,,,,,,,,,,,,,,,,,,,,,,,,,,2015_Jul_08_1245,59.9538300345,LearningTask,1,52,
-200,q,200,,,,,,,,,,,,,,,,,1,0,1,0,2,0,8,1,,,,,,,,,,,,,,,,,,,,,,,,,,,,,q,1,0.317196846008,None,0,2.0,crosscyan.gif,stop,,,,,,,,,,,,,,,,,,,,,,,,1.8,0.514153957367,0.000996112823486,0.317196846008,1,q,609.686505079,,,,,,,,,,,,,,,,,,,,,,,,,,,,,,,,2015_Jul_08_1245,59.9538300345,LearningTask,1,52,
200,w,200,,,,,,,,,,,,,,,,,1,0,1,0,2,1,9,0,,,,,,,,,,,,,,,,,,,,,,,,,,,,,w,1,0.284045934677,None,0,0.5,trianglewhite.gif,stop,,,,,,,,,,,,,,,,,,,,,,,,0,0.514451026917,0.000939846038818,0.284045934677,1,w,612.690080166,,,,,,,,,,,,,,,,,,,,,,,,,,,,,,,,2015_Jul_08_1245,59.9538300345,LearningTask,1,52,
-200,a,-200,,,,,,,,,,,,,,,,,1,0,1,0,2,2,10,3,,,,,,,,,,,,,,,,,,,,,,,,,,,,,a,1,0.368422985077,None,0,4.0,invertedtrianglegray.gif,stop,,,,,,,,,,,,,,,,,,,,,,,,4.19,0.513872861862,0.000898838043213,0.368422985077,1,a,615.693239212,,,,,,,,,,,,,,,,,,,,,,,,,,,,,,,,2015_Jul_08_1245,59.9538300345,LearningTask,1,52,
-200,q,200,,,,,,,,,,,,,,,,,1,0,1,0,2,3,11,1,,,,,,,,,,,,,,,,,,,,,,,,,,,,,q,1,0.350866794586,None,0,0.5,linegreen.gif,go,,,,,,,,,,,,,,,,,,,,,,,,0,0.514225959778,0.00091290473938,0.350866794586,1,q,618.696331024,,,,,,,,,,,,,,,,,,,,,,,,,,,,,,,,2015_Jul_08_1245,59.9538300345,LearningTask,1,52,
-200,q,200,,,,,,,,,,,,,,,,,1,0,1,0,3,0,12,1,,,,,,,,,,,,,,,,,,,,,,,,,,,,,q,1,0.384263038635,None,0,4.0,diamondmagenta.gif,go,,,,,,,,,,,,,,,,,,,,,,,,3.99,0.514430046082,0.00101900100708,0.384263038635,1,q,621.700138092,,,,,,,,,,,,,,,,,,,,,,,,,,,,,,,,2015_Jul_08_1245,59.9538300345,LearningTask,1,52,
200,s,-200,,,,,,,,,,,,,,,,,1,0,1,0,3,1,13,2,,,,,,,,,,,,,,,,,,,,,,,,,,,,,s,1,0.367161035538,None,0,1.0,circleblue.gif,go,,,,,,,,,,,,,,,,,,,,,,,,0.82,0.514204978943,0.000895023345947,0.367161035538,1,s,624.703366041,,,,,,,,,,,,,,,,,,,,,,,,,,,,,,,,2015_Jul_08_1245,59.9538300345,LearningTask,1,52,
-200,a,-200,,,,,,,,,,,,,,,,,1,0,1,0,3,2,14,3,,,,,,,,,,,,,,,,,,,,,,,,,,,,,a,1,0.334906101227,None,0,4.0,diamondmagenta.gif,go,,,,,,,,,,,,,,,,,,,,,,,,4.14,0.513934850693,0.000962972640991,0.334906101227,1,a,627.706676006,,,,,,,,,,,,,,,,,,,,,,,,,,,,,,,,2015_Jul_08_1245,59.9538300345,LearningTask,1,52,
-200,q,200,,,,,,,,,,,,,,,,,1,0,1,0,3,3,15,1,,,,,,,,,,,,,,,,,,,,,,,,,,,,,q,1,0.350803852081,None,0,1.0,circleblue.gif,go,,,,,,,,,,,,,,,,,,,,,,,,1.15,0.514003038406,0.00094199180603,0.350803852081,1,q,630.710045099,,,,,,,,,,,,,,,,,,,,,,,,,,,,,,,,2015_Jul_08_1245,59.9538300345,LearningTask,1,52,
200,w,200,,,,,,,,,,,,,,,,,1,0,1,0,4,0,16,0,,,,,,,,,,,,,,,,,,,,,,,,,,,,,w,1,0.334414958954,None,0,4.0,invertedtrianglegray.gif,stop,,,,,,,,,,,,,,,,,,,,,,,,3.86,0.514415979385,0.000892877578735,0.334414958954,1,w,633.713365078,,,,,,,,,,,,,,,,,,,,,,,,,,,,,,,,2015_Jul_08_1245,59.9538300345,LearningTask,1,52,
-200,q,200,,,,,,,,,,,,,,,,,1,0,1,0,4,1,17,1,,,,,,,,,,,,,,,,,,,,,,,,,,,,,q,1,0.300536155701,None,0,2.0,squareyellow.gif,go,,,,,,,,,,,,,,,,,,,,,,,,2.18,0.514372825623,0.000925779342651,0.300536155701,1,q,636.717306137,,,,,,,,,,,,,,,,,,,,,,,,,,,,,,,,2015_Jul_08_1245,59.9538300345,LearningTask,1,52,
200,w,200,,,,,,,,,,,,,,,,,1,0,1,0,4,2,18,0,,,,,,,,,,,,,,,,,,,,,,,,,,,,,w,1,0.334144115448,None,0,1.0,circleblue.gif,go,,,,,,,,,,,,,,,,,,,,,,,,0.86,0.513781070709,0.000898122787476,0.334144115448,1,w,639.720079184,,,,,,,,,,,,,,,,,,,,,,,,,,,,,,,,2015_Jul_08_1245,59.9538300345,LearningTask,1,52,
-200,a,-200,,,,,,,,,,,,,,,,,1,0,1,0,4,3,19,3,,,,,,,,,,,,,,,,,,,,,,,,,,,,,a,1,0.26749587059,None,0,2.0,crosscyan.gif,stop,,,,,,,,,,,,,,,,,,,,,,,,0,0.514735937119,0.000885963439941,0.333651065826,0,q,642.723509073,1.75,0.515611171722,0.000975131988525,0.26749587059,1,a,645.727514029,,,,,,,,,,,,,,,,,,,,,,,,,2015_Jul_08_1245,59.9538300345,LearningTask,1,52,
200,s,-200,,,,,,,,,,,,,,,,,1,0,1,0,5,0,20,2,,,,,,,,,,,,,,,,,,,,,,,,,,,,,s,1,0.45113992691,None,0,0.5,linegreen.gif,go,,,,,,,,,,,,,,,,,,,,,,,,0.6,0.513059139252,0.000884056091309,0.45113992691,1,s,648.730223179,,,,,,,,,,,,,,,,,,,,,,,,,,,,,,,,2015_Jul_08_1245,59.9538300345,LearningTask,1,52,
-200,a,-200,,,,,,,,,,,,,,,,,1,0,1,0,5,1,21,3,,,,,,,,,,,,,,,,,,,,,,,,,,,,,a,1,0.417515039444,None,0,2.0,crosscyan.gif,stop,,,,,,,,,,,,,,,,,,,,,,,,0,0.514370918274,0.000877857208252,0.417515039444,1,a,651.733978987,,,,,,,,,,,,,,,,,,,,,,,,,,,,,,,,2015_Jul_08_1245,59.9538300345,LearningTask,1,52,
200,s,-200,,,,,,,,,,,,,,,,,1,0,1,0,5,2,22,2,,,,,,,,,,,,,,,,,,,,,,,,,,,,,s,1,0.350702047348,None,0,1.0,hexagonorange.gif,stop,,,,,,,,,,,,,,,,,,,,,,,,1.23,0.514473199844,0.000883102416992,0.350702047348,1,s,654.737263203,,,,,,,,,,,,,,,,,,,,,,,,,,,,,,,,2015_Jul_08_1245,59.9538300345,LearningTask,1,52,
-200,q,200,,,,,,,,,,,,,,,,,1,0,1,0,5,3,23,1,,,,,,,,,,,,,,,,,,,,,,,,,,,,,q,1,0.350433111191,None,0,2.0,crosscyan.gif,stop,,,,,,,,,,,,,,,,,,,,,,,,1.79,0.514371871948,0.000880002975464,0.350433111191,1,q,657.740330219,,,,,,,,,,,,,,,,,,,,,,,,,,,,,,,,2015_Jul_08_1245,59.9538300345,LearningTask,1,52,
-200,a,-200,,,,,,,,,,,,,,,,,1,0,1,0,6,0,24,3,,,,,,,,,,,,,,,,,,,,,,,,,,,,,a,1,0.367233037949,None,0,2.0,squareyellow.gif,go,,,,,,,,,,,,,,,,,,,,,,,,2.21,0.514443159103,0.000956058502197,0.367233037949,1,a,660.743876219,,,,,,,,,,,,,,,,,,,,,,,,,,,,,,,,2015_Jul_08_1245,59.9538300345,LearningTask,1,52,
-200,q,200,,,,,,,,,,,,,,,,,1,0,1,0,6,1,25,1,,,,,,,,,,,,,,,,,,,,,,,,,,,,,q,1,0.417495965958,None,0,0.5,trianglewhite.gif,stop,,,,,,,,,,,,,,,,,,,,,,,,0.41,0.514178037643,0.000895977020264,0.417495965958,1,q,663.746872187,,,,,,,,,,,,,,,,,,,,,,,,,,,,,,,,2015_Jul_08_1245,59.9538300345,LearningTask,1,52,
-200,a,-200,,,,,,,,,,,,,,,,,1,0,1,0,6,2,26,3,,,,,,,,,,,,,,,,,,,,,,,,,,,,,a,1,0.351058006287,None,0,0.5,linegreen.gif,go,,,,,,,,,,,,,,,,,,,,,,,,0.4,0.514673948288,0.000878095626831,0.351058006287,1,a,666.750316143,,,,,,,,,,,,,,,,,,,,,,,,,,,,,,,,2015_Jul_08_1245,59.9538300345,LearningTask,1,52,
200,w,200,,,,,,,,,,,,,,,,,1,0,1,0,6,3,27,0,,,,,,,,,,,,,,,,,,,,,,,,,,,,,w,1,0.317466020584,None,0,2.0,squareyellow.gif,go,,,,,,,,,,,,,,,,,,,,,,,,2.2,0.514414072037,0.0011510848999,0.317466020584,1,w,669.753945112,,,,,,,,,,,,,,,,,,,,,,,,,,,,,,,,2015_Jul_08_1245,59.9538300345,LearningTask,1,52,
-200,a,-200,,,,,,,,,,,,,,,,,1,0,1,0,7,0,28,3,,,,,,,,,,,,,,,,,,,,,,,,,,,,,a,1,0.400417089462,None,0,0.5,linegreen.gif,go,,,,,,,,,,,,,,,,,,,,,,,,0,0.514662981033,0.00088095664978,0.400417089462,1,a,672.757280111,,,,,,,,,,,,,,,,,,,,,,,,,,,,,,,,2015_Jul_08_1245,59.9538300345,LearningTask,1,52,
200,s,-200,,,,,,,,,,,,,,,,,1,0,1,0,7,1,29,2,,,,,,,,,,,,,,,,,,,,,,,,,,,,,s,1,0.367560148239,None,0,1.0,circleblue.gif,go,,,,,,,,,,,,,,,,,,,,,,,,0,0.514420032501,0.000932931900024,0.367560148239,1,s,675.760663033,,,,,,,,,,,,,,,,,,,,,,,,,,,,,,,,2015_Jul_08_1245,59.9538300345,LearningTask,1,52,
200,w,200,,,,,,,,,,,,,,,,,1,0,1,0,7,2,30,0,,,,,,,,,,,,,,,,,,,,,,,,,,,,,w,1,0.351612091064,None,0,2.0,squareyellow.gif,go,,,,,,,,,,,,,,,,,,,,,,,,2.17,0.513818979263,0.000910043716431,0.351612091064,1,w,678.764230013,,,,,,,,,,,,,,,,,,,,,,,,,,,,,,,,2015_Jul_08_1245,59.9538300345,LearningTask,1,52,
-200,q,200,,,,,,,,,,,,,,,,,1,0,1,0,7,3,31,1,,,,,,,,,,,,,,,,,,,,,,,,,,,,,q,1,0.367446899414,None,0,4.0,invertedtrianglegray.gif,stop,,,,,,,,,,,,,,,,,,,,,,,,3.77,0.514115095139,0.000894069671631,0.367446899414,1,q,681.76791501,,,,,,,,,,,,,,,,,,,,,,,,,,,,,,,,2015_Jul_08_1245,59.9538300345,LearningTask,1,52,
-200,a,-200,,,,,,,,,,,,,,,,,1,0,1,0,8,0,32,3,,,,,,,,,,,,,,,,,,,,,,,,,,,,,a,1,0.33439207077,None,0,4.0,diamondmagenta.gif,go,,,,,,,,,,,,,,,,,,,,,,,,3.75,0.513482093811,0.000887155532837,0.33439207077,1,a,684.770831108,,,,,,,,,,,,,,,,,,,,,,,,,,,,,,,,2015_Jul_08_1245,59.9538300345,LearningTask,1,52,
200,s,-200,,,,,,,,,,,,,,,,,1,0,1,0,8,1,33,2,,,,,,,,,,,,,,,,,,,,,,,,,,,,,s,1,0.367456912994,None,0,0.5,trianglewhite.gif,stop,,,,,,,,,,,,,,,,,,,,,,,,0,0.514364004135,0.00088906288147,0.367456912994,1,s,687.774493217,,,,,,,,,,,,,,,,,,,,,,,,,,,,,,,,2015_Jul_08_1245,59.9538300345,LearningTask,1,52,
200,s,-200,,,,,,,,,,,,,,,,,1,0,1,0,8,2,34,2,,,,,,,,,,,,,,,,,,,,,,,,,,,,,s,1,0.350869894028,None,0,0.5,trianglewhite.gif,stop,,,,,,,,,,,,,,,,,,,,,,,,0,0.514163970947,0.000957012176514,0.350869894028,1,s,690.777647018,,,,,,,,,,,,,,,,,,,,,,,,,,,,,,,,2015_Jul_08_1245,59.9538300345,LearningTask,1,52,
-200,a,-200,,,,,,,,,,,,,,,,,1,0,1,0,8,3,35,3,,,,,,,,,,,,,,,,,,,,,,,,,,,,,a,1,0.367522001266,None,0,4.0,diamondmagenta.gif,go,,,,,,,,,,,,,,,,,,,,,,,,0,0.514157056808,0.000880002975464,0.367522001266,1,a,693.78154707,,,,,,,,,,,,,,,,,,,,,,,,,,,,,,,,2015_Jul_08_1245,59.9538300345,LearningTask,1,52,
200,w,200,,,,,,,,,,,,,,,,,1,0,1,0,9,0,36,0,,,,,,,,,,,,,,,,,,,,,,,,,,,,,w,1,0.300422906876,None,0,1.0,circleblue.gif,go,,,,,,,,,,,,,,,,,,,,,,,,1.15,0.513818025589,0.000895023345947,0.300422906876,1,w,696.784464121,,,,,,,,,,,,,,,,,,,,,,,,,,,,,,,,2015_Jul_08_1245,59.9538300345,LearningTask,1,52,
200,s,-200,,,,,,,,,,,,,,,,,1,0,1,0,9,1,37,2,,,,,,,,,,,,,,,,,,,,,,,,,,,,,s,1,0.334274053574,None,0,1.0,hexagonorange.gif,stop,,,,,,,,,,,,,,,,,,,,,,,,1.06,0.513951063156,0.000960111618042,0.334274053574,1,s,699.787519217,,,,,,,,,,,,,,,,,,,,,,,,,,,,,,,,2015_Jul_08_1245,59.9538300345,LearningTask,1,52,
-200,a,-200,,,,,,,,,,,,,,,,,1,0,1,0,9,2,38,3,,,,,,,,,,,,,,,,,,,,,,,,,,,,,a,1,0.350991010666,None,0,4.0,invertedtrianglegray.gif,stop,,,,,,,,,,,,,,,,,,,,,,,,4.02,0.514686107635,0.000900983810425,0.350991010666,1,a,702.791223049,,,,,,,,,,,,,,,,,,,,,,,,,,,,,,,,2015_Jul_08_1245,59.9538300345,LearningTask,1,52,
200,w,200,,,,,,,,,,,,,,,,,1,0,1,0,9,3,39,0,,,,,,,,,,,,,,,,,,,,,,,,,,,,,w,1,0.317706108093,None,0,4.0,diamondmagenta.gif,go,,,,,,,,,,,,,,,,,,,,,,,,0,0.514361143112,0.000922203063965,0.317706108093,1,w,705.794376135,,,,,,,,,,,,,,,,,,,,,,,,,,,,,,,,2015_Jul_08_1245,59.9538300345,LearningTask,1,52,
200,s,-200,,,,,,,,,,,,,,,,,1,0,1,0,10,0,40,2,,,,,,,,,,,,,,,,,,,,,,,,,,,,,s,1,0.384415864944,None,0,0.5,trianglewhite.gif,stop,,,,,,,,,,,,,,,,,,,,,,,,0,0.514503002167,0.000948905944824,0.384415864944,1,s,708.798158169,,,,,,,,,,,,,,,,,,,,,,,,,,,,,,,,2015_Jul_08_1245,59.9538300345,LearningTask,1,52,
200,w,200,,,,,,,,,,,,,,,,,1,0,1,0,10,1,41,0,,,,,,,,,,,,,,,,,,,,,,,,,,,,,w,1,0.333829879761,None,0,2.0,squareyellow.gif,go,,,,,,,,,,,,,,,,,,,,,,,,2.14,0.514182090759,0.000874996185303,0.333829879761,1,w,711.801297188,,,,,,,,,,,,,,,,,,,,,,,,,,,,,,,,2015_Jul_08_1245,59.9538300345,LearningTask,1,52,
200,s,-200,,,,,,,,,,,,,,,,,1,0,1,0,10,2,42,2,,,,,,,,,,,,,,,,,,,,,,,,,,,,,s,1,0.334273099899,None,0,1.0,hexagonorange.gif,stop,,,,,,,,,,,,,,,,,,,,,,,,1.0,0.514272212982,0.000957012176514,0.334273099899,1,s,714.804679155,,,,,,,,,,,,,,,,,,,,,,,,,,,,,,,,2015_Jul_08_1245,59.9538300345,LearningTask,1,52,
200,w,200,,,,,,,,,,,,,,,,,1,0,1,0,10,3,43,0,,,,,,,,,,,,,,,,,,,,,,,,,,,,,w,1,0.367529153824,None,0,1.0,hexagonorange.gif,stop,,,,,,,,,,,,,,,,,,,,,,,,0.99,0.514008045197,0.000914096832275,0.367529153824,1,w,717.808248043,,,,,,,,,,,,,,,,,,,,,,,,,,,,,,,,2015_Jul_08_1245,59.9538300345,LearningTask,1,52,
200,w,200,,,,,,,,,,,,,,,,,1,0,1,0,11,0,44,0,,,,,,,,,,,,,,,,,,,,,,,,,,,,,w,1,0.383845806122,None,0,2.0,crosscyan.gif,stop,,,,,,,,,,,,,,,,,,,,,,,,2.11,0.514462947845,0.000875949859619,0.383845806122,1,w,720.81111002,,,,,,,,,,,,,,,,,,,,,,,,,,,,,,,,2015_Jul_08_1245,59.9538300345,LearningTask,1,52,
-200,q,200,,,,,,,,,,,,,,,,,1,0,1,0,11,1,45,1,,,,,,,,,,,,,,,,,,,,,,,,,,,,,q,1,0.384799003601,None,0,1.0,hexagonorange.gif,stop,,,,,,,,,,,,,,,,,,,,,,,,0,0.514132022858,0.000926971435547,0.384799003601,1,q,723.814601183,,,,,,,,,,,,,,,,,,,,,,,,,,,,,,,,2015_Jul_08_1245,59.9538300345,LearningTask,1,52,
200,s,-200,,,,,,,,,,,,,,,,,1,0,1,0,11,2,46,2,,,,,,,,,,,,,,,,,,,,,,,,,,,,,s,1,0.367670059204,None,0,0.5,trianglewhite.gif,stop,,,,,,,,,,,,,,,,,,,,,,,,0.29,0.514352083206,0.00100302696228,0.367670059204,1,s,726.81817317,,,,,,,,,,,,,,,,,,,,,,,,,,,,,,,,2015_Jul_08_1245,59.9538300345,LearningTask,1,52,
200,w,200,,,,,,,,,,,,,,,,,1,0,1,0,11,3,47,0,,,,,,,,,,,,,,,,,,,,,,,,,,,,,w,1,0.284055948257,None,0,0.5,trianglewhite.gif,stop,,,,,,,,,,,,,,,,,,,,,,,,0.45,0.514112949371,0.000879049301147,0.284055948257,1,w,729.821411133,,,,,,,,,,,,,,,,,,,,,,,,,,,,,,,,2015_Jul_08_1245,59.9538300345,LearningTask,1,52,
-200,a,-200,,,,,,,,,,,,,,,,,1,0,1,0,12,0,48,3,,,,,,,,,,,,,,,,,,,,,,,,,,,,,a,1,0.300515890121,None,0,2.0,squareyellow.gif,go,,,,,,,,,,,,,,,,,,,,,,,,2.19,0.514382839203,0.000871896743774,0.300515890121,1,a,732.82547307,,,,,,,,,,,,,,,,,,,,,,,,,,,,,,,,2015_Jul_08_1245,59.9538300345,LearningTask,1,52,
200,w,200,,,,,,,,,,,,,,,,,1,0,1,0,12,1,49,0,,,,,,,,,,,,,,,,,,,,,,,,,,,,,w,1,0.400291919708,None,0,4.0,diamondmagenta.gif,go,,,,,,,,,,,,,,,,,,,,,,,,4.13,0.513694047928,0.000890016555786,0.400291919708,1,w,735.828507185,,,,,,,,,,,,,,,,,,,,,,,,,,,,,,,,2015_Jul_08_1245,59.9538300345,LearningTask,1,52,
-200,a,-200,,,,,,,,,,,,,,,,,1,0,1,0,12,2,50,3,,,,,,,,,,,,,,,,,,,,,,,,,,,,,a,1,0.400702953339,None,0,1.0,circleblue.gif,go,,,,,,,,,,,,,,,,,,,,,,,,1.2,0.514014005661,0.000887155532837,0.400702953339,1,a,738.831854105,,,,,,,,,,,,,,,,,,,,,,,,,,,,,,,,2015_Jul_08_1245,59.9538300345,LearningTask,1,52,
-200,a,-200,,,,,,,,,,,,,,,,,1,0,1,0,12,3,51,3,,,,,,,,,,,,,,,,,,,,,,,,,,,,,a,1,0.367941856384,None,0,0.5,trianglewhite.gif,stop,,,,,,,,,,,,,,,,,,,,,,,,0.32,0.513849973679,0.00096583366394,0.367941856384,1,a,741.835233212,,,,,,,,,,,,,,,,,,,,,,,,,,,,,,,,2015_Jul_08_1245,59.9538300345,LearningTask,1,52,
200,w,200,,,,,,,,,,,,,,,,,1,0,1,0,13,0,52,0,,,,,,,,,,,,,,,,,,,,,,,,,,,,,w,1,0.334239006042,None,0,0.5,linegreen.gif,go,,,,,,,,,,,,,,,,,,,,,,,,0.29,0.513827085495,0.00102400779724,0.334239006042,1,w,744.838335037,,,,,,,,,,,,,,,,,,,,,,,,,,,,,,,,2015_Jul_08_1245,59.9538300345,LearningTask,1,52,
-200,a,-200,,,,,,,,,,,,,,,,,1,0,1,0,13,1,53,3,,,,,,,,,,,,,,,,,,,,,,,,,,,,,a,1,0.333938837051,None,0,0.5,linegreen.gif,go,,,,,,,,,,,,,,,,,,,,,,,,0.35,0.51457118988,0.00088095664978,0.333938837051,1,a,747.84171319,,,,,,,,,,,,,,,,,,,,,,,,,,,,,,,,2015_Jul_08_1245,59.9538300345,LearningTask,1,52,
200,s,-200,,,,,,,,,,,,,,,,,1,0,1,0,13,2,54,2,,,,,,,,,,,,,,,,,,,,,,,,,,,,,s,1,0.334078073502,None,0,0.5,trianglewhite.gif,stop,,,,,,,,,,,,,,,,,,,,,,,,0.46,0.514425992966,0.000876903533936,0.334078073502,1,s,750.845127106,,,,,,,,,,,,,,,,,,,,,,,,,,,,,,,,2015_Jul_08_1245,59.9538300345,LearningTask,1,52,
-200,q,200,,,,,,,,,,,,,,,,,1,0,1,0,13,3,55,1,,,,,,,,,,,,,,,,,,,,,,,,,,,,,q,1,0.317787885666,None,0,1.0,circleblue.gif,go,,,,,,,,,,,,,,,,,,,,,,,,1.21,0.514219045639,0.000935077667236,0.317787885666,1,q,753.848301172,,,,,,,,,,,,,,,,,,,,,,,,,,,,,,,,2015_Jul_08_1245,59.9538300345,LearningTask,1,52,
-200,q,200,,,,,,,,,,,,,,,,,1,0,1,0,14,0,56,1,,,,,,,,,,,,,,,,,,,,,,,,,,,,,q,1,0.367523908615,None,0,2.0,crosscyan.gif,stop,,,,,,,,,,,,,,,,,,,,,,,,2.22,0.514670133591,0.00105500221252,0.367523908615,1,q,756.852083206,,,,,,,,,,,,,,,,,,,,,,,,,,,,,,,,2015_Jul_08_1245,59.9538300345,LearningTask,1,52,
-200,q,200,,,,,,,,,,,,,,,,,1,0,1,0,14,1,57,1,,,,,,,,,,,,,,,,,,,,,,,,,,,,,q,1,0.367121934891,None,0,4.0,invertedtrianglegray.gif,stop,,,,,,,,,,,,,,,,,,,,,,,,3.99,0.514312028885,0.000876903533936,0.367121934891,1,q,759.855377197,,,,,,,,,,,,,,,,,,,,,,,,,,,,,,,,2015_Jul_08_1245,59.9538300345,LearningTask,1,52,
-200,a,-200,,,,,,,,,,,,,,,,,1,0,1,0,14,2,58,3,,,,,,,,,,,,,,,,,,,,,,,,,,,,,a,1,0.333925008774,None,0,2.0,squareyellow.gif,go,,,,,,,,,,,,,,,,,,,,,,,,2.07,0.514256954193,0.00093412399292,0.333925008774,1,a,762.858855009,,,,,,,,,,,,,,,,,,,,,,,,,,,,,,,,2015_Jul_08_1245,59.9538300345,LearningTask,1,52,
200,s,-200,,,,,,,,,,,,,,,,,1,0,1,0,14,3,59,2,,,,,,,,,,,,,,,,,,,,,,,,,,,,,s,1,0.351508140564,None,0,0.5,linegreen.gif,go,,,,,,,,,,,,,,,,,,,,,,,,0.51,0.513656139374,0.000884056091309,0.351508140564,1,s,765.8621521,,,,,,,,,,,,,,,,,,,,,,,,,,,,,,,,2015_Jul_08_1245,59.9538300345,LearningTask,1,52,
200,w,200,,,,,,,,,,,,,,,,,1,0,1,0,15,0,60,0,,,,,,,,,,,,,,,,,,,,,,,,,,,,,w,1,0.300904035568,None,0,0.5,linegreen.gif,go,,,,,,,,,,,,,,,,,,,,,,,,0,0.514195919037,0.000873804092407,0.300904035568,1,w,768.865396023,,,,,,,,,,,,,,,,,,,,,,,,,,,,,,,,2015_Jul_08_1245,59.9538300345,LearningTask,1,52,
-200,a,-200,,,,,,,,,,,,,,,,,1,0,1,0,15,1,61,3,,,,,,,,,,,,,,,,,,,,,,,,,,,,,a,1,0.351238965988,None,0,1.0,hexagonorange.gif,stop,,,,,,,,,,,,,,,,,,,,,,,,0.91,0.514052152634,0.000886201858521,0.351238965988,1,a,771.868900061,,,,,,,,,,,,,,,,,,,,,,,,,,,,,,,,2015_Jul_08_1245,59.9538300345,LearningTask,1,52,
-200,q,200,,,,,,,,,,,,,,,,,1,0,1,0,15,2,62,1,,,,,,,,,,,,,,,,,,,,,,,,,,,,,q,1,0.250713825226,None,0,1.0,circleblue.gif,go,,,,,,,,,,,,,,,,,,,,,,,,0,0.514293909073,0.000905990600586,0.384011983871,0,w,774.872060061,1.19,0.515697002411,0.000945091247559,0.250713825226,1,q,777.875537157,,,,,,,,,,,,,,,,,,,,,,,,,2015_Jul_08_1245,59.9538300345,LearningTask,1,52,
-200,q,200,,,,,,,,,,,,,,,,,1,0,1,0,15,3,63,1,,,,,,,,,,,,,,,,,,,,,,,,,,,,,q,1,0.334172010422,None,0,1.0,hexagonorange.gif,stop,,,,,,,,,,,,,,,,,,,,,,,,0,0.514053106308,0.000880002975464,0.334172010422,1,q,780.879359007,,,,,,,,,,,,,,,,,,,,,,,,,,,,,,,,2015_Jul_08_1245,59.9538300345,LearningTask,1,52,
200,w,200,,,,,,,,,,,,,,,,,1,0,1,0,16,0,64,0,,,,,,,,,,,,,,,,,,,,,,,,,,,,,w,1,0.38364315033,None,0,0.5,linegreen.gif,go,,,,,,,,,,,,,,,,,,,,,,,,0.64,0.514148950577,0.00088095664978,0.38364315033,1,w,783.882508039,,,,,,,,,,,,,,,,,,,,,,,,,,,,,,,,2015_Jul_08_1245,59.9538300345,LearningTask,1,52,
200,s,-200,,,,,,,,,,,,,,,,,1,0,1,0,16,1,65,2,,,,,,,,,,,,,,,,,,,,,,,,,,,,,s,1,0.367347955704,None,0,0.5,trianglewhite.gif,stop,,,,,,,,,,,,,,,,,,,,,,,,0.53,0.51419210434,0.000884056091309,0.367347955704,1,s,786.885821104,,,,,,,,,,,,,,,,,,,,,,,,,,,,,,,,2015_Jul_08_1245,59.9538300345,LearningTask,1,52,
-200,q,200,,,,,,,,,,,,,,,,,1,0,1,0,16,2,66,1,,,,,,,,,,,,,,,,,,,,,,,,,,,,,q,1,0.400907039642,None,0,0.5,linegreen.gif,go,,,,,,,,,,,,,,,,,,,,,,,,0,0.514120817184,0.00088095664978,0.400907039642,1,q,789.88916111,,,,,,,,,,,,,,,,,,,,,,,,,,,,,,,,2015_Jul_08_1245,59.9538300345,LearningTask,1,52,
-200,a,-200,,,,,,,,,,,,,,,,,1,0,1,0,16,3,67,3,,,,,,,,,,,,,,,,,,,,,,,,,,,,,a,1,0.384333848953,None,0,4.0,invertedtrianglegray.gif,stop,,,,,,,,,,,,,,,,,,,,,,,,4.15,0.514439105988,0.00114297866821,0.384333848953,1,a,792.892251015,,,,,,,,,,,,,,,,,,,,,,,,,,,,,,,,2015_Jul_08_1245,59.9538300345,LearningTask,1,52,
200,s,-200,,,,,,,,,,,,,,,,,1,0,1,0,17,0,68,2,,,,,,,,,,,,,,,,,,,,,,,,,,,,,s,1,0.367977142334,None,0,4.0,diamondmagenta.gif,go,,,,,,,,,,,,,,,,,,,,,,,,3.9,0.514402151108,0.000955104827881,0.367977142334,1,s,795.895844221,,,,,,,,,,,,,,,,,,,,,,,,,,,,,,,,2015_Jul_08_1245,59.9538300345,LearningTask,1,52,
200,s,-200,,,,,,,,,,,,,,,,,1,0,1,0,17,1,69,2,,,,,,,,,,,,,,,,,,,,,,,,,,,,,s,1,0.367517948151,None,0,4.0,invertedtrianglegray.gif,stop,,,,,,,,,,,,,,,,,,,,,,,,3.77,0.514227151871,0.000887155532837,0.367517948151,1,s,798.89903307,,,,,,,,,,,,,,,,,,,,,,,,,,,,,,,,2015_Jul_08_1245,59.9538300345,LearningTask,1,52,
-200,a,-200,,,,,,,,,,,,,,,,,1,0,1,0,17,2,70,3,,,,,,,,,,,,,,,,,,,,,,,,,,,,,a,1,0.367193937302,None,0,1.0,hexagonorange.gif,stop,,,,,,,,,,,,,,,,,,,,,,,,1.19,0.514423847198,0.000898838043213,0.367193937302,1,a,801.903039217,,,,,,,,,,,,,,,,,,,,,,,,,,,,,,,,2015_Jul_08_1245,59.9538300345,LearningTask,1,52,
200,s,-200,,,,,,,,,,,,,,,,,1,0,1,0,17,3,71,2,,,,,,,,,,,,,,,,,,,,,,,,,,,,,s,1,0.400922060013,None,0,2.0,squareyellow.gif,go,,,,,,,,,,,,,,,,,,,,,,,,2.15,0.513569116592,0.000910997390747,0.400922060013,1,s,804.906206131,,,,,,,,,,,,,,,,,,,,,,,,,,,,,,,,2015_Jul_08_1245,59.9538300345,LearningTask,1,52,
-200,a,-200,,,,,,,,,,,,,,,,,1,0,1,0,18,0,72,3,,,,,,,,,,,,,,,,,,,,,,,,,,,,,a,1,0.317728042603,None,0,4.0,invertedtrianglegray.gif,stop,,,,,,,,,,,,,,,,,,,,,,,,0,0.513920068741,0.000881910324097,0.317728042603,1,a,807.909276009,,,,,,,,,,,,,,,,,,,,,,,,,,,,,,,,2015_Jul_08_1245,59.9538300345,LearningTask,1,52,
-200,q,200,,,,,,,,,,,,,,,,,1,0,1,0,18,1,73,1,,,,,,,,,,,,,,,,,,,,,,,,,,,,,q,1,0.401064157486,None,0,2.0,crosscyan.gif,stop,,,,,,,,,,,,,,,,,,,,,,,,2.1,0.514281988144,0.000932931900024,0.401064157486,1,q,810.912834167,,,,,,,,,,,,,,,,,,,,,,,,,,,,,,,,2015_Jul_08_1245,59.9538300345,LearningTask,1,52,
-200,a,-200,,,,,,,,,,,,,,,,,1,0,1,0,18,2,74,3,,,,,,,,,,,,,,,,,,,,,,,,,,,,,a,1,0.351475000381,None,0,4.0,invertedtrianglegray.gif,stop,,,,,,,,,,,,,,,,,,,,,,,,4.07,0.513575077057,0.000890016555786,0.351475000381,1,a,813.916380167,,,,,,,,,,,,,,,,,,,,,,,,,,,,,,,,2015_Jul_08_1245,59.9538300345,LearningTask,1,52,
200,w,200,,,,,,,,,,,,,,,,,1,0,1,0,18,3,75,0,,,,,,,,,,,,,,,,,,,,,,,,,,,,,w,1,0.350404024124,None,0,4.0,invertedtrianglegray.gif,stop,,,,,,,,,,,,,,,,,,,,,,,,3.88,0.514293909073,0.000875949859619,0.350404024124,1,w,816.91943717,,,,,,,,,,,,,,,,,,,,,,,,,,,,,,,,2015_Jul_08_1245,59.9538300345,LearningTask,1,52,
-200,a,-200,,,,,,,,,,,,,,,,,1,0,1,0,19,0,76,3,,,,,,,,,,,,,,,,,,,,,,,,,,,,,a,1,0.300688028336,None,0,1.0,circleblue.gif,go,,,,,,,,,,,,,,,,,,,,,,,,1.07,0.514452934265,0.000875949859619,0.300688028336,1,a,819.923325062,,,,,,,,,,,,,,,,,,,,,,,,,,,,,,,,2015_Jul_08_1245,59.9538300345,LearningTask,1,52,
200,w,200,,,,,,,,,,,,,,,,,1,0,1,0,19,1,77,0,,,,,,,,,,,,,,,,,,,,,,,,,,,,,w,1,0.384232997894,None,0,4.0,diamondmagenta.gif,go,,,,,,,,,,,,,,,,,,,,,,,,4.02,0.513622999191,0.000887870788574,0.384232997894,1,w,822.926279068,,,,,,,,,,,,,,,,,,,,,,,,,,,,,,,,2015_Jul_08_1245,59.9538300345,LearningTask,1,52,
200,w,200,,,,,,,,,,,,,,,,,1,0,1,0,19,2,78,0,,,,,,,,,,,,,,,,,,,,,,,,,,,,,w,1,0.36786198616,None,0,4.0,invertedtrianglegray.gif,stop,,,,,,,,,,,,,,,,,,,,,,,,0,0.514213085175,0.000888109207153,0.36786198616,1,w,825.929858208,,,,,,,,,,,,,,,,,,,,,,,,,,,,,,,,2015_Jul_08_1245,59.9538300345,LearningTask,1,52,
-200,a,-200,,,,,,,,,,,,,,,,,1,0,1,0,19,3,79,3,,,,,,,,,,,,,,,,,,,,,,,,,,,,,a,1,0.417162895203,None,0,0.5,trianglewhite.gif,stop,,,,,,,,,,,,,,,,,,,,,,,,0,0.514336109161,0.000899076461792,0.417162895203,1,a,828.933293104,,,,,,,,,,,,,,,,,,,,,,,,,,,,,,,,2015_Jul_08_1245,59.9538300345,LearningTask,1,52,
200,s,-200,,,,,,,,,,,,,,,,,1,0,1,0,20,0,80,2,,,,,,,,,,,,,,,,,,,,,,,,,,,,,s,1,0.384557008743,None,0,1.0,circleblue.gif,go,,,,,,,,,,,,,,,,,,,,,,,,0,0.513706922531,0.000876903533936,0.384557008743,1,s,831.936314106,,,,,,,,,,,,,,,,,,,,,,,,,,,,,,,,2015_Jul_08_1245,59.9538300345,LearningTask,1,52,
-200,q,200,,,,,,,,,,,,,,,,,1,0,1,0,20,1,81,1,,,,,,,,,,,,,,,,,,,,,,,,,,,,,q,1,0.283898115158,None,0,0.5,linegreen.gif,go,,,,,,,,,,,,,,,,,,,,,,,,0,0.514457941055,0.000885963439941,0.283898115158,1,q,834.939706087,,,,,,,,,,,,,,,,,,,,,,,,,,,,,,,,2015_Jul_08_1245,59.9538300345,LearningTask,1,52,
200,s,-200,,,,,,,,,,,,,,,,,1,0,1,0,20,2,82,2,,,,,,,,,,,,,,,,,,,,,,,,,,,,,s,1,0.367348909378,None,0,1.0,hexagonorange.gif,stop,,,,,,,,,,,,,,,,,,,,,,,,0.79,0.514557123184,0.000888109207153,0.367348909378,1,s,837.943651199,,,,,,,,,,,,,,,,,,,,,,,,,,,,,,,,2015_Jul_08_1245,59.9538300345,LearningTask,1,52,
200,s,-200,,,,,,,,,,,,,,,,,1,0,1,0,20,3,83,2,,,,,,,,,,,,,,,,,,,,,,,,,,,,,s,1,0.367280960083,None,0,2.0,squareyellow.gif,go,,,,,,,,,,,,,,,,,,,,,,,,1.96,0.51385307312,0.000977993011475,0.367280960083,1,s,840.946370125,,,,,,,,,,,,,,,,,,,,,,,,,,,,,,,,2015_Jul_08_1245,59.9538300345,LearningTask,1,52,
-200,q,200,,,,,,,,,,,,,,,,,1,0,1,0,21,0,84,1,,,,,,,,,,,,,,,,,,,,,,,,,,,,,q,1,0.383819103241,None,0,0.5,trianglewhite.gif,stop,,,,,,,,,,,,,,,,,,,,,,,,0.72,0.514811038971,0.00123310089111,0.383819103241,1,q,843.95010519,,,,,,,,,,,,,,,,,,,,,,,,,,,,,,,,2015_Jul_08_1245,59.9538300345,LearningTask,1,52,
200,s,-200,,,,,,,,,,,,,,,,,1,0,1,0,21,1,85,2,,,,,,,,,,,,,,,,,,,,,,,,,,,,,s,1,0.334384918213,None,0,2.0,crosscyan.gif,stop,,,,,,,,,,,,,,,,,,,,,,,,0,0.514186859131,0.000874996185303,0.334384918213,1,s,846.953200102,,,,,,,,,,,,,,,,,,,,,,,,,,,,,,,,2015_Jul_08_1245,59.9538300345,LearningTask,1,52,
200,w,200,,,,,,,,,,,,,,,,,1,0,1,0,21,2,86,0,,,,,,,,,,,,,,,,,,,,,,,,,,,,,w,1,0.317162036896,None,0,4.0,invertedtrianglegray.gif,stop,,,,,,,,,,,,,,,,,,,,,,,,4.24,0.51451086998,0.000932931900024,0.317162036896,1,w,849.956676006,,,,,,,,,,,,,,,,,,,,,,,,,,,,,,,,2015_Jul_08_1245,59.9538300345,LearningTask,1,52,
-200,q,200,,,,,,,,,,,,,,,,,1,0,1,0,21,3,87,1,,,,,,,,,,,,,,,,,,,,,,,,,,,,,q,1,0.350791931152,None,0,1.0,circleblue.gif,go,,,,,,,,,,,,,,,,,,,,,,,,1.04,0.513824939728,0.000941038131714,0.350791931152,1,q,852.960005999,,,,,,,,,,,,,,,,,,,,,,,,,,,,,,,,2015_Jul_08_1245,59.9538300345,LearningTask,1,52,
200,w,200,,,,,,,,,,,,,,,,,1,0,1,0,22,0,88,0,,,,,,,,,,,,,,,,,,,,,,,,,,,,,w,1,0.350708961487,None,0,2.0,crosscyan.gif,stop,,,,,,,,,,,,,,,,,,,,,,,,2.17,0.514395952225,0.000879049301147,0.350708961487,1,w,855.963247061,,,,,,,,,,,,,,,,,,,,,,,,,,,,,,,,2015_Jul_08_1245,59.9538300345,LearningTask,1,52,
-200,q,200,,,,,,,,,,,,,,,,,1,0,1,0,22,1,89,1,,,,,,,,,,,,,,,,,,,,,,,,,,,,,q,1,0.36766910553,None,0,1.0,hexagonorange.gif,stop,,,,,,,,,,,,,,,,,,,,,,,,1.21,0.514147043228,0.000905990600586,0.36766910553,1,q,858.966589212,,,,,,,,,,,,,,,,,,,,,,,,,,,,,,,,2015_Jul_08_1245,59.9538300345,LearningTask,1,52,
-200,a,-200,,,,,,,,,,,,,,,,,1,0,1,0,22,2,90,3,,,,,,,,,,,,,,,,,,,,,,,,,,,,,a,1,0.384288787842,None,0,1.0,circleblue.gif,go,,,,,,,,,,,,,,,,,,,,,,,,1.0,0.513967990875,0.000953197479248,0.384288787842,1,a,861.970210075,,,,,,,,,,,,,,,,,,,,,,,,,,,,,,,,2015_Jul_08_1245,59.9538300345,LearningTask,1,52,
-200,a,-200,,,,,,,,,,,,,,,,,1,0,1,0,22,3,91,3,,,,,,,,,,,,,,,,,,,,,,,,,,,,,a,1,0.351072072983,None,0,4.0,invertedtrianglegray.gif,stop,,,,,,,,,,,,,,,,,,,,,,,,3.75,0.51443195343,0.000876903533936,0.351072072983,1,a,864.973919153,,,,,,,,,,,,,,,,,,,,,,,,,,,,,,,,2015_Jul_08_1245,59.9538300345,LearningTask,1,52,
-200,q,200,,,,,,,,,,,,,,,,,1,0,1,0,23,0,92,1,,,,,,,,,,,,,,,,,,,,,,,,,,,,,q,1,0.367766141891,None,0,2.0,crosscyan.gif,stop,,,,,,,,,,,,,,,,,,,,,,,,0,0.513871908188,0.000876903533936,0.367766141891,1,q,867.977229118,,,,,,,,,,,,,,,,,,,,,,,,,,,,,,,,2015_Jul_08_1245,59.9538300345,LearningTask,1,52,
200,w,200,,,,,,,,,,,,,,,,,1,0,1,0,23,1,93,0,,,,,,,,,,,,,,,,,,,,,,,,,,,,,w,1,0.317337036133,None,0,1.0,circleblue.gif,go,,,,,,,,,,,,,,,,,,,,,,,,0,0.513857841492,0.000893831253052,0.317337036133,1,w,870.980148077,,,,,,,,,,,,,,,,,,,,,,,,,,,,,,,,2015_Jul_08_1245,59.9538300345,LearningTask,1,52,
200,s,-200,,,,,,,,,,,,,,,,,1,0,1,0,23,2,94,2,,,,,,,,,,,,,,,,,,,,,,,,,,,,,s,1,0.36727309227,None,0,2.0,crosscyan.gif,stop,,,,,,,,,,,,,,,,,,,,,,,,2.14,0.514750957489,0.000885963439941,0.36727309227,1,s,873.983693123,,,,,,,,,,,,,,,,,,,,,,,,,,,,,,,,2015_Jul_08_1245,59.9538300345,LearningTask,1,52,
200,s,-200,,,,,,,,,,,,,,,,,1,0,1,0,23,3,95,2,,,,,,,,,,,,,,,,,,,,,,,,,,,,,s,1,0.36789393425,None,0,0.5,trianglewhite.gif,stop,,,,,,,,,,,,,,,,,,,,,,,,0.51,0.514169931412,0.000877857208252,0.36789393425,1,s,876.987089157,,,,,,,,,,,,,,,,,,,,,,,,,,,,,,,,2015_Jul_08_1245,59.9538300345,LearningTask,1,52,
200,w,200,,,,,,,,,,,,,,,,,1,0,1,0,24,0,96,0,,,,,,,,,,,,,,,,,,,,,,,,,,,,,w,1,0.367264986038,None,0,0.5,linegreen.gif,go,,,,,,,,,,,,,,,,,,,,,,,,0.64,0.514367103577,0.000884056091309,0.367264986038,1,w,879.990365028,,,,,,,,,,,,,,,,,,,,,,,,,,,,,,,,2015_Jul_08_1245,59.9538300345,LearningTask,1,52,
200,s,-200,,,,,,,,,,,,,,,,,1,0,1,0,24,1,97,2,,,,,,,,,,,,,,,,,,,,,,,,,,,,,s,1,0.367828130722,None,0,1.0,circleblue.gif,go,,,,,,,,,,,,,,,,,,,,,,,,1.05,0.514256000519,0.00102305412292,0.367828130722,1,s,882.994662046,,,,,,,,,,,,,,,,,,,,,,,,,,,,,,,,2015_Jul_08_1245,59.9538300345,LearningTask,1,52,
200,w,200,,,,,,,,,,,,,,,,,1,0,1,0,24,2,98,0,,,,,,,,,,,,,,,,,,,,,,,,,,,,,w,1,0.30064702034,None,0,1.0,hexagonorange.gif,stop,,,,,,,,,,,,,,,,,,,,,,,,1.15,0.513601064682,0.000893115997314,0.30064702034,1,w,885.997445107,,,,,,,,,,,,,,,,,,,,,,,,,,,,,,,,2015_Jul_08_1245,59.9538300345,LearningTask,1,52,
-200,q,200,,,,,,,,,,,,,,,,,1,0,1,0,24,3,99,1,,,,,,,,,,,,,,,,,,,,,,,,,,,,,q,1,0.217612981796,None,0,2.0,squareyellow.gif,go,,,,,,,,,,,,,,,,,,,,,,,,0,0.514009952545,0.000926971435547,0.33405995369,0,a,889.000538111,2.07,0.515589952469,0.000962972640991,0.217612981796,1,q,892.003823996,,,,,,,,,,,,,,,,,,,,,,,,,2015_Jul_08_1245,59.9538300345,LearningTask,1,52,
,,,,,,,,,,,,,,,,,,,1,0,1,0,,,,,,,,,,,,,,,,,,,,,,,,,,,,,,,,,,,,,,,,,,,,,,,,,,,,,,,,,,,,,,,,,,,,,,,,,,,,,,9,19.3812508583,,,,,,,,,,,,,,,,,,,,,,,2015_Jul_08_1245,59.9538300345,LearningTask,1,52,
200,s,-200,,,,,,,,,,,,,,,,,2,0,2,0,0,0,0,2,,,,,,,,,,,,,,,,,,,,,,,,,,,,,s,1,0.384749889374,None,0,0.5,linegreen.gif,go,,,,,,,,,,,,,,,,,,,,,,,,0,0.508954048157,0.000924110412598,0.384749889374,1,s,915.097735167,,,,,,,,,,,,,,,,,,,,,,,,,,,,,,,,2015_Jul_08_1245,59.9538300345,LearningTask,1,52,
200,w,200,,,,,,,,,,,,,,,,,2,0,2,0,0,1,1,0,,,,,,,,,,,,,,,,,,,,,,,,,,,,,w,1,0.317311048508,None,0,1.0,circleblue.gif,go,,,,,,,,,,,,,,,,,,,,,,,,0,0.513389110565,0.000893115997314,0.317311048508,1,w,918.099852085,,,,,,,,,,,,,,,,,,,,,,,,,,,,,,,,2015_Jul_08_1245,59.9538300345,LearningTask,1,52,
200,w,200,,,,,,,,,,,,,,,,,2,0,2,0,0,2,2,0,,,,,,,,,,,,,,,,,,,,,,,,,,,,,w,1,0.351094961166,None,0,1.0,hexagonorange.gif,stop,,,,,,,,,,,,,,,,,,,,,,,,0.79,0.514071941376,0.000946998596191,0.351094961166,1,w,921.103492022,,,,,,,,,,,,,,,,,,,,,,,,,,,,,,,,2015_Jul_08_1245,59.9538300345,LearningTask,1,52,
200,w,200,,,,,,,,,,,,,,,,,2,0,2,0,0,3,3,0,,,,,,,,,,,,,,,,,,,,,,,,,,,,,w,1,0.334055900574,None,0,0.5,trianglewhite.gif,stop,,,,,,,,,,,,,,,,,,,,,,,,0.34,0.514375925064,0.000885963439941,0.334055900574,1,w,924.106636047,,,,,,,,,,,,,,,,,,,,,,,,,,,,,,,,2015_Jul_08_1245,59.9538300345,LearningTask,1,52,
200,w,200,,,,,,,,,,,,,,,,,2,0,2,0,1,0,4,0,,,,,,,,,,,,,,,,,,,,,,,,,,,,,w,1,0.299946069717,None,0,1.0,hexagonorange.gif,stop,,,,,,,,,,,,,,,,,,,,,,,,1.22,0.514671087265,0.000882148742676,0.299946069717,1,w,927.110579014,,,,,,,,,,,,,,,,,,,,,,,,,,,,,,,,2015_Jul_08_1245,59.9538300345,LearningTask,1,52,
200,w,200,,,,,,,,,,,,,,,,,2,0,2,0,1,1,5,0,,,,,,,,,,,,,,,,,,,,,,,,,,,,,w,1,0.267106056213,None,0,4.0,invertedtrianglegray.gif,stop,,,,,,,,,,,,,,,,,,,,,,,,4.2,0.513565063477,0.00088906288147,0.267106056213,1,w,930.113507986,,,,,,,,,,,,,,,,,,,,,,,,,,,,,,,,2015_Jul_08_1245,59.9538300345,LearningTask,1,52,
-200,a,-200,,,,,,,,,,,,,,,,,2,0,2,0,1,2,6,3,,,,,,,,,,,,,,,,,,,,,,,,,,,,,a,1,0.434159994125,None,0,0.5,linegreen.gif,go,,,,,,,,,,,,,,,,,,,,,,,,0.71,0.514408111572,0.000895023345947,0.434159994125,1,a,933.116827011,,,,,,,,,,,,,,,,,,,,,,,,,,,,,,,,2015_Jul_08_1245,59.9538300345,LearningTask,1,52,
-200,a,-200,,,,,,,,,,,,,,,,,2,0,2,0,1,3,7,3,,,,,,,,,,,,,,,,,,,,,,,,,,,,,a,1,0.367769956589,None,0,2.0,squareyellow.gif,go,,,,,,,,,,,,,,,,,,,,,,,,2.08,0.513899087906,0.00103402137756,0.367769956589,1,a,936.120841026,,,,,,,,,,,,,,,,,,,,,,,,,,,,,,,,2015_Jul_08_1245,59.9538300345,LearningTask,1,52,
-200,a,-200,,,,,,,,,,,,,,,,,2,0,2,0,2,0,8,3,,,,,,,,,,,,,,,,,,,,,,,,,,,,,a,1,0.384613037109,None,0,0.5,linegreen.gif,go,,,,,,,,,,,,,,,,,,,,,,,,0,0.513334989548,0.000900983810425,0.384613037109,1,a,939.123583078,,,,,,,,,,,,,,,,,,,,,,,,,,,,,,,,2015_Jul_08_1245,59.9538300345,LearningTask,1,52,
200,w,200,,,,,,,,,,,,,,,,,2,0,2,0,2,1,9,0,,,,,,,,,,,,,,,,,,,,,,,,,,,,,w,1,0.317846059799,None,0,4.0,invertedtrianglegray.gif,stop,,,,,,,,,,,,,,,,,,,,,,,,0,0.514127016068,0.000887155532837,0.317846059799,1,w,942.126947165,,,,,,,,,,,,,,,,,,,,,,,,,,,,,,,,2015_Jul_08_1245,59.9538300345,LearningTask,1,52,
-200,a,-200,,,,,,,,,,,,,,,,,2,0,2,0,2,2,10,3,,,,,,,,,,,,,,,,,,,,,,,,,,,,,a,1,0.367385149002,None,0,2.0,crosscyan.gif,stop,,,,,,,,,,,,,,,,,,,,,,,,0,0.514351129532,0.000890016555786,0.367385149002,1,a,945.13046813,,,,,,,,,,,,,,,,,,,,,,,,,,,,,,,,2015_Jul_08_1245,59.9538300345,LearningTask,1,52,
200,w,200,,,,,,,,,,,,,,,,,2,0,2,0,2,3,11,0,,,,,,,,,,,,,,,,,,,,,,,,,,,,,w,1,0.317549943924,None,0,2.0,squareyellow.gif,go,,,,,,,,,,,,,,,,,,,,,,,,1.83,0.514128923416,0.00086498260498,0.317549943924,1,w,948.134273052,,,,,,,,,,,,,,,,,,,,,,,,,,,,,,,,2015_Jul_08_1245,59.9538300345,LearningTask,1,52,
-200,a,-200,,,,,,,,,,,,,,,,,2,0,2,0,3,0,12,3,,,,,,,,,,,,,,,,,,,,,,,,,,,,,a,1,0.367480993271,None,0,1.0,circleblue.gif,go,,,,,,,,,,,,,,,,,,,,,,,,0,0.513678789139,0.000964879989624,0.367480993271,1,a,951.137515068,,,,,,,,,,,,,,,,,,,,,,,,,,,,,,,,2015_Jul_08_1245,59.9538300345,LearningTask,1,52,
-200,q,200,,,,,,,,,,,,,,,,,2,0,2,0,3,1,13,1,,,,,,,,,,,,,,,,,,,,,,,,,,,,,q,1,0.351317167282,None,0,4.0,invertedtrianglegray.gif,stop,,,,,,,,,,,,,,,,,,,,,,,,4.14,0.513758897781,0.000876903533936,0.351317167282,1,q,954.140626192,,,,,,,,,,,,,,,,,,,,,,,,,,,,,,,,2015_Jul_08_1245,59.9538300345,LearningTask,1,52,
-200,q,200,,,,,,,,,,,,,,,,,2,0,2,0,3,2,14,1,,,,,,,,,,,,,,,,,,,,,,,,,,,,,q,1,0.351259946823,None,0,2.0,squareyellow.gif,go,,,,,,,,,,,,,,,,,,,,,,,,1.88,0.513957977295,0.000974893569946,0.351259946823,1,q,957.143801212,,,,,,,,,,,,,,,,,,,,,,,,,,,,,,,,2015_Jul_08_1245,59.9538300345,LearningTask,1,52,
200,s,-200,,,,,,,,,,,,,,,,,2,0,2,0,3,3,15,2,,,,,,,,,,,,,,,,,,,,,,,,,,,,,s,1,0.250561952591,None,0,0.5,linegreen.gif,go,,,,,,,,,,,,,,,,,,,,,,,,0,0.514138936996,0.000936985015869,0.334351062775,0,w,960.147277117,0.59,0.515700101852,0.000944137573242,0.250561952591,1,s,963.151093006,,,,,,,,,,,,,,,,,,,,,,,,,2015_Jul_08_1245,59.9538300345,LearningTask,1,52,
200,w,200,,,,,,,,,,,,,,,,,2,0,2,0,4,0,16,0,,,,,,,,,,,,,,,,,,,,,,,,,,,,,w,1,0.283936023712,None,0,2.0,squareyellow.gif,go,,,,,,,,,,,,,,,,,,,,,,,,0,0.513885974884,0.000869989395142,0.283936023712,1,w,966.15450716,,,,,,,,,,,,,,,,,,,,,,,,,,,,,,,,2015_Jul_08_1245,59.9538300345,LearningTask,1,52,
-200,a,-200,,,,,,,,,,,,,,,,,2,0,2,0,4,1,17,3,,,,,,,,,,,,,,,,,,,,,,,,,,,,,a,1,0.350980043411,None,0,1.0,circleblue.gif,go,,,,,,,,,,,,,,,,,,,,,,,,1.06,0.513408899307,0.000892877578735,0.350980043411,1,a,969.157552004,,,,,,,,,,,,,,,,,,,,,,,,,,,,,,,,2015_Jul_08_1245,59.9538300345,LearningTask,1,52,
-200,q,200,,,,,,,,,,,,,,,,,2,0,2,0,4,2,18,1,,,,,,,,,,,,,,,,,,,,,,,,,,,,,q,1,0.317972183228,None,0,4.0,invertedtrianglegray.gif,stop,,,,,,,,,,,,,,,,,,,,,,,,0,0.514071941376,0.000871896743774,0.317972183228,1,q,972.160609007,,,,,,,,,,,,,,,,,,,,,,,,,,,,,,,,2015_Jul_08_1245,59.9538300345,LearningTask,1,52,
200,s,-200,,,,,,,,,,,,,,,,,2,0,2,0,4,3,19,2,,,,,,,,,,,,,,,,,,,,,,,,,,,,,s,1,0.384010076523,None,0,1.0,hexagonorange.gif,stop,,,,,,,,,,,,,,,,,,,,,,,,1.19,0.514548063278,0.000876903533936,0.384010076523,1,s,975.164057016,,,,,,,,,,,,,,,,,,,,,,,,,,,,,,,,2015_Jul_08_1245,59.9538300345,LearningTask,1,52,
200,s,-200,,,,,,,,,,,,,,,,,2,0,2,0,5,0,20,2,,,,,,,,,,,,,,,,,,,,,,,,,,,,,s,1,0.367818117142,None,0,1.0,circleblue.gif,go,,,,,,,,,,,,,,,,,,,,,,,,0,0.513946056366,0.000915050506592,0.367818117142,1,s,978.167160988,,,,,,,,,,,,,,,,,,,,,,,,,,,,,,,,2015_Jul_08_1245,59.9538300345,LearningTask,1,52,
-200,a,-200,,,,,,,,,,,,,,,,,2,0,2,0,5,1,21,3,,,,,,,,,,,,,,,,,,,,,,,,,,,,,a,1,0.434359073639,None,0,2.0,crosscyan.gif,stop,,,,,,,,,,,,,,,,,,,,,,,,0,0.514830112457,0.00090503692627,0.434359073639,1,a,981.171039104,,,,,,,,,,,,,,,,,,,,,,,,,,,,,,,,2015_Jul_08_1245,59.9538300345,LearningTask,1,52,
-200,q,200,,,,,,,,,,,,,,,,,2,0,2,0,5,2,22,1,,,,,,,,,,,,,,,,,,,,,,,,,,,,,q,1,0.31717300415,None,0,2.0,crosscyan.gif,stop,,,,,,,,,,,,,,,,,,,,,,,,1.76,0.514446020126,0.000879049301147,0.31717300415,1,q,984.174598217,,,,,,,,,,,,,,,,,,,,,,,,,,,,,,,,2015_Jul_08_1245,59.9538300345,LearningTask,1,52,
-200,a,-200,,,,,,,,,,,,,,,,,2,0,2,0,5,3,23,3,,,,,,,,,,,,,,,,,,,,,,,,,,,,,a,1,0.367916107178,None,0,2.0,crosscyan.gif,stop,,,,,,,,,,,,,,,,,,,,,,,,0,0.514056921005,0.000876903533936,0.367916107178,1,a,987.177389145,,,,,,,,,,,,,,,,,,,,,,,,,,,,,,,,2015_Jul_08_1245,59.9538300345,LearningTask,1,52,
-200,q,200,,,,,,,,,,,,,,,,,2,0,2,0,6,0,24,1,,,,,,,,,,,,,,,,,,,,,,,,,,,,,q,1,0.350764989853,None,0,2.0,crosscyan.gif,stop,,,,,,,,,,,,,,,,,,,,,,,,1.9,0.51478600502,0.000868082046509,0.350764989853,1,q,990.180725098,,,,,,,,,,,,,,,,,,,,,,,,,,,,,,,,2015_Jul_08_1245,59.9538300345,LearningTask,1,52,
200,s,-200,,,,,,,,,,,,,,,,,2,0,2,0,6,1,25,2,,,,,,,,,,,,,,,,,,,,,,,,,,,,,s,1,0.333889961243,None,0,2.0,squareyellow.gif,go,,,,,,,,,,,,,,,,,,,,,,,,1.96,0.514815807343,0.000977993011475,0.333889961243,1,s,993.184514999,,,,,,,,,,,,,,,,,,,,,,,,,,,,,,,,2015_Jul_08_1245,59.9538300345,LearningTask,1,52,
200,s,-200,,,,,,,,,,,,,,,,,2,0,2,0,6,2,26,2,,,,,,,,,,,,,,,,,,,,,,,,,,,,,s,1,0.350882768631,None,0,4.0,invertedtrianglegray.gif,stop,,,,,,,,,,,,,,,,,,,,,,,,0,0.514138936996,0.000871896743774,0.350882768631,1,s,996.187909126,,,,,,,,,,,,,,,,,,,,,,,,,,,,,,,,2015_Jul_08_1245,59.9538300345,LearningTask,1,52,
-200,q,200,,,,,,,,,,,,,,,,,2,0,2,0,6,3,27,1,,,,,,,,,,,,,,,,,,,,,,,,,,,,,q,1,0.434016942978,None,0,1.0,hexagonorange.gif,stop,,,,,,,,,,,,,,,,,,,,,,,,1.24,0.514366149902,0.000981092453003,0.434016942978,1,q,999.191155195,,,,,,,,,,,,,,,,,,,,,,,,,,,,,,,,2015_Jul_08_1245,59.9538300345,LearningTask,1,52,
-200,q,200,,,,,,,,,,,,,,,,,2,0,2,0,7,0,28,1,,,,,,,,,,,,,,,,,,,,,,,,,,,,,q,1,0.367187023163,None,0,4.0,diamondmagenta.gif,go,,,,,,,,,,,,,,,,,,,,,,,,3.84,0.514400959015,0.000872850418091,0.367187023163,1,q,1002.19452405,,,,,,,,,,,,,,,,,,,,,,,,,,,,,,,,2015_Jul_08_1245,59.9538300345,LearningTask,1,52,
-200,q,200,,,,,,,,,,,,,,,,,2,0,2,0,7,1,29,1,,,,,,,,,,,,,,,,,,,,,,,,,,,,,q,1,0.368115901947,None,0,2.0,crosscyan.gif,stop,,,,,,,,,,,,,,,,,,,,,,,,0,0.513967037201,0.00106000900269,0.368115901947,1,q,1005.19769621,,,,,,,,,,,,,,,,,,,,,,,,,,,,,,,,2015_Jul_08_1245,59.9538300345,LearningTask,1,52,
-200,q,200,,,,,,,,,,,,,,,,,2,0,2,0,7,2,30,1,,,,,,,,,,,,,,,,,,,,,,,,,,,,,q,1,0.335045099258,None,0,4.0,diamondmagenta.gif,go,,,,,,,,,,,,,,,,,,,,,,,,4.1,0.514171123505,0.000974178314209,0.335045099258,1,q,1008.20149302,,,,,,,,,,,,,,,,,,,,,,,,,,,,,,,,2015_Jul_08_1245,59.9538300345,LearningTask,1,52,
200,w,200,,,,,,,,,,,,,,,,,2,0,2,0,7,3,31,0,,,,,,,,,,,,,,,,,,,,,,,,,,,,,w,1,0.400631904602,None,0,1.0,circleblue.gif,go,,,,,,,,,,,,,,,,,,,,,,,,0.98,0.514379024506,0.000874996185303,0.400631904602,1,w,1011.20466113,,,,,,,,,,,,,,,,,,,,,,,,,,,,,,,,2015_Jul_08_1245,59.9538300345,LearningTask,1,52,
200,s,-200,,,,,,,,,,,,,,,,,2,0,2,0,8,0,32,2,,,,,,,,,,,,,,,,,,,,,,,,,,,,,s,1,0.367563009262,None,0,2.0,squareyellow.gif,go,,,,,,,,,,,,,,,,,,,,,,,,2.25,0.514266014099,0.000879049301147,0.367563009262,1,s,1014.20865703,,,,,,,,,,,,,,,,,,,,,,,,,,,,,,,,2015_Jul_08_1245,59.9538300345,LearningTask,1,52,
-200,q,200,,,,,,,,,,,,,,,,,2,0,2,0,8,1,33,1,,,,,,,,,,,,,,,,,,,,,,,,,,,,,q,1,0.350109100342,None,0,4.0,diamondmagenta.gif,go,,,,,,,,,,,,,,,,,,,,,,,,3.99,0.513827085495,0.000882148742676,0.350109100342,1,q,1017.21160221,,,,,,,,,,,,,,,,,,,,,,,,,,,,,,,,2015_Jul_08_1245,59.9538300345,LearningTask,1,52,
-200,a,-200,,,,,,,,,,,,,,,,,2,0,2,0,8,2,34,3,,,,,,,,,,,,,,,,,,,,,,,,,,,,,a,1,0.333918094635,None,0,4.0,invertedtrianglegray.gif,stop,,,,,,,,,,,,,,,,,,,,,,,,4.04,0.514331102371,0.000880002975464,0.333918094635,1,a,1020.21466303,,,,,,,,,,,,,,,,,,,,,,,,,,,,,,,,2015_Jul_08_1245,59.9538300345,LearningTask,1,52,
200,w,200,,,,,,,,,,,,,,,,,2,0,2,0,8,3,35,0,,,,,,,,,,,,,,,,,,,,,,,,,,,,,w,1,0.317414999008,None,0,2.0,crosscyan.gif,stop,,,,,,,,,,,,,,,,,,,,,,,,0,0.514399051666,0.000890970230103,0.317414999008,1,w,1023.21826005,,,,,,,,,,,,,,,,,,,,,,,,,,,,,,,,2015_Jul_08_1245,59.9538300345,LearningTask,1,52,
-200,q,200,,,,,,,,,,,,,,,,,2,0,2,0,9,0,36,1,,,,,,,,,,,,,,,,,,,,,,,,,,,,,q,1,0.350642204285,None,0,2.0,crosscyan.gif,stop,,,,,,,,,,,,,,,,,,,,,,,,1.75,0.514186859131,0.000887870788574,0.350642204285,1,q,1026.22180414,,,,,,,,,,,,,,,,,,,,,,,,,,,,,,,,2015_Jul_08_1245,59.9538300345,LearningTask,1,52,
200,w,200,,,,,,,,,,,,,,,,,2,0,2,0,9,1,37,0,,,,,,,,,,,,,,,,,,,,,,,,,,,,,w,1,0.317701101303,None,0,0.5,trianglewhite.gif,stop,,,,,,,,,,,,,,,,,,,,,,,,0,0.514012813568,0.000916004180908,0.317701101303,1,w,1029.22488213,,,,,,,,,,,,,,,,,,,,,,,,,,,,,,,,2015_Jul_08_1245,59.9538300345,LearningTask,1,52,
200,w,200,,,,,,,,,,,,,,,,,2,0,2,0,9,2,38,0,,,,,,,,,,,,,,,,,,,,,,,,,,,,,w,1,0.384243965149,None,0,1.0,circleblue.gif,go,,,,,,,,,,,,,,,,,,,,,,,,1.17,0.514605045319,0.000875949859619,0.384243965149,1,w,1032.22833705,,,,,,,,,,,,,,,,,,,,,,,,,,,,,,,,2015_Jul_08_1245,59.9538300345,LearningTask,1,52,
200,w,200,,,,,,,,,,,,,,,,,2,0,2,0,9,3,39,0,,,,,,,,,,,,,,,,,,,,,,,,,,,,,w,1,0.350985050201,None,0,1.0,circleblue.gif,go,,,,,,,,,,,,,,,,,,,,,,,,0,0.514157056808,0.0011420249939,0.350985050201,1,w,1035.231776,,,,,,,,,,,,,,,,,,,,,,,,,,,,,,,,2015_Jul_08_1245,59.9538300345,LearningTask,1,52,
200,w,200,,,,,,,,,,,,,,,,,2,0,2,0,10,0,40,0,,,,,,,,,,,,,,,,,,,,,,,,,,,,,w,1,0.333935976028,None,0,0.5,trianglewhite.gif,stop,,,,,,,,,,,,,,,,,,,,,,,,0.34,0.514260053635,0.000943183898926,0.333935976028,1,w,1038.23557806,,,,,,,,,,,,,,,,,,,,,,,,,,,,,,,,2015_Jul_08_1245,59.9538300345,LearningTask,1,52,
200,w,200,,,,,,,,,,,,,,,,,2,0,2,0,10,1,41,0,,,,,,,,,,,,,,,,,,,,,,,,,,,,,w,1,0.316873073578,None,0,2.0,crosscyan.gif,stop,,,,,,,,,,,,,,,,,,,,,,,,0,0.514292955399,0.000876903533936,0.316873073578,1,w,1041.23818207,,,,,,,,,,,,,,,,,,,,,,,,,,,,,,,,2015_Jul_08_1245,59.9538300345,LearningTask,1,52,
-200,q,200,,,,,,,,,,,,,,,,,2,0,2,0,10,2,42,1,,,,,,,,,,,,,,,,,,,,,,,,,,,,,q,1,0.351196050644,None,0,0.5,trianglewhite.gif,stop,,,,,,,,,,,,,,,,,,,,,,,,0.54,0.514381170273,0.00087308883667,0.351196050644,1,q,1044.24168801,,,,,,,,,,,,,,,,,,,,,,,,,,,,,,,,2015_Jul_08_1245,59.9538300345,LearningTask,1,52,
-200,q,200,,,,,,,,,,,,,,,,,2,0,2,0,10,3,43,1,,,,,,,,,,,,,,,,,,,,,,,,,,,,,q,1,0.43420791626,None,0,0.5,linegreen.gif,go,,,,,,,,,,,,,,,,,,,,,,,,0.34,0.514176130295,0.000970125198364,0.43420791626,1,q,1047.24501419,,,,,,,,,,,,,,,,,,,,,,,,,,,,,,,,2015_Jul_08_1245,59.9538300345,LearningTask,1,52,
200,w,200,,,,,,,,,,,,,,,,,2,0,2,0,11,0,44,0,,,,,,,,,,,,,,,,,,,,,,,,,,,,,w,1,0.284209012985,None,0,2.0,squareyellow.gif,go,,,,,,,,,,,,,,,,,,,,,,,,0,0.514303922653,0.000877857208252,0.284209012985,1,w,1050.2486012,,,,,,,,,,,,,,,,,,,,,,,,,,,,,,,,2015_Jul_08_1245,59.9538300345,LearningTask,1,52,
-200,a,-200,,,,,,,,,,,,,,,,,2,0,2,0,11,1,45,3,,,,,,,,,,,,,,,,,,,,,,,,,,,,,a,1,0.250958919525,None,0,1.0,hexagonorange.gif,stop,,,,,,,,,,,,,,,,,,,,,,,,0.96,0.514270067215,0.000901937484741,0.250958919525,1,a,1053.25258017,,,,,,,,,,,,,,,,,,,,,,,,,,,,,,,,2015_Jul_08_1245,59.9538300345,LearningTask,1,52,
200,w,200,,,,,,,,,,,,,,,,,2,0,2,0,11,2,46,0,,,,,,,,,,,,,,,,,,,,,,,,,,,,,w,1,0.334688186646,None,0,4.0,invertedtrianglegray.gif,stop,,,,,,,,,,,,,,,,,,,,,,,,3.79,0.513298034668,0.000884056091309,0.334688186646,1,w,1056.25524402,,,,,,,,,,,,,,,,,,,,,,,,,,,,,,,,2015_Jul_08_1245,59.9538300345,LearningTask,1,52,
-200,a,-200,,,,,,,,,,,,,,,,,2,0,2,0,11,3,47,3,,,,,,,,,,,,,,,,,,,,,,,,,,,,,a,1,0.317639112473,None,0,1.0,hexagonorange.gif,stop,,,,,,,,,,,,,,,,,,,,,,,,0,0.514797925949,0.000885963439941,0.333788156509,0,q,1059.25856614,1.1,0.515786170959,0.00101804733276,0.317639112473,1,a,1062.26278615,,,,,,,,,,,,,,,,,,,,,,,,,2015_Jul_08_1245,59.9538300345,LearningTask,1,52,
200,w,200,,,,,,,,,,,,,,,,,2,0,2,0,12,0,48,0,,,,,,,,,,,,,,,,,,,,,,,,,,,,,w,1,0.383893013,None,0,0.5,trianglewhite.gif,stop,,,,,,,,,,,,,,,,,,,,,,,,0,0.51348400116,0.000890970230103,0.383893013,1,w,1065.26539421,,,,,,,,,,,,,,,,,,,,,,,,,,,,,,,,2015_Jul_08_1245,59.9538300345,LearningTask,1,52,
200,s,-200,,,,,,,,,,,,,,,,,2,0,2,0,12,1,49,2,,,,,,,,,,,,,,,,,,,,,,,,,,,,,s,1,0.383704900742,None,0,0.5,trianglewhite.gif,stop,,,,,,,,,,,,,,,,,,,,,,,,0.5,0.514733076096,0.000874996185303,0.383704900742,1,s,1068.26877618,,,,,,,,,,,,,,,,,,,,,,,,,,,,,,,,2015_Jul_08_1245,59.9538300345,LearningTask,1,52,
-200,a,-200,,,,,,,,,,,,,,,,,2,0,2,0,12,2,50,3,,,,,,,,,,,,,,,,,,,,,,,,,,,,,a,1,0.350522994995,None,0,4.0,invertedtrianglegray.gif,stop,,,,,,,,,,,,,,,,,,,,,,,,3.89,0.514721155167,0.000878095626831,0.350522994995,1,a,1071.27251005,,,,,,,,,,,,,,,,,,,,,,,,,,,,,,,,2015_Jul_08_1245,59.9538300345,LearningTask,1,52,
-200,a,-200,,,,,,,,,,,,,,,,,2,0,2,0,12,3,51,3,,,,,,,,,,,,,,,,,,,,,,,,,,,,,a,1,0.417306900024,None,0,4.0,diamondmagenta.gif,go,,,,,,,,,,,,,,,,,,,,,,,,0,0.513813972473,0.000917911529541,0.417306900024,1,a,1074.27623701,,,,,,,,,,,,,,,,,,,,,,,,,,,,,,,,2015_Jul_08_1245,59.9538300345,LearningTask,1,52,
200,s,-200,,,,,,,,,,,,,,,,,2,0,2,0,13,0,52,2,,,,,,,,,,,,,,,,,,,,,,,,,,,,,s,1,0.383497953415,None,0,0.5,linegreen.gif,go,,,,,,,,,,,,,,,,,,,,,,,,0,0.513882875443,0.00106287002563,0.383497953415,1,s,1077.27877402,,,,,,,,,,,,,,,,,,,,,,,,,,,,,,,,2015_Jul_08_1245,59.9538300345,LearningTask,1,52,
200,s,-200,,,,,,,,,,,,,,,,,2,0,2,0,13,1,53,2,,,,,,,,,,,,,,,,,,,,,,,,,,,,,s,1,0.334631919861,None,0,4.0,diamondmagenta.gif,go,,,,,,,,,,,,,,,,,,,,,,,,4.12,0.514569997787,0.000873804092407,0.334631919861,1,s,1080.28233409,,,,,,,,,,,,,,,,,,,,,,,,,,,,,,,,2015_Jul_08_1245,59.9538300345,LearningTask,1,52,
-200,a,-200,,,,,,,,,,,,,,,,,2,0,2,0,13,2,54,3,,,,,,,,,,,,,,,,,,,,,,,,,,,,,a,1,0.350591182709,None,0,1.0,hexagonorange.gif,stop,,,,,,,,,,,,,,,,,,,,,,,,1.07,0.514482975006,0.000883102416992,0.350591182709,1,a,1083.28579712,,,,,,,,,,,,,,,,,,,,,,,,,,,,,,,,2015_Jul_08_1245,59.9538300345,LearningTask,1,52,
-200,q,200,,,,,,,,,,,,,,,,,2,0,2,0,13,3,55,1,,,,,,,,,,,,,,,,,,,,,,,,,,,,,q,1,0.417423963547,None,0,2.0,crosscyan.gif,stop,,,,,,,,,,,,,,,,,,,,,,,,1.84,0.514081954956,0.000931978225708,0.417423963547,1,q,1086.28922319,,,,,,,,,,,,,,,,,,,,,,,,,,,,,,,,2015_Jul_08_1245,59.9538300345,LearningTask,1,52,
200,w,200,,,,,,,,,,,,,,,,,2,0,2,0,14,0,56,0,,,,,,,,,,,,,,,,,,,,,,,,,,,,,w,1,0.300254106522,None,0,0.5,linegreen.gif,go,,,,,,,,,,,,,,,,,,,,,,,,0.49,0.51441192627,0.000874042510986,0.300254106522,1,w,1089.29253411,,,,,,,,,,,,,,,,,,,,,,,,,,,,,,,,2015_Jul_08_1245,59.9538300345,LearningTask,1,52,
-200,a,-200,,,,,,,,,,,,,,,,,2,0,2,0,14,1,57,3,,,,,,,,,,,,,,,,,,,,,,,,,,,,,a,1,0.317445039749,None,0,0.5,linegreen.gif,go,,,,,,,,,,,,,,,,,,,,,,,,0.63,0.514376163483,0.000872135162354,0.317445039749,1,a,1092.29558206,,,,,,,,,,,,,,,,,,,,,,,,,,,,,,,,2015_Jul_08_1245,59.9538300345,LearningTask,1,52,
200,s,-200,,,,,,,,,,,,,,,,,2,0,2,0,14,2,58,2,,,,,,,,,,,,,,,,,,,,,,,,,,,,,s,1,0.38471198082,None,0,0.5,linegreen.gif,go,,,,,,,,,,,,,,,,,,,,,,,,0.44,0.51430606842,0.00094199180603,0.38471198082,1,s,1095.29914808,,,,,,,,,,,,,,,,,,,,,,,,,,,,,,,,2015_Jul_08_1245,59.9538300345,LearningTask,1,52,
-200,q,200,,,,,,,,,,,,,,,,,2,0,2,0,14,3,59,1,,,,,,,,,,,,,,,,,,,,,,,,,,,,,q,1,0.334508895874,None,0,0.5,trianglewhite.gif,stop,,,,,,,,,,,,,,,,,,,,,,,,0.39,0.514186859131,0.000886917114258,0.334508895874,1,q,1098.30291915,,,,,,,,,,,,,,,,,,,,,,,,,,,,,,,,2015_Jul_08_1245,59.9538300345,LearningTask,1,52,
200,s,-200,,,,,,,,,,,,,,,,,2,0,2,0,15,0,60,2,,,,,,,,,,,,,,,,,,,,,,,,,,,,,s,1,0.33416390419,None,0,4.0,diamondmagenta.gif,go,,,,,,,,,,,,,,,,,,,,,,,,4.11,0.513887166977,0.000892162322998,0.33416390419,1,s,1101.306216,,,,,,,,,,,,,,,,,,,,,,,,,,,,,,,,2015_Jul_08_1245,59.9538300345,LearningTask,1,52,
200,s,-200,,,,,,,,,,,,,,,,,2,0,2,0,15,1,61,2,,,,,,,,,,,,,,,,,,,,,,,,,,,,,s,1,0.334379911423,None,0,1.0,hexagonorange.gif,stop,,,,,,,,,,,,,,,,,,,,,,,,1.2,0.513872146606,0.000885009765625,0.334379911423,1,s,1104.30936813,,,,,,,,,,,,,,,,,,,,,,,,,,,,,,,,2015_Jul_08_1245,59.9538300345,LearningTask,1,52,
200,w,200,,,,,,,,,,,,,,,,,2,0,2,0,15,2,62,0,,,,,,,,,,,,,,,,,,,,,,,,,,,,,w,1,0.384364128113,None,0,0.5,trianglewhite.gif,stop,,,,,,,,,,,,,,,,,,,,,,,,0,0.514553070068,0.000868082046509,0.384364128113,1,w,1107.31274819,,,,,,,,,,,,,,,,,,,,,,,,,,,,,,,,2015_Jul_08_1245,59.9538300345,LearningTask,1,52,
-200,a,-200,,,,,,,,,,,,,,,,,2,0,2,0,15,3,63,3,,,,,,,,,,,,,,,,,,,,,,,,,,,,,a,1,0.384109973907,None,0,4.0,invertedtrianglegray.gif,stop,,,,,,,,,,,,,,,,,,,,,,,,0,0.514219045639,0.000885009765625,0.384109973907,1,a,1110.31685019,,,,,,,,,,,,,,,,,,,,,,,,,,,,,,,,2015_Jul_08_1245,59.9538300345,LearningTask,1,52,
200,s,-200,,,,,,,,,,,,,,,,,2,0,2,0,16,0,64,2,,,,,,,,,,,,,,,,,,,,,,,,,,,,,s,1,0.350692987442,None,0,1.0,circleblue.gif,go,,,,,,,,,,,,,,,,,,,,,,,,1.16,0.513559103012,0.000894069671631,0.350692987442,1,s,1113.31985021,,,,,,,,,,,,,,,,,,,,,,,,,,,,,,,,2015_Jul_08_1245,59.9538300345,LearningTask,1,52,
200,s,-200,,,,,,,,,,,,,,,,,2,0,2,0,16,1,65,2,,,,,,,,,,,,,,,,,,,,,,,,,,,,,s,1,0.334181070328,None,0,0.5,trianglewhite.gif,stop,,,,,,,,,,,,,,,,,,,,,,,,0,0.513818979263,0.000874042510986,0.334181070328,1,s,1116.3230381,,,,,,,,,,,,,,,,,,,,,,,,,,,,,,,,2015_Jul_08_1245,59.9538300345,LearningTask,1,52,
-200,a,-200,,,,,,,,,,,,,,,,,2,0,2,0,16,2,66,3,,,,,,,,,,,,,,,,,,,,,,,,,,,,,a,1,0.3340280056,None,0,4.0,invertedtrianglegray.gif,stop,,,,,,,,,,,,,,,,,,,,,,,,4.08,0.514460086823,0.000968217849731,0.3340280056,1,a,1119.32651615,,,,,,,,,,,,,,,,,,,,,,,,,,,,,,,,2015_Jul_08_1245,59.9538300345,LearningTask,1,52,
-200,q,200,,,,,,,,,,,,,,,,,2,0,2,0,16,3,67,1,,,,,,,,,,,,,,,,,,,,,,,,,,,,,q,1,0.400811910629,None,0,2.0,squareyellow.gif,go,,,,,,,,,,,,,,,,,,,,,,,,2.24,0.514059066772,0.000890016555786,0.400811910629,1,q,1122.32938099,,,,,,,,,,,,,,,,,,,,,,,,,,,,,,,,2015_Jul_08_1245,59.9538300345,LearningTask,1,52,
-200,a,-200,,,,,,,,,,,,,,,,,2,0,2,0,17,0,68,3,,,,,,,,,,,,,,,,,,,,,,,,,,,,,a,1,0.334427118301,None,0,0.5,linegreen.gif,go,,,,,,,,,,,,,,,,,,,,,,,,0.34,0.51490187645,0.000916957855225,0.334427118301,1,a,1125.33268714,,,,,,,,,,,,,,,,,,,,,,,,,,,,,,,,2015_Jul_08_1245,59.9538300345,LearningTask,1,52,
-200,q,200,,,,,,,,,,,,,,,,,2,0,2,0,17,1,69,1,,,,,,,,,,,,,,,,,,,,,,,,,,,,,q,1,0.383765935898,None,0,1.0,hexagonorange.gif,stop,,,,,,,,,,,,,,,,,,,,,,,,0.97,0.514945030212,0.000925064086914,0.383765935898,1,q,1128.33650804,,,,,,,,,,,,,,,,,,,,,,,,,,,,,,,,2015_Jul_08_1245,59.9538300345,LearningTask,1,52,
200,s,-200,,,,,,,,,,,,,,,,,2,0,2,0,17,2,70,2,,,,,,,,,,,,,,,,,,,,,,,,,,,,,s,1,0.367455005646,None,0,4.0,diamondmagenta.gif,go,,,,,,,,,,,,,,,,,,,,,,,,3.81,0.514142036438,0.000874996185303,0.367455005646,1,s,1131.33964109,,,,,,,,,,,,,,,,,,,,,,,,,,,,,,,,2015_Jul_08_1245,59.9538300345,LearningTask,1,52,
-200,a,-200,,,,,,,,,,,,,,,,,2,0,2,0,17,3,71,3,,,,,,,,,,,,,,,,,,,,,,,,,,,,,a,1,0.334248781204,None,0,1.0,circleblue.gif,go,,,,,,,,,,,,,,,,,,,,,,,,1.09,0.514294862747,0.000936031341553,0.334248781204,1,a,1134.34323621,,,,,,,,,,,,,,,,,,,,,,,,,,,,,,,,2015_Jul_08_1245,59.9538300345,LearningTask,1,52,
-200,q,200,,,,,,,,,,,,,,,,,2,0,2,0,18,0,72,1,,,,,,,,,,,,,,,,,,,,,,,,,,,,,q,1,0.317703008652,None,0,0.5,trianglewhite.gif,stop,,,,,,,,,,,,,,,,,,,,,,,,0.33,0.513940095901,0.00088095664978,0.317703008652,1,q,1137.34649706,,,,,,,,,,,,,,,,,,,,,,,,,,,,,,,,2015_Jul_08_1245,59.9538300345,LearningTask,1,52,
200,w,200,,,,,,,,,,,,,,,,,2,0,2,0,18,1,73,0,,,,,,,,,,,,,,,,,,,,,,,,,,,,,w,1,0.384626865387,None,0,1.0,circleblue.gif,go,,,,,,,,,,,,,,,,,,,,,,,,0,0.514053106308,0.00096607208252,0.384626865387,1,w,1140.34965515,,,,,,,,,,,,,,,,,,,,,,,,,,,,,,,,2015_Jul_08_1245,59.9538300345,LearningTask,1,52,
200,s,-200,,,,,,,,,,,,,,,,,2,0,2,0,18,2,74,2,,,,,,,,,,,,,,,,,,,,,,,,,,,,,s,1,0.350783109665,None,0,1.0,hexagonorange.gif,stop,,,,,,,,,,,,,,,,,,,,,,,,1.23,0.514120101929,0.000912189483643,0.350783109665,1,s,1143.35345912,,,,,,,,,,,,,,,,,,,,,,,,,,,,,,,,2015_Jul_08_1245,59.9538300345,LearningTask,1,52,
200,s,-200,,,,,,,,,,,,,,,,,2,0,2,0,18,3,75,2,,,,,,,,,,,,,,,,,,,,,,,,,,,,,s,1,0.36785197258,None,0,1.0,circleblue.gif,go,,,,,,,,,,,,,,,,,,,,,,,,1.14,0.514118909836,0.00088095664978,0.36785197258,1,s,1146.35687518,,,,,,,,,,,,,,,,,,,,,,,,,,,,,,,,2015_Jul_08_1245,59.9538300345,LearningTask,1,52,
-200,q,200,,,,,,,,,,,,,,,,,2,0,2,0,19,0,76,1,,,,,,,,,,,,,,,,,,,,,,,,,,,,,q,1,0.384341001511,None,0,4.0,invertedtrianglegray.gif,stop,,,,,,,,,,,,,,,,,,,,,,,,3.78,0.513890981674,0.000876903533936,0.384341001511,1,q,1149.36062717,,,,,,,,,,,,,,,,,,,,,,,,,,,,,,,,2015_Jul_08_1245,59.9538300345,LearningTask,1,52,
-200,q,200,,,,,,,,,,,,,,,,,2,0,2,0,19,1,77,1,,,,,,,,,,,,,,,,,,,,,,,,,,,,,q,1,0.384459018707,None,0,2.0,squareyellow.gif,go,,,,,,,,,,,,,,,,,,,,,,,,1.83,0.513617038727,0.000874996185303,0.384459018707,1,q,1152.36335516,,,,,,,,,,,,,,,,,,,,,,,,,,,,,,,,2015_Jul_08_1245,59.9538300345,LearningTask,1,52,
-200,q,200,,,,,,,,,,,,,,,,,2,0,2,0,19,2,78,1,,,,,,,,,,,,,,,,,,,,,,,,,,,,,q,1,0.317623138428,None,0,4.0,diamondmagenta.gif,go,,,,,,,,,,,,,,,,,,,,,,,,3.92,0.514467000961,0.000878095626831,0.317623138428,1,q,1155.36733103,,,,,,,,,,,,,,,,,,,,,,,,,,,,,,,,2015_Jul_08_1245,59.9538300345,LearningTask,1,52,
-200,a,-200,,,,,,,,,,,,,,,,,2,0,2,0,19,3,79,3,,,,,,,,,,,,,,,,,,,,,,,,,,,,,a,1,0.367146015167,None,0,0.5,trianglewhite.gif,stop,,,,,,,,,,,,,,,,,,,,,,,,0,0.513966083527,0.000881910324097,0.367146015167,1,a,1158.37049222,,,,,,,,,,,,,,,,,,,,,,,,,,,,,,,,2015_Jul_08_1245,59.9538300345,LearningTask,1,52,
200,w,200,,,,,,,,,,,,,,,,,2,0,2,0,20,0,80,0,,,,,,,,,,,,,,,,,,,,,,,,,,,,,w,1,0.45078086853,None,0,2.0,squareyellow.gif,go,,,,,,,,,,,,,,,,,,,,,,,,1.91,0.513989925385,0.000878810882568,0.45078086853,1,w,1161.3737061,,,,,,,,,,,,,,,,,,,,,,,,,,,,,,,,2015_Jul_08_1245,59.9538300345,LearningTask,1,52,
200,w,200,,,,,,,,,,,,,,,,,2,0,2,0,20,1,81,0,,,,,,,,,,,,,,,,,,,,,,,,,,,,,w,1,0.384250164032,None,0,0.5,linegreen.gif,go,,,,,,,,,,,,,,,,,,,,,,,,0.39,0.514489889145,0.00148391723633,0.384250164032,1,w,1164.37670612,,,,,,,,,,,,,,,,,,,,,,,,,,,,,,,,2015_Jul_08_1245,59.9538300345,LearningTask,1,52,
200,s,-200,,,,,,,,,,,,,,,,,2,0,2,0,20,2,82,2,,,,,,,,,,,,,,,,,,,,,,,,,,,,,s,1,0.351561069489,None,0,1.0,hexagonorange.gif,stop,,,,,,,,,,,,,,,,,,,,,,,,0.76,0.514457941055,0.000880002975464,0.351561069489,1,s,1167.38011813,,,,,,,,,,,,,,,,,,,,,,,,,,,,,,,,2015_Jul_08_1245,59.9538300345,LearningTask,1,52,
-200,a,-200,,,,,,,,,,,,,,,,,2,0,2,0,20,3,83,3,,,,,,,,,,,,,,,,,,,,,,,,,,,,,a,1,0.317196130753,None,0,2.0,squareyellow.gif,go,,,,,,,,,,,,,,,,,,,,,,,,2.17,0.514400005341,0.000922918319702,0.317196130753,1,a,1170.38359404,,,,,,,,,,,,,,,,,,,,,,,,,,,,,,,,2015_Jul_08_1245,59.9538300345,LearningTask,1,52,
-200,q,200,,,,,,,,,,,,,,,,,2,0,2,0,21,0,84,1,,,,,,,,,,,,,,,,,,,,,,,,,,,,,q,1,0.367700815201,None,0,0.5,trianglewhite.gif,stop,,,,,,,,,,,,,,,,,,,,,,,,0.73,0.514362812042,0.000967979431152,0.367700815201,1,q,1173.38734508,,,,,,,,,,,,,,,,,,,,,,,,,,,,,,,,2015_Jul_08_1245,59.9538300345,LearningTask,1,52,
-200,a,-200,,,,,,,,,,,,,,,,,2,0,2,0,21,1,85,3,,,,,,,,,,,,,,,,,,,,,,,,,,,,,a,1,0.367238044739,None,0,0.5,linegreen.gif,go,,,,,,,,,,,,,,,,,,,,,,,,0.36,0.514139175415,0.000880002975464,0.367238044739,1,a,1176.39028621,,,,,,,,,,,,,,,,,,,,,,,,,,,,,,,,2015_Jul_08_1245,59.9538300345,LearningTask,1,52,
-200,a,-200,,,,,,,,,,,,,,,,,2,0,2,0,21,2,86,3,,,,,,,,,,,,,,,,,,,,,,,,,,,,,a,1,0.350959062576,None,0,4.0,invertedtrianglegray.gif,stop,,,,,,,,,,,,,,,,,,,,,,,,3.93,0.514503002167,0.00088095664978,0.350959062576,1,a,1179.39377403,,,,,,,,,,,,,,,,,,,,,,,,,,,,,,,,2015_Jul_08_1245,59.9538300345,LearningTask,1,52,
200,s,-200,,,,,,,,,,,,,,,,,2,0,2,0,21,3,87,2,,,,,,,,,,,,,,,,,,,,,,,,,,,,,s,1,0.367218017578,None,0,0.5,linegreen.gif,go,,,,,,,,,,,,,,,,,,,,,,,,0.3,0.51420211792,0.000946044921875,0.367218017578,1,s,1182.3970952,,,,,,,,,,,,,,,,,,,,,,,,,,,,,,,,2015_Jul_08_1245,59.9538300345,LearningTask,1,52,
-200,q,200,,,,,,,,,,,,,,,,,2,0,2,0,22,0,88,1,,,,,,,,,,,,,,,,,,,,,,,,,,,,,q,1,0.300374984741,None,0,4.0,diamondmagenta.gif,go,,,,,,,,,,,,,,,,,,,,,,,,4.2,0.514626979828,0.000874042510986,0.300374984741,1,q,1185.40048718,,,,,,,,,,,,,,,,,,,,,,,,,,,,,,,,2015_Jul_08_1245,59.9538300345,LearningTask,1,52,
200,s,-200,,,,,,,,,,,,,,,,,2,0,2,0,22,1,89,2,,,,,,,,,,,,,,,,,,,,,,,,,,,,,s,1,0.100038051605,None,0,2.0,crosscyan.gif,stop,,,,,,,,,,,,,,,,,,,,,,,,0,0.514389038086,0.000878810882568,0.367463827133,0,a,1188.40425611,1.94,0.515372037888,0.000972032546997,0.100038051605,1,s,1191.40730309,,,,,,,,,,,,,,,,,,,,,,,,,2015_Jul_08_1245,59.9538300345,LearningTask,1,52,
200,w,200,,,,,,,,,,,,,,,,,2,0,2,0,22,2,90,0,,,,,,,,,,,,,,,,,,,,,,,,,,,,,w,1,0.318061113358,None,0,0.5,trianglewhite.gif,stop,,,,,,,,,,,,,,,,,,,,,,,,0.31,0.51416182518,0.000876903533936,0.318061113358,1,w,1194.41060805,,,,,,,,,,,,,,,,,,,,,,,,,,,,,,,,2015_Jul_08_1245,59.9538300345,LearningTask,1,52,
-200,a,-200,,,,,,,,,,,,,,,,,2,0,2,0,22,3,91,3,,,,,,,,,,,,,,,,,,,,,,,,,,,,,a,1,0.334364891052,None,0,1.0,circleblue.gif,go,,,,,,,,,,,,,,,,,,,,,,,,0.79,0.514314174652,0.00090217590332,0.334364891052,1,a,1197.41432905,,,,,,,,,,,,,,,,,,,,,,,,,,,,,,,,2015_Jul_08_1245,59.9538300345,LearningTask,1,52,
-200,q,200,,,,,,,,,,,,,,,,,2,0,2,0,23,0,92,1,,,,,,,,,,,,,,,,,,,,,,,,,,,,,q,1,0.350579977036,None,0,4.0,diamondmagenta.gif,go,,,,,,,,,,,,,,,,,,,,,,,,3.82,0.514051914215,0.000883817672729,0.350579977036,1,q,1200.41716218,,,,,,,,,,,,,,,,,,,,,,,,,,,,,,,,2015_Jul_08_1245,59.9538300345,LearningTask,1,52,
200,s,-200,,,,,,,,,,,,,,,,,2,0,2,0,23,1,93,2,,,,,,,,,,,,,,,,,,,,,,,,,,,,,s,1,0.366810083389,None,0,4.0,invertedtrianglegray.gif,stop,,,,,,,,,,,,,,,,,,,,,,,,4.18,0.514999866486,0.000871896743774,0.366810083389,1,s,1203.42095518,,,,,,,,,,,,,,,,,,,,,,,,,,,,,,,,2015_Jul_08_1245,59.9538300345,LearningTask,1,52,
200,w,200,,,,,,,,,,,,,,,,,2,0,2,0,23,2,94,0,,,,,,,,,,,,,,,,,,,,,,,,,,,,,w,1,0.350623130798,None,0,4.0,diamondmagenta.gif,go,,,,,,,,,,,,,,,,,,,,,,,,4.18,0.514649868011,0.000907897949219,0.350623130798,1,w,1206.42415714,,,,,,,,,,,,,,,,,,,,,,,,,,,,,,,,2015_Jul_08_1245,59.9538300345,LearningTask,1,52,
200,s,-200,,,,,,,,,,,,,,,,,2,0,2,0,23,3,95,2,,,,,,,,,,,,,,,,,,,,,,,,,,,,,s,1,0.384281873703,None,0,2.0,crosscyan.gif,stop,,,,,,,,,,,,,,,,,,,,,,,,1.8,0.514535903931,0.00092887878418,0.384281873703,1,s,1209.42731118,,,,,,,,,,,,,,,,,,,,,,,,,,,,,,,,2015_Jul_08_1245,59.9538300345,LearningTask,1,52,
200,s,-200,,,,,,,,,,,,,,,,,2,0,2,0,24,0,96,2,,,,,,,,,,,,,,,,,,,,,,,,,,,,,s,1,0.317070960999,None,0,1.0,circleblue.gif,go,,,,,,,,,,,,,,,,,,,,,,,,0.93,0.514646053314,0.00103092193604,0.317070960999,1,s,1212.430619,,,,,,,,,,,,,,,,,,,,,,,,,,,,,,,,2015_Jul_08_1245,59.9538300345,LearningTask,1,52,
200,s,-200,,,,,,,,,,,,,,,,,2,0,2,0,24,1,97,2,,,,,,,,,,,,,,,,,,,,,,,,,,,,,s,1,0.317580938339,None,0,4.0,diamondmagenta.gif,go,,,,,,,,,,,,,,,,,,,,,,,,3.87,0.514616966248,0.000888824462891,0.317580938339,1,s,1215.43454599,,,,,,,,,,,,,,,,,,,,,,,,,,,,,,,,2015_Jul_08_1245,59.9538300345,LearningTask,1,52,
-200,q,200,,,,,,,,,,,,,,,,,2,0,2,0,24,2,98,1,,,,,,,,,,,,,,,,,,,,,,,,,,,,,q,1,0.367858886719,None,0,1.0,hexagonorange.gif,stop,,,,,,,,,,,,,,,,,,,,,,,,0.96,0.513775110245,0.000880002975464,0.367858886719,1,q,1218.437958,,,,,,,,,,,,,,,,,,,,,,,,,,,,,,,,2015_Jul_08_1245,59.9538300345,LearningTask,1,52,
-200,a,-200,,,,,,,,,,,,,,,,,2,0,2,0,24,3,99,3,,,,,,,,,,,,,,,,,,,,,,,,,,,,,a,1,0.35071015358,None,0,2.0,squareyellow.gif,go,,,,,,,,,,,,,,,,,,,,,,,,1.89,0.513762950897,0.000921010971069,0.35071015358,1,a,1221.44124603,,,,,,,,,,,,,,,,,,,,,,,,,,,,,,,,2015_Jul_08_1245,59.9538300345,LearningTask,1,52,
,,,,,,,,,,,,,,,,,,,2,0,2,0,,,,,,,,,,,,,,,,,,,,,,,,,,,,,,,,,,,,,,,,,,,,,,,,,,,,,,,,,,,,,,,,,,,,,,,,,,,,,,9,95.2497918606,,,,,,,,,,,,,,,,,,,,,,,2015_Jul_08_1245,59.9538300345,LearningTask,1,52,
200,s,-200,,,,,,,,,,,,,,,,,3,0,3,0,0,0,0,2,,,,,,,,,,,,,,,,,,,,,,,,,,,,,s,1,0.284619092941,None,0,0.5,trianglewhite.gif,stop,,,,,,,,,,,,,,,,,,,,,,,,0.62,0.510489940643,0.000874996185303,0.284619092941,1,s,1320.65294218,,,,,,,,,,,,,,,,,,,,,,,,,,,,,,,,2015_Jul_08_1245,59.9538300345,LearningTask,1,52,
200,w,200,,,,,,,,,,,,,,,,,3,0,3,0,0,1,1,0,,,,,,,,,,,,,,,,,,,,,,,,,,,,,w,1,0.251098155975,None,0,1.0,hexagonorange.gif,stop,,,,,,,,,,,,,,,,,,,,,,,,0,0.513912916183,0.000877857208252,0.251098155975,1,w,1323.6561172,,,,,,,,,,,,,,,,,,,,,,,,,,,,,,,,2015_Jul_08_1245,59.9538300345,LearningTask,1,52,
-200,a,-200,,,,,,,,,,,,,,,,,3,0,3,0,0,2,2,3,,,,,,,,,,,,,,,,,,,,,,,,,,,,,a,1,0.350387096405,None,0,4.0,invertedtrianglegray.gif,stop,,,,,,,,,,,,,,,,,,,,,,,,3.75,0.514590978622,0.000879049301147,0.350387096405,1,a,1326.65992308,,,,,,,,,,,,,,,,,,,,,,,,,,,,,,,,2015_Jul_08_1245,59.9538300345,LearningTask,1,52,
