xPos,corrAns,yPos,corrGoResp,yPosGoStim,xPosGoStim,pracTrials.thisRepN,pracTrials.thisTrialN,pracTrials.thisN,pracTrials.thisIndex,ReDoLoopPrac.thisRepN,ReDoLoopPrac.thisTrialN,ReDoLoopPrac.thisN,ReDoLoopPrac.thisIndex,ReDoLoopPrac.thisTrial,pracStopTrials.thisRepN,pracStopTrials.thisTrialN,pracStopTrials.thisN,pracStopTrials.thisIndex,Blocks.thisRepN,Blocks.thisTrialN,Blocks.thisN,Blocks.thisIndex,trials.thisRepN,trials.thisTrialN,trials.thisN,trials.thisIndex,ReDoLoopMain.thisRepN,ReDoLoopMain.thisTrialN,ReDoLoopMain.thisN,ReDoLoopMain.thisIndex,ReDoLoopMain.thisTrial,StopBlocks.thisRepN,StopBlocks.thisTrialN,StopBlocks.thisN,StopBlocks.thisIndex,StopTrials.thisRepN,StopTrials.thisTrialN,StopTrials.thisN,StopTrials.thisIndex,auctionBlocks.thisRepN,auctionBlocks.thisTrialN,auctionBlocks.thisN,auctionBlocks.thisIndex,auctionTrials.thisRepN,auctionTrials.thisTrialN,auctionTrials.thisN,auctionTrials.thisIndex,learningTrialList,learningPracTrialList,stopTrialList,stopPracTrialList,auctionTrialList,ok1.keys,ok1.rt,resp.keys,resp.corr,feedbackResp.keys,feedbackResp.corr,feedbackResp.rt,currentReward,currentStimulus,currentStimType,firstPracComputedRewardOutput,firstPracLearningStimOnset,firstPracLearningFixOnset,firstPracPresentationRT,firstPracPresentationAcc,firstPracPresentationResp,firstPracEndTrialTimeStamp,resp.rt,secondPracComputedRewardOutput,secondPracLearningStimOnset,secondPracLearningFixOnset,secondPracPresentationRT,secondPracPresentationAcc,secondPracPresentationResp,secondPracEndTrialTimeStamp,StartTrialTimeStamp,trialType,goStim,stimType,stopStimValue,goResp.keys,goResp.corr,key_resp_9.keys,key_resp_9.corr,fixStopOnset,goStimOnset,stopSignalOnset,EndTrialTimeStamp,goResp.rt,key_resp_3.keys,key_resp_3.rt,firstComputedRewardOutput,firstLearningStimOnset,firstLearningFixOnset,firstPresentationRT,firstPresentationAcc,firstPresentationResp,firstEndTrialTimeStamp,key_resp_7.keys,key_resp_7.rt,secondComputedRewardOutput,secondLearningStimOnset,secondLearningFixOnset,secondPresentationRT,secondPresentationAcc,secondPresentationResp,secondEndTrialTimeStamp,beginningSSD,EndingSSD,key_resp_9.rt,key_resp_4.keys,key_resp_4.rt,auctionResponse.keys,auctionStimDuration,auctionStim,auctionAmounts,auctionStimValue,auctionCondition,chosenAuctionAmount,auctionResponse.rt,key_resp_5.keys,key_resp_5.rt,shuffledRewardList,chosenReward1,chosenReward2,chosenReward3,chosenReward4,chosenReward5,key_resp_6.keys,key_resp_6.rt,date,frameRate,expName,session,participant,
,,,,,,,,,,,,,,,,,,,,,,,,,,,,,,,,,,,,,,,,,,,,,,,,[],[],[],[],[],9,68.6861898899,,,,,,,,,,,,,,,,,,,,,,,,,,,,,,,,,,,,,,,,,,,,,,,,,,,,,,,,,,,,,,,,,,,,,,,,,,,,,,,2015_Jun_23_1223,59.791102691,LearningTask,1,56,
-200,q,200,,,,0,0,0,1,,,,,,,,,,,,,,,,,,,,,,,,,,,,,,,,,,,,,,,,,,,,,,q,1,None,0,0.358065128326,2.0,circleorange.gif,stop,0,0.506943941116,0.00326490402222,[],0,None,91.2983491421,0.700997114182,0,0.515561103821,0.0011739730835,0.700997114182,1,q,94.3013341427,,,,,,,,,,,,,,,,,,,,,,,,,,,,,,,,,,,,,,,,,,,,,,,,,,,,,,,,2015_Jun_23_1223,59.791102691,LearningTask,1,56,
-200,a,-200,,,,0,1,1,3,,,,,,,,,,,,,,,,,,,,,,,,,,,,,,,,,,,,,,,,,,,,,,a,1,None,0,,2.0,circleorange.gif,stop,1.99,0.514779090881,0.000925064086914,0.417505979538,1,a,97.3046030998,0.417505979538,,,,,,,,,,,,,,,,,,,,,,,,,,,,,,,,,,,,,,,,,,,,,,,,,,,,,,,,,,,,,,,2015_Jun_23_1223,59.791102691,LearningTask,1,56,
200,w,200,,,,0,2,2,8,,,,,,,,,,,,,,,,,,,,,,,,,,,,,,,,,,,,,,,,,,,,,,w,1,None,0,,2.0,diamondmagenta.gif,go,1.79,0.515037059784,0.00129318237305,0.384371042252,1,w,100.308423042,0.384371042252,,,,,,,,,,,,,,,,,,,,,,,,,,,,,,,,,,,,,,,,,,,,,,,,,,,,,,,,,,,,,,,2015_Jun_23_1223,59.791102691,LearningTask,1,56,
200,s,-200,,,,0,3,3,2,,,,,,,,,,,,,,,,,,,,,,,,,,,,,,,,,,,,,,,,,,,,,,s,1,None,0,,0.5,hexagonyellow.gif,stop,0.67,0.514522790909,0.00129985809326,0.351141929626,1,s,103.31154418,0.351141929626,,,,,,,,,,,,,,,,,,,,,,,,,,,,,,,,,,,,,,,,,,,,,,,,,,,,,,,,,,,,,,,2015_Jun_23_1223,59.791102691,LearningTask,1,56,
200,s,-200,,,,0,4,4,6,,,,,,,,,,,,,,,,,,,,,,,,,,,,,,,,,,,,,,,,,,,,,,s,1,None,0,,2.0,diamondmagenta.gif,go,2.14,0.515211105347,0.000921964645386,0.450469017029,1,s,106.314629078,0.450469017029,,,,,,,,,,,,,,,,,,,,,,,,,,,,,,,,,,,,,,,,,,,,,,,,,,,,,,,,,,,,,,,2015_Jun_23_1223,59.791102691,LearningTask,1,56,
-200,q,200,,,,0,5,5,9,,,,,,,,,,,,,,,,,,,,,,,,,,,,,,,,,,,,,,,,,,,,,,q,1,None,0,,1.0,squareblue.gif,stop,0,0.515161037445,0.00128889083862,0.35057592392,1,q,109.317957163,0.35057592392,,,,,,,,,,,,,,,,,,,,,,,,,,,,,,,,,,,,,,,,,,,,,,,,,,,,,,,,,,,,,,,2015_Jun_23_1223,59.791102691,LearningTask,1,56,
200,w,200,,,,0,6,6,0,,,,,,,,,,,,,,,,,,,,,,,,,,,,,,,,,,,,,,,,,,,,,,w,1,None,0,,4.0,linegray.gif,stop,3.75,0.515239953995,0.00187993049622,0.366970062256,1,w,112.321427107,0.366970062256,,,,,,,,,,,,,,,,,,,,,,,,,,,,,,,,,,,,,,,,,,,,,,,,,,,,,,,,,,,,,,,2015_Jun_23_1223,59.791102691,LearningTask,1,56,
-200,q,200,,,,0,7,7,5,,,,,,,,,,,,,,,,,,,,,,,,,,,,,,,,,,,,,,,,,,,,,,q,1,None,0,,1.0,squareblue.gif,stop,1.05,0.515315055847,0.000894069671631,0.383862018585,1,q,115.324614048,0.383862018585,,,,,,,,,,,,,,,,,,,,,,,,,,,,,,,,,,,,,,,,,,,,,,,,,,,,,,,,,,,,,,,2015_Jun_23_1223,59.791102691,LearningTask,1,56,
200,w,200,,,,0,8,8,4,,,,,,,,,,,,,,,,,,,,,,,,,,,,,,,,,,,,,,,,,,,,,,w,1,None,0,,1.0,invertedtrianglegreen.gif,go,0,0.515288829803,0.00128698348999,0.384452819824,1,w,118.328684092,0.384452819824,,,,,,,,,,,,,,,,,,,,,,,,,,,,,,,,,,,,,,,,,,,,,,,,,,,,,,,,,,,,,,,2015_Jun_23_1223,59.791102691,LearningTask,1,56,
-200,a,-200,,,,0,9,9,7,,,,,,,,,,,,,,,,,,,,,,,,,,,,,,,,,,,,,,,,,,,,,,a,1,None,0,,4.0,linegray.gif,stop,4.1,0.514648914337,0.000919103622437,0.384031057358,1,a,121.331896067,0.384031057358,,,,,,,,,,,,,,,,,,,,,,,,,,,,,,,,,,,,,,,,,,,,,,,,,,,,,,,,,,,,,,,2015_Jun_23_1223,59.791102691,LearningTask,1,56,
,,,z,0,-200,,,,,,,,,,0,0,0,0,,,,,,,,,,,,,,,,,,,,,,,,,,,,,,,,,,,,,,,,,,,,,,,,,,,,,,,,,,,,177.582710028,stop,squareblue.gif,stop,1.0,None,0,None,0,0.00132608413696,0.510586977005,0.761130094528,180.580965042,,,,,,,,,,,,,,,,,,,,,,,,,,,,,,,,,,,,,,,,,,,2015_Jun_23_1223,59.791102691,LearningTask,1,56,
,,,m,0,200,,,,,,,,,,0,1,1,1,,,,,,,,,,,,,,,,,,,,,,,,,,,,,,,,,,,,,,,,,,,,,,,,,,,,,,,,,,,,180.581355095,go,invertedtrianglegreen.gif,go,1.0,m,1,None,0,0.00094199180603,0.515905857086,,183.584017992,0.617403030396,,,,,,,,,,,,,,,,,,,,,,,,,,,,,,,,,,,,,,,,,,2015_Jun_23_1223,59.791102691,LearningTask,1,56,
,,,m,0,200,,,,,,,,,,1,0,2,1,,,,,,,,,,,,,,,,,,,,,,,,,,,,,,,,,,,,,,,,,,,,,,,,,,,,,,,,,,,,183.584670067,stop,squareblue.gif,stop,1.0,m,1,None,0,0.00102996826172,0.515504837036,0.765848875046,186.587319136,0.417428016663,,,,,,,,,,,,,,,,,,,,,,,,,,,,,,,,,,,,,,,,,,2015_Jun_23_1223,59.791102691,LearningTask,1,56,
,,,z,0,-200,,,,,,,,,,1,1,3,0,,,,,,,,,,,,,,,,,,,,,,,,,,,,,,,,,,,,,,,,,,,,,,,,,,,,,,,,,,,,186.587680101,stop,circleorange.gif,stop,2.0,None,0,None,0,0.000949144363403,0.516031980515,0.766394138336,189.590829134,,,,,,,,,,,,,,,,,,,,,,,,,,,,,,,,,,,,,,,,,,,2015_Jun_23_1223,59.791102691,LearningTask,1,56,
,,,z,0,-200,,,,,,,,,,2,0,4,0,,,,,,,,,,,,,,,,,,,,,,,,,,,,,,,,,,,,,,,,,,,,,,,,,,,,,,,,,,,,189.591185093,stop,circleorange.gif,stop,2.0,None,0,None,0,0.000953912734985,0.515754938126,0.766386985779,192.594176054,,,,,,,,,,,,,,,,,,,,,,,,,,,,,,,,,,,,,,,,,,,2015_Jun_23_1223,59.791102691,LearningTask,1,56,
,,,m,0,200,,,,,,,,,,2,1,5,1,,,,,,,,,,,,,,,,,,,,,,,,,,,,,,,,,,,,,,,,,,,,,,,,,,,,,,,,,,,,192.594536066,go,invertedtrianglegreen.gif,go,1.0,m,1,None,0,0.00105905532837,0.515828132629,,195.597617149,0.53440618515,,,,,,,,,,,,,,,,,,,,,,,,,,,,,,,,,,,,,,,,,,2015_Jun_23_1223,59.791102691,LearningTask,1,56,
,,,z,0,-200,,,,,,,,,,3,0,6,0,,,,,,,,,,,,,,,,,,,,,,,,,,,,,,,,,,,,,,,,,,,,,,,,,,,,,,,,,,,,195.598058224,go,crosscyan.gif,go,0.5,z,1,None,0,0.0013279914856,0.515652894974,,198.600968122,0.667876958847,,,,,,,,,,,,,,,,,,,,,,,,,,,,,,,,,,,,,,,,,,2015_Jun_23_1223,59.791102691,LearningTask,1,56,
,,,m,0,200,,,,,,,,,,3,1,7,1,,,,,,,,,,,,,,,,,,,,,,,,,,,,,,,,,,,,,,,,,,,,,,,,,,,,,,,,,,,,198.601332188,stop,hexagonyellow.gif,stop,0.5,None,0,None,0,0.000998020172119,0.516230106354,0.766077041626,201.604214191,,,,,,,,,,,,,,,,,,,,,,,,,,,,,,,,,,,,,,,,,,,2015_Jun_23_1223,59.791102691,LearningTask,1,56,
,,,m,0,200,,,,,,,,,,4,0,8,1,,,,,,,,,,,,,,,,,,,,,,,,,,,,,,,,,,,,,,,,,,,,,,,,,,,,,,,,,,,,201.604580164,stop,hexagonyellow.gif,stop,0.5,None,0,None,0,0.000958919525146,0.515908956528,0.765872955322,204.607711077,,,,,,,,,,,,,,,,,,,,,,,,,,,,,,,,,,,,,,,,,,,2015_Jun_23_1223,59.791102691,LearningTask,1,56,
,,,z,0,-200,,,,,,,,,,4,1,9,0,,,,,,,,,,,,,,,,,,,,,,,,,,,,,,,,,,,,,,,,,,,,,,,,,,,,,,,,,,,,204.608257055,go,diamondmagenta.gif,go,2.0,z,1,None,0,0.000952005386353,0.515311956406,,207.610938072,0.651489973068,,,,,,,,,,,,,,,,,,,,,,,,,,,,,,,,,,,,,,,,,,2015_Jun_23_1223,59.791102691,LearningTask,1,56,
,,,,,,,,,,,,,,,,,,,,,,,,,,,,,,,,,,,,,,,,,,,,,,,,,,,,,,,,,,,,,,,,,,,,,,,,,,,,,,,,,,,,,,,,,,,,9,28.8405330181,,,,,,,,,,,,,,,,,,,,,,,,,,,,,,,,,,,,,,,,2015_Jun_23_1223,59.791102691,LearningTask,1,56,
,,,,,,,,,,,,,,,,,,,,,,,,,,,,,,,,,,,,,,,,,,,,,,,,,,,,,9,6.0735578537,,,,,,,,,,,,,,,,,,,,,,,,,,,,,,,,,,,,,,,,,,,,,,,,,,,,,,,,,,,,,,,,,,,,,,,,,,,,,,,2015_Jun_23_1223,59.791102691,LearningTask,1,56,
200,s,-200,,,,,,,,,,,,,,,,,0,0,0,0,0,0,0,2,,,,,,,,,,,,,,,,,,,,,,,,,,,,,s,1,None,0,,2.0,diamondmagenta.gif,go,,,,,,,,0.46781206131,,,,,,,,,,,,,,,,,,,,,,,,2.09,0.508594036102,0.00095009803772,0.46781206131,1,s,245.671861172,,,,,,,,,,,,,,,,,,,,,,,,,,,,,,,,,2015_Jun_23_1223,59.791102691,LearningTask,1,56,
-200,q,200,,,,,,,,,,,,,,,,,0,0,0,0,0,1,1,1,,,,,,,,,,,,,,,,,,,,,,,,,,,,,q,1,None,0,,1.0,invertedtrianglegreen.gif,go,,,,,,,,0.367572069168,,,,,,,,,,,,,,,,,,,,,,,,0.79,0.513534069061,0.000886201858521,0.367572069168,1,q,248.674322128,,,,,,,,,,,,,,,,,,,,,,,,,,,,,,,,,2015_Jun_23_1223,59.791102691,LearningTask,1,56,
-200,a,-200,,,,,,,,,,,,,,,,,0,0,0,0,0,2,2,3,,,,,,,,,,,,,,,,,,,,,,,,,,,,,a,1,None,0,,1.0,invertedtrianglegreen.gif,go,,,,,,,,0.367636919022,,,,,,,,,,,,,,,,,,,,,,,,0.81,0.514316082001,0.000939130783081,0.367636919022,1,a,251.677676201,,,,,,,,,,,,,,,,,,,,,,,,,,,,,,,,,2015_Jun_23_1223,59.791102691,LearningTask,1,56,
200,w,200,,,,,,,,,,,,,,,,,0,0,0,0,0,3,3,0,,,,,,,,,,,,,,,,,,,,,,,,,,,,,w,1,None,0,,0.5,hexagonyellow.gif,stop,,,,,,,,0.400770902634,,,,,,,,,,,,,,,,,,,,,,,,0.4,0.514309167862,0.00090217590332,0.400770902634,1,w,254.681606054,,,,,,,,,,,,,,,,,,,,,,,,,,,,,,,,,2015_Jun_23_1223,59.791102691,LearningTask,1,56,
200,s,-200,,,,,,,,,,,,,,,,,0,0,0,0,1,0,4,2,,,,,,,,,,,,,,,,,,,,,,,,,,,,,s,1,None,0,,0.5,crosscyan.gif,go,,,,,,,,0.351181030273,,,,,,,,,,,,,,,,,,,,,,,,0.34,0.51357293129,0.000890016555786,0.351181030273,1,s,257.684188128,,,,,,,,,,,,,,,,,,,,,,,,,,,,,,,,,2015_Jun_23_1223,59.791102691,LearningTask,1,56,
-200,q,200,,,,,,,,,,,,,,,,,0,0,0,0,1,1,5,1,,,,,,,,,,,,,,,,,,,,,,,,,,,,,q,1,None,0,,1.0,squareblue.gif,stop,,,,,,,,0.317300081253,,,,,,,,,,,,,,,,,,,,,,,,0.75,0.514289140701,0.00092601776123,0.317300081253,1,q,260.687621117,,,,,,,,,,,,,,,,,,,,,,,,,,,,,,,,,2015_Jun_23_1223,59.791102691,LearningTask,1,56,
-200,q,200,,,,,,,,,,,,,,,,,0,0,0,0,1,2,6,1,,,,,,,,,,,,,,,,,,,,,,,,,,,,,q,1,None,0,,1.0,invertedtrianglegreen.gif,go,,,,,,,,0.384209156036,,,,,,,,,,,,,,,,,,,,,,,,0.8,0.514286994934,0.000890016555786,0.384209156036,1,q,263.691062212,,,,,,,,,,,,,,,,,,,,,,,,,,,,,,,,,2015_Jun_23_1223,59.791102691,LearningTask,1,56,
-200,q,200,,,,,,,,,,,,,,,,,0,0,0,0,1,3,7,1,,,,,,,,,,,,,,,,,,,,,,,,,,,,,q,1,None,0,,1.0,invertedtrianglegreen.gif,go,,,,,,,,0.35085606575,,,,,,,,,,,,,,,,,,,,,,,,0,0.514224052429,0.000904083251953,0.35085606575,1,q,266.694365025,,,,,,,,,,,,,,,,,,,,,,,,,,,,,,,,,2015_Jun_23_1223,59.791102691,LearningTask,1,56,
-200,q,200,,,,,,,,,,,,,,,,,0,0,0,0,2,0,8,1,,,,,,,,,,,,,,,,,,,,,,,,,,,,,q,1,None,0,,4.0,trianglewhite.gif,go,,,,,,,,0.317427158356,,,,,,,,,,,,,,,,,,,,,,,,3.91,0.514258861542,0.00147294998169,0.317427158356,1,q,269.697649002,,,,,,,,,,,,,,,,,,,,,,,,,,,,,,,,,2015_Jun_23_1223,59.791102691,LearningTask,1,56,
200,w,200,,,,,,,,,,,,,,,,,0,0,0,0,2,1,9,0,,,,,,,,,,,,,,,,,,,,,,,,,,,,,w,1,None,0,,4.0,trianglewhite.gif,go,,,,,,,,0.467746973038,,,,,,,,,,,,,,,,,,,,,,,,4.1,0.514409065247,0.000900983810425,0.467746973038,1,w,272.701347113,,,,,,,,,,,,,,,,,,,,,,,,,,,,,,,,,2015_Jun_23_1223,59.791102691,LearningTask,1,56,
-200,a,-200,,,,,,,,,,,,,,,,,0,0,0,0,2,2,10,3,,,,,,,,,,,,,,,,,,,,,,,,,,,,,a,1,None,0,,2.0,diamondmagenta.gif,go,,,,,,,,0.417669057846,,,,,,,,,,,,,,,,,,,,,,,,1.9,0.513751029968,0.0010359287262,0.417669057846,1,a,275.704546213,,,,,,,,,,,,,,,,,,,,,,,,,,,,,,,,,2015_Jun_23_1223,59.791102691,LearningTask,1,56,
-200,q,200,,,,,,,,,,,,,,,,,0,0,0,0,2,3,11,1,,,,,,,,,,,,,,,,,,,,,,,,,,,,,q,1,None,0,,4.0,trianglewhite.gif,go,,,,,,,,0.317478895187,,,,,,,,,,,,,,,,,,,,,,,,0,0.514091014862,0.00118684768677,0.317478895187,1,q,278.708208084,,,,,,,,,,,,,,,,,,,,,,,,,,,,,,,,,2015_Jun_23_1223,59.791102691,LearningTask,1,56,
200,s,-200,,,,,,,,,,,,,,,,,0,0,0,0,3,0,12,2,,,,,,,,,,,,,,,,,,,,,,,,,,,,,s,1,None,0,,4.0,linegray.gif,stop,,,,,,,,0.38418507576,,,,,,,,,,,,,,,,,,,,,,,,4.16,0.513771057129,0.000893115997314,0.38418507576,1,s,281.711072206,,,,,,,,,,,,,,,,,,,,,,,,,,,,,,,,,2015_Jun_23_1223,59.791102691,LearningTask,1,56,
-200,q,200,,,,,,,,,,,,,,,,,0,0,0,0,3,1,13,1,,,,,,,,,,,,,,,,,,,,,,,,,,,,,q,1,None,0,,0.5,hexagonyellow.gif,stop,,,,,,,,0.401116132736,,,,,,,,,,,,,,,,,,,,,,,,0.35,0.514517068863,0.00089693069458,0.401116132736,1,q,284.714561224,,,,,,,,,,,,,,,,,,,,,,,,,,,,,,,,,2015_Jun_23_1223,59.791102691,LearningTask,1,56,
200,w,200,,,,,,,,,,,,,,,,,0,0,0,0,3,2,14,0,,,,,,,,,,,,,,,,,,,,,,,,,,,,,w,1,None,0,,0.5,hexagonyellow.gif,stop,,,,,,,,0.351789951324,,,,,,,,,,,,,,,,,,,,,,,,0.33,0.513777017593,0.000915050506592,0.351789951324,1,w,287.717725039,,,,,,,,,,,,,,,,,,,,,,,,,,,,,,,,,2015_Jun_23_1223,59.791102691,LearningTask,1,56,
200,s,-200,,,,,,,,,,,,,,,,,0,0,0,0,3,3,15,2,,,,,,,,,,,,,,,,,,,,,,,,,,,,,s,1,None,0,,2.0,circleorange.gif,stop,,,,,,,,0.33408498764,,,,,,,,,,,,,,,,,,,,,,,,0,0.514437913895,0.000907897949219,0.33408498764,1,s,290.721013069,,,,,,,,,,,,,,,,,,,,,,,,,,,,,,,,,2015_Jun_23_1223,59.791102691,LearningTask,1,56,
200,w,200,,,,,,,,,,,,,,,,,0,0,0,0,4,0,16,0,,,,,,,,,,,,,,,,,,,,,,,,,,,,,w,1,None,0,,2.0,circleorange.gif,stop,,,,,,,,0.351233959198,,,,,,,,,,,,,,,,,,,,,,,,2.2,0.514585018158,0.000895977020264,0.351233959198,1,w,293.724664211,,,,,,,,,,,,,,,,,,,,,,,,,,,,,,,,,2015_Jun_23_1223,59.791102691,LearningTask,1,56,
-200,q,200,,,,,,,,,,,,,,,,,0,0,0,0,4,1,17,1,,,,,,,,,,,,,,,,,,,,,,,,,,,,,q,1,None,0,,4.0,trianglewhite.gif,go,,,,,,,,0.267326116562,,,,,,,,,,,,,,,,,,,,,,,,3.96,0.51385807991,0.00090503692627,0.267326116562,1,q,296.727917194,,,,,,,,,,,,,,,,,,,,,,,,,,,,,,,,,2015_Jun_23_1223,59.791102691,LearningTask,1,56,
-200,a,-200,,,,,,,,,,,,,,,,,0,0,0,0,4,2,18,3,,,,,,,,,,,,,,,,,,,,,,,,,,,,,a,1,None,0,,4.0,trianglewhite.gif,go,,,,,,,,0.417460918427,,,,,,,,,,,,,,,,,,,,,,,,3.84,0.514324903488,0.000938892364502,0.417460918427,1,a,299.731280088,,,,,,,,,,,,,,,,,,,,,,,,,,,,,,,,,2015_Jun_23_1223,59.791102691,LearningTask,1,56,
200,s,-200,,,,,,,,,,,,,,,,,0,0,0,0,4,3,19,2,,,,,,,,,,,,,,,,,,,,,,,,,,,,,s,1,None,0,,1.0,squareblue.gif,stop,,,,,,,,0.333999156952,,,,,,,,,,,,,,,,,,,,,,,,0.84,0.514339923859,0.000885009765625,0.333999156952,1,s,302.735261202,,,,,,,,,,,,,,,,,,,,,,,,,,,,,,,,,2015_Jun_23_1223,59.791102691,LearningTask,1,56,
200,w,200,,,,,,,,,,,,,,,,,0,0,0,0,5,0,20,0,,,,,,,,,,,,,,,,,,,,,,,,,,,,,w,1,None,0,,0.5,hexagonyellow.gif,stop,,,,,,,,0.467939138412,,,,,,,,,,,,,,,,,,,,,,,,0,0.513790130615,0.000896215438843,0.467939138412,1,w,305.73793602,,,,,,,,,,,,,,,,,,,,,,,,,,,,,,,,,2015_Jun_23_1223,59.791102691,LearningTask,1,56,
200,s,-200,,,,,,,,,,,,,,,,,0,0,0,0,5,1,21,2,,,,,,,,,,,,,,,,,,,,,,,,,,,,,s,1,None,0,,0.5,hexagonyellow.gif,stop,,,,,,,,0.367686033249,,,,,,,,,,,,,,,,,,,,,,,,0.46,0.514116048813,0.000922918319702,0.367686033249,1,s,308.741176128,,,,,,,,,,,,,,,,,,,,,,,,,,,,,,,,,2015_Jun_23_1223,59.791102691,LearningTask,1,56,
200,w,200,,,,,,,,,,,,,,,,,0,0,0,0,5,2,22,0,,,,,,,,,,,,,,,,,,,,,,,,,,,,,w,1,None,0,,4.0,linegray.gif,stop,,,,,,,,0.367645025253,,,,,,,,,,,,,,,,,,,,,,,,4.19,0.514528036118,0.000907182693481,0.367645025253,1,w,311.744790077,,,,,,,,,,,,,,,,,,,,,,,,,,,,,,,,,2015_Jun_23_1223,59.791102691,LearningTask,1,56,
200,w,200,,,,,,,,,,,,,,,,,0,0,0,0,5,3,23,0,,,,,,,,,,,,,,,,,,,,,,,,,,,,,w,1,None,0,,2.0,circleorange.gif,stop,,,,,,,,0.384110212326,,,,,,,,,,,,,,,,,,,,,,,,2.02,0.51433801651,0.0011351108551,0.384110212326,1,w,314.748286009,,,,,,,,,,,,,,,,,,,,,,,,,,,,,,,,,2015_Jun_23_1223,59.791102691,LearningTask,1,56,
200,w,200,,,,,,,,,,,,,,,,,0,0,0,0,6,0,24,0,,,,,,,,,,,,,,,,,,,,,,,,,,,,,w,1,None,0,,0.5,crosscyan.gif,go,,,,,,,,0.383857011795,,,,,,,,,,,,,,,,,,,,,,,,0,0.514063835144,0.000997066497803,0.383857011795,1,w,317.751346111,,,,,,,,,,,,,,,,,,,,,,,,,,,,,,,,,2015_Jun_23_1223,59.791102691,LearningTask,1,56,
-200,a,-200,,,,,,,,,,,,,,,,,0,0,0,0,6,1,25,3,,,,,,,,,,,,,,,,,,,,,,,,,,,,,a,1,None,0,,1.0,squareblue.gif,stop,,,,,,,,0.417749881744,,,,,,,,,,,,,,,,,,,,,,,,0.85,0.514353990555,0.000882148742676,0.417749881744,1,a,320.754743099,,,,,,,,,,,,,,,,,,,,,,,,,,,,,,,,,2015_Jun_23_1223,59.791102691,LearningTask,1,56,
-200,q,200,,,,,,,,,,,,,,,,,0,0,0,0,6,2,26,1,,,,,,,,,,,,,,,,,,,,,,,,,,,,,q,1,None,0,,0.5,hexagonyellow.gif,stop,,,,,,,,0.31739616394,,,,,,,,,,,,,,,,,,,,,,,,0.55,0.514236927032,0.000895977020264,0.31739616394,1,q,323.758370161,,,,,,,,,,,,,,,,,,,,,,,,,,,,,,,,,2015_Jun_23_1223,59.791102691,LearningTask,1,56,
-200,q,200,,,,,,,,,,,,,,,,,0,0,0,0,6,3,27,1,,,,,,,,,,,,,,,,,,,,,,,,,,,,,q,1,None,0,,4.0,linegray.gif,stop,,,,,,,,0.351125001907,,,,,,,,,,,,,,,,,,,,,,,,0,0.513870000839,0.00104999542236,0.351125001907,1,q,326.7614851,,,,,,,,,,,,,,,,,,,,,,,,,,,,,,,,,2015_Jun_23_1223,59.791102691,LearningTask,1,56,
-200,a,-200,,,,,,,,,,,,,,,,,0,0,0,0,7,0,28,3,,,,,,,,,,,,,,,,,,,,,,,,,,,,,a,1,None,0,,4.0,trianglewhite.gif,go,,,,,,,,0.384311914444,,,,,,,,,,,,,,,,,,,,,,,,4.09,0.514413118362,0.000883102416992,0.384311914444,1,a,329.764803171,,,,,,,,,,,,,,,,,,,,,,,,,,,,,,,,,2015_Jun_23_1223,59.791102691,LearningTask,1,56,
-200,a,-200,,,,,,,,,,,,,,,,,0,0,0,0,7,1,29,3,,,,,,,,,,,,,,,,,,,,,,,,,,,,,a,1,None,0,,0.5,crosscyan.gif,go,,,,,,,,0.40083694458,,,,,,,,,,,,,,,,,,,,,,,,0.6,0.514594078064,0.000938892364502,0.40083694458,1,a,332.768431187,,,,,,,,,,,,,,,,,,,,,,,,,,,,,,,,,2015_Jun_23_1223,59.791102691,LearningTask,1,56,
-200,a,-200,,,,,,,,,,,,,,,,,0,0,0,0,7,2,30,3,,,,,,,,,,,,,,,,,,,,,,,,,,,,,a,1,None,0,,1.0,squareblue.gif,stop,,,,,,,,0.384958982468,,,,,,,,,,,,,,,,,,,,,,,,0.99,0.513463973999,0.000897884368896,0.384958982468,1,a,335.771525145,,,,,,,,,,,,,,,,,,,,,,,,,,,,,,,,,2015_Jun_23_1223,59.791102691,LearningTask,1,56,
200,w,200,,,,,,,,,,,,,,,,,0,0,0,0,7,3,31,0,,,,,,,,,,,,,,,,,,,,,,,,,,,,,w,1,None,0,,0.5,crosscyan.gif,go,,,,,,,,0.434787988663,,,,,,,,,,,,,,,,,,,,,,,,0,0.514310121536,0.000915050506592,0.434787988663,1,w,338.774765015,,,,,,,,,,,,,,,,,,,,,,,,,,,,,,,,,2015_Jun_23_1223,59.791102691,LearningTask,1,56,
-200,a,-200,,,,,,,,,,,,,,,,,0,0,0,0,8,0,32,3,,,,,,,,,,,,,,,,,,,,,,,,,,,,,a,1,None,0,,1.0,squareblue.gif,stop,,,,,,,,0.417362928391,,,,,,,,,,,,,,,,,,,,,,,,0.98,0.514620065689,0.000885009765625,0.417362928391,1,a,341.778510094,,,,,,,,,,,,,,,,,,,,,,,,,,,,,,,,,2015_Jun_23_1223,59.791102691,LearningTask,1,56,
200,w,200,,,,,,,,,,,,,,,,,0,0,0,0,8,1,33,0,,,,,,,,,,,,,,,,,,,,,,,,,,,,,w,1,None,0,,1.0,invertedtrianglegreen.gif,go,,,,,,,,0.400179862976,,,,,,,,,,,,,,,,,,,,,,,,0,0.513790130615,0.000936031341553,0.400179862976,1,w,344.78177309,,,,,,,,,,,,,,,,,,,,,,,,,,,,,,,,,2015_Jun_23_1223,59.791102691,LearningTask,1,56,
200,s,-200,,,,,,,,,,,,,,,,,0,0,0,0,8,2,34,2,,,,,,,,,,,,,,,,,,,,,,,,,,,,,s,1,None,0,,0.5,crosscyan.gif,go,,,,,,,,0.351212024689,,,,,,,,,,,,,,,,,,,,,,,,0.38,0.514112949371,0.000941038131714,0.351212024689,1,s,347.784949064,,,,,,,,,,,,,,,,,,,,,,,,,,,,,,,,,2015_Jun_23_1223,59.791102691,LearningTask,1,56,
-200,q,200,,,,,,,,,,,,,,,,,0,0,0,0,8,3,35,1,,,,,,,,,,,,,,,,,,,,,,,,,,,,,q,1,None,0,,1.0,invertedtrianglegreen.gif,go,,,,,,,,0.367564201355,,,,,,,,,,,,,,,,,,,,,,,,1.1,0.514271974564,0.000895023345947,0.367564201355,1,q,350.788594007,,,,,,,,,,,,,,,,,,,,,,,,,,,,,,,,,2015_Jun_23_1223,59.791102691,LearningTask,1,56,
-200,q,200,,,,,,,,,,,,,,,,,0,0,0,0,9,0,36,1,,,,,,,,,,,,,,,,,,,,,,,,,,,,,q,1,None,0,,2.0,circleorange.gif,stop,,,,,,,,0.383890151978,,,,,,,,,,,,,,,,,,,,,,,,1.84,0.513932943344,0.00091290473938,0.383890151978,1,q,353.791566133,,,,,,,,,,,,,,,,,,,,,,,,,,,,,,,,,2015_Jun_23_1223,59.791102691,LearningTask,1,56,
200,w,200,,,,,,,,,,,,,,,,,0,0,0,0,9,1,37,0,,,,,,,,,,,,,,,,,,,,,,,,,,,,,w,1,None,0,,0.5,crosscyan.gif,go,,,,,,,,0.417801856995,,,,,,,,,,,,,,,,,,,,,,,,0.63,0.514528036118,0.00095796585083,0.417801856995,1,w,356.794970036,,,,,,,,,,,,,,,,,,,,,,,,,,,,,,,,,2015_Jun_23_1223,59.791102691,LearningTask,1,56,
-200,a,-200,,,,,,,,,,,,,,,,,0,0,0,0,9,2,38,3,,,,,,,,,,,,,,,,,,,,,,,,,,,,,a,1,None,0,,0.5,crosscyan.gif,go,,,,,,,,0.334251880646,,,,,,,,,,,,,,,,,,,,,,,,0.69,0.514329195023,0.000924110412598,0.334251880646,1,a,359.798581123,,,,,,,,,,,,,,,,,,,,,,,,,,,,,,,,,2015_Jun_23_1223,59.791102691,LearningTask,1,56,
-200,q,200,,,,,,,,,,,,,,,,,0,0,0,0,9,3,39,1,,,,,,,,,,,,,,,,,,,,,,,,,,,,,q,1,None,0,,2.0,circleorange.gif,stop,,,,,,,,0.283973932266,,,,,,,,,,,,,,,,,,,,,,,,2.17,0.514425039291,0.000908851623535,0.283973932266,1,q,362.801956177,,,,,,,,,,,,,,,,,,,,,,,,,,,,,,,,,2015_Jun_23_1223,59.791102691,LearningTask,1,56,
-200,q,200,,,,,,,,,,,,,,,,,0,0,0,0,10,0,40,1,,,,,,,,,,,,,,,,,,,,,,,,,,,,,q,1,None,0,,1.0,invertedtrianglegreen.gif,go,,,,,,,,0.350864887238,,,,,,,,,,,,,,,,,,,,,,,,1.2,0.514174938202,0.00103187561035,0.350864887238,1,q,365.804984093,,,,,,,,,,,,,,,,,,,,,,,,,,,,,,,,,2015_Jun_23_1223,59.791102691,LearningTask,1,56,
200,s,-200,,,,,,,,,,,,,,,,,0,0,0,0,10,1,41,2,,,,,,,,,,,,,,,,,,,,,,,,,,,,,s,1,None,0,,2.0,diamondmagenta.gif,go,,,,,,,,0.400897979736,,,,,,,,,,,,,,,,,,,,,,,,1.86,0.514437198639,0.000891208648682,0.400897979736,1,s,368.808479071,,,,,,,,,,,,,,,,,,,,,,,,,,,,,,,,,2015_Jun_23_1223,59.791102691,LearningTask,1,56,
-200,a,-200,,,,,,,,,,,,,,,,,0,0,0,0,10,2,42,3,,,,,,,,,,,,,,,,,,,,,,,,,,,,,a,1,None,0,,1.0,squareblue.gif,stop,,,,,,,,0.400427103043,,,,,,,,,,,,,,,,,,,,,,,,1.05,0.514791965485,0.000887870788574,0.400427103043,1,a,371.811949015,,,,,,,,,,,,,,,,,,,,,,,,,,,,,,,,,2015_Jun_23_1223,59.791102691,LearningTask,1,56,
-200,q,200,,,,,,,,,,,,,,,,,0,0,0,0,10,3,43,1,,,,,,,,,,,,,,,,,,,,,,,,,,,,,q,1,None,0,,0.5,crosscyan.gif,go,,,,,,,,0.351293087006,,,,,,,,,,,,,,,,,,,,,,,,0.74,0.513890028,0.00097918510437,0.351293087006,1,q,374.815333128,,,,,,,,,,,,,,,,,,,,,,,,,,,,,,,,,2015_Jun_23_1223,59.791102691,LearningTask,1,56,
-200,a,-200,,,,,,,,,,,,,,,,,0,0,0,0,11,0,44,3,,,,,,,,,,,,,,,,,,,,,,,,,,,,,a,1,None,0,,1.0,invertedtrianglegreen.gif,go,,,,,,,,0.350908041,,,,,,,,,,,,,,,,,,,,,,,,0,0.513725042343,0.00105500221252,0.350908041,1,a,377.818638086,,,,,,,,,,,,,,,,,,,,,,,,,,,,,,,,,2015_Jun_23_1223,59.791102691,LearningTask,1,56,
200,s,-200,,,,,,,,,,,,,,,,,0,0,0,0,11,1,45,2,,,,,,,,,,,,,,,,,,,,,,,,,,,,,s,1,None,0,,4.0,trianglewhite.gif,go,,,,,,,,0.400278091431,,,,,,,,,,,,,,,,,,,,,,,,0,0.514816045761,0.00088906288147,0.400278091431,1,s,380.821984053,,,,,,,,,,,,,,,,,,,,,,,,,,,,,,,,,2015_Jun_23_1223,59.791102691,LearningTask,1,56,
-200,a,-200,,,,,,,,,,,,,,,,,0,0,0,0,11,2,46,3,,,,,,,,,,,,,,,,,,,,,,,,,,,,,a,1,None,0,,2.0,diamondmagenta.gif,go,,,,,,,,0.384266853333,,,,,,,,,,,,,,,,,,,,,,,,1.86,0.514076948166,0.000911951065063,0.384266853333,1,a,383.825146198,,,,,,,,,,,,,,,,,,,,,,,,,,,,,,,,,2015_Jun_23_1223,59.791102691,LearningTask,1,56,
200,w,200,,,,,,,,,,,,,,,,,0,0,0,0,11,3,47,0,,,,,,,,,,,,,,,,,,,,,,,,,,,,,w,1,None,0,,1.0,squareblue.gif,stop,,,,,,,,0.384590864182,,,,,,,,,,,,,,,,,,,,,,,,0,0.514445781708,0.000927925109863,0.384590864182,1,w,386.828491211,,,,,,,,,,,,,,,,,,,,,,,,,,,,,,,,,2015_Jun_23_1223,59.791102691,LearningTask,1,56,
-200,a,-200,,,,,,,,,,,,,,,,,0,0,0,0,12,0,48,3,,,,,,,,,,,,,,,,,,,,,,,,,,,,,a,1,None,0,,0.5,crosscyan.gif,go,,,,,,,,0.451112985611,,,,,,,,,,,,,,,,,,,,,,,,0,0.514322042465,0.000885963439941,0.451112985611,1,a,389.832042217,,,,,,,,,,,,,,,,,,,,,,,,,,,,,,,,,2015_Jun_23_1223,59.791102691,LearningTask,1,56,
-200,a,-200,,,,,,,,,,,,,,,,,0,0,0,0,12,1,49,3,,,,,,,,,,,,,,,,,,,,,,,,,,,,,a,1,None,0,,1.0,invertedtrianglegreen.gif,go,,,,,,,,0.451420068741,,,,,,,,,,,,,,,,,,,,,,,,1.22,0.513776063919,0.000921010971069,0.451420068741,1,a,392.835252047,,,,,,,,,,,,,,,,,,,,,,,,,,,,,,,,,2015_Jun_23_1223,59.791102691,LearningTask,1,56,
-200,a,-200,,,,,,,,,,,,,,,,,0,0,0,0,12,2,50,3,,,,,,,,,,,,,,,,,,,,,,,,,,,,,a,1,None,0,,0.5,crosscyan.gif,go,,,,,,,,0.417809009552,,,,,,,,,,,,,,,,,,,,,,,,0,0.514461040497,0.000961065292358,0.417809009552,1,a,395.83871603,,,,,,,,,,,,,,,,,,,,,,,,,,,,,,,,,2015_Jun_23_1223,59.791102691,LearningTask,1,56,
-200,q,200,,,,,,,,,,,,,,,,,0,0,0,0,12,3,51,1,,,,,,,,,,,,,,,,,,,,,,,,,,,,,q,1,None,0,,1.0,invertedtrianglegreen.gif,go,,,,,,,,0.43491101265,,,,,,,,,,,,,,,,,,,,,,,,0.79,0.513962030411,0.000885009765625,0.43491101265,1,q,398.842425108,,,,,,,,,,,,,,,,,,,,,,,,,,,,,,,,,2015_Jun_23_1223,59.791102691,LearningTask,1,56,
-200,q,200,,,,,,,,,,,,,,,,,0,0,0,0,13,0,52,1,,,,,,,,,,,,,,,,,,,,,,,,,,,,,q,1,None,0,,0.5,hexagonyellow.gif,stop,,,,,,,,0.351026058197,,,,,,,,,,,,,,,,,,,,,,,,0,0.513767957687,0.0011579990387,0.351026058197,1,q,401.845248222,,,,,,,,,,,,,,,,,,,,,,,,,,,,,,,,,2015_Jun_23_1223,59.791102691,LearningTask,1,56,
200,w,200,,,,,,,,,,,,,,,,,0,0,0,0,13,1,53,0,,,,,,,,,,,,,,,,,,,,,,,,,,,,,w,1,None,0,,2.0,circleorange.gif,stop,,,,,,,,0.351041793823,,,,,,,,,,,,,,,,,,,,,,,,0,0.514395952225,0.000959157943726,0.351041793823,1,w,404.848865032,,,,,,,,,,,,,,,,,,,,,,,,,,,,,,,,,2015_Jun_23_1223,59.791102691,LearningTask,1,56,
-200,q,200,,,,,,,,,,,,,,,,,0,0,0,0,13,2,54,1,,,,,,,,,,,,,,,,,,,,,,,,,,,,,q,1,None,0,,1.0,invertedtrianglegreen.gif,go,,,,,,,,0.434543848038,,,,,,,,,,,,,,,,,,,,,,,,1.09,0.514267206192,0.00090217590332,0.434543848038,1,q,407.852310181,,,,,,,,,,,,,,,,,,,,,,,,,,,,,,,,,2015_Jun_23_1223,59.791102691,LearningTask,1,56,
200,s,-200,,,,,,,,,,,,,,,,,0,0,0,0,13,3,55,2,,,,,,,,,,,,,,,,,,,,,,,,,,,,,s,1,None,0,,0.5,crosscyan.gif,go,,,,,,,,0.400718927383,,,,,,,,,,,,,,,,,,,,,,,,0,0.51424407959,0.000894069671631,0.400718927383,1,s,410.855430126,,,,,,,,,,,,,,,,,,,,,,,,,,,,,,,,,2015_Jun_23_1223,59.791102691,LearningTask,1,56,
200,s,-200,,,,,,,,,,,,,,,,,0,0,0,0,14,0,56,2,,,,,,,,,,,,,,,,,,,,,,,,,,,,,s,1,None,0,,1.0,squareblue.gif,stop,,,,,,,,0.384104013443,,,,,,,,,,,,,,,,,,,,,,,,1.01,0.514468193054,0.00131607055664,0.384104013443,1,s,413.85863018,,,,,,,,,,,,,,,,,,,,,,,,,,,,,,,,,2015_Jun_23_1223,59.791102691,LearningTask,1,56,
200,s,-200,,,,,,,,,,,,,,,,,0,0,0,0,14,1,57,2,,,,,,,,,,,,,,,,,,,,,,,,,,,,,s,1,None,0,,2.0,circleorange.gif,stop,,,,,,,,0.451148986816,,,,,,,,,,,,,,,,,,,,,,,,1.83,0.514446973801,0.000910997390747,0.451148986816,1,s,416.862092018,,,,,,,,,,,,,,,,,,,,,,,,,,,,,,,,,2015_Jun_23_1223,59.791102691,LearningTask,1,56,
200,s,-200,,,,,,,,,,,,,,,,,0,0,0,0,14,2,58,2,,,,,,,,,,,,,,,,,,,,,,,,,,,,,s,1,None,0,,1.0,invertedtrianglegreen.gif,go,,,,,,,,0.367636919022,,,,,,,,,,,,,,,,,,,,,,,,0.83,0.514384031296,0.000917911529541,0.367636919022,1,s,419.865693092,,,,,,,,,,,,,,,,,,,,,,,,,,,,,,,,,2015_Jun_23_1223,59.791102691,LearningTask,1,56,
200,s,-200,,,,,,,,,,,,,,,,,0,0,0,0,14,3,59,2,,,,,,,,,,,,,,,,,,,,,,,,,,,,,s,1,None,0,,4.0,trianglewhite.gif,go,,,,,,,,0.383939027786,,,,,,,,,,,,,,,,,,,,,,,,3.94,0.513912200928,0.000982999801636,0.383939027786,1,s,422.868782997,,,,,,,,,,,,,,,,,,,,,,,,,,,,,,,,,2015_Jun_23_1223,59.791102691,LearningTask,1,56,
-200,q,200,,,,,,,,,,,,,,,,,0,0,0,0,15,0,60,1,,,,,,,,,,,,,,,,,,,,,,,,,,,,,q,1,None,0,,4.0,trianglewhite.gif,go,,,,,,,,0.434287071228,,,,,,,,,,,,,,,,,,,,,,,,0,0.514233112335,0.000946998596191,0.434287071228,1,q,425.872256041,,,,,,,,,,,,,,,,,,,,,,,,,,,,,,,,,2015_Jun_23_1223,59.791102691,LearningTask,1,56,
200,w,200,,,,,,,,,,,,,,,,,0,0,0,0,15,1,61,0,,,,,,,,,,,,,,,,,,,,,,,,,,,,,w,1,None,0,,4.0,trianglewhite.gif,go,,,,,,,,0.417593002319,,,,,,,,,,,,,,,,,,,,,,,,4.09,0.514127016068,0.000892162322998,0.417593002319,1,w,428.875752211,,,,,,,,,,,,,,,,,,,,,,,,,,,,,,,,,2015_Jun_23_1223,59.791102691,LearningTask,1,56,
-200,a,-200,,,,,,,,,,,,,,,,,0,0,0,0,15,2,62,3,,,,,,,,,,,,,,,,,,,,,,,,,,,,,a,1,None,0,,1.0,squareblue.gif,stop,,,,,,,,0.367741107941,,,,,,,,,,,,,,,,,,,,,,,,0,0.51374578476,0.000916004180908,0.367741107941,1,a,431.878889084,,,,,,,,,,,,,,,,,,,,,,,,,,,,,,,,,2015_Jun_23_1223,59.791102691,LearningTask,1,56,
-200,q,200,,,,,,,,,,,,,,,,,0,0,0,0,15,3,63,1,,,,,,,,,,,,,,,,,,,,,,,,,,,,,q,1,None,0,,4.0,linegray.gif,stop,,,,,,,,0.467433929443,,,,,,,,,,,,,,,,,,,,,,,,0,0.513754844666,0.00128102302551,0.467433929443,1,q,434.882174015,,,,,,,,,,,,,,,,,,,,,,,,,,,,,,,,,2015_Jun_23_1223,59.791102691,LearningTask,1,56,
200,w,200,,,,,,,,,,,,,,,,,0,0,0,0,16,0,64,0,,,,,,,,,,,,,,,,,,,,,,,,,,,,,w,1,None,0,,4.0,trianglewhite.gif,go,,,,,,,,0.383857965469,,,,,,,,,,,,,,,,,,,,,,,,3.76,0.514740943909,0.00128889083862,0.383857965469,1,w,437.885607004,,,,,,,,,,,,,,,,,,,,,,,,,,,,,,,,,2015_Jun_23_1223,59.791102691,LearningTask,1,56,
200,w,200,,,,,,,,,,,,,,,,,0,0,0,0,16,1,65,0,,,,,,,,,,,,,,,,,,,,,,,,,,,,,w,1,None,0,,2.0,circleorange.gif,stop,,,,,,,,0.334167003632,,,,,,,,,,,,,,,,,,,,,,,,2.14,0.514002084732,0.00128507614136,0.334167003632,1,w,440.88897419,,,,,,,,,,,,,,,,,,,,,,,,,,,,,,,,,2015_Jun_23_1223,59.791102691,LearningTask,1,56,
200,s,-200,,,,,,,,,,,,,,,,,0,0,0,0,16,2,66,2,,,,,,,,,,,,,,,,,,,,,,,,,,,,,s,1,None,0,,1.0,squareblue.gif,stop,,,,,,,,0.45138502121,,,,,,,,,,,,,,,,,,,,,,,,0,0.514455080032,0.00160598754883,0.45138502121,1,s,443.89282012,,,,,,,,,,,,,,,,,,,,,,,,,,,,,,,,,2015_Jun_23_1223,59.791102691,LearningTask,1,56,
-200,a,-200,,,,,,,,,,,,,,,,,0,0,0,0,16,3,67,3,,,,,,,,,,,,,,,,,,,,,,,,,,,,,a,1,None,0,,4.0,linegray.gif,stop,,,,,,,,0.3675968647,,,,,,,,,,,,,,,,,,,,,,,,4.22,0.513758182526,0.000900030136108,0.3675968647,1,a,446.896197081,,,,,,,,,,,,,,,,,,,,,,,,,,,,,,,,,2015_Jun_23_1223,59.791102691,LearningTask,1,56,
-200,a,-200,,,,,,,,,,,,,,,,,0,0,0,0,17,0,68,3,,,,,,,,,,,,,,,,,,,,,,,,,,,,,a,1,None,0,,4.0,linegray.gif,stop,,,,,,,,0.351157188416,,,,,,,,,,,,,,,,,,,,,,,,3.88,0.513847112656,0.000906944274902,0.351157188416,1,a,449.899023056,,,,,,,,,,,,,,,,,,,,,,,,,,,,,,,,,2015_Jun_23_1223,59.791102691,LearningTask,1,56,
-200,a,-200,,,,,,,,,,,,,,,,,0,0,0,0,17,1,69,3,,,,,,,,,,,,,,,,,,,,,,,,,,,,,a,1,None,0,,2.0,diamondmagenta.gif,go,,,,,,,,0.434460163116,,,,,,,,,,,,,,,,,,,,,,,,0,0.514056921005,0.00140285491943,0.434460163116,1,a,452.902372122,,,,,,,,,,,,,,,,,,,,,,,,,,,,,,,,,2015_Jun_23_1223,59.791102691,LearningTask,1,56,
200,s,-200,,,,,,,,,,,,,,,,,0,0,0,0,17,2,70,2,,,,,,,,,,,,,,,,,,,,,,,,,,,,,s,1,None,0,,2.0,diamondmagenta.gif,go,,,,,,,,0.401166200638,,,,,,,,,,,,,,,,,,,,,,,,0,0.514356851578,0.000891923904419,0.401166200638,1,s,455.905856133,,,,,,,,,,,,,,,,,,,,,,,,,,,,,,,,,2015_Jun_23_1223,59.791102691,LearningTask,1,56,
-200,a,-200,,,,,,,,,,,,,,,,,0,0,0,0,17,3,71,3,,,,,,,,,,,,,,,,,,,,,,,,,,,,,a,1,None,0,,1.0,squareblue.gif,stop,,,,,,,,0.400846004486,,,,,,,,,,,,,,,,,,,,,,,,0,0.514270067215,0.000877141952515,0.400846004486,1,a,458.909129143,,,,,,,,,,,,,,,,,,,,,,,,,,,,,,,,,2015_Jun_23_1223,59.791102691,LearningTask,1,56,
-200,a,-200,,,,,,,,,,,,,,,,,0,0,0,0,18,0,72,3,,,,,,,,,,,,,,,,,,,,,,,,,,,,,a,1,None,0,,2.0,circleorange.gif,stop,,,,,,,,0.367316007614,,,,,,,,,,,,,,,,,,,,,,,,1.94,0.514328956604,0.00120282173157,0.367316007614,1,a,461.912343025,,,,,,,,,,,,,,,,,,,,,,,,,,,,,,,,,2015_Jun_23_1223,59.791102691,LearningTask,1,56,
-200,q,200,,,,,,,,,,,,,,,,,0,0,0,0,18,1,73,1,,,,,,,,,,,,,,,,,,,,,,,,,,,,,q,1,None,0,,4.0,trianglewhite.gif,go,,,,,,,,0.333980083466,,,,,,,,,,,,,,,,,,,,,,,,3.75,0.514595031738,0.000930070877075,0.333980083466,1,q,464.915859222,,,,,,,,,,,,,,,,,,,,,,,,,,,,,,,,,2015_Jun_23_1223,59.791102691,LearningTask,1,56,
200,w,200,,,,,,,,,,,,,,,,,0,0,0,0,18,2,74,0,,,,,,,,,,,,,,,,,,,,,,,,,,,,,w,1,None,0,,2.0,circleorange.gif,stop,,,,,,,,0.400913000107,,,,,,,,,,,,,,,,,,,,,,,,1.81,0.514362096786,0.000885963439941,0.400913000107,1,w,467.919304132,,,,,,,,,,,,,,,,,,,,,,,,,,,,,,,,,2015_Jun_23_1223,59.791102691,LearningTask,1,56,
200,w,200,,,,,,,,,,,,,,,,,0,0,0,0,18,3,75,0,,,,,,,,,,,,,,,,,,,,,,,,,,,,,w,1,None,0,,2.0,circleorange.gif,stop,,,,,,,,0.41788482666,,,,,,,,,,,,,,,,,,,,,,,,1.78,0.514036178589,0.00105714797974,0.41788482666,1,w,470.92237711,,,,,,,,,,,,,,,,,,,,,,,,,,,,,,,,,2015_Jun_23_1223,59.791102691,LearningTask,1,56,
200,w,200,,,,,,,,,,,,,,,,,0,0,0,0,19,0,76,0,,,,,,,,,,,,,,,,,,,,,,,,,,,,,w,1,None,0,,4.0,linegray.gif,stop,,,,,,,,0.400429964066,,,,,,,,,,,,,,,,,,,,,,,,0,0.514765977859,0.000952005386353,0.400429964066,1,w,473.925886154,,,,,,,,,,,,,,,,,,,,,,,,,,,,,,,,,2015_Jun_23_1223,59.791102691,LearningTask,1,56,
-200,q,200,,,,,,,,,,,,,,,,,0,0,0,0,19,1,77,1,,,,,,,,,,,,,,,,,,,,,,,,,,,,,q,1,None,0,,1.0,invertedtrianglegreen.gif,go,,,,,,,,0.38460111618,,,,,,,,,,,,,,,,,,,,,,,,0,0.514456987381,0.00126910209656,0.38460111618,1,q,476.929265022,,,,,,,,,,,,,,,,,,,,,,,,,,,,,,,,,2015_Jun_23_1223,59.791102691,LearningTask,1,56,
200,s,-200,,,,,,,,,,,,,,,,,0,0,0,0,19,2,78,2,,,,,,,,,,,,,,,,,,,,,,,,,,,,,s,1,None,0,,2.0,diamondmagenta.gif,go,,,,,,,,0.40099811554,,,,,,,,,,,,,,,,,,,,,,,,0,0.513930082321,0.000931024551392,0.40099811554,1,s,479.932507038,,,,,,,,,,,,,,,,,,,,,,,,,,,,,,,,,2015_Jun_23_1223,59.791102691,LearningTask,1,56,
200,w,200,,,,,,,,,,,,,,,,,0,0,0,0,19,3,79,0,,,,,,,,,,,,,,,,,,,,,,,,,,,,,w,1,None,0,,1.0,invertedtrianglegreen.gif,go,,,,,,,,0.367510080338,,,,,,,,,,,,,,,,,,,,,,,,1.03,0.514481067657,0.000898122787476,0.367510080338,1,w,482.935924053,,,,,,,,,,,,,,,,,,,,,,,,,,,,,,,,,2015_Jun_23_1223,59.791102691,LearningTask,1,56,
-200,q,200,,,,,,,,,,,,,,,,,0,0,0,0,20,0,80,1,,,,,,,,,,,,,,,,,,,,,,,,,,,,,q,1,None,0,,4.0,trianglewhite.gif,go,,,,,,,,0.401046991348,,,,,,,,,,,,,,,,,,,,,,,,3.93,0.514414072037,0.000905990600586,0.401046991348,1,q,485.939557076,,,,,,,,,,,,,,,,,,,,,,,,,,,,,,,,,2015_Jun_23_1223,59.791102691,LearningTask,1,56,
200,w,200,,,,,,,,,,,,,,,,,0,0,0,0,20,1,81,0,,,,,,,,,,,,,,,,,,,,,,,,,,,,,w,1,None,0,,2.0,circleorange.gif,stop,,,,,,,,0.43492102623,,,,,,,,,,,,,,,,,,,,,,,,1.84,0.513872861862,0.00092887878418,0.43492102623,1,w,488.942717075,,,,,,,,,,,,,,,,,,,,,,,,,,,,,,,,,2015_Jun_23_1223,59.791102691,LearningTask,1,56,
-200,a,-200,,,,,,,,,,,,,,,,,0,0,0,0,20,2,82,3,,,,,,,,,,,,,,,,,,,,,,,,,,,,,a,1,None,0,,1.0,squareblue.gif,stop,,,,,,,,0.50121307373,,,,,,,,,,,,,,,,,,,,,,,,0,0.514485120773,0.000964164733887,0.50121307373,1,a,491.946087122,,,,,,,,,,,,,,,,,,,,,,,,,,,,,,,,,2015_Jun_23_1223,59.791102691,LearningTask,1,56,
200,s,-200,,,,,,,,,,,,,,,,,0,0,0,0,20,3,83,2,,,,,,,,,,,,,,,,,,,,,,,,,,,,,s,1,None,0,,2.0,circleorange.gif,stop,,,,,,,,0.367806911469,,,,,,,,,,,,,,,,,,,,,,,,2.1,0.514141082764,0.00089693069458,0.367806911469,1,s,494.949717999,,,,,,,,,,,,,,,,,,,,,,,,,,,,,,,,,2015_Jun_23_1223,59.791102691,LearningTask,1,56,
200,w,200,,,,,,,,,,,,,,,,,0,0,0,0,21,0,84,0,,,,,,,,,,,,,,,,,,,,,,,,,,,,,w,1,None,0,,2.0,circleorange.gif,stop,,,,,,,,0.367547988892,,,,,,,,,,,,,,,,,,,,,,,,0,0.513941049576,0.000895023345947,0.367547988892,1,w,497.952676058,,,,,,,,,,,,,,,,,,,,,,,,,,,,,,,,,2015_Jun_23_1223,59.791102691,LearningTask,1,56,
-200,q,200,,,,,,,,,,,,,,,,,0,0,0,0,21,1,85,1,,,,,,,,,,,,,,,,,,,,,,,,,,,,,q,1,None,0,,2.0,diamondmagenta.gif,go,,,,,,,,0.350937843323,,,,,,,,,,,,,,,,,,,,,,,,2.22,0.5142390728,0.00094199180603,0.350937843323,1,q,500.956397057,,,,,,,,,,,,,,,,,,,,,,,,,,,,,,,,,2015_Jun_23_1223,59.791102691,LearningTask,1,56,
200,s,-200,,,,,,,,,,,,,,,,,0,0,0,0,21,2,86,2,,,,,,,,,,,,,,,,,,,,,,,,,,,,,s,1,None,0,,4.0,linegray.gif,stop,,,,,,,,0.450926065445,,,,,,,,,,,,,,,,,,,,,,,,4.18,0.514187097549,0.00089693069458,0.450926065445,1,s,503.95967412,,,,,,,,,,,,,,,,,,,,,,,,,,,,,,,,,2015_Jun_23_1223,59.791102691,LearningTask,1,56,
200,s,-200,,,,,,,,,,,,,,,,,0,0,0,0,21,3,87,2,,,,,,,,,,,,,,,,,,,,,,,,,,,,,s,1,None,0,,4.0,linegray.gif,stop,,,,,,,,0.384170055389,,,,,,,,,,,,,,,,,,,,,,,,4.15,0.514173030853,0.000902891159058,0.384170055389,1,s,506.96303606,,,,,,,,,,,,,,,,,,,,,,,,,,,,,,,,,2015_Jun_23_1223,59.791102691,LearningTask,1,56,
-200,a,-200,,,,,,,,,,,,,,,,,0,0,0,0,22,0,88,3,,,,,,,,,,,,,,,,,,,,,,,,,,,,,a,1,None,0,,1.0,squareblue.gif,stop,,,,,,,,0.400996923447,,,,,,,,,,,,,,,,,,,,,,,,1.24,0.513967037201,0.00132703781128,0.400996923447,1,a,509.96610117,,,,,,,,,,,,,,,,,,,,,,,,,,,,,,,,,2015_Jun_23_1223,59.791102691,LearningTask,1,56,
200,s,-200,,,,,,,,,,,,,,,,,0,0,0,0,22,1,89,2,,,,,,,,,,,,,,,,,,,,,,,,,,,,,s,1,None,0,,2.0,diamondmagenta.gif,go,,,,,,,,0.400788068771,,,,,,,,,,,,,,,,,,,,,,,,1.93,0.514569044113,0.000895977020264,0.400788068771,1,s,512.969601154,,,,,,,,,,,,,,,,,,,,,,,,,,,,,,,,,2015_Jun_23_1223,59.791102691,LearningTask,1,56,
200,w,200,,,,,,,,,,,,,,,,,0,0,0,0,22,2,90,0,,,,,,,,,,,,,,,,,,,,,,,,,,,,,w,1,None,0,,0.5,crosscyan.gif,go,,,,,,,,0.400974035263,,,,,,,,,,,,,,,,,,,,,,,,0.29,0.514212846756,0.00128793716431,0.400974035263,1,w,515.972993135,,,,,,,,,,,,,,,,,,,,,,,,,,,,,,,,,2015_Jun_23_1223,59.791102691,LearningTask,1,56,
200,s,-200,,,,,,,,,,,,,,,,,0,0,0,0,22,3,91,2,,,,,,,,,,,,,,,,,,,,,,,,,,,,,s,1,None,0,,4.0,linegray.gif,stop,,,,,,,,0.333787202835,,,,,,,,,,,,,,,,,,,,,,,,3.92,0.514092922211,0.000956058502197,0.333787202835,1,s,518.976268053,,,,,,,,,,,,,,,,,,,,,,,,,,,,,,,,,2015_Jun_23_1223,59.791102691,LearningTask,1,56,
200,s,-200,,,,,,,,,,,,,,,,,0,0,0,0,23,0,92,2,,,,,,,,,,,,,,,,,,,,,,,,,,,,,s,1,None,0,,4.0,trianglewhite.gif,go,,,,,,,,0.384167909622,,,,,,,,,,,,,,,,,,,,,,,,0,0.514410018921,0.000892877578735,0.384167909622,1,s,521.979705095,,,,,,,,,,,,,,,,,,,,,,,,,,,,,,,,,2015_Jun_23_1223,59.791102691,LearningTask,1,56,
-200,a,-200,,,,,,,,,,,,,,,,,0,0,0,0,23,1,93,3,,,,,,,,,,,,,,,,,,,,,,,,,,,,,a,1,None,0,,0.5,hexagonyellow.gif,stop,,,,,,,,0.451169013977,,,,,,,,,,,,,,,,,,,,,,,,0.28,0.513921022415,0.00130796432495,0.451169013977,1,a,524.982964039,,,,,,,,,,,,,,,,,,,,,,,,,,,,,,,,,2015_Jun_23_1223,59.791102691,LearningTask,1,56,
200,s,-200,,,,,,,,,,,,,,,,,0,0,0,0,23,2,94,2,,,,,,,,,,,,,,,,,,,,,,,,,,,,,s,1,None,0,,2.0,circleorange.gif,stop,,,,,,,,0.385015010834,,,,,,,,,,,,,,,,,,,,,,,,2.24,0.513847112656,0.000929117202759,0.385015010834,1,s,527.986314058,,,,,,,,,,,,,,,,,,,,,,,,,,,,,,,,,2015_Jun_23_1223,59.791102691,LearningTask,1,56,
-200,q,200,,,,,,,,,,,,,,,,,0,0,0,0,23,3,95,1,,,,,,,,,,,,,,,,,,,,,,,,,,,,,q,1,None,0,,2.0,circleorange.gif,stop,,,,,,,,0.434435844421,,,,,,,,,,,,,,,,,,,,,,,,0,0.514312982559,0.00123691558838,0.434435844421,1,q,530.989521027,,,,,,,,,,,,,,,,,,,,,,,,,,,,,,,,,2015_Jun_23_1223,59.791102691,LearningTask,1,56,
200,w,200,,,,,,,,,,,,,,,,,0,0,0,0,24,0,96,0,,,,,,,,,,,,,,,,,,,,,,,,,,,,,w,1,None,0,,1.0,squareblue.gif,stop,,,,,,,,0.333638906479,,,,,,,,,,,,,,,,,,,,,,,,0,0.514547109604,0.000933885574341,0.333638906479,1,w,533.993357182,,,,,,,,,,,,,,,,,,,,,,,,,,,,,,,,,2015_Jun_23_1223,59.791102691,LearningTask,1,56,
200,s,-200,,,,,,,,,,,,,,,,,0,0,0,0,24,1,97,2,,,,,,,,,,,,,,,,,,,,,,,,,,,,,s,1,None,0,,1.0,squareblue.gif,stop,,,,,,,,0.401031017303,,,,,,,,,,,,,,,,,,,,,,,,1.09,0.513541936874,0.000919103622437,0.401031017303,1,s,536.996436119,,,,,,,,,,,,,,,,,,,,,,,,,,,,,,,,,2015_Jun_23_1223,59.791102691,LearningTask,1,56,
200,w,200,,,,,,,,,,,,,,,,,0,0,0,0,24,2,98,0,,,,,,,,,,,,,,,,,,,,,,,,,,,,,w,1,None,0,,0.5,hexagonyellow.gif,stop,,,,,,,,0.534105062485,,,,,,,,,,,,,,,,,,,,,,,,0,0.514565944672,0.000936985015869,0.534105062485,1,w,539.999905109,,,,,,,,,,,,,,,,,,,,,,,,,,,,,,,,,2015_Jun_23_1223,59.791102691,LearningTask,1,56,
-200,a,-200,,,,,,,,,,,,,,,,,0,0,0,0,24,3,99,3,,,,,,,,,,,,,,,,,,,,,,,,,,,,,a,1,None,0,,4.0,trianglewhite.gif,go,,,,,,,,0.451029062271,,,,,,,,,,,,,,,,,,,,,,,,4.02,0.514070987701,0.000899076461792,0.451029062271,1,a,543.003456116,,,,,,,,,,,,,,,,,,,,,,,,,,,,,,,,,2015_Jun_23_1223,59.791102691,LearningTask,1,56,
,,,,,,,,,,,,,,,,,,,0,0,0,0,,,,,,,,,,,,,,,,,,,,,,,,,,,,,,,,,,,,,,,,,,,,,,,,,,,,,,,,,,,,,,,,,,,,,,,,,,,,,,,9,54.3795440197,,,,,,,,,,,,,,,,,,,,,,,,,,,,,,,2015_Jun_23_1223,59.791102691,LearningTask,1,56,
200,s,-200,,,,,,,,,,,,,,,,,1,0,1,0,0,0,0,2,,,,,,,,,,,,,,,,,,,,,,,,,,,,,s,1,None,0,,2.0,diamondmagenta.gif,go,,,,,,,,0.567533969879,,,,,,,,,,,,,,,,,,,,,,,,1.89,0.508671998978,0.000886917114258,0.567533969879,1,s,600.718371153,,,,,,,,,,,,,,,,,,,,,,,,,,,,,,,,,2015_Jun_23_1223,59.791102691,LearningTask,1,56,
-200,a,-200,,,,,,,,,,,,,,,,,1,0,1,0,0,1,1,3,,,,,,,,,,,,,,,,,,,,,,,,,,,,,a,1,None,0,,4.0,trianglewhite.gif,go,,,,,,,,0.384031057358,,,,,,,,,,,,,,,,,,,,,,,,4.07,0.513561010361,0.00089693069458,0.384031057358,1,a,603.720988989,,,,,,,,,,,,,,,,,,,,,,,,,,,,,,,,,2015_Jun_23_1223,59.791102691,LearningTask,1,56,
-200,q,200,,,,,,,,,,,,,,,,,1,0,1,0,0,2,2,1,,,,,,,,,,,,,,,,,,,,,,,,,,,,,q,1,None,0,,2.0,diamondmagenta.gif,go,,,,,,,,0.350543022156,,,,,,,,,,,,,,,,,,,,,,,,1.75,0.514228820801,0.000908851623535,0.350543022156,1,q,606.724276066,,,,,,,,,,,,,,,,,,,,,,,,,,,,,,,,,2015_Jun_23_1223,59.791102691,LearningTask,1,56,
-200,q,200,,,,,,,,,,,,,,,,,1,0,1,0,0,3,3,1,,,,,,,,,,,,,,,,,,,,,,,,,,,,,q,1,None,0,,4.0,trianglewhite.gif,go,,,,,,,,0.350986003876,,,,,,,,,,,,,,,,,,,,,,,,4.2,0.514122009277,0.000940084457397,0.350986003876,1,q,609.728149176,,,,,,,,,,,,,,,,,,,,,,,,,,,,,,,,,2015_Jun_23_1223,59.791102691,LearningTask,1,56,
200,s,-200,,,,,,,,,,,,,,,,,1,0,1,0,1,0,4,2,,,,,,,,,,,,,,,,,,,,,,,,,,,,,s,1,None,0,,1.0,invertedtrianglegreen.gif,go,,,,,,,,0.400758981705,,,,,,,,,,,,,,,,,,,,,,,,0,0.51397895813,0.000884056091309,0.400758981705,1,s,612.731211185,,,,,,,,,,,,,,,,,,,,,,,,,,,,,,,,,2015_Jun_23_1223,59.791102691,LearningTask,1,56,
200,w,200,,,,,,,,,,,,,,,,,1,0,1,0,1,1,5,0,,,,,,,,,,,,,,,,,,,,,,,,,,,,,w,1,None,0,,1.0,squareblue.gif,stop,,,,,,,,0.383722066879,,,,,,,,,,,,,,,,,,,,,,,,0,0.51420211792,0.000885963439941,0.383722066879,1,w,615.734459162,,,,,,,,,,,,,,,,,,,,,,,,,,,,,,,,,2015_Jun_23_1223,59.791102691,LearningTask,1,56,
200,s,-200,,,,,,,,,,,,,,,,,1,0,1,0,1,2,6,2,,,,,,,,,,,,,,,,,,,,,,,,,,,,,s,1,None,0,,4.0,linegray.gif,stop,,,,,,,,0.451024055481,,,,,,,,,,,,,,,,,,,,,,,,3.8,0.514058113098,0.00103712081909,0.451024055481,1,s,618.737679005,,,,,,,,,,,,,,,,,,,,,,,,,,,,,,,,,2015_Jun_23_1223,59.791102691,LearningTask,1,56,
200,w,200,,,,,,,,,,,,,,,,,1,0,1,0,1,3,7,0,,,,,,,,,,,,,,,,,,,,,,,,,,,,,w,1,None,0,,4.0,linegray.gif,stop,,,,,,,,0.400899171829,,,,,,,,,,,,,,,,,,,,,,,,0,0.514605045319,0.000876188278198,0.400899171829,1,w,621.741158009,,,,,,,,,,,,,,,,,,,,,,,,,,,,,,,,,2015_Jun_23_1223,59.791102691,LearningTask,1,56,
200,w,200,,,,,,,,,,,,,,,,,1,0,1,0,2,0,8,0,,,,,,,,,,,,,,,,,,,,,,,,,,,,,w,1,None,0,,2.0,circleorange.gif,stop,,,,,,,,0.450968980789,,,,,,,,,,,,,,,,,,,,,,,,2.25,0.514060974121,0.000899791717529,0.450968980789,1,w,624.745425224,,,,,,,,,,,,,,,,,,,,,,,,,,,,,,,,,2015_Jun_23_1223,59.791102691,LearningTask,1,56,
-200,a,-200,,,,,,,,,,,,,,,,,1,0,1,0,2,1,9,3,,,,,,,,,,,,,,,,,,,,,,,,,,,,,a,1,None,0,,4.0,linegray.gif,stop,,,,,,,,0.417786836624,,,,,,,,,,,,,,,,,,,,,,,,4.06,0.513422012329,0.00092601776123,0.417786836624,1,a,627.748016119,,,,,,,,,,,,,,,,,,,,,,,,,,,,,,,,,2015_Jun_23_1223,59.791102691,LearningTask,1,56,
200,s,-200,,,,,,,,,,,,,,,,,1,0,1,0,2,2,10,2,,,,,,,,,,,,,,,,,,,,,,,,,,,,,s,1,None,0,,0.5,crosscyan.gif,go,,,,,,,,0.350564002991,,,,,,,,,,,,,,,,,,,,,,,,0.68,0.514302968979,0.00089693069458,0.350564002991,1,s,630.751394987,,,,,,,,,,,,,,,,,,,,,,,,,,,,,,,,,2015_Jun_23_1223,59.791102691,LearningTask,1,56,
200,s,-200,,,,,,,,,,,,,,,,,1,0,1,0,2,3,11,2,,,,,,,,,,,,,,,,,,,,,,,,,,,,,s,1,None,0,,0.5,hexagonyellow.gif,stop,,,,,,,,0.384470939636,,,,,,,,,,,,,,,,,,,,,,,,0.59,0.513890981674,0.000946044921875,0.384470939636,1,s,633.754546165,,,,,,,,,,,,,,,,,,,,,,,,,,,,,,,,,2015_Jun_23_1223,59.791102691,LearningTask,1,56,
200,s,-200,,,,,,,,,,,,,,,,,1,0,1,0,3,0,12,2,,,,,,,,,,,,,,,,,,,,,,,,,,,,,s,1,None,0,,0.5,crosscyan.gif,go,,,,,,,,0.38481593132,,,,,,,,,,,,,,,,,,,,,,,,0,0.514104127884,0.000920057296753,0.38481593132,1,s,636.757777214,,,,,,,,,,,,,,,,,,,,,,,,,,,,,,,,,2015_Jun_23_1223,59.791102691,LearningTask,1,56,
200,w,200,,,,,,,,,,,,,,,,,1,0,1,0,3,1,13,0,,,,,,,,,,,,,,,,,,,,,,,,,,,,,w,1,None,0,,2.0,circleorange.gif,stop,,,,,,,,0.384204864502,,,,,,,,,,,,,,,,,,,,,,,,1.89,0.514375209808,0.000898122787476,0.384204864502,1,w,639.761653185,,,,,,,,,,,,,,,,,,,,,,,,,,,,,,,,,2015_Jun_23_1223,59.791102691,LearningTask,1,56,
200,w,200,,,,,,,,,,,,,,,,,1,0,1,0,3,2,14,0,,,,,,,,,,,,,,,,,,,,,,,,,,,,,w,1,None,0,,4.0,trianglewhite.gif,go,,,,,,,,0.384345054626,,,,,,,,,,,,,,,,,,,,,,,,4.15,0.514096021652,0.000885009765625,0.384345054626,1,w,642.764599085,,,,,,,,,,,,,,,,,,,,,,,,,,,,,,,,,2015_Jun_23_1223,59.791102691,LearningTask,1,56,
-200,q,200,,,,,,,,,,,,,,,,,1,0,1,0,3,3,15,1,,,,,,,,,,,,,,,,,,,,,,,,,,,,,q,1,None,0,,2.0,diamondmagenta.gif,go,,,,,,,,0.367462158203,,,,,,,,,,,,,,,,,,,,,,,,1.86,0.514298915863,0.00089693069458,0.367462158203,1,q,645.767961025,,,,,,,,,,,,,,,,,,,,,,,,,,,,,,,,,2015_Jun_23_1223,59.791102691,LearningTask,1,56,
200,s,-200,,,,,,,,,,,,,,,,,1,0,1,0,4,0,16,2,,,,,,,,,,,,,,,,,,,,,,,,,,,,,s,1,None,0,,2.0,circleorange.gif,stop,,,,,,,,0.367040872574,,,,,,,,,,,,,,,,,,,,,,,,0,0.514361143112,0.000971078872681,0.367040872574,1,s,648.771406174,,,,,,,,,,,,,,,,,,,,,,,,,,,,,,,,,2015_Jun_23_1223,59.791102691,LearningTask,1,56,
200,s,-200,,,,,,,,,,,,,,,,,1,0,1,0,4,1,17,2,,,,,,,,,,,,,,,,,,,,,,,,,,,,,s,1,None,0,,1.0,invertedtrianglegreen.gif,go,,,,,,,,0.417536973953,,,,,,,,,,,,,,,,,,,,,,,,0.98,0.514154911041,0.0011579990387,0.417536973953,1,s,651.77454114,,,,,,,,,,,,,,,,,,,,,,,,,,,,,,,,,2015_Jun_23_1223,59.791102691,LearningTask,1,56,
200,s,-200,,,,,,,,,,,,,,,,,1,0,1,0,4,2,18,2,,,,,,,,,,,,,,,,,,,,,,,,,,,,,s,1,None,0,,1.0,squareblue.gif,stop,,,,,,,,0.384232997894,,,,,,,,,,,,,,,,,,,,,,,,0.81,0.51433801651,0.000910043716431,0.384232997894,1,s,654.777908087,,,,,,,,,,,,,,,,,,,,,,,,,,,,,,,,,2015_Jun_23_1223,59.791102691,LearningTask,1,56,
200,s,-200,,,,,,,,,,,,,,,,,1,0,1,0,4,3,19,2,,,,,,,,,,,,,,,,,,,,,,,,,,,,,s,1,None,0,,0.5,crosscyan.gif,go,,,,,,,,0.400985002518,,,,,,,,,,,,,,,,,,,,,,,,0,0.514111995697,0.000909090042114,0.400985002518,1,s,657.781412125,,,,,,,,,,,,,,,,,,,,,,,,,,,,,,,,,2015_Jun_23_1223,59.791102691,LearningTask,1,56,
-200,q,200,,,,,,,,,,,,,,,,,1,0,1,0,5,0,20,1,,,,,,,,,,,,,,,,,,,,,,,,,,,,,q,1,None,0,,1.0,squareblue.gif,stop,,,,,,,,0.401093006134,,,,,,,,,,,,,,,,,,,,,,,,0.86,0.514103889465,0.000873804092407,0.401093006134,1,q,660.784736156,,,,,,,,,,,,,,,,,,,,,,,,,,,,,,,,,2015_Jun_23_1223,59.791102691,LearningTask,1,56,
200,w,200,,,,,,,,,,,,,,,,,1,0,1,0,5,1,21,0,,,,,,,,,,,,,,,,,,,,,,,,,,,,,w,1,None,0,,1.0,squareblue.gif,stop,,,,,,,,0.534260988235,,,,,,,,,,,,,,,,,,,,,,,,0.89,0.514265060425,0.000869035720825,0.534260988235,1,w,663.788068056,,,,,,,,,,,,,,,,,,,,,,,,,,,,,,,,,2015_Jun_23_1223,59.791102691,LearningTask,1,56,
200,w,200,,,,,,,,,,,,,,,,,1,0,1,0,5,2,22,0,,,,,,,,,,,,,,,,,,,,,,,,,,,,,w,1,None,0,,0.5,crosscyan.gif,go,,,,,,,,0.40080499649,,,,,,,,,,,,,,,,,,,,,,,,0.29,0.514051914215,0.00101780891418,0.40080499649,1,w,666.791352034,,,,,,,,,,,,,,,,,,,,,,,,,,,,,,,,,2015_Jun_23_1223,59.791102691,LearningTask,1,56,
-200,a,-200,,,,,,,,,,,,,,,,,1,0,1,0,5,3,23,3,,,,,,,,,,,,,,,,,,,,,,,,,,,,,a,1,None,0,,0.5,crosscyan.gif,go,,,,,,,,0.384312868118,,,,,,,,,,,,,,,,,,,,,,,,0,0.514389038086,0.000875949859619,0.384312868118,1,a,669.794878006,,,,,,,,,,,,,,,,,,,,,,,,,,,,,,,,,2015_Jun_23_1223,59.791102691,LearningTask,1,56,
-200,a,-200,,,,,,,,,,,,,,,,,1,0,1,0,6,0,24,3,,,,,,,,,,,,,,,,,,,,,,,,,,,,,a,1,None,0,,2.0,diamondmagenta.gif,go,,,,,,,,0.417276144028,,,,,,,,,,,,,,,,,,,,,,,,2.2,0.514086008072,0.000903129577637,0.417276144028,1,a,672.798192024,,,,,,,,,,,,,,,,,,,,,,,,,,,,,,,,,2015_Jun_23_1223,59.791102691,LearningTask,1,56,
-200,a,-200,,,,,,,,,,,,,,,,,1,0,1,0,6,1,25,3,,,,,,,,,,,,,,,,,,,,,,,,,,,,,a,1,None,0,,2.0,circleorange.gif,stop,,,,,,,,0.334011077881,,,,,,,,,,,,,,,,,,,,,,,,2.13,0.513763904572,0.000952959060669,0.334011077881,1,a,675.801596165,,,,,,,,,,,,,,,,,,,,,,,,,,,,,,,,,2015_Jun_23_1223,59.791102691,LearningTask,1,56,
-200,q,200,,,,,,,,,,,,,,,,,1,0,1,0,6,2,26,1,,,,,,,,,,,,,,,,,,,,,,,,,,,,,q,1,None,0,,4.0,linegray.gif,stop,,,,,,,,0.383941888809,,,,,,,,,,,,,,,,,,,,,,,,0,0.514294147491,0.000868082046509,0.383941888809,1,q,678.804944038,,,,,,,,,,,,,,,,,,,,,,,,,,,,,,,,,2015_Jun_23_1223,59.791102691,LearningTask,1,56,
-200,a,-200,,,,,,,,,,,,,,,,,1,0,1,0,6,3,27,3,,,,,,,,,,,,,,,,,,,,,,,,,,,,,a,1,None,0,,0.5,hexagonyellow.gif,stop,,,,,,,,0.401073932648,,,,,,,,,,,,,,,,,,,,,,,,0,0.514096021652,0.00113797187805,0.401073932648,1,a,681.808284998,,,,,,,,,,,,,,,,,,,,,,,,,,,,,,,,,2015_Jun_23_1223,59.791102691,LearningTask,1,56,
200,w,200,,,,,,,,,,,,,,,,,1,0,1,0,7,0,28,0,,,,,,,,,,,,,,,,,,,,,,,,,,,,,w,1,None,0,,2.0,circleorange.gif,stop,,,,,,,,0.417779922485,,,,,,,,,,,,,,,,,,,,,,,,1.84,0.514026880264,0.000920057296753,0.417779922485,1,w,684.811561108,,,,,,,,,,,,,,,,,,,,,,,,,,,,,,,,,2015_Jun_23_1223,59.791102691,LearningTask,1,56,
200,w,200,,,,,,,,,,,,,,,,,1,0,1,0,7,1,29,0,,,,,,,,,,,,,,,,,,,,,,,,,,,,,w,1,None,0,,0.5,crosscyan.gif,go,,,,,,,,0.38432097435,,,,,,,,,,,,,,,,,,,,,,,,0.31,0.514384031296,0.000888824462891,0.38432097435,1,w,687.814779043,,,,,,,,,,,,,,,,,,,,,,,,,,,,,,,,,2015_Jun_23_1223,59.791102691,LearningTask,1,56,
-200,a,-200,,,,,,,,,,,,,,,,,1,0,1,0,7,2,30,3,,,,,,,,,,,,,,,,,,,,,,,,,,,,,a,1,None,0,,1.0,invertedtrianglegreen.gif,go,,,,,,,,0.367813110352,,,,,,,,,,,,,,,,,,,,,,,,0.82,0.514497041702,0.000874996185303,0.367813110352,1,a,690.818555117,,,,,,,,,,,,,,,,,,,,,,,,,,,,,,,,,2015_Jun_23_1223,59.791102691,LearningTask,1,56,
-200,q,200,,,,,,,,,,,,,,,,,1,0,1,0,7,3,31,1,,,,,,,,,,,,,,,,,,,,,,,,,,,,,q,1,None,0,,0.5,hexagonyellow.gif,stop,,,,,,,,0.367188930511,,,,,,,,,,,,,,,,,,,,,,,,0.55,0.514371156693,0.000875949859619,0.367188930511,1,q,693.821616173,,,,,,,,,,,,,,,,,,,,,,,,,,,,,,,,,2015_Jun_23_1223,59.791102691,LearningTask,1,56,
200,s,-200,,,,,,,,,,,,,,,,,1,0,1,0,8,0,32,2,,,,,,,,,,,,,,,,,,,,,,,,,,,,,s,1,None,0,,0.5,crosscyan.gif,go,,,,,,,,0.351119041443,,,,,,,,,,,,,,,,,,,,,,,,0.7,0.514132022858,0.000939130783081,0.351119041443,1,s,696.82497406,,,,,,,,,,,,,,,,,,,,,,,,,,,,,,,,,2015_Jun_23_1223,59.791102691,LearningTask,1,56,
-200,a,-200,,,,,,,,,,,,,,,,,1,0,1,0,8,1,33,3,,,,,,,,,,,,,,,,,,,,,,,,,,,,,a,1,None,0,,4.0,linegray.gif,stop,,,,,,,,0.384201049805,,,,,,,,,,,,,,,,,,,,,,,,0,0.514333963394,0.000872135162354,0.384201049805,1,a,699.828476191,,,,,,,,,,,,,,,,,,,,,,,,,,,,,,,,,2015_Jun_23_1223,59.791102691,LearningTask,1,56,
200,s,-200,,,,,,,,,,,,,,,,,1,0,1,0,8,2,34,2,,,,,,,,,,,,,,,,,,,,,,,,,,,,,s,1,None,0,,0.5,crosscyan.gif,go,,,,,,,,0.367671966553,,,,,,,,,,,,,,,,,,,,,,,,0.55,0.51438999176,0.000885009765625,0.367671966553,1,s,702.831568003,,,,,,,,,,,,,,,,,,,,,,,,,,,,,,,,,2015_Jun_23_1223,59.791102691,LearningTask,1,56,
200,w,200,,,,,,,,,,,,,,,,,1,0,1,0,8,3,35,0,,,,,,,,,,,,,,,,,,,,,,,,,,,,,w,1,None,0,,1.0,invertedtrianglegreen.gif,go,,,,,,,,0.367710113525,,,,,,,,,,,,,,,,,,,,,,,,1.01,0.514190912247,0.000922918319702,0.367710113525,1,w,705.835027218,,,,,,,,,,,,,,,,,,,,,,,,,,,,,,,,,2015_Jun_23_1223,59.791102691,LearningTask,1,56,
-200,q,200,,,,,,,,,,,,,,,,,1,0,1,0,9,0,36,1,,,,,,,,,,,,,,,,,,,,,,,,,,,,,q,1,None,0,,0.5,hexagonyellow.gif,stop,,,,,,,,0.300488948822,,,,,,,,,,,,,,,,,,,,,,,,0.7,0.5145008564,0.000877857208252,0.300488948822,1,q,708.838724136,,,,,,,,,,,,,,,,,,,,,,,,,,,,,,,,,2015_Jun_23_1223,59.791102691,LearningTask,1,56,
-200,q,200,,,,,,,,,,,,,,,,,1,0,1,0,9,1,37,1,,,,,,,,,,,,,,,,,,,,,,,,,,,,,q,1,None,0,,4.0,linegray.gif,stop,,,,,,,,0.400815963745,,,,,,,,,,,,,,,,,,,,,,,,4.02,0.514070987701,0.000909805297852,0.400815963745,1,q,711.841878176,,,,,,,,,,,,,,,,,,,,,,,,,,,,,,,,,2015_Jun_23_1223,59.791102691,LearningTask,1,56,
200,s,-200,,,,,,,,,,,,,,,,,1,0,1,0,9,2,38,2,,,,,,,,,,,,,,,,,,,,,,,,,,,,,s,1,None,0,,4.0,trianglewhite.gif,go,,,,,,,,0.38455414772,,,,,,,,,,,,,,,,,,,,,,,,3.76,0.513859033585,0.000900030136108,0.38455414772,1,s,714.845088005,,,,,,,,,,,,,,,,,,,,,,,,,,,,,,,,,2015_Jun_23_1223,59.791102691,LearningTask,1,56,
-200,q,200,,,,,,,,,,,,,,,,,1,0,1,0,9,3,39,1,,,,,,,,,,,,,,,,,,,,,,,,,,,,,q,1,None,0,,4.0,linegray.gif,stop,,,,,,,,0.417732954025,,,,,,,,,,,,,,,,,,,,,,,,0,0.514219999313,0.000878095626831,0.417732954025,1,q,717.848566055,,,,,,,,,,,,,,,,,,,,,,,,,,,,,,,,,2015_Jun_23_1223,59.791102691,LearningTask,1,56,
-200,q,200,,,,,,,,,,,,,,,,,1,0,1,0,10,0,40,1,,,,,,,,,,,,,,,,,,,,,,,,,,,,,q,1,None,0,,1.0,invertedtrianglegreen.gif,go,,,,,,,,0.384801149368,,,,,,,,,,,,,,,,,,,,,,,,1.15,0.514091968536,0.000882863998413,0.384801149368,1,q,720.852135181,,,,,,,,,,,,,,,,,,,,,,,,,,,,,,,,,2015_Jun_23_1223,59.791102691,LearningTask,1,56,
200,w,200,,,,,,,,,,,,,,,,,1,0,1,0,10,1,41,0,,,,,,,,,,,,,,,,,,,,,,,,,,,,,w,1,None,0,,4.0,linegray.gif,stop,,,,,,,,0.434437036514,,,,,,,,,,,,,,,,,,,,,,,,3.76,0.514081954956,0.000924110412598,0.434437036514,1,w,723.855363131,,,,,,,,,,,,,,,,,,,,,,,,,,,,,,,,,2015_Jun_23_1223,59.791102691,LearningTask,1,56,
200,s,-200,,,,,,,,,,,,,,,,,1,0,1,0,10,2,42,2,,,,,,,,,,,,,,,,,,,,,,,,,,,,,s,1,None,0,,0.5,crosscyan.gif,go,,,,,,,,0.434242963791,,,,,,,,,,,,,,,,,,,,,,,,0.5,0.514209985733,0.00088095664978,0.434242963791,1,s,726.858622074,,,,,,,,,,,,,,,,,,,,,,,,,,,,,,,,,2015_Jun_23_1223,59.791102691,LearningTask,1,56,
200,w,200,,,,,,,,,,,,,,,,,1,0,1,0,10,3,43,0,,,,,,,,,,,,,,,,,,,,,,,,,,,,,w,1,None,0,,4.0,trianglewhite.gif,go,,,,,,,,0.367321014404,,,,,,,,,,,,,,,,,,,,,,,,4.15,0.514300823212,0.000880002975464,0.367321014404,1,w,729.862039089,,,,,,,,,,,,,,,,,,,,,,,,,,,,,,,,,2015_Jun_23_1223,59.791102691,LearningTask,1,56,
-200,q,200,,,,,,,,,,,,,,,,,1,0,1,0,11,0,44,1,,,,,,,,,,,,,,,,,,,,,,,,,,,,,q,1,None,0,,4.0,trianglewhite.gif,go,,,,,,,,0.41753578186,,,,,,,,,,,,,,,,,,,,,,,,0,0.514056921005,0.000910997390747,0.41753578186,1,q,732.865195036,,,,,,,,,,,,,,,,,,,,,,,,,,,,,,,,,2015_Jun_23_1223,59.791102691,LearningTask,1,56,
-200,q,200,,,,,,,,,,,,,,,,,1,0,1,0,11,1,45,1,,,,,,,,,,,,,,,,,,,,,,,,,,,,,q,1,None,0,,2.0,diamondmagenta.gif,go,,,,,,,,0.417906999588,,,,,,,,,,,,,,,,,,,,,,,,0,0.514309167862,0.000923156738281,0.417906999588,1,q,735.868492126,,,,,,,,,,,,,,,,,,,,,,,,,,,,,,,,,2015_Jun_23_1223,59.791102691,LearningTask,1,56,
-200,a,-200,,,,,,,,,,,,,,,,,1,0,1,0,11,2,46,3,,,,,,,,,,,,,,,,,,,,,,,,,,,,,a,1,None,0,,2.0,diamondmagenta.gif,go,,,,,,,,0.383821964264,,,,,,,,,,,,,,,,,,,,,,,,2.23,0.514539957047,0.000935077667236,0.383821964264,1,a,738.872281075,,,,,,,,,,,,,,,,,,,,,,,,,,,,,,,,,2015_Jun_23_1223,59.791102691,LearningTask,1,56,
200,w,200,,,,,,,,,,,,,,,,,1,0,1,0,11,3,47,0,,,,,,,,,,,,,,,,,,,,,,,,,,,,,w,1,None,0,,1.0,invertedtrianglegreen.gif,go,,,,,,,,0.434237957001,,,,,,,,,,,,,,,,,,,,,,,,0.85,0.514295816422,0.000875949859619,0.434237957001,1,w,741.875339031,,,,,,,,,,,,,,,,,,,,,,,,,,,,,,,,,2015_Jun_23_1223,59.791102691,LearningTask,1,56,
200,w,200,,,,,,,,,,,,,,,,,1,0,1,0,12,0,48,0,,,,,,,,,,,,,,,,,,,,,,,,,,,,,w,1,None,0,,2.0,circleorange.gif,stop,,,,,,,,0.400371074677,,,,,,,,,,,,,,,,,,,,,,,,2.06,0.514594078064,0.00104212760925,0.400371074677,1,w,744.878793001,,,,,,,,,,,,,,,,,,,,,,,,,,,,,,,,,2015_Jun_23_1223,59.791102691,LearningTask,1,56,
200,s,-200,,,,,,,,,,,,,,,,,1,0,1,0,12,1,49,2,,,,,,,,,,,,,,,,,,,,,,,,,,,,,s,1,None,0,,2.0,circleorange.gif,stop,,,,,,,,0.367825984955,,,,,,,,,,,,,,,,,,,,,,,,1.91,0.51428103447,0.000874996185303,0.367825984955,1,s,747.882188082,,,,,,,,,,,,,,,,,,,,,,,,,,,,,,,,,2015_Jun_23_1223,59.791102691,LearningTask,1,56,
-200,a,-200,,,,,,,,,,,,,,,,,1,0,1,0,12,2,50,3,,,,,,,,,,,,,,,,,,,,,,,,,,,,,a,1,None,0,,0.5,crosscyan.gif,go,,,,,,,,0.384312152863,,,,,,,,,,,,,,,,,,,,,,,,0.25,0.514123916626,0.000876903533936,0.384312152863,1,a,750.885207176,,,,,,,,,,,,,,,,,,,,,,,,,,,,,,,,,2015_Jun_23_1223,59.791102691,LearningTask,1,56,
200,s,-200,,,,,,,,,,,,,,,,,1,0,1,0,12,3,51,2,,,,,,,,,,,,,,,,,,,,,,,,,,,,,s,1,None,0,,0.5,crosscyan.gif,go,,,,,,,,0.351030111313,,,,,,,,,,,,,,,,,,,,,,,,0.31,0.514203071594,0.000916957855225,0.351030111313,1,s,753.888811111,,,,,,,,,,,,,,,,,,,,,,,,,,,,,,,,,2015_Jun_23_1223,59.791102691,LearningTask,1,56,
200,w,200,,,,,,,,,,,,,,,,,1,0,1,0,13,0,52,0,,,,,,,,,,,,,,,,,,,,,,,,,,,,,w,1,None,0,,1.0,squareblue.gif,stop,,,,,,,,0.467683076859,,,,,,,,,,,,,,,,,,,,,,,,0,0.514567136765,0.000876188278198,0.467683076859,1,w,756.892194033,,,,,,,,,,,,,,,,,,,,,,,,,,,,,,,,,2015_Jun_23_1223,59.791102691,LearningTask,1,56,
200,w,200,,,,,,,,,,,,,,,,,1,0,1,0,13,1,53,0,,,,,,,,,,,,,,,,,,,,,,,,,,,,,w,1,None,0,,4.0,linegray.gif,stop,,,,,,,,0.3840239048,,,,,,,,,,,,,,,,,,,,,,,,3.95,0.514339923859,0.000884056091309,0.3840239048,1,w,759.895619154,,,,,,,,,,,,,,,,,,,,,,,,,,,,,,,,,2015_Jun_23_1223,59.791102691,LearningTask,1,56,
-200,a,-200,,,,,,,,,,,,,,,,,1,0,1,0,13,2,54,3,,,,,,,,,,,,,,,,,,,,,,,,,,,,,a,1,None,0,,4.0,linegray.gif,stop,,,,,,,,0.384347200394,,,,,,,,,,,,,,,,,,,,,,,,3.89,0.51397395134,0.000937938690186,0.384347200394,1,a,762.898783207,,,,,,,,,,,,,,,,,,,,,,,,,,,,,,,,,2015_Jun_23_1223,59.791102691,LearningTask,1,56,
-200,q,200,,,,,,,,,,,,,,,,,1,0,1,0,13,3,55,1,,,,,,,,,,,,,,,,,,,,,,,,,,,,,q,1,None,0,,2.0,circleorange.gif,stop,,,,,,,,0.367798089981,,,,,,,,,,,,,,,,,,,,,,,,2.01,0.514652013779,0.000874042510986,0.367798089981,1,q,765.902518034,,,,,,,,,,,,,,,,,,,,,,,,,,,,,,,,,2015_Jun_23_1223,59.791102691,LearningTask,1,56,
-200,a,-200,,,,,,,,,,,,,,,,,1,0,1,0,14,0,56,3,,,,,,,,,,,,,,,,,,,,,,,,,,,,,a,1,None,0,,4.0,linegray.gif,stop,,,,,,,,0.367562055588,,,,,,,,,,,,,,,,,,,,,,,,3.96,0.514065980911,0.000867128372192,0.367562055588,1,a,768.905744076,,,,,,,,,,,,,,,,,,,,,,,,,,,,,,,,,2015_Jun_23_1223,59.791102691,LearningTask,1,56,
-200,a,-200,,,,,,,,,,,,,,,,,1,0,1,0,14,1,57,3,,,,,,,,,,,,,,,,,,,,,,,,,,,,,a,1,None,0,,2.0,diamondmagenta.gif,go,,,,,,,,0.384127855301,,,,,,,,,,,,,,,,,,,,,,,,1.82,0.51381278038,0.00144290924072,0.384127855301,1,a,771.908981085,,,,,,,,,,,,,,,,,,,,,,,,,,,,,,,,,2015_Jun_23_1223,59.791102691,LearningTask,1,56,
200,w,200,,,,,,,,,,,,,,,,,1,0,1,0,14,2,58,0,,,,,,,,,,,,,,,,,,,,,,,,,,,,,w,1,None,0,,2.0,circleorange.gif,stop,,,,,,,,0.384423017502,,,,,,,,,,,,,,,,,,,,,,,,2.0,0.514243125916,0.00088095664978,0.384423017502,1,w,774.912221193,,,,,,,,,,,,,,,,,,,,,,,,,,,,,,,,,2015_Jun_23_1223,59.791102691,LearningTask,1,56,
-200,a,-200,,,,,,,,,,,,,,,,,1,0,1,0,14,3,59,3,,,,,,,,,,,,,,,,,,,,,,,,,,,,,a,1,None,0,,1.0,squareblue.gif,stop,,,,,,,,0.400763988495,,,,,,,,,,,,,,,,,,,,,,,,1.07,0.514490842819,0.000866889953613,0.400763988495,1,a,777.915783167,,,,,,,,,,,,,,,,,,,,,,,,,,,,,,,,,2015_Jun_23_1223,59.791102691,LearningTask,1,56,
-200,a,-200,,,,,,,,,,,,,,,,,1,0,1,0,15,0,60,3,,,,,,,,,,,,,,,,,,,,,,,,,,,,,a,1,None,0,,4.0,linegray.gif,stop,,,,,,,,0.467658042908,,,,,,,,,,,,,,,,,,,,,,,,0,0.514047861099,0.000906944274902,0.467658042908,1,a,780.918860197,,,,,,,,,,,,,,,,,,,,,,,,,,,,,,,,,2015_Jun_23_1223,59.791102691,LearningTask,1,56,
200,s,-200,,,,,,,,,,,,,,,,,1,0,1,0,15,1,61,2,,,,,,,,,,,,,,,,,,,,,,,,,,,,,s,1,None,0,,0.5,hexagonyellow.gif,stop,,,,,,,,0.451205015182,,,,,,,,,,,,,,,,,,,,,,,,0.33,0.514423847198,0.000985860824585,0.451205015182,1,s,783.922322035,,,,,,,,,,,,,,,,,,,,,,,,,,,,,,,,,2015_Jun_23_1223,59.791102691,LearningTask,1,56,
200,w,200,,,,,,,,,,,,,,,,,1,0,1,0,15,2,62,0,,,,,,,,,,,,,,,,,,,,,,,,,,,,,w,1,None,0,,2.0,diamondmagenta.gif,go,,,,,,,,0.400761127472,,,,,,,,,,,,,,,,,,,,,,,,0,0.514743089676,0.000871181488037,0.400761127472,1,w,786.925691128,,,,,,,,,,,,,,,,,,,,,,,,,,,,,,,,,2015_Jun_23_1223,59.791102691,LearningTask,1,56,
-200,a,-200,,,,,,,,,,,,,,,,,1,0,1,0,15,3,63,3,,,,,,,,,,,,,,,,,,,,,,,,,,,,,a,1,None,0,,1.0,squareblue.gif,stop,,,,,,,,0.367399930954,,,,,,,,,,,,,,,,,,,,,,,,1.18,0.514642000198,0.000869035720825,0.367399930954,1,a,789.928867102,,,,,,,,,,,,,,,,,,,,,,,,,,,,,,,,,2015_Jun_23_1223,59.791102691,LearningTask,1,56,
200,w,200,,,,,,,,,,,,,,,,,1,0,1,0,16,0,64,0,,,,,,,,,,,,,,,,,,,,,,,,,,,,,w,1,None,0,,0.5,crosscyan.gif,go,,,,,,,,0.400709867477,,,,,,,,,,,,,,,,,,,,,,,,0.35,0.51450419426,0.00108218193054,0.400709867477,1,w,792.93249917,,,,,,,,,,,,,,,,,,,,,,,,,,,,,,,,,2015_Jun_23_1223,59.791102691,LearningTask,1,56,
-200,a,-200,,,,,,,,,,,,,,,,,1,0,1,0,16,1,65,3,,,,,,,,,,,,,,,,,,,,,,,,,,,,,a,1,None,0,,0.5,hexagonyellow.gif,stop,,,,,,,,0.384067058563,,,,,,,,,,,,,,,,,,,,,,,,0.25,0.514314889908,0.000875949859619,0.384067058563,1,a,795.935881138,,,,,,,,,,,,,,,,,,,,,,,,,,,,,,,,,2015_Jun_23_1223,59.791102691,LearningTask,1,56,
-200,q,200,,,,,,,,,,,,,,,,,1,0,1,0,16,2,66,1,,,,,,,,,,,,,,,,,,,,,,,,,,,,,q,1,None,0,,4.0,trianglewhite.gif,go,,,,,,,,0.383600234985,,,,,,,,,,,,,,,,,,,,,,,,4.25,0.514312028885,0.000904083251953,0.383600234985,1,q,798.939038038,,,,,,,,,,,,,,,,,,,,,,,,,,,,,,,,,2015_Jun_23_1223,59.791102691,LearningTask,1,56,
200,s,-200,,,,,,,,,,,,,,,,,1,0,1,0,16,3,67,2,,,,,,,,,,,,,,,,,,,,,,,,,,,,,s,1,None,0,,2.0,circleorange.gif,stop,,,,,,,,0.384201049805,,,,,,,,,,,,,,,,,,,,,,,,2.23,0.514039039612,0.000960826873779,0.384201049805,1,s,801.942524195,,,,,,,,,,,,,,,,,,,,,,,,,,,,,,,,,2015_Jun_23_1223,59.791102691,LearningTask,1,56,
-200,q,200,,,,,,,,,,,,,,,,,1,0,1,0,17,0,68,1,,,,,,,,,,,,,,,,,,,,,,,,,,,,,q,1,None,0,,0.5,crosscyan.gif,go,,,,,,,,0.384420871735,,,,,,,,,,,,,,,,,,,,,,,,0.42,0.514088869095,0.000899076461792,0.384420871735,1,q,804.94593811,,,,,,,,,,,,,,,,,,,,,,,,,,,,,,,,,2015_Jun_23_1223,59.791102691,LearningTask,1,56,
200,w,200,,,,,,,,,,,,,,,,,1,0,1,0,17,1,69,0,,,,,,,,,,,,,,,,,,,,,,,,,,,,,w,1,None,0,,0.5,crosscyan.gif,go,,,,,,,,0.400758981705,,,,,,,,,,,,,,,,,,,,,,,,0,0.514224052429,0.000881910324097,0.400758981705,1,w,807.949048996,,,,,,,,,,,,,,,,,,,,,,,,,,,,,,,,,2015_Jun_23_1223,59.791102691,LearningTask,1,56,
-200,q,200,,,,,,,,,,,,,,,,,1,0,1,0,17,2,70,1,,,,,,,,,,,,,,,,,,,,,,,,,,,,,q,1,None,0,,2.0,circleorange.gif,stop,,,,,,,,0.417809009552,,,,,,,,,,,,,,,,,,,,,,,,0,0.514262199402,0.000924110412598,0.350905895233,0,a,810.952485085,,,0,0.515284061432,0.000974178314209,0.417809009552,1,q,813.956189156,,,,,,,,,,,,,,,,,,,,,,,,2015_Jun_23_1223,59.791102691,LearningTask,1,56,
-200,q,200,,,,,,,,,,,,,,,,,1,0,1,0,17,3,71,1,,,,,,,,,,,,,,,,,,,,,,,,,,,,,q,1,None,0,,1.0,invertedtrianglegreen.gif,go,,,,,,,,0.50115609169,,,,,,,,,,,,,,,,,,,,,,,,0.89,0.513916969299,0.000880002975464,0.50115609169,1,q,816.959958076,,,,,,,,,,,,,,,,,,,,,,,,,,,,,,,,,2015_Jun_23_1223,59.791102691,LearningTask,1,56,
-200,a,-200,,,,,,,,,,,,,,,,,1,0,1,0,18,0,72,3,,,,,,,,,,,,,,,,,,,,,,,,,,,,,a,1,None,0,,1.0,squareblue.gif,stop,,,,,,,,0.601121902466,,,,,,,,,,,,,,,,,,,,,,,,1.25,0.513650178909,0.000915050506592,0.601121902466,1,a,819.962714195,,,,,,,,,,,,,,,,,,,,,,,,,,,,,,,,,2015_Jun_23_1223,59.791102691,LearningTask,1,56,
200,w,200,,,,,,,,,,,,,,,,,1,0,1,0,18,1,73,0,,,,,,,,,,,,,,,,,,,,,,,,,,,,,w,1,None,0,,1.0,squareblue.gif,stop,,,,,,,,0.367239952087,,,,,,,,,,,,,,,,,,,,,,,,0.88,0.514316082001,0.000859022140503,0.367239952087,1,w,822.965973139,,,,,,,,,,,,,,,,,,,,,,,,,,,,,,,,,2015_Jun_23_1223,59.791102691,LearningTask,1,56,
200,w,200,,,,,,,,,,,,,,,,,1,0,1,0,18,2,74,0,,,,,,,,,,,,,,,,,,,,,,,,,,,,,w,1,None,0,,4.0,trianglewhite.gif,go,,,,,,,,0.417544126511,,,,,,,,,,,,,,,,,,,,,,,,3.84,0.514314889908,0.000880002975464,0.417544126511,1,w,825.969347,,,,,,,,,,,,,,,,,,,,,,,,,,,,,,,,,2015_Jun_23_1223,59.791102691,LearningTask,1,56,
200,w,200,,,,,,,,,,,,,,,,,1,0,1,0,18,3,75,0,,,,,,,,,,,,,,,,,,,,,,,,,,,,,w,1,None,0,,2.0,diamondmagenta.gif,go,,,,,,,,0.433909893036,,,,,,,,,,,,,,,,,,,,,,,,2.2,0.514172077179,0.00096607208252,0.433909893036,1,w,828.972659111,,,,,,,,,,,,,,,,,,,,,,,,,,,,,,,,,2015_Jun_23_1223,59.791102691,LearningTask,1,56,
-200,a,-200,,,,,,,,,,,,,,,,,1,0,1,0,19,0,76,3,,,,,,,,,,,,,,,,,,,,,,,,,,,,,a,1,None,0,,2.0,diamondmagenta.gif,go,,,,,,,,0.434695959091,,,,,,,,,,,,,,,,,,,,,,,,2.03,0.514343976974,0.000903129577637,0.434695959091,1,a,831.975855112,,,,,,,,,,,,,,,,,,,,,,,,,,,,,,,,,2015_Jun_23_1223,59.791102691,LearningTask,1,56,
200,s,-200,,,,,,,,,,,,,,,,,1,0,1,0,19,1,77,2,,,,,,,,,,,,,,,,,,,,,,,,,,,,,s,1,None,0,,1.0,invertedtrianglegreen.gif,go,,,,,,,,0.400964021683,,,,,,,,,,,,,,,,,,,,,,,,1.22,0.514568805695,0.000878810882568,0.400964021683,1,s,834.979475021,,,,,,,,,,,,,,,,,,,,,,,,,,,,,,,,,2015_Jun_23_1223,59.791102691,LearningTask,1,56,
-200,a,-200,,,,,,,,,,,,,,,,,1,0,1,0,19,2,78,3,,,,,,,,,,,,,,,,,,,,,,,,,,,,,a,1,None,0,,2.0,diamondmagenta.gif,go,,,,,,,,0.417174100876,,,,,,,,,,,,,,,,,,,,,,,,1.8,0.514362096786,0.000875949859619,0.417174100876,1,a,837.982711077,,,,,,,,,,,,,,,,,,,,,,,,,,,,,,,,,2015_Jun_23_1223,59.791102691,LearningTask,1,56,
-200,q,200,,,,,,,,,,,,,,,,,1,0,1,0,19,3,79,1,,,,,,,,,,,,,,,,,,,,,,,,,,,,,q,1,None,0,,1.0,invertedtrianglegreen.gif,go,,,,,,,,0.350693225861,,,,,,,,,,,,,,,,,,,,,,,,0.89,0.514392852783,0.00114607810974,0.350693225861,1,q,840.986028194,,,,,,,,,,,,,,,,,,,,,,,,,,,,,,,,,2015_Jun_23_1223,59.791102691,LearningTask,1,56,
200,s,-200,,,,,,,,,,,,,,,,,1,0,1,0,20,0,80,2,,,,,,,,,,,,,,,,,,,,,,,,,,,,,s,1,None,0,,1.0,invertedtrianglegreen.gif,go,,,,,,,,0.401298046112,,,,,,,,,,,,,,,,,,,,,,,,0.95,0.514400959015,0.00088095664978,0.401298046112,1,s,843.989478111,,,,,,,,,,,,,,,,,,,,,,,,,,,,,,,,,2015_Jun_23_1223,59.791102691,LearningTask,1,56,
-200,a,-200,,,,,,,,,,,,,,,,,1,0,1,0,20,1,81,3,,,,,,,,,,,,,,,,,,,,,,,,,,,,,a,1,None,0,,2.0,diamondmagenta.gif,go,,,,,,,,0.451300144196,,,,,,,,,,,,,,,,,,,,,,,,1.79,0.51433300972,0.00092601776123,0.451300144196,1,a,846.992678165,,,,,,,,,,,,,,,,,,,,,,,,,,,,,,,,,2015_Jun_23_1223,59.791102691,LearningTask,1,56,
200,w,200,,,,,,,,,,,,,,,,,1,0,1,0,20,2,82,0,,,,,,,,,,,,,,,,,,,,,,,,,,,,,w,1,None,0,,4.0,trianglewhite.gif,go,,,,,,,,0.384826898575,,,,,,,,,,,,,,,,,,,,,,,,0,0.514095067978,0.000915050506592,0.384826898575,1,w,849.99613905,,,,,,,,,,,,,,,,,,,,,,,,,,,,,,,,,2015_Jun_23_1223,59.791102691,LearningTask,1,56,
-200,a,-200,,,,,,,,,,,,,,,,,1,0,1,0,20,3,83,3,,,,,,,,,,,,,,,,,,,,,,,,,,,,,a,1,None,0,,4.0,trianglewhite.gif,go,,,,,,,,0.401328086853,,,,,,,,,,,,,,,,,,,,,,,,3.88,0.514070034027,0.000910043716431,0.401328086853,1,a,852.999876022,,,,,,,,,,,,,,,,,,,,,,,,,,,,,,,,,2015_Jun_23_1223,59.791102691,LearningTask,1,56,
-200,q,200,,,,,,,,,,,,,,,,,1,0,1,0,21,0,84,1,,,,,,,,,,,,,,,,,,,,,,,,,,,,,q,1,None,0,,2.0,diamondmagenta.gif,go,,,,,,,,0.333983898163,,,,,,,,,,,,,,,,,,,,,,,,2.15,0.513988018036,0.000876188278198,0.333983898163,1,q,856.002885103,,,,,,,,,,,,,,,,,,,,,,,,,,,,,,,,,2015_Jun_23_1223,59.791102691,LearningTask,1,56,
-200,a,-200,,,,,,,,,,,,,,,,,1,0,1,0,21,1,85,3,,,,,,,,,,,,,,,,,,,,,,,,,,,,,a,1,None,0,,1.0,invertedtrianglegreen.gif,go,,,,,,,,0.334608078003,,,,,,,,,,,,,,,,,,,,,,,,1.01,0.513942956924,0.00117182731628,0.334608078003,1,a,859.006199121,,,,,,,,,,,,,,,,,,,,,,,,,,,,,,,,,2015_Jun_23_1223,59.791102691,LearningTask,1,56,
-200,q,200,,,,,,,,,,,,,,,,,1,0,1,0,21,2,86,1,,,,,,,,,,,,,,,,,,,,,,,,,,,,,q,1,None,0,,4.0,linegray.gif,stop,,,,,,,,0.384551048279,,,,,,,,,,,,,,,,,,,,,,,,0,0.514403104782,0.00087308883667,0.384551048279,1,q,862.009728193,,,,,,,,,,,,,,,,,,,,,,,,,,,,,,,,,2015_Jun_23_1223,59.791102691,LearningTask,1,56,
200,s,-200,,,,,,,,,,,,,,,,,1,0,1,0,21,3,87,2,,,,,,,,,,,,,,,,,,,,,,,,,,,,,s,1,None,0,,2.0,circleorange.gif,stop,,,,,,,,0.400829076767,,,,,,,,,,,,,,,,,,,,,,,,1.76,0.514198064804,0.00088095664978,0.400829076767,1,s,865.013194084,,,,,,,,,,,,,,,,,,,,,,,,,,,,,,,,,2015_Jun_23_1223,59.791102691,LearningTask,1,56,
-200,q,200,,,,,,,,,,,,,,,,,1,0,1,0,22,0,88,1,,,,,,,,,,,,,,,,,,,,,,,,,,,,,q,1,None,0,,0.5,crosscyan.gif,go,,,,,,,,0.433979988098,,,,,,,,,,,,,,,,,,,,,,,,0.56,0.51405620575,0.000923156738281,0.433979988098,1,q,868.016396999,,,,,,,,,,,,,,,,,,,,,,,,,,,,,,,,,2015_Jun_23_1223,59.791102691,LearningTask,1,56,
-200,a,-200,,,,,,,,,,,,,,,,,1,0,1,0,22,1,89,3,,,,,,,,,,,,,,,,,,,,,,,,,,,,,a,1,None,0,,1.0,invertedtrianglegreen.gif,go,,,,,,,,0.384626150131,,,,,,,,,,,,,,,,,,,,,,,,1.12,0.514282941818,0.000932931900024,0.384626150131,1,a,871.019728184,,,,,,,,,,,,,,,,,,,,,,,,,,,,,,,,,2015_Jun_23_1223,59.791102691,LearningTask,1,56,
200,w,200,,,,,,,,,,,,,,,,,1,0,1,0,22,2,90,0,,,,,,,,,,,,,,,,,,,,,,,,,,,,,w,1,None,0,,4.0,trianglewhite.gif,go,,,,,,,,0.384305953979,,,,,,,,,,,,,,,,,,,,,,,,4.02,0.514273166656,0.00087308883667,0.384305953979,1,w,874.023200989,,,,,,,,,,,,,,,,,,,,,,,,,,,,,,,,,2015_Jun_23_1223,59.791102691,LearningTask,1,56,
200,s,-200,,,,,,,,,,,,,,,,,1,0,1,0,22,3,91,2,,,,,,,,,,,,,,,,,,,,,,,,,,,,,s,1,None,0,,1.0,invertedtrianglegreen.gif,go,,,,,,,,0.350882053375,,,,,,,,,,,,,,,,,,,,,,,,1.24,0.51395201683,0.00090503692627,0.350882053375,1,s,877.02633214,,,,,,,,,,,,,,,,,,,,,,,,,,,,,,,,,2015_Jun_23_1223,59.791102691,LearningTask,1,56,
-200,q,200,,,,,,,,,,,,,,,,,1,0,1,0,23,0,92,1,,,,,,,,,,,,,,,,,,,,,,,,,,,,,q,1,None,0,,0.5,hexagonyellow.gif,stop,,,,,,,,0.401160955429,,,,,,,,,,,,,,,,,,,,,,,,0.49,0.514420986176,0.000967025756836,0.401160955429,1,q,880.029543161,,,,,,,,,,,,,,,,,,,,,,,,,,,,,,,,,2015_Jun_23_1223,59.791102691,LearningTask,1,56,
200,s,-200,,,,,,,,,,,,,,,,,1,0,1,0,23,1,93,2,,,,,,,,,,,,,,,,,,,,,,,,,,,,,s,1,None,0,,2.0,diamondmagenta.gif,go,,,,,,,,0.534317970276,,,,,,,,,,,,,,,,,,,,,,,,1.93,0.514711141586,0.000883102416992,0.534317970276,1,s,883.033228159,,,,,,,,,,,,,,,,,,,,,,,,,,,,,,,,,2015_Jun_23_1223,59.791102691,LearningTask,1,56,
-200,q,200,,,,,,,,,,,,,,,,,1,0,1,0,23,2,94,1,,,,,,,,,,,,,,,,,,,,,,,,,,,,,q,1,None,0,,4.0,linegray.gif,stop,,,,,,,,0.384037971497,,,,,,,,,,,,,,,,,,,,,,,,3.95,0.514165878296,0.000891923904419,0.384037971497,1,q,886.036421061,,,,,,,,,,,,,,,,,,,,,,,,,,,,,,,,,2015_Jun_23_1223,59.791102691,LearningTask,1,56,
200,s,-200,,,,,,,,,,,,,,,,,1,0,1,0,23,3,95,2,,,,,,,,,,,,,,,,,,,,,,,,,,,,,s,1,None,0,,0.5,hexagonyellow.gif,stop,,,,,,,,0.384155988693,,,,,,,,,,,,,,,,,,,,,,,,0.31,0.51428103447,0.00108194351196,0.384155988693,1,s,889.040042162,,,,,,,,,,,,,,,,,,,,,,,,,,,,,,,,,2015_Jun_23_1223,59.791102691,LearningTask,1,56,
-200,q,200,,,,,,,,,,,,,,,,,1,0,1,0,24,0,96,1,,,,,,,,,,,,,,,,,,,,,,,,,,,,,q,1,None,0,,0.5,hexagonyellow.gif,stop,,,,,,,,0.350869894028,,,,,,,,,,,,,,,,,,,,,,,,0.58,0.514110088348,0.000883102416992,0.350869894028,1,q,892.043444157,,,,,,,,,,,,,,,,,,,,,,,,,,,,,,,,,2015_Jun_23_1223,59.791102691,LearningTask,1,56,
200,s,-200,,,,,,,,,,,,,,,,,1,0,1,0,24,1,97,2,,,,,,,,,,,,,,,,,,,,,,,,,,,,,s,1,None,0,,4.0,trianglewhite.gif,go,,,,,,,,0.400766134262,,,,,,,,,,,,,,,,,,,,,,,,3.78,0.514003992081,0.000880002975464,0.400766134262,1,s,895.046458006,,,,,,,,,,,,,,,,,,,,,,,,,,,,,,,,,2015_Jun_23_1223,59.791102691,LearningTask,1,56,
-200,a,-200,,,,,,,,,,,,,,,,,1,0,1,0,24,2,98,3,,,,,,,,,,,,,,,,,,,,,,,,,,,,,a,1,None,0,,2.0,circleorange.gif,stop,,,,,,,,0.433943033218,,,,,,,,,,,,,,,,,,,,,,,,2.0,0.514631986618,0.00091814994812,0.433943033218,1,a,898.049859047,,,,,,,,,,,,,,,,,,,,,,,,,,,,,,,,,2015_Jun_23_1223,59.791102691,LearningTask,1,56,
-200,q,200,,,,,,,,,,,,,,,,,1,0,1,0,24,3,99,1,,,,,,,,,,,,,,,,,,,,,,,,,,,,,q,1,None,0,,2.0,circleorange.gif,stop,,,,,,,,0.500640869141,,,,,,,,,,,,,,,,,,,,,,,,0,0.514538049698,0.000885963439941,0.500640869141,1,q,901.053486109,,,,,,,,,,,,,,,,,,,,,,,,,,,,,,,,,2015_Jun_23_1223,59.791102691,LearningTask,1,56,
,,,,,,,,,,,,,,,,,,,1,0,1,0,,,,,,,,,,,,,,,,,,,,,,,,,,,,,,,,,,,,,,,,,,,,,,,,,,,,,,,,,,,,,,,,,,,,,,,,,,,,,,,9,368.250972986,,,,,,,,,,,,,,,,,,,,,,,,,,,,,,,2015_Jun_23_1223,59.791102691,LearningTask,1,56,
-200,a,-200,,,,,,,,,,,,,,,,,2,0,2,0,0,0,0,3,,,,,,,,,,,,,,,,,,,,,,,,,,,,,a,1,None,0,0.310741186142,4.0,linegray.gif,stop,,,,,,,,0.484023809433,,,,,,,,,,,,,,,,,,,,,,,,0,0.508549213409,0.00125908851624,[],0,None,1272.90289712,,,3.97,0.514731884003,0.000962018966675,0.484023809433,1,a,1275.90566421,,,,,,,,,,,,,,,,,,,,,,,,2015_Jun_23_1223,59.791102691,LearningTask,1,56,
-200,q,200,,,,,,,,,,,,,,,,,2,0,2,0,0,1,1,1,,,,,,,,,,,,,,,,,,,,,,,,,,,,,q,1,None,0,,2.0,diamondmagenta.gif,go,,,,,,,,0.451131105423,,,,,,,,,,,,,,,,,,,,,,,,1.94,0.514127016068,0.00134801864624,0.451131105423,1,q,1278.90867901,,,,,,,,,,,,,,,,,,,,,,,,,,,,,,,,,2015_Jun_23_1223,59.791102691,LearningTask,1,56,
-200,a,-200,,,,,,,,,,,,,,,,,2,0,2,0,0,2,2,3,,,,,,,,,,,,,,,,,,,,,,,,,,,,,a,1,None,0,,0.5,hexagonyellow.gif,stop,,,,,,,,0.350853919983,,,,,,,,,,,,,,,,,,,,,,,,0.66,0.514243125916,0.0013599395752,0.350853919983,1,a,1281.91227722,,,,,,,,,,,,,,,,,,,,,,,,,,,,,,,,,2015_Jun_23_1223,59.791102691,LearningTask,1,56,
-200,a,-200,,,,,,,,,,,,,,,,,2,0,2,0,0,3,3,3,,,,,,,,,,,,,,,,,,,,,,,,,,,,,a,1,None,0,,0.5,crosscyan.gif,go,,,,,,,,0.350385904312,,,,,,,,,,,,,,,,,,,,,,,,0,0.514497995377,0.00126886367798,0.350385904312,1,a,1284.91606522,,,,,,,,,,,,,,,,,,,,,,,,,,,,,,,,,2015_Jun_23_1223,59.791102691,LearningTask,1,56,
200,w,200,,,,,,,,,,,,,,,,,2,0,2,0,1,0,4,0,,,,,,,,,,,,,,,,,,,,,,,,,,,,,w,1,None,0,,0.5,crosscyan.gif,go,,,,,,,,0.384481906891,,,,,,,,,,,,,,,,,,,,,,,,0.44,0.513363838196,0.00107097625732,0.384481906891,1,w,1287.91944718,,,,,,,,,,,,,,,,,,,,,,,,,,,,,,,,,2015_Jun_23_1223,59.791102691,LearningTask,1,56,
-200,q,200,,,,,,,,,,,,,,,,,2,0,2,0,1,1,5,1,,,,,,,,,,,,,,,,,,,,,,,,,,,,,q,1,None,0,,2.0,circleorange.gif,stop,,,,,,,,0.384840011597,,,,,,,,,,,,,,,,,,,,,,,,2.17,0.513500928879,0.00154185295105,0.384840011597,1,q,1290.92220616,,,,,,,,,,,,,,,,,,,,,,,,,,,,,,,,,2015_Jun_23_1223,59.791102691,LearningTask,1,56,
-200,a,-200,,,,,,,,,,,,,,,,,2,0,2,0,1,2,6,3,,,,,,,,,,,,,,,,,,,,,,,,,,,,,a,1,None,0,,0.5,crosscyan.gif,go,,,,,,,,0.38401889801,,,,,,,,,,,,,,,,,,,,,,,,0.69,0.51429605484,0.000877141952515,0.38401889801,1,a,1293.92565703,,,,,,,,,,,,,,,,,,,,,,,,,,,,,,,,,2015_Jun_23_1223,59.791102691,LearningTask,1,56,
-200,a,-200,,,,,,,,,,,,,,,,,2,0,2,0,1,3,7,3,,,,,,,,,,,,,,,,,,,,,,,,,,,,,a,1,None,0,,0.5,crosscyan.gif,go,,,,,,,,0.384732961655,,,,,,,,,,,,,,,,,,,,,,,,0.38,0.513911962509,0.00102996826172,0.384732961655,1,a,1296.92890406,,,,,,,,,,,,,,,,,,,,,,,,,,,,,,,,,2015_Jun_23_1223,59.791102691,LearningTask,1,56,
200,w,200,,,,,,,,,,,,,,,,,2,0,2,0,2,0,8,0,,,,,,,,,,,,,,,,,,,,,,,,,,,,,w,1,None,0,,1.0,squareblue.gif,stop,,,,,,,,0.36750793457,,,,,,,,,,,,,,,,,,,,,,,,0.86,0.514491081238,0.00126600265503,0.36750793457,1,w,1299.93235207,,,,,,,,,,,,,,,,,,,,,,,,,,,,,,,,,2015_Jun_23_1223,59.791102691,LearningTask,1,56,
-200,q,200,,,,,,,,,,,,,,,,,2,0,2,0,2,1,9,1,,,,,,,,,,,,,,,,,,,,,,,,,,,,,q,1,None,0,,0.5,hexagonyellow.gif,stop,,,,,,,,0.367522001266,,,,,,,,,,,,,,,,,,,,,,,,0,0.513760089874,0.00095796585083,0.367522001266,1,q,1302.93605304,,,,,,,,,,,,,,,,,,,,,,,,,,,,,,,,,2015_Jun_23_1223,59.791102691,LearningTask,1,56,
-200,a,-200,,,,,,,,,,,,,,,,,2,0,2,0,2,2,10,3,,,,,,,,,,,,,,,,,,,,,,,,,,,,,a,1,None,0,,2.0,circleorange.gif,stop,,,,,,,,0.468113899231,,,,,,,,,,,,,,,,,,,,,,,,1.9,0.513421058655,0.000905990600586,0.468113899231,1,a,1305.93931508,,,,,,,,,,,,,,,,,,,,,,,,,,,,,,,,,2015_Jun_23_1223,59.791102691,LearningTask,1,56,
-200,a,-200,,,,,,,,,,,,,,,,,2,0,2,0,2,3,11,3,,,,,,,,,,,,,,,,,,,,,,,,,,,,,a,1,None,0,,2.0,diamondmagenta.gif,go,,,,,,,,0.500972032547,,,,,,,,,,,,,,,,,,,,,,,,1.86,0.514139890671,0.00089693069458,0.500972032547,1,a,1308.94234514,,,,,,,,,,,,,,,,,,,,,,,,,,,,,,,,,2015_Jun_23_1223,59.791102691,LearningTask,1,56,
-200,q,200,,,,,,,,,,,,,,,,,2,0,2,0,3,0,12,1,,,,,,,,,,,,,,,,,,,,,,,,,,,,,q,1,None,0,,4.0,trianglewhite.gif,go,,,,,,,,0.33406496048,,,,,,,,,,,,,,,,,,,,,,,,4.07,0.514506101608,0.00183701515198,0.33406496048,1,q,1311.94594002,,,,,,,,,,,,,,,,,,,,,,,,,,,,,,,,,2015_Jun_23_1223,59.791102691,LearningTask,1,56,
200,w,200,,,,,,,,,,,,,,,,,2,0,2,0,3,1,13,0,,,,,,,,,,,,,,,,,,,,,,,,,,,,,w,1,None,0,,1.0,squareblue.gif,stop,,,,,,,,0.384151220322,,,,,,,,,,,,,,,,,,,,,,,,1.17,0.513803005219,0.000882863998413,0.384151220322,1,w,1314.9492681,,,,,,,,,,,,,,,,,,,,,,,,,,,,,,,,,2015_Jun_23_1223,59.791102691,LearningTask,1,56,
200,s,-200,,,,,,,,,,,,,,,,,2,0,2,0,3,2,14,2,,,,,,,,,,,,,,,,,,,,,,,,,,,,,s,1,None,0,,0.5,crosscyan.gif,go,,,,,,,,0.401068210602,,,,,,,,,,,,,,,,,,,,,,,,0.51,0.51394701004,0.000876188278198,0.401068210602,1,s,1317.95268607,,,,,,,,,,,,,,,,,,,,,,,,,,,,,,,,,2015_Jun_23_1223,59.791102691,LearningTask,1,56,
-200,a,-200,,,,,,,,,,,,,,,,,2,0,2,0,3,3,15,3,,,,,,,,,,,,,,,,,,,,,,,,,,,,,a,1,None,0,,0.5,hexagonyellow.gif,stop,,,,,,,,0.401076078415,,,,,,,,,,,,,,,,,,,,,,,,0,0.513935089111,0.00090503692627,0.401076078415,1,a,1320.956177,,,,,,,,,,,,,,,,,,,,,,,,,,,,,,,,,2015_Jun_23_1223,59.791102691,LearningTask,1,56,
200,s,-200,,,,,,,,,,,,,,,,,2,0,2,0,4,0,16,2,,,,,,,,,,,,,,,,,,,,,,,,,,,,,s,1,None,0,,4.0,linegray.gif,stop,,,,,,,,0.401020050049,,,,,,,,,,,,,,,,,,,,,,,,4.21,0.513705968857,0.000872850418091,0.401020050049,1,s,1323.95922422,,,,,,,,,,,,,,,,,,,,,,,,,,,,,,,,,2015_Jun_23_1223,59.791102691,LearningTask,1,56,
200,w,200,,,,,,,,,,,,,,,,,2,0,2,0,4,1,17,0,,,,,,,,,,,,,,,,,,,,,,,,,,,,,w,1,None,0,,1.0,invertedtrianglegreen.gif,go,,,,,,,,0.417742013931,,,,,,,,,,,,,,,,,,,,,,,,0,0.514227151871,0.00126099586487,0.417742013931,1,w,1326.96248007,,,,,,,,,,,,,,,,,,,,,,,,,,,,,,,,,2015_Jun_23_1223,59.791102691,LearningTask,1,56,
-200,a,-200,,,,,,,,,,,,,,,,,2,0,2,0,4,2,18,3,,,,,,,,,,,,,,,,,,,,,,,,,,,,,a,1,None,0,,4.0,trianglewhite.gif,go,,,,,,,,0.383740901947,,,,,,,,,,,,,,,,,,,,,,,,0,0.514410018921,0.000915050506592,0.383740901947,1,a,1329.96611214,,,,,,,,,,,,,,,,,,,,,,,,,,,,,,,,,2015_Jun_23_1223,59.791102691,LearningTask,1,56,
200,s,-200,,,,,,,,,,,,,,,,,2,0,2,0,4,3,19,2,,,,,,,,,,,,,,,,,,,,,,,,,,,,,s,1,None,0,,0.5,hexagonyellow.gif,stop,,,,,,,,0.401250839233,,,,,,,,,,,,,,,,,,,,,,,,0.75,0.513844966888,0.000878095626831,0.401250839233,1,s,1332.96911812,,,,,,,,,,,,,,,,,,,,,,,,,,,,,,,,,2015_Jun_23_1223,59.791102691,LearningTask,1,56,
200,s,-200,,,,,,,,,,,,,,,,,2,0,2,0,5,0,20,2,,,,,,,,,,,,,,,,,,,,,,,,,,,,,s,1,None,0,,1.0,squareblue.gif,stop,,,,,,,,0.384140014648,,,,,,,,,,,,,,,,,,,,,,,,1.04,0.514549970627,0.000958919525146,0.384140014648,1,s,1335.97303009,,,,,,,,,,,,,,,,,,,,,,,,,,,,,,,,,2015_Jun_23_1223,59.791102691,LearningTask,1,56,
200,s,-200,,,,,,,,,,,,,,,,,2,0,2,0,5,1,21,2,,,,,,,,,,,,,,,,,,,,,,,,,,,,,s,1,None,0,,1.0,squareblue.gif,stop,,,,,,,,0.384590148926,,,,,,,,,,,,,,,,,,,,,,,,1.14,0.513535022736,0.000869035720825,0.384590148926,1,s,1338.97607017,,,,,,,,,,,,,,,,,,,,,,,,,,,,,,,,,2015_Jun_23_1223,59.791102691,LearningTask,1,56,
-200,a,-200,,,,,,,,,,,,,,,,,2,0,2,0,5,2,22,3,,,,,,,,,,,,,,,,,,,,,,,,,,,,,a,1,None,0,,0.5,crosscyan.gif,go,,,,,,,,0.350803136826,,,,,,,,,,,,,,,,,,,,,,,,0.74,0.514201879501,0.000869989395142,0.350803136826,1,a,1341.9792552,,,,,,,,,,,,,,,,,,,,,,,,,,,,,,,,,2015_Jun_23_1223,59.791102691,LearningTask,1,56,
-200,a,-200,,,,,,,,,,,,,,,,,2,0,2,0,5,3,23,3,,,,,,,,,,,,,,,,,,,,,,,,,,,,,a,1,None,0,,1.0,invertedtrianglegreen.gif,go,,,,,,,,0.350869894028,,,,,,,,,,,,,,,,,,,,,,,,0.76,0.514192819595,0.000937938690186,0.350869894028,1,a,1344.98261118,,,,,,,,,,,,,,,,,,,,,,,,,,,,,,,,,2015_Jun_23_1223,59.791102691,LearningTask,1,56,
200,s,-200,,,,,,,,,,,,,,,,,2,0,2,0,6,0,24,2,,,,,,,,,,,,,,,,,,,,,,,,,,,,,s,1,None,0,,4.0,linegray.gif,stop,,,,,,,,0.384484052658,,,,,,,,,,,,,,,,,,,,,,,,3.79,0.514415025711,0.000870943069458,0.384484052658,1,s,1347.98601818,,,,,,,,,,,,,,,,,,,,,,,,,,,,,,,,,2015_Jun_23_1223,59.791102691,LearningTask,1,56,
-200,q,200,,,,,,,,,,,,,,,,,2,0,2,0,6,1,25,1,,,,,,,,,,,,,,,,,,,,,,,,,,,,,q,1,None,0,,4.0,linegray.gif,stop,,,,,,,,0.350522994995,,,,,,,,,,,,,,,,,,,,,,,,4.21,0.514544010162,0.000872850418091,0.350522994995,1,q,1350.98953819,,,,,,,,,,,,,,,,,,,,,,,,,,,,,,,,,2015_Jun_23_1223,59.791102691,LearningTask,1,56,
200,w,200,,,,,,,,,,,,,,,,,2,0,2,0,6,2,26,0,,,,,,,,,,,,,,,,,,,,,,,,,,,,,w,1,None,0,,1.0,squareblue.gif,stop,,,,,,,,0.367835044861,,,,,,,,,,,,,,,,,,,,,,,,0,0.513679027557,0.000880002975464,0.367835044861,1,w,1353.99283504,,,,,,,,,,,,,,,,,,,,,,,,,,,,,,,,,2015_Jun_23_1223,59.791102691,LearningTask,1,56,
200,w,200,,,,,,,,,,,,,,,,,2,0,2,0,6,3,27,0,,,,,,,,,,,,,,,,,,,,,,,,,,,,,w,1,None,0,,1.0,invertedtrianglegreen.gif,go,,,,,,,,0.351090192795,,,,,,,,,,,,,,,,,,,,,,,,1.07,0.514355897903,0.000879049301147,0.351090192795,1,w,1356.99607706,,,,,,,,,,,,,,,,,,,,,,,,,,,,,,,,,2015_Jun_23_1223,59.791102691,LearningTask,1,56,
200,s,-200,,,,,,,,,,,,,,,,,2,0,2,0,7,0,28,2,,,,,,,,,,,,,,,,,,,,,,,,,,,,,s,1,None,0,,2.0,circleorange.gif,stop,,,,,,,,0.367551088333,,,,,,,,,,,,,,,,,,,,,,,,0,0.514417886734,0.000875949859619,0.367551088333,1,s,1359.9994812,,,,,,,,,,,,,,,,,,,,,,,,,,,,,,,,,2015_Jun_23_1223,59.791102691,LearningTask,1,56,
200,w,200,,,,,,,,,,,,,,,,,2,0,2,0,7,1,29,0,,,,,,,,,,,,,,,,,,,,,,,,,,,,,w,1,None,0,,2.0,diamondmagenta.gif,go,,,,,,,,0.400702953339,,,,,,,,,,,,,,,,,,,,,,,,1.89,0.514018058777,0.000874996185303,0.400702953339,1,w,1363.00301504,,,,,,,,,,,,,,,,,,,,,,,,,,,,,,,,,2015_Jun_23_1223,59.791102691,LearningTask,1,56,
200,s,-200,,,,,,,,,,,,,,,,,2,0,2,0,7,2,30,2,,,,,,,,,,,,,,,,,,,,,,,,,,,,,s,1,None,0,,2.0,diamondmagenta.gif,go,,,,,,,,0.333793878555,,,,,,,,,,,,,,,,,,,,,,,,1.91,0.514136791229,0.000870943069458,0.333793878555,1,s,1366.00641608,,,,,,,,,,,,,,,,,,,,,,,,,,,,,,,,,2015_Jun_23_1223,59.791102691,LearningTask,1,56,
-200,q,200,,,,,,,,,,,,,,,,,2,0,2,0,7,3,31,1,,,,,,,,,,,,,,,,,,,,,,,,,,,,,q,1,None,0,,0.5,crosscyan.gif,go,,,,,,,,0.38476395607,,,,,,,,,,,,,,,,,,,,,,,,0,0.514006853104,0.000897884368896,0.317496061325,0,a,1369.00991201,,,0.72,0.514559030533,0.000957012176514,0.38476395607,1,q,1372.01310921,,,,,,,,,,,,,,,,,,,,,,,,2015_Jun_23_1223,59.791102691,LearningTask,1,56,
200,s,-200,,,,,,,,,,,,,,,,,2,0,2,0,8,0,32,2,,,,,,,,,,,,,,,,,,,,,,,,,,,,,s,1,None,0,,0.5,hexagonyellow.gif,stop,,,,,,,,0.434386968613,,,,,,,,,,,,,,,,,,,,,,,,0.33,0.514102935791,0.000892877578735,0.434386968613,1,s,1375.01639414,,,,,,,,,,,,,,,,,,,,,,,,,,,,,,,,,2015_Jun_23_1223,59.791102691,LearningTask,1,56,
200,s,-200,,,,,,,,,,,,,,,,,2,0,2,0,8,1,33,2,,,,,,,,,,,,,,,,,,,,,,,,,,,,,s,1,None,0,,4.0,linegray.gif,stop,,,,,,,,0.367415904999,,,,,,,,,,,,,,,,,,,,,,,,3.94,0.514070034027,0.000943899154663,0.367415904999,1,s,1378.01973414,,,,,,,,,,,,,,,,,,,,,,,,,,,,,,,,,2015_Jun_23_1223,59.791102691,LearningTask,1,56,
200,w,200,,,,,,,,,,,,,,,,,2,0,2,0,8,2,34,0,,,,,,,,,,,,,,,,,,,,,,,,,,,,,w,1,None,0,,4.0,linegray.gif,stop,,,,,,,,0.417457103729,,,,,,,,,,,,,,,,,,,,,,,,4.08,0.51441693306,0.000871896743774,0.417457103729,1,w,1381.02313805,,,,,,,,,,,,,,,,,,,,,,,,,,,,,,,,,2015_Jun_23_1223,59.791102691,LearningTask,1,56,
200,w,200,,,,,,,,,,,,,,,,,2,0,2,0,8,3,35,0,,,,,,,,,,,,,,,,,,,,,,,,,,,,,w,1,None,0,,4.0,trianglewhite.gif,go,,,,,,,,0.38446688652,,,,,,,,,,,,,,,,,,,,,,,,4.16,0.513971090317,0.000995874404907,0.38446688652,1,w,1384.02604508,,,,,,,,,,,,,,,,,,,,,,,,,,,,,,,,,2015_Jun_23_1223,59.791102691,LearningTask,1,56,
200,w,200,,,,,,,,,,,,,,,,,2,0,2,0,9,0,36,0,,,,,,,,,,,,,,,,,,,,,,,,,,,,,w,1,None,0,,0.5,hexagonyellow.gif,stop,,,,,,,,0.401048898697,,,,,,,,,,,,,,,,,,,,,,,,0.64,0.514415979385,0.000929832458496,0.401048898697,1,w,1387.02966905,,,,,,,,,,,,,,,,,,,,,,,,,,,,,,,,,2015_Jun_23_1223,59.791102691,LearningTask,1,56,
200,s,-200,,,,,,,,,,,,,,,,,2,0,2,0,9,1,37,2,,,,,,,,,,,,,,,,,,,,,,,,,,,,,s,1,None,0,,1.0,invertedtrianglegreen.gif,go,,,,,,,,0.484390974045,,,,,,,,,,,,,,,,,,,,,,,,0.81,0.514312982559,0.000874042510986,0.484390974045,1,s,1390.03295517,,,,,,,,,,,,,,,,,,,,,,,,,,,,,,,,,2015_Jun_23_1223,59.791102691,LearningTask,1,56,
-200,a,-200,,,,,,,,,,,,,,,,,2,0,2,0,9,2,38,3,,,,,,,,,,,,,,,,,,,,,,,,,,,,,a,1,None,0,,1.0,invertedtrianglegreen.gif,go,,,,,,,,0.317346811295,,,,,,,,,,,,,,,,,,,,,,,,0.94,0.514187097549,0.00101804733276,0.317346811295,1,a,1393.03644419,,,,,,,,,,,,,,,,,,,,,,,,,,,,,,,,,2015_Jun_23_1223,59.791102691,LearningTask,1,56,
200,w,200,,,,,,,,,,,,,,,,,2,0,2,0,9,3,39,0,,,,,,,,,,,,,,,,,,,,,,,,,,,,,w,1,None,0,,4.0,trianglewhite.gif,go,,,,,,,,0.300850868225,,,,,,,,,,,,,,,,,,,,,,,,0,0.514281988144,0.00086498260498,0.300850868225,1,w,1396.03956318,,,,,,,,,,,,,,,,,,,,,,,,,,,,,,,,,2015_Jun_23_1223,59.791102691,LearningTask,1,56,
200,s,-200,,,,,,,,,,,,,,,,,2,0,2,0,10,0,40,2,,,,,,,,,,,,,,,,,,,,,,,,,,,,,s,1,None,0,,0.5,hexagonyellow.gif,stop,,,,,,,,0.384550094604,,,,,,,,,,,,,,,,,,,,,,,,0.6,0.51447892189,0.00089693069458,0.384550094604,1,s,1399.04321218,,,,,,,,,,,,,,,,,,,,,,,,,,,,,,,,,2015_Jun_23_1223,59.791102691,LearningTask,1,56,
-200,a,-200,,,,,,,,,,,,,,,,,2,0,2,0,10,1,41,3,,,,,,,,,,,,,,,,,,,,,,,,,,,,,a,1,None,0,,4.0,trianglewhite.gif,go,,,,,,,,0.367717981339,,,,,,,,,,,,,,,,,,,,,,,,0,0.513396024704,0.000906229019165,0.367717981339,1,a,1402.0466342,,,,,,,,,,,,,,,,,,,,,,,,,,,,,,,,,2015_Jun_23_1223,59.791102691,LearningTask,1,56,
-200,q,200,,,,,,,,,,,,,,,,,2,0,2,0,10,2,42,1,,,,,,,,,,,,,,,,,,,,,,,,,,,,,q,1,None,0,,1.0,squareblue.gif,stop,,,,,,,,0.317327976227,,,,,,,,,,,,,,,,,,,,,,,,0.75,0.514137029648,0.000881195068359,0.317327976227,1,q,1405.04976702,,,,,,,,,,,,,,,,,,,,,,,,,,,,,,,,,2015_Jun_23_1223,59.791102691,LearningTask,1,56,
200,s,-200,,,,,,,,,,,,,,,,,2,0,2,0,10,3,43,2,,,,,,,,,,,,,,,,,,,,,,,,,,,,,s,1,None,0,,2.0,diamondmagenta.gif,go,,,,,,,,0.384454011917,,,,,,,,,,,,,,,,,,,,,,,,2.07,0.514191150665,0.00087308883667,0.384454011917,1,s,1408.05322719,,,,,,,,,,,,,,,,,,,,,,,,,,,,,,,,,2015_Jun_23_1223,59.791102691,LearningTask,1,56,
-200,q,200,,,,,,,,,,,,,,,,,2,0,2,0,11,0,44,1,,,,,,,,,,,,,,,,,,,,,,,,,,,,,q,1,None,0,,2.0,diamondmagenta.gif,go,,,,,,,,0.484488964081,,,,,,,,,,,,,,,,,,,,,,,,1.82,0.514105081558,0.000931978225708,0.484488964081,1,q,1411.05663419,,,,,,,,,,,,,,,,,,,,,,,,,,,,,,,,,2015_Jun_23_1223,59.791102691,LearningTask,1,56,
200,w,200,,,,,,,,,,,,,,,,,2,0,2,0,11,1,45,0,,,,,,,,,,,,,,,,,,,,,,,,,,,,,w,1,None,0,,1.0,invertedtrianglegreen.gif,go,,,,,,,,0.384307861328,,,,,,,,,,,,,,,,,,,,,,,,0.86,0.514132976532,0.000874042510986,0.384307861328,1,w,1414.05977106,,,,,,,,,,,,,,,,,,,,,,,,,,,,,,,,,2015_Jun_23_1223,59.791102691,LearningTask,1,56,
-200,a,-200,,,,,,,,,,,,,,,,,2,0,2,0,11,2,46,3,,,,,,,,,,,,,,,,,,,,,,,,,,,,,a,1,None,0,,0.5,hexagonyellow.gif,stop,,,,,,,,0.334332942963,,,,,,,,,,,,,,,,,,,,,,,,0.59,0.514352083206,0.000877141952515,0.334332942963,1,a,1417.06349206,,,,,,,,,,,,,,,,,,,,,,,,,,,,,,,,,2015_Jun_23_1223,59.791102691,LearningTask,1,56,
200,s,-200,,,,,,,,,,,,,,,,,2,0,2,0,11,3,47,2,,,,,,,,,,,,,,,,,,,,,,,,,,,,,s,1,None,0,,2.0,circleorange.gif,stop,,,,,,,,0.433730125427,,,,,,,,,,,,,,,,,,,,,,,,1.77,0.513821840286,0.000948905944824,0.433730125427,1,s,1420.06655121,,,,,,,,,,,,,,,,,,,,,,,,,,,,,,,,,2015_Jun_23_1223,59.791102691,LearningTask,1,56,
-200,q,200,,,,,,,,,,,,,,,,,2,0,2,0,12,0,48,1,,,,,,,,,,,,,,,,,,,,,,,,,,,,,q,1,None,0,,4.0,linegray.gif,stop,,,,,,,,0.350703954697,,,,,,,,,,,,,,,,,,,,,,,,0,0.51438498497,0.000874042510986,0.350703954697,1,q,1423.06988907,,,,,,,,,,,,,,,,,,,,,,,,,,,,,,,,,2015_Jun_23_1223,59.791102691,LearningTask,1,56,
200,w,200,,,,,,,,,,,,,,,,,2,0,2,0,12,1,49,0,,,,,,,,,,,,,,,,,,,,,,,,,,,,,w,1,None,0,,4.0,linegray.gif,stop,,,,,,,,0.417844057083,,,,,,,,,,,,,,,,,,,,,,,,3.86,0.514413118362,0.000916957855225,0.417844057083,1,w,1426.07362413,,,,,,,,,,,,,,,,,,,,,,,,,,,,,,,,,2015_Jun_23_1223,59.791102691,LearningTask,1,56,
-200,q,200,,,,,,,,,,,,,,,,,2,0,2,0,12,2,50,1,,,,,,,,,,,,,,,,,,,,,,,,,,,,,q,1,None,0,,1.0,invertedtrianglegreen.gif,go,,,,,,,,0.384141206741,,,,,,,,,,,,,,,,,,,,,,,,0.79,0.514091968536,0.000870943069458,0.384141206741,1,q,1429.07654214,,,,,,,,,,,,,,,,,,,,,,,,,,,,,,,,,2015_Jun_23_1223,59.791102691,LearningTask,1,56,
-200,a,-200,,,,,,,,,,,,,,,,,2,0,2,0,12,3,51,3,,,,,,,,,,,,,,,,,,,,,,,,,,,,,a,1,None,0,,4.0,trianglewhite.gif,go,,,,,,,,0.367912769318,,,,,,,,,,,,,,,,,,,,,,,,0,0.514415979385,0.000968933105469,0.367912769318,1,a,1432.08040905,,,,,,,,,,,,,,,,,,,,,,,,,,,,,,,,,2015_Jun_23_1223,59.791102691,LearningTask,1,56,
-200,a,-200,,,,,,,,,,,,,,,,,2,0,2,0,13,0,52,3,,,,,,,,,,,,,,,,,,,,,,,,,,,,,a,1,s,0,0.675127029419,0.5,crosscyan.gif,go,,,,,,,,0.36779499054,,,,,,,,,,,,,,,,,,,,,,,,0.41,0.513659954071,0.000874996185303,0.36779499054,1,a,1435.08367014,,,,,,,,,,,,,,,,,,,,,,,,,,,,,,,,,2015_Jun_23_1223,59.791102691,LearningTask,1,56,
200,w,200,,,,,,,,,,,,,,,,,2,0,2,0,13,1,53,0,,,,,,,,,,,,,,,,,,,,,,,,,,,,,w,1,None,0,,2.0,circleorange.gif,stop,,,,,,,,0.417721986771,,,,,,,,,,,,,,,,,,,,,,,,0,0.514156103134,0.000901937484741,0.417721986771,1,w,1438.08675003,,,,,,,,,,,,,,,,,,,,,,,,,,,,,,,,,2015_Jun_23_1223,59.791102691,LearningTask,1,56,
-200,q,200,,,,,,,,,,,,,,,,,2,0,2,0,13,2,54,1,,,,,,,,,,,,,,,,,,,,,,,,,,,,,q,1,None,0,,2.0,diamondmagenta.gif,go,,,,,,,,0.401041030884,,,,,,,,,,,,,,,,,,,,,,,,2.15,0.513998985291,0.000922918319702,0.401041030884,1,q,1441.09005499,,,,,,,,,,,,,,,,,,,,,,,,,,,,,,,,,2015_Jun_23_1223,59.791102691,LearningTask,1,56,
200,w,200,,,,,,,,,,,,,,,,,2,0,2,0,13,3,55,0,,,,,,,,,,,,,,,,,,,,,,,,,,,,,w,1,None,0,,4.0,linegray.gif,stop,,,,,,,,0.367223024368,,,,,,,,,,,,,,,,,,,,,,,,4.17,0.514311075211,0.00087308883667,0.367223024368,1,w,1444.0934751,,,,,,,,,,,,,,,,,,,,,,,,,,,,,,,,,2015_Jun_23_1223,59.791102691,LearningTask,1,56,
200,s,-200,,,,,,,,,,,,,,,,,2,0,2,0,14,0,56,2,,,,,,,,,,,,,,,,,,,,,,,,,,,,,s,1,None,0,,2.0,diamondmagenta.gif,go,,,,,,,,0.417164087296,,,,,,,,,,,,,,,,,,,,,,,,0,0.514366149902,0.00092601776123,0.417164087296,1,s,1447.09713006,,,,,,,,,,,,,,,,,,,,,,,,,,,,,,,,,2015_Jun_23_1223,59.791102691,LearningTask,1,56,
-200,a,-200,,,,,,,,,,,,,,,,,2,0,2,0,14,1,57,3,,,,,,,,,,,,,,,,,,,,,,,,,,,,,a,1,None,0,,0.5,crosscyan.gif,go,,,,,,,,0.367501020432,,,,,,,,,,,,,,,,,,,,,,,,0.29,0.514006137848,0.000900030136108,0.367501020432,1,a,1450.10024405,,,,,,,,,,,,,,,,,,,,,,,,,,,,,,,,,2015_Jun_23_1223,59.791102691,LearningTask,1,56,
-200,a,-200,,,,,,,,,,,,,,,,,2,0,2,0,14,2,58,3,,,,,,,,,,,,,,,,,,,,,,,,,,,,,a,1,None,0,,0.5,crosscyan.gif,go,,,,,,,,0.300641059875,,,,,,,,,,,,,,,,,,,,,,,,0,0.51433300972,0.000880002975464,0.300641059875,1,a,1453.10343504,,,,,,,,,,,,,,,,,,,,,,,,,,,,,,,,,2015_Jun_23_1223,59.791102691,LearningTask,1,56,
-200,q,200,,,,,,,,,,,,,,,,,2,0,2,0,14,3,59,1,,,,,,,,,,,,,,,,,,,,,,,,,,,,,q,1,None,0,,0.5,crosscyan.gif,go,,,,,,,,0.334444046021,,,,,,,,,,,,,,,,,,,,,,,,0.61,0.514374017715,0.000878810882568,0.334444046021,1,q,1456.10722899,,,,,,,,,,,,,,,,,,,,,,,,,,,,,,,,,2015_Jun_23_1223,59.791102691,LearningTask,1,56,
200,w,200,,,,,,,,,,,,,,,,,2,0,2,0,15,0,60,0,,,,,,,,,,,,,,,,,,,,,,,,,,,,,w,1,None,0,,4.0,linegray.gif,stop,,,,,,,,0.400825023651,,,,,,,,,,,,,,,,,,,,,,,,3.96,0.513442993164,0.000882863998413,0.400825023651,1,w,1459.11038303,,,,,,,,,,,,,,,,,,,,,,,,,,,,,,,,,2015_Jun_23_1223,59.791102691,LearningTask,1,56,
200,w,200,,,,,,,,,,,,,,,,,2,0,2,0,15,1,61,0,,,,,,,,,,,,,,,,,,,,,,,,,,,,,w,1,None,0,,0.5,crosscyan.gif,go,,,,,,,,0.38422703743,,,,,,,,,,,,,,,,,,,,,,,,0,0.513901948929,0.000876903533936,0.38422703743,1,w,1462.11331701,,,,,,,,,,,,,,,,,,,,,,,,,,,,,,,,,2015_Jun_23_1223,59.791102691,LearningTask,1,56,
-200,q,200,,,,,,,,,,,,,,,,,2,0,2,0,15,2,62,1,,,,,,,,,,,,,,,,,,,,,,,,,,,,,q,1,None,0,,4.0,trianglewhite.gif,go,,,,,,,,0.351182937622,,,,,,,,,,,,,,,,,,,,,,,,3.97,0.514512062073,0.000880002975464,0.351182937622,1,q,1465.11697817,,,,,,,,,,,,,,,,,,,,,,,,,,,,,,,,,2015_Jun_23_1223,59.791102691,LearningTask,1,56,
200,s,-200,,,,,,,,,,,,,,,,,2,0,2,0,15,3,63,2,,,,,,,,,,,,,,,,,,,,,,,,,,,,,s,1,None,0,,2.0,diamondmagenta.gif,go,,,,,,,,0.351125955582,,,,,,,,,,,,,,,,,,,,,,,,1.99,0.514173030853,0.00114893913269,0.351125955582,1,s,1468.12040401,,,,,,,,,,,,,,,,,,,,,,,,,,,,,,,,,2015_Jun_23_1223,59.791102691,LearningTask,1,56,
-200,a,-200,,,,,,,,,,,,,,,,,2,0,2,0,16,0,64,3,,,,,,,,,,,,,,,,,,,,,,,,,,,,,a,1,None,0,,4.0,linegray.gif,stop,,,,,,,,0.367415904999,,,,,,,,,,,,,,,,,,,,,,,,4.17,0.514274120331,0.000872135162354,0.367415904999,1,a,1471.1235652,,,,,,,,,,,,,,,,,,,,,,,,,,,,,,,,,2015_Jun_23_1223,59.791102691,LearningTask,1,56,
-200,a,-200,,,,,,,,,,,,,,,,,2,0,2,0,16,1,65,3,,,,,,,,,,,,,,,,,,,,,,,,,,,,,a,1,None,0,,4.0,trianglewhite.gif,go,,,,,,,,0.3504550457,,,,,,,,,,,,,,,,,,,,,,,,4.19,0.514579057693,0.00106406211853,0.3504550457,1,a,1474.12710905,,,,,,,,,,,,,,,,,,,,,,,,,,,,,,,,,2015_Jun_23_1223,59.791102691,LearningTask,1,56,
-200,q,200,,,,,,,,,,,,,,,,,2,0,2,0,16,2,66,1,,,,,,,,,,,,,,,,,,,,,,,,,,,,,q,1,None,0,,2.0,diamondmagenta.gif,go,,,,,,,,0.450927972794,,,,,,,,,,,,,,,,,,,,,,,,1.82,0.514079093933,0.000893115997314,0.450927972794,1,q,1477.13052607,,,,,,,,,,,,,,,,,,,,,,,,,,,,,,,,,2015_Jun_23_1223,59.791102691,LearningTask,1,56,
-200,a,-200,,,,,,,,,,,,,,,,,2,0,2,0,16,3,67,3,,,,,,,,,,,,,,,,,,,,,,,,,,,,,a,1,None,0,,0.5,crosscyan.gif,go,,,,,,,,0.40075802803,,,,,,,,,,,,,,,,,,,,,,,,0.46,0.514276027679,0.000999927520752,0.40075802803,1,a,1480.13414311,,,,,,,,,,,,,,,,,,,,,,,,,,,,,,,,,2015_Jun_23_1223,59.791102691,LearningTask,1,56,
200,w,200,,,,,,,,,,,,,,,,,2,0,2,0,17,0,68,0,,,,,,,,,,,,,,,,,,,,,,,,,,,,,w,1,None,0,,1.0,invertedtrianglegreen.gif,go,,,,,,,,0.38426399231,,,,,,,,,,,,,,,,,,,,,,,,0.9,0.513573884964,0.00086784362793,0.38426399231,1,w,1483.13697505,,,,,,,,,,,,,,,,,,,,,,,,,,,,,,,,,2015_Jun_23_1223,59.791102691,LearningTask,1,56,
-200,q,200,,,,,,,,,,,,,,,,,2,0,2,0,17,1,69,1,,,,,,,,,,,,,,,,,,,,,,,,,,,,,q,1,None,0,,2.0,diamondmagenta.gif,go,,,,,,,,0.366809129715,,,,,,,,,,,,,,,,,,,,,,,,2.16,0.514665842056,0.000870943069458,0.366809129715,1,q,1486.14030313,,,,,,,,,,,,,,,,,,,,,,,,,,,,,,,,,2015_Jun_23_1223,59.791102691,LearningTask,1,56,
-200,q,200,,,,,,,,,,,,,,,,,2,0,2,0,17,2,70,1,,,,,,,,,,,,,,,,,,,,,,,,,,,,,q,1,None,0,,1.0,invertedtrianglegreen.gif,go,,,,,,,,0.300938844681,,,,,,,,,,,,,,,,,,,,,,,,0,0.51429605484,0.000948905944824,0.300938844681,1,q,1489.14382315,,,,,,,,,,,,,,,,,,,,,,,,,,,,,,,,,2015_Jun_23_1223,59.791102691,LearningTask,1,56,
200,s,-200,,,,,,,,,,,,,,,,,2,0,2,0,17,3,71,2,,,,,,,,,,,,,,,,,,,,,,,,,,,,,s,1,None,0,,4.0,linegray.gif,stop,,,,,,,,0.500921964645,,,,,,,,,,,,,,,,,,,,,,,,3.94,0.514167070389,0.000874996185303,0.500921964645,1,s,1492.14706016,,,,,,,,,,,,,,,,,,,,,,,,,,,,,,,,,2015_Jun_23_1223,59.791102691,LearningTask,1,56,
200,w,200,,,,,,,,,,,,,,,,,2,0,2,0,18,0,72,0,,,,,,,,,,,,,,,,,,,,,,,,,,,,,w,1,None,0,,1.0,invertedtrianglegreen.gif,go,,,,,,,,0.734374046326,,,,,,,,,,,,,,,,,,,,,,,,0,0.514513969421,0.000875949859619,0.734374046326,1,w,1495.15079808,,,,,,,,,,,,,,,,,,,,,,,,,,,,,,,,,2015_Jun_23_1223,59.791102691,LearningTask,1,56,
-200,q,200,,,,,,,,,,,,,,,,,2,0,2,0,18,1,73,1,,,,,,,,,,,,,,,,,,,,,,,,,,,,,q,1,None,0,,0.5,crosscyan.gif,go,,,,,,,,0.717528104782,,,,,,,,,,,,,,,,,,,,,,,,0.36,0.513997077942,0.000908136367798,0.717528104782,1,q,1498.15402222,,,,,,,,,,,,,,,,,,,,,,,,,,,,,,,,,2015_Jun_23_1223,59.791102691,LearningTask,1,56,
-200,q,200,,,,,,,,,,,,,,,,,2,0,2,0,18,2,74,1,,,,,,,,,,,,,,,,,,,,,,,,,,,,,q,1,None,0,0.026890039444,0.5,crosscyan.gif,go,,,,,,,,0.3006939888,,,,,,,,,,,,,,,,,,,,,,,,0,0.513977050781,0.000874996185303,[],0,None,1501.1571331,,,0.47,0.515532016754,0.000945091247559,0.3006939888,1,q,1504.160815,,,,,,,,,,,,,,,,,,,,,,,,2015_Jun_23_1223,59.791102691,LearningTask,1,56,
200,w,200,,,,,,,,,,,,,,,,,2,0,2,0,18,3,75,0,,,,,,,,,,,,,,,,,,,,,,,,,,,,,w,1,None,0,,1.0,squareblue.gif,stop,,,,,,,,0.350650072098,,,,,,,,,,,,,,,,,,,,,,,,1.24,0.51388001442,0.000885009765625,0.350650072098,1,w,1507.16398621,,,,,,,,,,,,,,,,,,,,,,,,,,,,,,,,,2015_Jun_23_1223,59.791102691,LearningTask,1,56,
-200,q,200,,,,,,,,,,,,,,,,,2,0,2,0,19,0,76,1,,,,,,,,,,,,,,,,,,,,,,,,,,,,,q,1,None,0,,0.5,hexagonyellow.gif,stop,,,,,,,,0.351116895676,,,,,,,,,,,,,,,,,,,,,,,,0.45,0.514100074768,0.000879049301147,0.351116895676,1,q,1510.16744208,,,,,,,,,,,,,,,,,,,,,,,,,,,,,,,,,2015_Jun_23_1223,59.791102691,LearningTask,1,56,
-200,q,200,,,,,,,,,,,,,,,,,2,0,2,0,19,1,77,1,,,,,,,,,,,,,,,,,,,,,,,,,,,,,q,1,None,0,,1.0,squareblue.gif,stop,,,,,,,,0.58455491066,,,,,,,,,,,,,,,,,,,,,,,,0.97,0.514008998871,0.000936985015869,0.58455491066,1,q,1513.17084122,,,,,,,,,,,,,,,,,,,,,,,,,,,,,,,,,2015_Jun_23_1223,59.791102691,LearningTask,1,56,
-200,a,-200,,,,,,,,,,,,,,,,,2,0,2,0,19,2,78,3,,,,,,,,,,,,,,,,,,,,,,,,,,,,,a,1,None,0,,4.0,linegray.gif,stop,,,,,,,,0.584511041641,,,,,,,,,,,,,,,,,,,,,,,,3.87,0.514137983322,0.000890016555786,0.584511041641,1,a,1516.17379212,,,,,,,,,,,,,,,,,,,,,,,,,,,,,,,,,2015_Jun_23_1223,59.791102691,LearningTask,1,56,
200,s,-200,,,,,,,,,,,,,,,,,2,0,2,0,19,3,79,2,,,,,,,,,,,,,,,,,,,,,,,,,,,,,s,1,None,0,,4.0,trianglewhite.gif,go,,,,,,,,0.667604923248,,,,,,,,,,,,,,,,,,,,,,,,0,0.51465010643,0.000870943069458,0.667604923248,1,s,1519.17736006,,,,,,,,,,,,,,,,,,,,,,,,,,,,,,,,,2015_Jun_23_1223,59.791102691,LearningTask,1,56,
200,s,-200,,,,,,,,,,,,,,,,,2,0,2,0,20,0,80,2,,,,,,,,,,,,,,,,,,,,,,,,,,,,,s,1,None,0,,4.0,trianglewhite.gif,go,,,,,,,,0.68493103981,,,,,,,,,,,,,,,,,,,,,,,,0,0.514464139938,0.00092601776123,0.68493103981,1,s,1522.18071318,,,,,,,,,,,,,,,,,,,,,,,,,,,,,,,,,2015_Jun_23_1223,59.791102691,LearningTask,1,56,
-200,q,200,,,,,,,,,,,,,,,,,2,0,2,0,20,1,81,1,,,,,,,,,,,,,,,,,,,,,,,,,,,,,q,1,None,0,,4.0,trianglewhite.gif,go,,,,,,,,0.501043081284,,,,,,,,,,,,,,,,,,,,,,,,3.88,0.514206886292,0.000877857208252,0.501043081284,1,q,1525.1839292,,,,,,,,,,,,,,,,,,,,,,,,,,,,,,,,,2015_Jun_23_1223,59.791102691,LearningTask,1,56,
-200,a,-200,,,,,,,,,,,,,,,,,2,0,2,0,20,2,82,3,,,,,,,,,,,,,,,,,,,,,,,,,,,,,a,1,None,0,,0.5,hexagonyellow.gif,stop,,,,,,,,0.934830188751,,,,,,,,,,,,,,,,,,,,,,,,0.65,0.51441693306,0.00104188919067,0.934830188751,1,a,1528.18700099,,,,,,,,,,,,,,,,,,,,,,,,,,,,,,,,,2015_Jun_23_1223,59.791102691,LearningTask,1,56,
200,s,-200,,,,,,,,,,,,,,,,,2,0,2,0,20,3,83,2,,,,,,,,,,,,,,,,,,,,,,,,,,,,,s,1,None,0,,2.0,diamondmagenta.gif,go,,,,,,,,0.734769105911,,,,,,,,,,,,,,,,,,,,,,,,1.92,0.514379024506,0.000933170318604,0.734769105911,1,s,1531.19075704,,,,,,,,,,,,,,,,,,,,,,,,,,,,,,,,,2015_Jun_23_1223,59.791102691,LearningTask,1,56,
200,s,-200,,,,,,,,,,,,,,,,,2,0,2,0,21,0,84,2,,,,,,,,,,,,,,,,,,,,,,,,,,,,,s,1,None,0,,4.0,linegray.gif,stop,,,,,,,,0.450771808624,,,,,,,,,,,,,,,,,,,,,,,,3.98,0.514541864395,0.000873804092407,0.450771808624,1,s,1534.19382215,,,,,,,,,,,,,,,,,,,,,,,,,,,,,,,,,2015_Jun_23_1223,59.791102691,LearningTask,1,56,
200,s,-200,,,,,,,,,,,,,,,,,2,0,2,0,21,1,85,2,,,,,,,,,,,,,,,,,,,,,,,,,,,,,s,1,None,0,,2.0,circleorange.gif,stop,,,,,,,,0.634620904922,,,,,,,,,,,,,,,,,,,,,,,,1.77,0.514227867126,0.00112891197205,0.634620904922,1,s,1537.19739318,,,,,,,,,,,,,,,,,,,,,,,,,,,,,,,,,2015_Jun_23_1223,59.791102691,LearningTask,1,56,
-200,a,-200,,,,,,,,,,,,,,,,,2,0,2,0,21,2,86,3,,,,,,,,,,,,,,,,,,,,,,,,,,,,,a,1,None,0,,2.0,circleorange.gif,stop,,,,,,,,0.40114402771,,,,,,,,,,,,,,,,,,,,,,,,1.97,0.514358043671,0.000880002975464,0.40114402771,1,a,1540.20085812,,,,,,,,,,,,,,,,,,,,,,,,,,,,,,,,,2015_Jun_23_1223,59.791102691,LearningTask,1,56,
-200,q,200,,,,,,,,,,,,,,,,,2,0,2,0,21,3,87,1,,,,,,,,,,,,,,,,,,,,,,,,,,,,,q,1,None,0,,4.0,linegray.gif,stop,,,,,,,,0.38446187973,,,,,,,,,,,,,,,,,,,,,,,,3.92,0.514122962952,0.000872135162354,0.38446187973,1,q,1543.20396018,,,,,,,,,,,,,,,,,,,,,,,,,,,,,,,,,2015_Jun_23_1223,59.791102691,LearningTask,1,56,
200,w,200,,,,,,,,,,,,,,,,,2,0,2,0,22,0,88,0,,,,,,,,,,,,,,,,,,,,,,,,,,,,,w,1,None,0,,1.0,invertedtrianglegreen.gif,go,,,,,,,,0.517814874649,,,,,,,,,,,,,,,,,,,,,,,,0.96,0.514055013657,0.000907897949219,0.517814874649,1,w,1546.20759606,,,,,,,,,,,,,,,,,,,,,,,,,,,,,,,,,2015_Jun_23_1223,59.791102691,LearningTask,1,56,
200,w,200,,,,,,,,,,,,,,,,,2,0,2,0,22,1,89,0,,,,,,,,,,,,,,,,,,,,,,,,,,,,,w,1,None,0,,0.5,hexagonyellow.gif,stop,,,,,,,,0.517866134644,,,,,,,,,,,,,,,,,,,,,,,,0.42,0.514327049255,0.000883102416992,0.517866134644,1,w,1549.21090221,,,,,,,,,,,,,,,,,,,,,,,,,,,,,,,,,2015_Jun_23_1223,59.791102691,LearningTask,1,56,
-200,q,200,,,,,,,,,,,,,,,,,2,0,2,0,22,2,90,1,,,,,,,,,,,,,,,,,,,,,,,,,,,,,q,1,None,0,,1.0,squareblue.gif,stop,,,,,,,,0.501688957214,,,,,,,,,,,,,,,,,,,,,,,,1.11,0.514250993729,0.000866889953613,0.501688957214,1,q,1552.21448421,,,,,,,,,,,,,,,,,,,,,,,,,,,,,,,,,2015_Jun_23_1223,59.791102691,LearningTask,1,56,
200,w,200,,,,,,,,,,,,,,,,,2,0,2,0,22,3,91,0,,,,,,,,,,,,,,,,,,,,,,,,,,,,,w,1,None,0,,1.0,squareblue.gif,stop,,,,,,,,0.550745010376,,,,,,,,,,,,,,,,,,,,,,,,1.13,0.513960123062,0.000874042510986,0.550745010376,1,w,1555.21761107,,,,,,,,,,,,,,,,,,,,,,,,,,,,,,,,,2015_Jun_23_1223,59.791102691,LearningTask,1,56,
-200,a,-200,,,,,,,,,,,,,,,,,2,0,2,0,23,0,92,3,,,,,,,,,,,,,,,,,,,,,,,,,,,,,a,1,None,0,,1.0,squareblue.gif,stop,,,,,,,,0.56797504425,,,,,,,,,,,,,,,,,,,,,,,,0.88,0.514364957809,0.000952005386353,0.56797504425,1,a,1558.22127509,,,,,,,,,,,,,,,,,,,,,,,,,,,,,,,,,2015_Jun_23_1223,59.791102691,LearningTask,1,56,
200,s,-200,,,,,,,,,,,,,,,,,2,0,2,0,23,1,93,2,,,,,,,,,,,,,,,,,,,,,,,,,,,,,s,1,None,0,,1.0,invertedtrianglegreen.gif,go,,,,,,,,0.46755695343,,,,,,,,,,,,,,,,,,,,,,,,0.82,0.513932943344,0.000906944274902,0.46755695343,1,s,1561.22460914,,,,,,,,,,,,,,,,,,,,,,,,,,,,,,,,,2015_Jun_23_1223,59.791102691,LearningTask,1,56,
200,s,-200,,,,,,,,,,,,,,,,,2,0,2,0,23,2,94,2,,,,,,,,,,,,,,,,,,,,,,,,,,,,,s,1,None,0,,1.0,squareblue.gif,stop,,,,,,,,0.718169927597,,,,,,,,,,,,,,,,,,,,,,,,1.18,0.513874053955,0.000848054885864,0.718169927597,1,s,1564.2277801,,,,,,,,,,,,,,,,,,,,,,,,,,,,,,,,,2015_Jun_23_1223,59.791102691,LearningTask,1,56,
