xPos,corrAns,yPos,corrGoResp,yPosGoStim,xPosGoStim,pracTrials.thisRepN,pracTrials.thisTrialN,pracTrials.thisN,pracTrials.thisIndex,ReDoLoopPrac.thisRepN,ReDoLoopPrac.thisTrialN,ReDoLoopPrac.thisN,ReDoLoopPrac.thisIndex,ReDoLoopPrac.thisTrial,pracStopTrials.thisRepN,pracStopTrials.thisTrialN,pracStopTrials.thisN,pracStopTrials.thisIndex,Blocks.thisRepN,Blocks.thisTrialN,Blocks.thisN,Blocks.thisIndex,trials.thisRepN,trials.thisTrialN,trials.thisN,trials.thisIndex,ReDoLoopMain.thisRepN,ReDoLoopMain.thisTrialN,ReDoLoopMain.thisN,ReDoLoopMain.thisIndex,ReDoLoopMain.thisTrial,StopBlocks.thisRepN,StopBlocks.thisTrialN,StopBlocks.thisN,StopBlocks.thisIndex,StopTrials.thisRepN,StopTrials.thisTrialN,StopTrials.thisN,StopTrials.thisIndex,auctionBlocks.thisRepN,auctionBlocks.thisTrialN,auctionBlocks.thisN,auctionBlocks.thisIndex,auctionTrials.thisRepN,auctionTrials.thisTrialN,auctionTrials.thisN,auctionTrials.thisIndex,learningTrialList,learningPracTrialList,stopTrialList,stopPracTrialList,auctionTrialList,ok1.keys,ok1.rt,resp.keys,resp.corr,feedbackResp.keys,feedbackResp.corr,currentReward,currentStimulus,currentStimType,firstPracComputedRewardOutput,firstPracLearningStimOnset,firstPracLearningFixOnset,firstPracPresentationRT,firstPracPresentationAcc,firstPracPresentationResp,firstPracEndTrialTimeStamp,resp.rt,secondPracComputedRewardOutput,secondPracLearningStimOnset,secondPracLearningFixOnset,secondPracPresentationRT,secondPracPresentationAcc,secondPracPresentationResp,secondPracEndTrialTimeStamp,StartTrialTimeStamp,trialType,goStim,stimType,stopStimValue,goResp.keys,goResp.corr,goResp.rt,key_resp_9.keys,key_resp_9.corr,fixStopOnset,goStimOnset,EndTrialTimeStamp,stopSignalOnset,key_resp_3.keys,key_resp_3.rt,firstComputedRewardOutput,firstLearningStimOnset,firstLearningFixOnset,firstPresentationRT,firstPresentationAcc,firstPresentationResp,firstEndTrialTimeStamp,feedbackResp.rt,key_resp_7.keys,key_resp_7.rt,secondComputedRewardOutput,secondLearningStimOnset,secondLearningFixOnset,secondPresentationRT,secondPresentationAcc,secondPresentationResp,secondEndTrialTimeStamp,beginningSSD,EndingSSD,key_resp_9.rt,key_resp_4.keys,key_resp_4.rt,auctionResponse.keys,auctionStimDuration,auctionStim,auctionAmounts,auctionStimValue,auctionCondition,chosenAuctionAmount,auctionResponse.rt,key_resp_5.keys,key_resp_5.rt,shuffledRewardList,chosenReward1,chosenReward2,chosenReward3,chosenReward4,chosenReward5,key_resp_6.keys,key_resp_6.rt,date,frameRate,expName,session,participant,
,,,,,,,,,,,,,,,,,,,,,,,,,,,,,,,,,,,,,,,,,,,,,,,,[],[],[],[],[],9,49.7560279369,,,,,,,,,,,,,,,,,,,,,,,,,,,,,,,,,,,,,,,,,,,,,,,,,,,,,,,,,,,,,,,,,,,,,,,,,,,,,,,2015_Jul_06_1138,60.0283088672,LearningTask,1,57,
200,s,-200,,,,0,0,0,6,,,,,,,,,,,,,,,,,,,,,,,,,,,,,,,,,,,,,,,,,,,,,,s,1,None,0,1.0,crosscyan.gif,stop,0,0.505164146423,0.0311121940613,[],0,None,78.4798970222,0.434257984161,1.06,0.515933990479,0.000961065292358,0.434257984161,1,s,81.4833619595,,,,,,,,,,,,,,,,,,,,,,,,,,,,,,,,,,,,,,,,,,,,,,,,,,,,,,,,,2015_Jul_06_1138,60.0283088672,LearningTask,1,57,
-200,a,-200,,,,0,1,1,7,,,,,,,,,,,,,,,,,,,,,,,,,,,,,,,,,,,,,,,,,,,,,,a,1,None,0,2.0,squaregray.gif,go,1.77,0.51460313797,0.00101900100708,0.434639930725,1,a,84.4863021374,0.434639930725,,,,,,,,,,,,,,,,,,,,,,,,,,,,,,,,,,,,,,,,,,,,,,,,,,,,,,,,,,,,,,,,2015_Jul_06_1138,60.0283088672,LearningTask,1,57,
200,w,200,,,,0,2,2,8,,,,,,,,,,,,,,,,,,,,,,,,,,,,,,,,,,,,,,,,,,,,,,w,1,None,0,1.0,crosscyan.gif,stop,1.02,0.515167951584,0.000900983810425,0.50084400177,1,w,87.489741087,0.50084400177,,,,,,,,,,,,,,,,,,,,,,,,,,,,,,,,,,,,,,,,,,,,,,,,,,,,,,,,,,,,,,,,2015_Jul_06_1138,60.0283088672,LearningTask,1,57,
-200,a,-200,,,,0,3,3,3,,,,,,,,,,,,,,,,,,,,,,,,,,,,,,,,,,,,,,,,,,,,,,a,1,None,0,1.0,invertedtriangleyellow.gif,go,0,0.514925956726,0.0409250259399,0.417452096939,1,a,90.4927351475,0.417452096939,,,,,,,,,,,,,,,,,,,,,,,,,,,,,,,,,,,,,,,,,,,,,,,,,,,,,,,,,,,,,,,,2015_Jul_06_1138,60.0283088672,LearningTask,1,57,
-200,q,200,,,,0,4,4,1,,,,,,,,,,,,,,,,,,,,,,,,,,,,,,,,,,,,,,,,,,,,,,q,1,None,0,0.5,circleorange.gif,stop,0.56,0.515086889267,0.0314619541168,0.517493009567,1,q,93.4963240623,0.517493009567,,,,,,,,,,,,,,,,,,,,,,,,,,,,,,,,,,,,,,,,,,,,,,,,,,,,,,,,,,,,,,,,2015_Jul_06_1138,60.0283088672,LearningTask,1,57,
200,s,-200,,,,0,5,5,2,,,,,,,,,,,,,,,,,,,,,,,,,,,,,,,,,,,,,,,,,,,,,,s,1,None,0,1.0,crosscyan.gif,stop,0.93,0.515126943588,0.000900030136108,0.517272949219,1,s,96.4993190765,0.517272949219,,,,,,,,,,,,,,,,,,,,,,,,,,,,,,,,,,,,,,,,,,,,,,,,,,,,,,,,,,,,,,,,2015_Jul_06_1138,60.0283088672,LearningTask,1,57,
200,w,200,,,,0,6,6,4,,,,,,,,,,,,,,,,,,,,,,,,,,,,,,,,,,,,,,,,,,,,,,w,1,None,0,1.0,crosscyan.gif,stop,0.96,0.515686988831,0.00118207931519,0.400469064713,1,w,99.5030109882,0.400469064713,,,,,,,,,,,,,,,,,,,,,,,,,,,,,,,,,,,,,,,,,,,,,,,,,,,,,,,,,,,,,,,,2015_Jul_06_1138,60.0283088672,LearningTask,1,57,
-200,q,200,,,,0,7,7,9,,,,,,,,,,,,,,,,,,,,,,,,,,,,,,,,,,,,,,,,,,,,,,q,1,None,0,0.5,linewhite.gif,go,0.67,0.51505112648,0.0433859825134,0.467510938644,1,q,102.506513119,0.467510938644,,,,,,,,,,,,,,,,,,,,,,,,,,,,,,,,,,,,,,,,,,,,,,,,,,,,,,,,,,,,,,,,2015_Jul_06_1138,60.0283088672,LearningTask,1,57,
200,w,200,,,,0,8,8,0,,,,,,,,,,,,,,,,,,,,,,,,,,,,,,,,,,,,,,,,,,,,,,w,1,None,0,2.0,diamondgreen.gif,stop,2.16,0.515033960342,0.0618669986725,0.4176030159,1,w,105.509705067,0.4176030159,,,,,,,,,,,,,,,,,,,,,,,,,,,,,,,,,,,,,,,,,,,,,,,,,,,,,,,,,,,,,,,,2015_Jul_06_1138,60.0283088672,LearningTask,1,57,
-200,q,200,,,,0,9,9,5,,,,,,,,,,,,,,,,,,,,,,,,,,,,,,,,,,,,,,,,,,,,,,q,1,None,0,0.5,linewhite.gif,go,0.39,0.515132904053,0.000902891159058,0.451335906982,1,q,108.513075113,0.451335906982,,,,,,,,,,,,,,,,,,,,,,,,,,,,,,,,,,,,,,,,,,,,,,,,,,,,,,,,,,,,,,,,2015_Jul_06_1138,60.0283088672,LearningTask,1,57,
,,,m,0,200,,,,,,,,,,0,0,0,1,,,,,,,,,,,,,,,,,,,,,,,,,,,,,,,,,,,,,,,,,,,,,,,,,,,,,,,,,,,155.970240116,go,invertedtriangleyellow.gif,go,1.0,m,1,0.534260988235,None,0,0.00133299827576,0.511455059052,158.969385147,,,,,,,,,,,,,,,,,,,,,,,,,,,,,,,,,,,,,,,,,,,,2015_Jul_06_1138,60.0283088672,LearningTask,1,57,
,,,m,0,200,,,,,,,,,,0,1,1,1,,,,,,,,,,,,,,,,,,,,,,,,,,,,,,,,,,,,,,,,,,,,,,,,,,,,,,,,,,,158.969782114,stop,diamondgreen.gif,stop,2.0,None,0,,None,0,0.000962018966675,0.51563501358,161.972650051,0.765640974045,,,,,,,,,,,,,,,,,,,,,,,,,,,,,,,,,,,,,,,,,,,2015_Jul_06_1138,60.0283088672,LearningTask,1,57,
,,,z,0,-200,,,,,,,,,,1,0,2,0,,,,,,,,,,,,,,,,,,,,,,,,,,,,,,,,,,,,,,,,,,,,,,,,,,,,,,,,,,,161.973020077,stop,diamondgreen.gif,stop,2.0,z,1,0.367665052414,None,0,0.00111699104309,0.515772104263,164.975821972,0.766257047653,,,,,,,,,,,,,,,,,,,,,,,,,,,,,,,,,,,,,,,,,,,2015_Jul_06_1138,60.0283088672,LearningTask,1,57,
,,,z,0,-200,,,,,,,,,,1,1,3,0,,,,,,,,,,,,,,,,,,,,,,,,,,,,,,,,,,,,,,,,,,,,,,,,,,,,,,,,,,,164.976264954,stop,hexagonmagenta.gif,stop,4.0,None,0,,None,0,0.0411691665649,0.515931129456,167.979295969,0.766049146652,,,,,,,,,,,,,,,,,,,,,,,,,,,,,,,,,,,,,,,,,,,2015_Jul_06_1138,60.0283088672,LearningTask,1,57,
,,,m,0,200,,,,,,,,,,2,0,4,1,,,,,,,,,,,,,,,,,,,,,,,,,,,,,,,,,,,,,,,,,,,,,,,,,,,,,,,,,,,167.979715109,go,triangleblue.gif,go,4.0,m,1,0.851353168488,None,0,0.00100207328796,0.515648126602,170.982912064,,,,,,,,,,,,,,,,,,,,,,,,,,,,,,,,,,,,,,,,,,,,2015_Jul_06_1138,60.0283088672,LearningTask,1,57,
,,,z,0,-200,,,,,,,,,,2,1,5,0,,,,,,,,,,,,,,,,,,,,,,,,,,,,,,,,,,,,,,,,,,,,,,,,,,,,,,,,,,,170.983275175,stop,hexagonmagenta.gif,stop,4.0,None,0,,None,0,0.00102114677429,0.515553951263,173.986103058,0.766363143921,,,,,,,,,,,,,,,,,,,,,,,,,,,,,,,,,,,,,,,,,,,2015_Jul_06_1138,60.0283088672,LearningTask,1,57,
,,,z,0,-200,,,,,,,,,,3,0,6,0,,,,,,,,,,,,,,,,,,,,,,,,,,,,,,,,,,,,,,,,,,,,,,,,,,,,,,,,,,,173.986467123,stop,diamondgreen.gif,stop,2.0,None,0,,None,0,0.000971794128418,0.515824794769,176.989802122,0.766175985336,,,,,,,,,,,,,,,,,,,,,,,,,,,,,,,,,,,,,,,,,,,2015_Jul_06_1138,60.0283088672,LearningTask,1,57,
,,,m,0,200,,,,,,,,,,3,1,7,1,,,,,,,,,,,,,,,,,,,,,,,,,,,,,,,,,,,,,,,,,,,,,,,,,,,,,,,,,,,176.990185976,stop,crosscyan.gif,stop,1.0,None,0,,None,0,0.000959873199463,0.515709877014,179.992731094,0.765441894531,,,,,,,,,,,,,,,,,,,,,,,,,,,,,,,,,,,,,,,,,,,2015_Jul_06_1138,60.0283088672,LearningTask,1,57,
,,,z,0,-200,,,,,,,,,,4,0,8,0,,,,,,,,,,,,,,,,,,,,,,,,,,,,,,,,,,,,,,,,,,,,,,,,,,,,,,,,,,,179.993093014,stop,hexagonmagenta.gif,stop,4.0,None,0,,None,0,0.00095009803772,0.515756130219,182.996011972,0.766201019287,,,,,,,,,,,,,,,,,,,,,,,,,,,,,,,,,,,,,,,,,,,2015_Jul_06_1138,60.0283088672,LearningTask,1,57,
,,,m,0,200,,,,,,,,,,4,1,9,1,,,,,,,,,,,,,,,,,,,,,,,,,,,,,,,,,,,,,,,,,,,,,,,,,,,,,,,,,,,182.996375084,go,linewhite.gif,go,0.5,m,1,0.534425020218,None,0,0.000956058502197,0.515886068344,185.999612093,,,,,,,,,,,,,,,,,,,,,,,,,,,,,,,,,,,,,,,,,,,,2015_Jul_06_1138,60.0283088672,LearningTask,1,57,
,,,,,,,,,,,,,,,,,,,,,,,,,,,,,,,,,,,,,,,,,,,,,,,,,,,,,,,,,,,,,,,,,,,,,,,,,,,,,,,,,,,,,,,,,,,9,48.8540542126,,,,,,,,,,,,,,,,,,,,,,,,,,,,,,,,,,,,,,,,,2015_Jul_06_1138,60.0283088672,LearningTask,1,57,
,,,,,,,,,,,,,,,,,,,,,,,,,,,,,,,,,,,,,,,,,,,,,,,,,,,,,9,3.37039017677,,,,,,,,,,,,,,,,,,,,,,,,,,,,,,,,,,,,,,,,,,,,,,,,,,,,,,,,,,,,,,,,,,,,,,,,,,,,,,,2015_Jul_06_1138,60.0283088672,LearningTask,1,57,
-200,q,200,,,,,,,,,,,,,,,,,0,0,0,0,0,0,0,1,,,,,,,,,,,,,,,,,,,,,,,,,,,,,q,1,None,0,4.0,hexagonmagenta.gif,stop,,,,,,,,0.51761507988,,,,,,,,,,,,,,,,,,,,,,,,4.19,0.503880977631,0.000894069671631,0.51761507988,1,q,241.413110018,,,,,,,,,,,,,,,,,,,,,,,,,,,,,,,,,,2015_Jul_06_1138,60.0283088672,LearningTask,1,57,
200,w,200,,,,,,,,,,,,,,,,,0,0,0,0,0,1,1,0,,,,,,,,,,,,,,,,,,,,,,,,,,,,,w,1,None,0,1.0,crosscyan.gif,stop,,,,,,,,0.33318901062,,,,,,,,,,,,,,,,,,,,,,,,0,0.513584852219,0.000923871994019,0.33318901062,1,w,244.415380955,,,,,,,,,,,,,,,,,,,,,,,,,,,,,,,,,,2015_Jul_06_1138,60.0283088672,LearningTask,1,57,
200,w,200,,,,,,,,,,,,,,,,,0,0,0,0,0,2,2,0,,,,,,,,,,,,,,,,,,,,,,,,,,,,,w,1,None,0,1.0,crosscyan.gif,stop,,,,,,,,0.434593915939,,,,,,,,,,,,,,,,,,,,,,,,1.16,0.514459133148,0.000885963439941,0.434593915939,1,w,247.418694973,,,,,,,,,,,,,,,,,,,,,,,,,,,,,,,,,,2015_Jul_06_1138,60.0283088672,LearningTask,1,57,
-200,q,200,,,,,,,,,,,,,,,,,0,0,0,0,0,3,3,1,,,,,,,,,,,,,,,,,,,,,,,,,,,,,q,1,None,0,0.5,linewhite.gif,go,,,,,,,,0.367297172546,,,,,,,,,,,,,,,,,,,,,,,,0,0.514546871185,0.000905990600586,0.367297172546,1,q,250.422217131,,,,,,,,,,,,,,,,,,,,,,,,,,,,,,,,,,2015_Jul_06_1138,60.0283088672,LearningTask,1,57,
200,s,-200,,,,,,,,,,,,,,,,,0,0,0,0,1,0,4,2,,,,,,,,,,,,,,,,,,,,,,,,,,,,,s,1,None,0,1.0,crosscyan.gif,stop,,,,,,,,0.367699146271,,,,,,,,,,,,,,,,,,,,,,,,1.04,0.514339923859,0.00092601776123,0.367699146271,1,s,253.425572157,,,,,,,,,,,,,,,,,,,,,,,,,,,,,,,,,,2015_Jul_06_1138,60.0283088672,LearningTask,1,57,
200,s,-200,,,,,,,,,,,,,,,,,0,0,0,0,1,1,5,2,,,,,,,,,,,,,,,,,,,,,,,,,,,,,s,1,None,0,0.5,circleorange.gif,stop,,,,,,,,0.367729187012,,,,,,,,,,,,,,,,,,,,,,,,0.51,0.514253854752,0.000906944274902,0.367729187012,1,s,256.428850174,,,,,,,,,,,,,,,,,,,,,,,,,,,,,,,,,,2015_Jul_06_1138,60.0283088672,LearningTask,1,57,
200,s,-200,,,,,,,,,,,,,,,,,0,0,0,0,1,2,6,2,,,,,,,,,,,,,,,,,,,,,,,,,,,,,s,1,None,0,2.0,squaregray.gif,go,,,,,,,,0.350707054138,,,,,,,,,,,,,,,,,,,,,,,,1.75,0.514589071274,0.000909090042114,0.350707054138,1,s,259.432633162,,,,,,,,,,,,,,,,,,,,,,,,,,,,,,,,,,2015_Jul_06_1138,60.0283088672,LearningTask,1,57,
-200,q,200,,,,,,,,,,,,,,,,,0,0,0,0,1,3,7,1,,,,,,,,,,,,,,,,,,,,,,,,,,,,,q,1,None,0,2.0,squaregray.gif,go,,,,,,,,0.400788068771,,,,,,,,,,,,,,,,,,,,,,,,2.2,0.513840913773,0.000914096832275,0.400788068771,1,q,262.435662985,,,,,,,,,,,,,,,,,,,,,,,,,,,,,,,,,,2015_Jul_06_1138,60.0283088672,LearningTask,1,57,
200,s,-200,,,,,,,,,,,,,,,,,0,0,0,0,2,0,8,2,,,,,,,,,,,,,,,,,,,,,,,,,,,,,s,1,None,0,1.0,crosscyan.gif,stop,,,,,,,,0.433730125427,,,,,,,,,,,,,,,,,,,,,,,,0,0.514662981033,0.000902891159058,0.433730125427,1,s,265.439002991,,,,,,,,,,,,,,,,,,,,,,,,,,,,,,,,,,2015_Jul_06_1138,60.0283088672,LearningTask,1,57,
200,w,200,,,,,,,,,,,,,,,,,0,0,0,0,2,1,9,0,,,,,,,,,,,,,,,,,,,,,,,,,,,,,w,1,None,0,0.5,linewhite.gif,go,,,,,,,,0.33452296257,,,,,,,,,,,,,,,,,,,,,,,,0.69,0.514251947403,0.000895023345947,0.33452296257,1,w,268.442392111,,,,,,,,,,,,,,,,,,,,,,,,,,,,,,,,,,2015_Jul_06_1138,60.0283088672,LearningTask,1,57,
-200,a,-200,,,,,,,,,,,,,,,,,0,0,0,0,2,2,10,3,,,,,,,,,,,,,,,,,,,,,,,,,,,,,a,1,None,0,4.0,hexagonmagenta.gif,stop,,,,,,,,0.383635044098,,,,,,,,,,,,,,,,,,,,,,,,0,0.514073133469,0.000932931900024,0.383635044098,1,a,271.446165085,,,,,,,,,,,,,,,,,,,,,,,,,,,,,,,,,,2015_Jul_06_1138,60.0283088672,LearningTask,1,57,
200,w,200,,,,,,,,,,,,,,,,,0,0,0,0,2,3,11,0,,,,,,,,,,,,,,,,,,,,,,,,,,,,,w,1,None,0,2.0,diamondgreen.gif,stop,,,,,,,,0.434470176697,,,,,,,,,,,,,,,,,,,,,,,,2.09,0.513688802719,0.000948905944824,0.434470176697,1,w,274.449249983,,,,,,,,,,,,,,,,,,,,,,,,,,,,,,,,,,2015_Jul_06_1138,60.0283088672,LearningTask,1,57,
200,s,-200,,,,,,,,,,,,,,,,,0,0,0,0,3,0,12,2,,,,,,,,,,,,,,,,,,,,,,,,,,,,,s,1,None,0,2.0,diamondgreen.gif,stop,,,,,,,,0.351182937622,,,,,,,,,,,,,,,,,,,,,,,,2.15,0.514304876328,0.000898838043213,0.351182937622,1,s,277.452413082,,,,,,,,,,,,,,,,,,,,,,,,,,,,,,,,,,2015_Jul_06_1138,60.0283088672,LearningTask,1,57,
200,s,-200,,,,,,,,,,,,,,,,,0,0,0,0,3,1,13,2,,,,,,,,,,,,,,,,,,,,,,,,,,,,,s,1,None,0,4.0,triangleblue.gif,go,,,,,,,,0.384416818619,,,,,,,,,,,,,,,,,,,,,,,,4.0,0.514255046844,0.000951051712036,0.384416818619,1,s,280.455674171,,,,,,,,,,,,,,,,,,,,,,,,,,,,,,,,,,2015_Jul_06_1138,60.0283088672,LearningTask,1,57,
-200,a,-200,,,,,,,,,,,,,,,,,0,0,0,0,3,2,14,3,,,,,,,,,,,,,,,,,,,,,,,,,,,,,a,1,None,0,4.0,triangleblue.gif,go,,,,,,,,0.434740066528,,,,,,,,,,,,,,,,,,,,,,,,3.75,0.514151096344,0.000947952270508,0.434740066528,1,a,283.459243059,,,,,,,,,,,,,,,,,,,,,,,,,,,,,,,,,,2015_Jul_06_1138,60.0283088672,LearningTask,1,57,
-200,a,-200,,,,,,,,,,,,,,,,,0,0,0,0,3,3,15,3,,,,,,,,,,,,,,,,,,,,,,,,,,,,,a,1,None,0,4.0,hexagonmagenta.gif,stop,,,,,,,,0.367923974991,,,,,,,,,,,,,,,,,,,,,,,,4.2,0.514251947403,0.000898838043213,0.367923974991,1,a,286.462528944,,,,,,,,,,,,,,,,,,,,,,,,,,,,,,,,,,2015_Jul_06_1138,60.0283088672,LearningTask,1,57,
200,w,200,,,,,,,,,,,,,,,,,0,0,0,0,4,0,16,0,,,,,,,,,,,,,,,,,,,,,,,,,,,,,w,1,None,0,0.5,linewhite.gif,go,,,,,,,,0.433805942535,,,,,,,,,,,,,,,,,,,,,,,,0,0.514495849609,0.000916957855225,0.433805942535,1,w,289.465741158,,,,,,,,,,,,,,,,,,,,,,,,,,,,,,,,,,2015_Jul_06_1138,60.0283088672,LearningTask,1,57,
-200,a,-200,,,,,,,,,,,,,,,,,0,0,0,0,4,1,17,3,,,,,,,,,,,,,,,,,,,,,,,,,,,,,a,1,None,0,0.5,linewhite.gif,go,,,,,,,,0.350471973419,,,,,,,,,,,,,,,,,,,,,,,,0.75,0.514588117599,0.000921964645386,0.350471973419,1,a,292.469099045,,,,,,,,,,,,,,,,,,,,,,,,,,,,,,,,,,2015_Jul_06_1138,60.0283088672,LearningTask,1,57,
200,w,200,,,,,,,,,,,,,,,,,0,0,0,0,4,2,18,0,,,,,,,,,,,,,,,,,,,,,,,,,,,,,w,1,None,0,2.0,squaregray.gif,go,,,,,,,,0.367491006851,,,,,,,,,,,,,,,,,,,,,,,,2.14,0.514304161072,0.00122594833374,0.367491006851,1,w,295.472407103,,,,,,,,,,,,,,,,,,,,,,,,,,,,,,,,,,2015_Jul_06_1138,60.0283088672,LearningTask,1,57,
200,s,-200,,,,,,,,,,,,,,,,,0,0,0,0,4,3,19,2,,,,,,,,,,,,,,,,,,,,,,,,,,,,,s,1,None,0,1.0,crosscyan.gif,stop,,,,,,,,0.317445993423,,,,,,,,,,,,,,,,,,,,,,,,0,0.51438498497,0.000921964645386,0.317445993423,1,s,298.475960016,,,,,,,,,,,,,,,,,,,,,,,,,,,,,,,,,,2015_Jul_06_1138,60.0283088672,LearningTask,1,57,
-200,q,200,,,,,,,,,,,,,,,,,0,0,0,0,5,0,20,1,,,,,,,,,,,,,,,,,,,,,,,,,,,,,q,1,None,0,0.5,circleorange.gif,stop,,,,,,,,0.434586048126,,,,,,,,,,,,,,,,,,,,,,,,0.28,0.51396894455,0.00095009803772,0.434586048126,1,q,301.479285955,,,,,,,,,,,,,,,,,,,,,,,,,,,,,,,,,,2015_Jul_06_1138,60.0283088672,LearningTask,1,57,
200,w,200,,,,,,,,,,,,,,,,,0,0,0,0,5,1,21,0,,,,,,,,,,,,,,,,,,,,,,,,,,,,,w,1,None,0,4.0,hexagonmagenta.gif,stop,,,,,,,,0.300609827042,,,,,,,,,,,,,,,,,,,,,,,,4.16,0.514326095581,0.000891923904419,0.300609827042,1,w,304.482522964,,,,,,,,,,,,,,,,,,,,,,,,,,,,,,,,,,2015_Jul_06_1138,60.0283088672,LearningTask,1,57,
200,w,200,,,,,,,,,,,,,,,,,0,0,0,0,5,2,22,0,,,,,,,,,,,,,,,,,,,,,,,,,,,,,w,1,None,0,1.0,invertedtriangleyellow.gif,go,,,,,,,,0.334277153015,,,,,,,,,,,,,,,,,,,,,,,,1.08,0.514756917953,0.000895023345947,0.334277153015,1,w,307.486670017,,,,,,,,,,,,,,,,,,,,,,,,,,,,,,,,,,2015_Jul_06_1138,60.0283088672,LearningTask,1,57,
200,s,-200,,,,,,,,,,,,,,,,,0,0,0,0,5,3,23,2,,,,,,,,,,,,,,,,,,,,,,,,,,,,,s,1,None,0,0.5,circleorange.gif,stop,,,,,,,,0.367436885834,,,,,,,,,,,,,,,,,,,,,,,,0.67,0.5135409832,0.00094199180603,0.367436885834,1,s,310.489542007,,,,,,,,,,,,,,,,,,,,,,,,,,,,,,,,,,2015_Jul_06_1138,60.0283088672,LearningTask,1,57,
-200,q,200,,,,,,,,,,,,,,,,,0,0,0,0,6,0,24,1,,,,,,,,,,,,,,,,,,,,,,,,,,,,,q,1,None,0,1.0,invertedtriangleyellow.gif,go,,,,,,,,0.401304960251,,,,,,,,,,,,,,,,,,,,,,,,0.78,0.514018058777,0.000900030136108,0.401304960251,1,q,313.492686033,,,,,,,,,,,,,,,,,,,,,,,,,,,,,,,,,,2015_Jul_06_1138,60.0283088672,LearningTask,1,57,
200,w,200,,,,,,,,,,,,,,,,,0,0,0,0,6,1,25,0,,,,,,,,,,,,,,,,,,,,,,,,,,,,,w,1,None,0,4.0,hexagonmagenta.gif,stop,,,,,,,,0.400727987289,,,,,,,,,,,,,,,,,,,,,,,,3.88,0.514321088791,0.00104594230652,0.400727987289,1,w,316.495895147,,,,,,,,,,,,,,,,,,,,,,,,,,,,,,,,,,2015_Jul_06_1138,60.0283088672,LearningTask,1,57,
-200,q,200,,,,,,,,,,,,,,,,,0,0,0,0,6,2,26,1,,,,,,,,,,,,,,,,,,,,,,,,,,,,,q,1,None,0,2.0,diamondgreen.gif,stop,,,,,,,,0.367984056473,,,,,,,,,,,,,,,,,,,,,,,,1.76,0.514385938644,0.00092887878418,0.367984056473,1,q,319.499441147,,,,,,,,,,,,,,,,,,,,,,,,,,,,,,,,,,2015_Jul_06_1138,60.0283088672,LearningTask,1,57,
-200,q,200,,,,,,,,,,,,,,,,,0,0,0,0,6,3,27,1,,,,,,,,,,,,,,,,,,,,,,,,,,,,,q,1,None,0,2.0,squaregray.gif,go,,,,,,,,0.367480993271,,,,,,,,,,,,,,,,,,,,,,,,2.12,0.51443696022,0.000942945480347,0.367480993271,1,q,322.503137112,,,,,,,,,,,,,,,,,,,,,,,,,,,,,,,,,,2015_Jul_06_1138,60.0283088672,LearningTask,1,57,
-200,q,200,,,,,,,,,,,,,,,,,0,0,0,0,7,0,28,1,,,,,,,,,,,,,,,,,,,,,,,,,,,,,q,1,None,0,2.0,squaregray.gif,go,,,,,,,,0.401039838791,,,,,,,,,,,,,,,,,,,,,,,,1.9,0.513988018036,0.000877857208252,0.401039838791,1,q,325.50605917,,,,,,,,,,,,,,,,,,,,,,,,,,,,,,,,,,2015_Jul_06_1138,60.0283088672,LearningTask,1,57,
200,w,200,,,,,,,,,,,,,,,,,0,0,0,0,7,1,29,0,,,,,,,,,,,,,,,,,,,,,,,,,,,,,w,1,None,0,2.0,squaregray.gif,go,,,,,,,,0.350567102432,,,,,,,,,,,,,,,,,,,,,,,,0,0.514643907547,0.000890016555786,0.350567102432,1,w,328.509396076,,,,,,,,,,,,,,,,,,,,,,,,,,,,,,,,,,2015_Jul_06_1138,60.0283088672,LearningTask,1,57,
-200,a,-200,,,,,,,,,,,,,,,,,0,0,0,0,7,2,30,3,,,,,,,,,,,,,,,,,,,,,,,,,,,,,a,1,None,0,2.0,squaregray.gif,go,,,,,,,,0.417413949966,,,,,,,,,,,,,,,,,,,,,,,,1.85,0.514061927795,0.00094199180603,0.417413949966,1,a,331.512746096,,,,,,,,,,,,,,,,,,,,,,,,,,,,,,,,,,2015_Jul_06_1138,60.0283088672,LearningTask,1,57,
-200,q,200,,,,,,,,,,,,,,,,,0,0,0,0,7,3,31,1,,,,,,,,,,,,,,,,,,,,,,,,,,,,,q,1,None,0,4.0,hexagonmagenta.gif,stop,,,,,,,,0.368088960648,,,,,,,,,,,,,,,,,,,,,,,,0,0.51412987709,0.000895023345947,0.368088960648,1,q,334.516241074,,,,,,,,,,,,,,,,,,,,,,,,,,,,,,,,,,2015_Jul_06_1138,60.0283088672,LearningTask,1,57,
-200,q,200,,,,,,,,,,,,,,,,,0,0,0,0,8,0,32,1,,,,,,,,,,,,,,,,,,,,,,,,,,,,,q,1,None,0,1.0,crosscyan.gif,stop,,,,,,,,0.40102314949,,,,,,,,,,,,,,,,,,,,,,,,0.85,0.5141248703,0.000890970230103,0.40102314949,1,q,337.519529104,,,,,,,,,,,,,,,,,,,,,,,,,,,,,,,,,,2015_Jul_06_1138,60.0283088672,LearningTask,1,57,
-200,a,-200,,,,,,,,,,,,,,,,,0,0,0,0,8,1,33,3,,,,,,,,,,,,,,,,,,,,,,,,,,,,,a,1,None,0,1.0,invertedtriangleyellow.gif,go,,,,,,,,0.35036110878,,,,,,,,,,,,,,,,,,,,,,,,0.99,0.51437497139,0.00097393989563,0.35036110878,1,a,340.523244143,,,,,,,,,,,,,,,,,,,,,,,,,,,,,,,,,,2015_Jul_06_1138,60.0283088672,LearningTask,1,57,
-200,q,200,,,,,,,,,,,,,,,,,0,0,0,0,8,2,34,1,,,,,,,,,,,,,,,,,,,,,,,,,,,,,q,1,None,0,4.0,triangleblue.gif,go,,,,,,,,0.417445898056,,,,,,,,,,,,,,,,,,,,,,,,4.22,0.514038085938,0.000952959060669,0.417445898056,1,q,343.526266098,,,,,,,,,,,,,,,,,,,,,,,,,,,,,,,,,,2015_Jul_06_1138,60.0283088672,LearningTask,1,57,
200,w,200,,,,,,,,,,,,,,,,,0,0,0,0,8,3,35,0,,,,,,,,,,,,,,,,,,,,,,,,,,,,,w,1,None,0,2.0,diamondgreen.gif,stop,,,,,,,,0.41813993454,,,,,,,,,,,,,,,,,,,,,,,,2.14,0.513822078705,0.00132989883423,0.41813993454,1,w,346.52978611,,,,,,,,,,,,,,,,,,,,,,,,,,,,,,,,,,2015_Jul_06_1138,60.0283088672,LearningTask,1,57,
200,w,200,,,,,,,,,,,,,,,,,0,0,0,0,9,0,36,0,,,,,,,,,,,,,,,,,,,,,,,,,,,,,w,1,None,0,2.0,diamondgreen.gif,stop,,,,,,,,0.3842689991,,,,,,,,,,,,,,,,,,,,,,,,2.01,0.513859987259,0.000998020172119,0.3842689991,1,w,349.533332109,,,,,,,,,,,,,,,,,,,,,,,,,,,,,,,,,,2015_Jul_06_1138,60.0283088672,LearningTask,1,57,
-200,a,-200,,,,,,,,,,,,,,,,,0,0,0,0,9,1,37,3,,,,,,,,,,,,,,,,,,,,,,,,,,,,,a,1,None,0,4.0,triangleblue.gif,go,,,,,,,,0.350687980652,,,,,,,,,,,,,,,,,,,,,,,,4.0,0.51393699646,0.000958919525146,0.350687980652,1,a,352.536581039,,,,,,,,,,,,,,,,,,,,,,,,,,,,,,,,,,2015_Jul_06_1138,60.0283088672,LearningTask,1,57,
-200,a,-200,,,,,,,,,,,,,,,,,0,0,0,0,9,2,38,3,,,,,,,,,,,,,,,,,,,,,,,,,,,,,a,1,None,0,1.0,crosscyan.gif,stop,,,,,,,,0.383825063705,,,,,,,,,,,,,,,,,,,,,,,,1.06,0.514262199402,0.00090503692627,0.383825063705,1,a,355.539806128,,,,,,,,,,,,,,,,,,,,,,,,,,,,,,,,,,2015_Jul_06_1138,60.0283088672,LearningTask,1,57,
-200,q,200,,,,,,,,,,,,,,,,,0,0,0,0,9,3,39,1,,,,,,,,,,,,,,,,,,,,,,,,,,,,,q,1,None,0,2.0,squaregray.gif,go,,,,,,,,0.351081848145,,,,,,,,,,,,,,,,,,,,,,,,1.91,0.51403594017,0.000916957855225,0.351081848145,1,q,358.54302597,,,,,,,,,,,,,,,,,,,,,,,,,,,,,,,,,,2015_Jul_06_1138,60.0283088672,LearningTask,1,57,
200,w,200,,,,,,,,,,,,,,,,,0,0,0,0,10,0,40,0,,,,,,,,,,,,,,,,,,,,,,,,,,,,,w,1,None,0,0.5,linewhite.gif,go,,,,,,,,0.417991161346,,,,,,,,,,,,,,,,,,,,,,,,0.64,0.513919830322,0.00103783607483,0.417991161346,1,w,361.546378136,,,,,,,,,,,,,,,,,,,,,,,,,,,,,,,,,,2015_Jul_06_1138,60.0283088672,LearningTask,1,57,
-200,q,200,,,,,,,,,,,,,,,,,0,0,0,0,10,1,41,1,,,,,,,,,,,,,,,,,,,,,,,,,,,,,q,1,None,0,4.0,hexagonmagenta.gif,stop,,,,,,,,0.367470026016,,,,,,,,,,,,,,,,,,,,,,,,3.96,0.514398097992,0.000977993011475,0.367470026016,1,q,364.54987812,,,,,,,,,,,,,,,,,,,,,,,,,,,,,,,,,,2015_Jul_06_1138,60.0283088672,LearningTask,1,57,
-200,a,-200,,,,,,,,,,,,,,,,,0,0,0,0,10,2,42,3,,,,,,,,,,,,,,,,,,,,,,,,,,,,,a,1,None,0,1.0,invertedtriangleyellow.gif,go,,,,,,,,0.401138067245,,,,,,,,,,,,,,,,,,,,,,,,0,0.514162063599,0.000915050506592,0.401138067245,1,a,367.553431034,,,,,,,,,,,,,,,,,,,,,,,,,,,,,,,,,,2015_Jul_06_1138,60.0283088672,LearningTask,1,57,
200,s,-200,,,,,,,,,,,,,,,,,0,0,0,0,10,3,43,2,,,,,,,,,,,,,,,,,,,,,,,,,,,,,s,1,None,0,0.5,circleorange.gif,stop,,,,,,,,0.35039305687,,,,,,,,,,,,,,,,,,,,,,,,0,0.514402866364,0.000992059707642,0.35039305687,1,s,370.556516171,,,,,,,,,,,,,,,,,,,,,,,,,,,,,,,,,,2015_Jul_06_1138,60.0283088672,LearningTask,1,57,
-200,a,-200,,,,,,,,,,,,,,,,,0,0,0,0,11,0,44,3,,,,,,,,,,,,,,,,,,,,,,,,,,,,,a,1,None,0,1.0,crosscyan.gif,stop,,,,,,,,0.350946903229,,,,,,,,,,,,,,,,,,,,,,,,1.17,0.514297008514,0.000893831253052,0.350946903229,1,a,373.559721947,,,,,,,,,,,,,,,,,,,,,,,,,,,,,,,,,,2015_Jul_06_1138,60.0283088672,LearningTask,1,57,
200,w,200,,,,,,,,,,,,,,,,,0,0,0,0,11,1,45,0,,,,,,,,,,,,,,,,,,,,,,,,,,,,,w,1,None,0,1.0,invertedtriangleyellow.gif,go,,,,,,,,0.367498874664,,,,,,,,,,,,,,,,,,,,,,,,1.02,0.514365196228,0.000894069671631,0.367498874664,1,w,376.563143969,,,,,,,,,,,,,,,,,,,,,,,,,,,,,,,,,,2015_Jul_06_1138,60.0283088672,LearningTask,1,57,
-200,a,-200,,,,,,,,,,,,,,,,,0,0,0,0,11,2,46,3,,,,,,,,,,,,,,,,,,,,,,,,,,,,,a,1,None,0,1.0,crosscyan.gif,stop,,,,,,,,0.367600917816,,,,,,,,,,,,,,,,,,,,,,,,0.8,0.51428103447,0.00154185295105,0.367600917816,1,a,379.56646204,,,,,,,,,,,,,,,,,,,,,,,,,,,,,,,,,,2015_Jul_06_1138,60.0283088672,LearningTask,1,57,
-200,q,200,,,,,,,,,,,,,,,,,0,0,0,0,11,3,47,1,,,,,,,,,,,,,,,,,,,,,,,,,,,,,q,1,None,0,4.0,triangleblue.gif,go,,,,,,,,0.367192029953,,,,,,,,,,,,,,,,,,,,,,,,4.2,0.514693021774,0.000892162322998,0.367192029953,1,q,382.56996417,,,,,,,,,,,,,,,,,,,,,,,,,,,,,,,,,,2015_Jul_06_1138,60.0283088672,LearningTask,1,57,
200,w,200,,,,,,,,,,,,,,,,,0,0,0,0,12,0,48,0,,,,,,,,,,,,,,,,,,,,,,,,,,,,,w,1,None,0,4.0,triangleblue.gif,go,,,,,,,,0.333943128586,,,,,,,,,,,,,,,,,,,,,,,,3.93,0.514479875565,0.000885963439941,0.333943128586,1,w,385.573552132,,,,,,,,,,,,,,,,,,,,,,,,,,,,,,,,,,2015_Jul_06_1138,60.0283088672,LearningTask,1,57,
200,w,200,,,,,,,,,,,,,,,,,0,0,0,0,12,1,49,0,,,,,,,,,,,,,,,,,,,,,,,,,,,,,w,1,None,0,2.0,squaregray.gif,go,,,,,,,,0.367645978928,,,,,,,,,,,,,,,,,,,,,,,,2.08,0.513911962509,0.000916957855225,0.367645978928,1,w,388.576497078,,,,,,,,,,,,,,,,,,,,,,,,,,,,,,,,,,2015_Jul_06_1138,60.0283088672,LearningTask,1,57,
-200,a,-200,,,,,,,,,,,,,,,,,0,0,0,0,12,2,50,3,,,,,,,,,,,,,,,,,,,,,,,,,,,,,a,1,None,0,2.0,diamondgreen.gif,stop,,,,,,,,0.36721777916,,,,,,,,,,,,,,,,,,,,,,,,2.25,0.514452934265,0.000899076461792,0.36721777916,1,a,391.579826117,,,,,,,,,,,,,,,,,,,,,,,,,,,,,,,,,,2015_Jul_06_1138,60.0283088672,LearningTask,1,57,
200,w,200,,,,,,,,,,,,,,,,,0,0,0,0,12,3,51,0,,,,,,,,,,,,,,,,,,,,,,,,,,,,,w,1,None,0,2.0,diamondgreen.gif,stop,,,,,,,,0.317776918411,,,,,,,,,,,,,,,,,,,,,,,,2.13,0.514497041702,0.000899076461792,0.317776918411,1,w,394.583444118,,,,,,,,,,,,,,,,,,,,,,,,,,,,,,,,,,2015_Jul_06_1138,60.0283088672,LearningTask,1,57,
200,s,-200,,,,,,,,,,,,,,,,,0,0,0,0,13,0,52,2,,,,,,,,,,,,,,,,,,,,,,,,,,,,,s,1,None,0,1.0,crosscyan.gif,stop,,,,,,,,0.334287881851,,,,,,,,,,,,,,,,,,,,,,,,1.0,0.51389503479,0.000921964645386,0.334287881851,1,s,397.586730003,,,,,,,,,,,,,,,,,,,,,,,,,,,,,,,,,,2015_Jul_06_1138,60.0283088672,LearningTask,1,57,
200,s,-200,,,,,,,,,,,,,,,,,0,0,0,0,13,1,53,2,,,,,,,,,,,,,,,,,,,,,,,,,,,,,s,1,None,0,1.0,invertedtriangleyellow.gif,go,,,,,,,,0.317837953568,,,,,,,,,,,,,,,,,,,,,,,,0,0.514083862305,0.000909805297852,0.317837953568,1,s,400.590286016,,,,,,,,,,,,,,,,,,,,,,,,,,,,,,,,,,2015_Jul_06_1138,60.0283088672,LearningTask,1,57,
-200,q,200,,,,,,,,,,,,,,,,,0,0,0,0,13,2,54,1,,,,,,,,,,,,,,,,,,,,,,,,,,,,,q,1,None,0,2.0,squaregray.gif,go,,,,,,,,0.367230892181,,,,,,,,,,,,,,,,,,,,,,,,2.09,0.514398097992,0.000905990600586,0.367230892181,1,q,403.593665123,,,,,,,,,,,,,,,,,,,,,,,,,,,,,,,,,,2015_Jul_06_1138,60.0283088672,LearningTask,1,57,
200,s,-200,,,,,,,,,,,,,,,,,0,0,0,0,13,3,55,2,,,,,,,,,,,,,,,,,,,,,,,,,,,,,s,1,q,0,4.0,hexagonmagenta.gif,stop,,,,,,,,0.40091586113,,,,,,,,,,,,,,,,,,,,,,,,3.82,0.514120101929,0.000911951065063,0.40091586113,1,s,406.596694946,0.424268960953,,,,,,,,,,,,,,,,,,,,,,,,,,,,,,,,,2015_Jul_06_1138,60.0283088672,LearningTask,1,57,
-200,a,-200,,,,,,,,,,,,,,,,,0,0,0,0,14,0,56,3,,,,,,,,,,,,,,,,,,,,,,,,,,,,,a,1,None,0,0.5,linewhite.gif,go,,,,,,,,0.350745916367,,,,,,,,,,,,,,,,,,,,,,,,0,0.514419078827,0.000901937484741,0.350745916367,1,a,409.600101948,,,,,,,,,,,,,,,,,,,,,,,,,,,,,,,,,,2015_Jul_06_1138,60.0283088672,LearningTask,1,57,
-200,q,200,,,,,,,,,,,,,,,,,0,0,0,0,14,1,57,1,,,,,,,,,,,,,,,,,,,,,,,,,,,,,q,1,None,0,4.0,hexagonmagenta.gif,stop,,,,,,,,0.417228937149,,,,,,,,,,,,,,,,,,,,,,,,3.91,0.514358997345,0.000983953475952,0.417228937149,1,q,412.603527069,,,,,,,,,,,,,,,,,,,,,,,,,,,,,,,,,,2015_Jul_06_1138,60.0283088672,LearningTask,1,57,
200,s,-200,,,,,,,,,,,,,,,,,0,0,0,0,14,2,58,2,,,,,,,,,,,,,,,,,,,,,,,,,,,,,s,1,None,0,1.0,invertedtriangleyellow.gif,go,,,,,,,,0.384531974792,,,,,,,,,,,,,,,,,,,,,,,,1.18,0.514290809631,0.000943899154663,0.384531974792,1,s,415.606796026,,,,,,,,,,,,,,,,,,,,,,,,,,,,,,,,,,2015_Jul_06_1138,60.0283088672,LearningTask,1,57,
-200,a,-200,,,,,,,,,,,,,,,,,0,0,0,0,14,3,59,3,,,,,,,,,,,,,,,,,,,,,,,,,,,,,a,1,None,0,4.0,hexagonmagenta.gif,stop,,,,,,,,0.417385101318,,,,,,,,,,,,,,,,,,,,,,,,4.12,0.514648914337,0.00112795829773,0.417385101318,1,a,418.610393047,,,,,,,,,,,,,,,,,,,,,,,,,,,,,,,,,,2015_Jul_06_1138,60.0283088672,LearningTask,1,57,
-200,a,-200,,,,,,,,,,,,,,,,,0,0,0,0,15,0,60,3,,,,,,,,,,,,,,,,,,,,,,,,,,,,,a,1,None,0,1.0,invertedtriangleyellow.gif,go,,,,,,,,0.317043066025,,,,,,,,,,,,,,,,,,,,,,,,0,0.514367818832,0.000922918319702,0.317043066025,1,a,421.613754988,,,,,,,,,,,,,,,,,,,,,,,,,,,,,,,,,,2015_Jul_06_1138,60.0283088672,LearningTask,1,57,
200,s,-200,,,,,,,,,,,,,,,,,0,0,0,0,15,1,61,2,,,,,,,,,,,,,,,,,,,,,,,,,,,,,s,1,None,0,0.5,circleorange.gif,stop,,,,,,,,0.334282875061,,,,,,,,,,,,,,,,,,,,,,,,0,0.513823986053,0.000944852828979,0.334282875061,1,s,424.616840124,,,,,,,,,,,,,,,,,,,,,,,,,,,,,,,,,,2015_Jul_06_1138,60.0283088672,LearningTask,1,57,
200,s,-200,,,,,,,,,,,,,,,,,0,0,0,0,15,2,62,2,,,,,,,,,,,,,,,,,,,,,,,,,,,,,s,1,None,0,1.0,crosscyan.gif,stop,,,,,,,,0.317589998245,,,,,,,,,,,,,,,,,,,,,,,,0.89,0.514203071594,0.000956058502197,0.317589998245,1,s,427.620265961,,,,,,,,,,,,,,,,,,,,,,,,,,,,,,,,,,2015_Jul_06_1138,60.0283088672,LearningTask,1,57,
200,w,200,,,,,,,,,,,,,,,,,0,0,0,0,15,3,63,0,,,,,,,,,,,,,,,,,,,,,,,,,,,,,w,1,None,0,4.0,triangleblue.gif,go,,,,,,,,0.367285013199,,,,,,,,,,,,,,,,,,,,,,,,3.94,0.514277219772,0.000892162322998,0.367285013199,1,w,430.623533964,,,,,,,,,,,,,,,,,,,,,,,,,,,,,,,,,,2015_Jul_06_1138,60.0283088672,LearningTask,1,57,
-200,a,-200,,,,,,,,,,,,,,,,,0,0,0,0,16,0,64,3,,,,,,,,,,,,,,,,,,,,,,,,,,,,,a,1,None,0,1.0,crosscyan.gif,stop,,,,,,,,0.383960962296,,,,,,,,,,,,,,,,,,,,,,,,0.77,0.514266967773,0.000974893569946,0.383960962296,1,a,433.626930952,,,,,,,,,,,,,,,,,,,,,,,,,,,,,,,,,,2015_Jul_06_1138,60.0283088672,LearningTask,1,57,
-200,a,-200,,,,,,,,,,,,,,,,,0,0,0,0,16,1,65,3,,,,,,,,,,,,,,,,,,,,,,,,,,,,,a,1,None,0,2.0,squaregray.gif,go,,,,,,,,0.334090948105,,,,,,,,,,,,,,,,,,,,,,,,1.93,0.51446890831,0.00089693069458,0.334090948105,1,a,436.630251169,,,,,,,,,,,,,,,,,,,,,,,,,,,,,,,,,,2015_Jul_06_1138,60.0283088672,LearningTask,1,57,
200,s,-200,,,,,,,,,,,,,,,,,0,0,0,0,16,2,66,2,,,,,,,,,,,,,,,,,,,,,,,,,,,,,s,1,None,0,2.0,squaregray.gif,go,,,,,,,,0.301017999649,,,,,,,,,,,,,,,,,,,,,,,,2.05,0.514395952225,0.000891923904419,0.301017999649,1,s,439.633614063,,,,,,,,,,,,,,,,,,,,,,,,,,,,,,,,,,2015_Jul_06_1138,60.0283088672,LearningTask,1,57,
200,s,-200,,,,,,,,,,,,,,,,,0,0,0,0,16,3,67,2,,,,,,,,,,,,,,,,,,,,,,,,,,,,,s,1,None,0,4.0,triangleblue.gif,go,,,,,,,,0.300694942474,,,,,,,,,,,,,,,,,,,,,,,,3.98,0.514329910278,0.00089693069458,0.300694942474,1,s,442.637158155,,,,,,,,,,,,,,,,,,,,,,,,,,,,,,,,,,2015_Jul_06_1138,60.0283088672,LearningTask,1,57,
-200,q,200,,,,,,,,,,,,,,,,,0,0,0,0,17,0,68,1,,,,,,,,,,,,,,,,,,,,,,,,,,,,,q,1,None,0,2.0,squaregray.gif,go,,,,,,,,0.400842905045,,,,,,,,,,,,,,,,,,,,,,,,1.93,0.513885974884,0.000881910324097,0.400842905045,1,q,445.640383005,,,,,,,,,,,,,,,,,,,,,,,,,,,,,,,,,,2015_Jul_06_1138,60.0283088672,LearningTask,1,57,
200,s,-200,,,,,,,,,,,,,,,,,0,0,0,0,17,1,69,2,,,,,,,,,,,,,,,,,,,,,,,,,,,,,s,1,None,0,2.0,squaregray.gif,go,,,,,,,,0.334624052048,,,,,,,,,,,,,,,,,,,,,,,,2.17,0.514208078384,0.000894069671631,0.334624052048,1,s,448.64379406,,,,,,,,,,,,,,,,,,,,,,,,,,,,,,,,,,2015_Jul_06_1138,60.0283088672,LearningTask,1,57,
200,w,200,,,,,,,,,,,,,,,,,0,0,0,0,17,2,70,0,,,,,,,,,,,,,,,,,,,,,,,,,,,,,w,1,None,0,1.0,crosscyan.gif,stop,,,,,,,,0.351018190384,,,,,,,,,,,,,,,,,,,,,,,,0,0.514108896255,0.000900983810425,0.351018190384,1,w,451.647467136,,,,,,,,,,,,,,,,,,,,,,,,,,,,,,,,,,2015_Jul_06_1138,60.0283088672,LearningTask,1,57,
200,s,-200,,,,,,,,,,,,,,,,,0,0,0,0,17,3,71,2,,,,,,,,,,,,,,,,,,,,,,,,,,,,,s,1,None,0,0.5,circleorange.gif,stop,,,,,,,,0.300899028778,,,,,,,,,,,,,,,,,,,,,,,,0,0.513607025146,0.000895977020264,0.300899028778,1,s,454.65043211,,,,,,,,,,,,,,,,,,,,,,,,,,,,,,,,,,2015_Jul_06_1138,60.0283088672,LearningTask,1,57,
-200,q,200,,,,,,,,,,,,,,,,,0,0,0,0,18,0,72,1,,,,,,,,,,,,,,,,,,,,,,,,,,,,,q,1,None,0,1.0,crosscyan.gif,stop,,,,,,,,0.384469985962,,,,,,,,,,,,,,,,,,,,,,,,0,0.514385938644,0.000931024551392,0.384469985962,1,q,457.65367198,,,,,,,,,,,,,,,,,,,,,,,,,,,,,,,,,,2015_Jul_06_1138,60.0283088672,LearningTask,1,57,
200,s,-200,,,,,,,,,,,,,,,,,0,0,0,0,18,1,73,2,,,,,,,,,,,,,,,,,,,,,,,,,,,,,s,1,None,0,4.0,triangleblue.gif,go,,,,,,,,0.350241184235,,,,,,,,,,,,,,,,,,,,,,,,4.02,0.514828920364,0.000910043716431,0.350241184235,1,s,460.657222033,,,,,,,,,,,,,,,,,,,,,,,,,,,,,,,,,,2015_Jul_06_1138,60.0283088672,LearningTask,1,57,
200,s,-200,,,,,,,,,,,,,,,,,0,0,0,0,18,2,74,2,,,,,,,,,,,,,,,,,,,,,,,,,,,,,s,1,None,0,4.0,triangleblue.gif,go,,,,,,,,0.367820978165,,,,,,,,,,,,,,,,,,,,,,,,3.93,0.514008998871,0.000888824462891,0.367820978165,1,s,463.660493135,,,,,,,,,,,,,,,,,,,,,,,,,,,,,,,,,,2015_Jul_06_1138,60.0283088672,LearningTask,1,57,
-200,q,200,,,,,,,,,,,,,,,,,0,0,0,0,18,3,75,1,,,,,,,,,,,,,,,,,,,,,,,,,,,,,q,1,None,0,0.5,circleorange.gif,stop,,,,,,,,0.417834997177,,,,,,,,,,,,,,,,,,,,,,,,0.59,0.514279127121,0.000981092453003,0.417834997177,1,q,466.664041042,,,,,,,,,,,,,,,,,,,,,,,,,,,,,,,,,,2015_Jul_06_1138,60.0283088672,LearningTask,1,57,
-200,a,-200,,,,,,,,,,,,,,,,,0,0,0,0,19,0,76,3,,,,,,,,,,,,,,,,,,,,,,,,,,,,,a,1,None,0,1.0,invertedtriangleyellow.gif,go,,,,,,,,0.384280920029,,,,,,,,,,,,,,,,,,,,,,,,1.1,0.514178037643,0.000911951065063,0.384280920029,1,a,469.667348146,,,,,,,,,,,,,,,,,,,,,,,,,,,,,,,,,,2015_Jul_06_1138,60.0283088672,LearningTask,1,57,
-200,a,-200,,,,,,,,,,,,,,,,,0,0,0,0,19,1,77,3,,,,,,,,,,,,,,,,,,,,,,,,,,,,,a,1,None,0,0.5,circleorange.gif,stop,,,,,,,,0.451374053955,,,,,,,,,,,,,,,,,,,,,,,,0.31,0.514081001282,0.00090217590332,0.451374053955,1,a,472.670547962,,,,,,,,,,,,,,,,,,,,,,,,,,,,,,,,,,2015_Jul_06_1138,60.0283088672,LearningTask,1,57,
-200,q,200,,,,,,,,,,,,,,,,,0,0,0,0,19,2,78,1,,,,,,,,,,,,,,,,,,,,,,,,,,,,,q,1,None,0,0.5,linewhite.gif,go,,,,,,,,0.417626857758,,,,,,,,,,,,,,,,,,,,,,,,0,0.513921022415,0.000942945480347,0.417626857758,1,q,475.674000025,,,,,,,,,,,,,,,,,,,,,,,,,,,,,,,,,,2015_Jul_06_1138,60.0283088672,LearningTask,1,57,
-200,a,-200,,,,,,,,,,,,,,,,,0,0,0,0,19,3,79,3,,,,,,,,,,,,,,,,,,,,,,,,,,,,,a,1,None,0,4.0,hexagonmagenta.gif,stop,,,,,,,,0.35084104538,,,,,,,,,,,,,,,,,,,,,,,,0,0.514503002167,0.000910997390747,0.35084104538,1,a,478.677086115,,,,,,,,,,,,,,,,,,,,,,,,,,,,,,,,,,2015_Jul_06_1138,60.0283088672,LearningTask,1,57,
-200,q,200,,,,,,,,,,,,,,,,,0,0,0,0,20,0,80,1,,,,,,,,,,,,,,,,,,,,,,,,,,,,,q,1,None,0,1.0,crosscyan.gif,stop,,,,,,,,0.350399971008,,,,,,,,,,,,,,,,,,,,,,,,0.8,0.514969110489,0.000888109207153,0.350399971008,1,q,481.681264162,,,,,,,,,,,,,,,,,,,,,,,,,,,,,,,,,,2015_Jul_06_1138,60.0283088672,LearningTask,1,57,
200,w,200,,,,,,,,,,,,,,,,,0,0,0,0,20,1,81,0,,,,,,,,,,,,,,,,,,,,,,,,,,,,,w,1,None,0,4.0,triangleblue.gif,go,,,,,,,,0.450846910477,,,,,,,,,,,,,,,,,,,,,,,,3.96,0.513918161392,0.000904083251953,0.450846910477,1,w,484.683881044,,,,,,,,,,,,,,,,,,,,,,,,,,,,,,,,,,2015_Jul_06_1138,60.0283088672,LearningTask,1,57,
200,w,200,,,,,,,,,,,,,,,,,0,0,0,0,20,2,82,0,,,,,,,,,,,,,,,,,,,,,,,,,,,,,w,1,None,0,2.0,diamondgreen.gif,stop,,,,,,,,0.43429684639,,,,,,,,,,,,,,,,,,,,,,,,1.87,0.514598846436,0.000911951065063,0.43429684639,1,w,487.687345982,,,,,,,,,,,,,,,,,,,,,,,,,,,,,,,,,,2015_Jul_06_1138,60.0283088672,LearningTask,1,57,
200,w,200,,,,,,,,,,,,,,,,,0,0,0,0,20,3,83,0,,,,,,,,,,,,,,,,,,,,,,,,,,,,,w,1,None,0,1.0,invertedtriangleyellow.gif,go,,,,,,,,0.367673873901,,,,,,,,,,,,,,,,,,,,,,,,1.12,0.514280080795,0.000898122787476,0.367673873901,1,w,490.691072941,,,,,,,,,,,,,,,,,,,,,,,,,,,,,,,,,,2015_Jul_06_1138,60.0283088672,LearningTask,1,57,
-200,a,-200,,,,,,,,,,,,,,,,,0,0,0,0,21,0,84,3,,,,,,,,,,,,,,,,,,,,,,,,,,,,,a,1,None,0,1.0,crosscyan.gif,stop,,,,,,,,0.450892925262,,,,,,,,,,,,,,,,,,,,,,,,1.01,0.513815164566,0.000925064086914,0.450892925262,1,a,493.694178104,,,,,,,,,,,,,,,,,,,,,,,,,,,,,,,,,,2015_Jul_06_1138,60.0283088672,LearningTask,1,57,
200,w,200,,,,,,,,,,,,,,,,,0,0,0,0,21,1,85,0,,,,,,,,,,,,,,,,,,,,,,,,,,,,,w,1,None,0,1.0,crosscyan.gif,stop,,,,,,,,0.434283971786,,,,,,,,,,,,,,,,,,,,,,,,1.01,0.514063119888,0.000916004180908,0.434283971786,1,w,496.697474957,,,,,,,,,,,,,,,,,,,,,,,,,,,,,,,,,,2015_Jul_06_1138,60.0283088672,LearningTask,1,57,
200,w,200,,,,,,,,,,,,,,,,,0,0,0,0,21,2,86,0,,,,,,,,,,,,,,,,,,,,,,,,,,,,,w,1,None,0,4.0,hexagonmagenta.gif,stop,,,,,,,,0.433989048004,,,,,,,,,,,,,,,,,,,,,,,,3.84,0.514467000961,0.000905990600586,0.433989048004,1,w,499.701146126,,,,,,,,,,,,,,,,,,,,,,,,,,,,,,,,,,2015_Jul_06_1138,60.0283088672,LearningTask,1,57,
-200,a,-200,,,,,,,,,,,,,,,,,0,0,0,0,21,3,87,3,,,,,,,,,,,,,,,,,,,,,,,,,,,,,a,1,None,0,1.0,crosscyan.gif,stop,,,,,,,,0.617383956909,,,,,,,,,,,,,,,,,,,,,,,,0.92,0.513495922089,0.000902891159058,0.617383956909,1,a,502.704105139,,,,,,,,,,,,,,,,,,,,,,,,,,,,,,,,,,2015_Jul_06_1138,60.0283088672,LearningTask,1,57,
-200,q,200,,,,,,,,,,,,,,,,,0,0,0,0,22,0,88,1,,,,,,,,,,,,,,,,,,,,,,,,,,,,,q,1,None,0,0.5,linewhite.gif,go,,,,,,,,0.434066057205,,,,,,,,,,,,,,,,,,,,,,,,0.44,0.514444828033,0.000893831253052,0.434066057205,1,q,505.707349062,,,,,,,,,,,,,,,,,,,,,,,,,,,,,,,,,,2015_Jul_06_1138,60.0283088672,LearningTask,1,57,
-200,a,-200,,,,,,,,,,,,,,,,,0,0,0,0,22,1,89,3,,,,,,,,,,,,,,,,,,,,,,,,,,,,,a,1,None,0,4.0,hexagonmagenta.gif,stop,,,,,,,,0.433971166611,,,,,,,,,,,,,,,,,,,,,,,,4.14,0.514821052551,0.000901937484741,0.433971166611,1,a,508.710797071,,,,,,,,,,,,,,,,,,,,,,,,,,,,,,,,,,2015_Jul_06_1138,60.0283088672,LearningTask,1,57,
200,s,-200,,,,,,,,,,,,,,,,,0,0,0,0,22,2,90,2,,,,,,,,,,,,,,,,,,,,,,,,,,,,,s,1,None,0,2.0,squaregray.gif,go,,,,,,,,0.400578975677,,,,,,,,,,,,,,,,,,,,,,,,0,0.51448392868,0.000993967056274,0.400578975677,1,s,511.714210033,,,,,,,,,,,,,,,,,,,,,,,,,,,,,,,,,,2015_Jul_06_1138,60.0283088672,LearningTask,1,57,
-200,q,200,,,,,,,,,,,,,,,,,0,0,0,0,22,3,91,1,,,,,,,,,,,,,,,,,,,,,,,,,,,,,q,1,None,0,1.0,invertedtriangleyellow.gif,go,,,,,,,,0.434553861618,,,,,,,,,,,,,,,,,,,,,,,,1.05,0.514232873917,0.000936031341553,0.434553861618,1,q,514.717710018,,,,,,,,,,,,,,,,,,,,,,,,,,,,,,,,,,2015_Jul_06_1138,60.0283088672,LearningTask,1,57,
-200,q,200,,,,,,,,,,,,,,,,,0,0,0,0,23,0,92,1,,,,,,,,,,,,,,,,,,,,,,,,,,,,,q,1,None,0,2.0,diamondgreen.gif,stop,,,,,,,,0.434399843216,,,,,,,,,,,,,,,,,,,,,,,,2.19,0.514163970947,0.000897884368896,0.434399843216,1,q,517.720986128,,,,,,,,,,,,,,,,,,,,,,,,,,,,,,,,,,2015_Jul_06_1138,60.0283088672,LearningTask,1,57,
200,s,-200,,,,,,,,,,,,,,,,,0,0,0,0,23,1,93,2,,,,,,,,,,,,,,,,,,,,,,,,,,,,,s,1,None,0,2.0,diamondgreen.gif,stop,,,,,,,,0.367718935013,,,,,,,,,,,,,,,,,,,,,,,,0,0.514348983765,0.000898122787476,0.367718935013,1,s,520.724339962,,,,,,,,,,,,,,,,,,,,,,,,,,,,,,,,,,2015_Jul_06_1138,60.0283088672,LearningTask,1,57,
200,w,200,,,,,,,,,,,,,,,,,0,0,0,0,23,2,94,0,,,,,,,,,,,,,,,,,,,,,,,,,,,,,w,1,None,0,2.0,diamondgreen.gif,stop,,,,,,,,0.350634813309,,,,,,,,,,,,,,,,,,,,,,,,1.75,0.514029979706,0.000957012176514,0.350634813309,1,w,523.727607012,,,,,,,,,,,,,,,,,,,,,,,,,,,,,,,,,,2015_Jul_06_1138,60.0283088672,LearningTask,1,57,
200,s,-200,,,,,,,,,,,,,,,,,0,0,0,0,23,3,95,2,,,,,,,,,,,,,,,,,,,,,,,,,,,,,s,1,None,0,0.5,circleorange.gif,stop,,,,,,,,0.400840044022,,,,,,,,,,,,,,,,,,,,,,,,0.52,0.514361143112,0.000952959060669,0.400840044022,1,s,526.730963945,,,,,,,,,,,,,,,,,,,,,,,,,,,,,,,,,,2015_Jul_06_1138,60.0283088672,LearningTask,1,57,
200,s,-200,,,,,,,,,,,,,,,,,0,0,0,0,24,0,96,2,,,,,,,,,,,,,,,,,,,,,,,,,,,,,s,1,None,0,4.0,hexagonmagenta.gif,stop,,,,,,,,0.317580938339,,,,,,,,,,,,,,,,,,,,,,,,0,0.514292001724,0.000905990600586,0.317580938339,1,s,529.734579086,,,,,,,,,,,,,,,,,,,,,,,,,,,,,,,,,,2015_Jul_06_1138,60.0283088672,LearningTask,1,57,
-200,q,200,,,,,,,,,,,,,,,,,0,0,0,0,24,1,97,1,,,,,,,,,,,,,,,,,,,,,,,,,,,,,q,1,None,0,2.0,diamondgreen.gif,stop,,,,,,,,0.350712060928,,,,,,,,,,,,,,,,,,,,,,,,2.03,0.514074087143,0.000929117202759,0.350712060928,1,q,532.737751961,,,,,,,,,,,,,,,,,,,,,,,,,,,,,,,,,,2015_Jul_06_1138,60.0283088672,LearningTask,1,57,
-200,a,-200,,,,,,,,,,,,,,,,,0,0,0,0,24,2,98,3,,,,,,,,,,,,,,,,,,,,,,,,,,,,,a,1,None,0,0.5,linewhite.gif,go,,,,,,,,0.417513847351,,,,,,,,,,,,,,,,,,,,,,,,0.73,0.51432800293,0.000900030136108,0.417513847351,1,a,535.741158009,,,,,,,,,,,,,,,,,,,,,,,,,,,,,,,,,,2015_Jul_06_1138,60.0283088672,LearningTask,1,57,
-200,a,-200,,,,,,,,,,,,,,,,,0,0,0,0,24,3,99,3,,,,,,,,,,,,,,,,,,,,,,,,,,,,,a,1,None,0,1.0,crosscyan.gif,stop,,,,,,,,0.351066112518,,,,,,,,,,,,,,,,,,,,,,,,1.06,0.51420211792,0.000899076461792,0.351066112518,1,a,538.7444911,,,,,,,,,,,,,,,,,,,,,,,,,,,,,,,,,,2015_Jul_06_1138,60.0283088672,LearningTask,1,57,
,,,,,,,,,,,,,,,,,,,0,0,0,0,,,,,,,,,,,,,,,,,,,,,,,,,,,,,,,,,,,,,,,,,,,,,,,,,,,,,,,,,,,,,,,,,,,,,,,,,,,,,,,9,4.09225583076,,,,,,,,,,,,,,,,,,,,,,,,,,,,,,,2015_Jul_06_1138,60.0283088672,LearningTask,1,57,
-200,q,200,,,,,,,,,,,,,,,,,1,0,1,0,0,0,0,1,,,,,,,,,,,,,,,,,,,,,,,,,,,,,q,1,None,0,4.0,triangleblue.gif,go,,,,,,,,0.534379005432,,,,,,,,,,,,,,,,,,,,,,,,3.88,0.509961843491,0.000913858413696,0.534379005432,1,q,546.169902086,,,,,,,,,,,,,,,,,,,,,,,,,,,,,,,,,,2015_Jul_06_1138,60.0283088672,LearningTask,1,57,
-200,a,-200,,,,,,,,,,,,,,,,,1,0,1,0,0,1,1,3,,,,,,,,,,,,,,,,,,,,,,,,,,,,,a,1,None,0,0.5,circleorange.gif,stop,,,,,,,,0.367653846741,,,,,,,,,,,,,,,,,,,,,,,,0.42,0.513925075531,0.000894069671631,0.367653846741,1,a,549.17298007,,,,,,,,,,,,,,,,,,,,,,,,,,,,,,,,,,2015_Jul_06_1138,60.0283088672,LearningTask,1,57,
200,w,200,,,,,,,,,,,,,,,,,1,0,1,0,0,2,2,0,,,,,,,,,,,,,,,,,,,,,,,,,,,,,w,1,None,0,1.0,invertedtriangleyellow.gif,go,,,,,,,,0.400909900665,,,,,,,,,,,,,,,,,,,,,,,,0.98,0.514046192169,0.000895023345947,0.400909900665,1,w,552.176258087,,,,,,,,,,,,,,,,,,,,,,,,,,,,,,,,,,2015_Jul_06_1138,60.0283088672,LearningTask,1,57,
-200,q,200,,,,,,,,,,,,,,,,,1,0,1,0,0,3,3,1,,,,,,,,,,,,,,,,,,,,,,,,,,,,,q,1,None,0,2.0,diamondgreen.gif,stop,,,,,,,,0.350319862366,,,,,,,,,,,,,,,,,,,,,,,,1.75,0.514636993408,0.00109100341797,0.350319862366,1,q,555.17943716,,,,,,,,,,,,,,,,,,,,,,,,,,,,,,,,,,2015_Jul_06_1138,60.0283088672,LearningTask,1,57,
200,w,200,,,,,,,,,,,,,,,,,1,0,1,0,1,0,4,0,,,,,,,,,,,,,,,,,,,,,,,,,,,,,w,1,None,0,1.0,invertedtriangleyellow.gif,go,,,,,,,,0.368057012558,,,,,,,,,,,,,,,,,,,,,,,,0,0.514470100403,0.000892877578735,0.368057012558,1,w,558.182672024,,,,,,,,,,,,,,,,,,,,,,,,,,,,,,,,,,2015_Jul_06_1138,60.0283088672,LearningTask,1,57,
200,s,-200,,,,,,,,,,,,,,,,,1,0,1,0,1,1,5,2,,,,,,,,,,,,,,,,,,,,,,,,,,,,,s,1,None,0,1.0,crosscyan.gif,stop,,,,,,,,0.33399105072,,,,,,,,,,,,,,,,,,,,,,,,0.93,0.514256000519,0.000936031341553,0.33399105072,1,s,561.18643117,,,,,,,,,,,,,,,,,,,,,,,,,,,,,,,,,,2015_Jul_06_1138,60.0283088672,LearningTask,1,57,
200,s,-200,,,,,,,,,,,,,,,,,1,0,1,0,1,2,6,2,,,,,,,,,,,,,,,,,,,,,,,,,,,,,s,1,None,0,4.0,hexagonmagenta.gif,stop,,,,,,,,0.334183931351,,,,,,,,,,,,,,,,,,,,,,,,4.23,0.513673067093,0.000958919525146,0.334183931351,1,s,564.189619064,,,,,,,,,,,,,,,,,,,,,,,,,,,,,,,,,,2015_Jul_06_1138,60.0283088672,LearningTask,1,57,
200,s,-200,,,,,,,,,,,,,,,,,1,0,1,0,1,3,7,2,,,,,,,,,,,,,,,,,,,,,,,,,,,,,s,1,None,0,4.0,hexagonmagenta.gif,stop,,,,,,,,0.317276000977,,,,,,,,,,,,,,,,,,,,,,,,3.81,0.51438498497,0.000926971435547,0.317276000977,1,s,567.193068981,,,,,,,,,,,,,,,,,,,,,,,,,,,,,,,,,,2015_Jul_06_1138,60.0283088672,LearningTask,1,57,
-200,q,200,,,,,,,,,,,,,,,,,1,0,1,0,2,0,8,1,,,,,,,,,,,,,,,,,,,,,,,,,,,,,q,1,None,0,1.0,crosscyan.gif,stop,,,,,,,,0.617945194244,,,,,,,,,,,,,,,,,,,,,,,,0.93,0.51403594017,0.000901937484741,0.617945194244,1,q,570.196269989,,,,,,,,,,,,,,,,,,,,,,,,,,,,,,,,,,2015_Jul_06_1138,60.0283088672,LearningTask,1,57,
200,s,-200,,,,,,,,,,,,,,,,,1,0,1,0,2,1,9,2,,,,,,,,,,,,,,,,,,,,,,,,,,,,,s,1,None,0,0.5,circleorange.gif,stop,,,,,,,,0.318321943283,,,,,,,,,,,,,,,,,,,,,,,,0.65,0.513825178146,0.000916957855225,0.318321943283,1,s,573.199553967,,,,,,,,,,,,,,,,,,,,,,,,,,,,,,,,,,2015_Jul_06_1138,60.0283088672,LearningTask,1,57,
-200,a,-200,,,,,,,,,,,,,,,,,1,0,1,0,2,2,10,3,,,,,,,,,,,,,,,,,,,,,,,,,,,,,a,1,None,0,2.0,squaregray.gif,go,,,,,,,,0.450795173645,,,,,,,,,,,,,,,,,,,,,,,,0,0.514385938644,0.000926971435547,0.467679977417,0,q,576.202949047,0.509459018707,,,2.16,0.515534877777,0.000977039337158,0.450795173645,1,a,579.206886053,,,,,,,,,,,,,,,,,,,,,,,,2015_Jul_06_1138,60.0283088672,LearningTask,1,57,
-200,q,200,,,,,,,,,,,,,,,,,1,0,1,0,2,3,11,1,,,,,,,,,,,,,,,,,,,,,,,,,,,,,q,1,None,0,2.0,diamondgreen.gif,stop,,,,,,,,0.48410487175,,,,,,,,,,,,,,,,,,,,,,,,1.87,0.513507127762,0.000984907150269,0.48410487175,1,q,582.209797144,,,,,,,,,,,,,,,,,,,,,,,,,,,,,,,,,,2015_Jul_06_1138,60.0283088672,LearningTask,1,57,
200,w,200,,,,,,,,,,,,,,,,,1,0,1,0,3,0,12,0,,,,,,,,,,,,,,,,,,,,,,,,,,,,,w,1,None,0,4.0,hexagonmagenta.gif,stop,,,,,,,,0.484436988831,,,,,,,,,,,,,,,,,,,,,,,,3.95,0.514188051224,0.000951051712036,0.484436988831,1,w,585.212777138,,,,,,,,,,,,,,,,,,,,,,,,,,,,,,,,,,2015_Jul_06_1138,60.0283088672,LearningTask,1,57,
-200,a,-200,,,,,,,,,,,,,,,,,1,0,1,0,3,1,13,3,,,,,,,,,,,,,,,,,,,,,,,,,,,,,a,1,None,0,0.5,linewhite.gif,go,,,,,,,,0.384537935257,,,,,,,,,,,,,,,,,,,,,,,,0.55,0.514376878738,0.000890970230103,0.384537935257,1,a,588.217174053,,,,,,,,,,,,,,,,,,,,,,,,,,,,,,,,,,2015_Jul_06_1138,60.0283088672,LearningTask,1,57,
200,s,-200,,,,,,,,,,,,,,,,,1,0,1,0,3,2,14,2,,,,,,,,,,,,,,,,,,,,,,,,,,,,,s,1,None,0,1.0,crosscyan.gif,stop,,,,,,,,0.367562055588,,,,,,,,,,,,,,,,,,,,,,,,0.8,0.512931108475,0.000904083251953,0.367562055588,1,s,591.219694138,,,,,,,,,,,,,,,,,,,,,,,,,,,,,,,,,,2015_Jul_06_1138,60.0283088672,LearningTask,1,57,
200,w,200,,,,,,,,,,,,,,,,,1,0,1,0,3,3,15,0,,,,,,,,,,,,,,,,,,,,,,,,,,,,,w,1,None,0,4.0,hexagonmagenta.gif,stop,,,,,,,,0.451261997223,,,,,,,,,,,,,,,,,,,,,,,,4.22,0.514245033264,0.000951051712036,0.451261997223,1,w,594.222988129,,,,,,,,,,,,,,,,,,,,,,,,,,,,,,,,,,2015_Jul_06_1138,60.0283088672,LearningTask,1,57,
-200,q,200,,,,,,,,,,,,,,,,,1,0,1,0,4,0,16,1,,,,,,,,,,,,,,,,,,,,,,,,,,,,,q,1,None,0,1.0,invertedtriangleyellow.gif,go,,,,,,,,0.433969974518,,,,,,,,,,,,,,,,,,,,,,,,0.97,0.514491081238,0.000891923904419,0.433969974518,1,q,597.226984024,,,,,,,,,,,,,,,,,,,,,,,,,,,,,,,,,,2015_Jul_06_1138,60.0283088672,LearningTask,1,57,
-200,a,-200,,,,,,,,,,,,,,,,,1,0,1,0,4,1,17,3,,,,,,,,,,,,,,,,,,,,,,,,,,,,,a,1,None,0,0.5,circleorange.gif,stop,,,,,,,,0.38395690918,,,,,,,,,,,,,,,,,,,,,,,,0,0.513940095901,0.000900030136108,0.38395690918,1,a,600.230160952,,,,,,,,,,,,,,,,,,,,,,,,,,,,,,,,,,2015_Jul_06_1138,60.0283088672,LearningTask,1,57,
-200,a,-200,,,,,,,,,,,,,,,,,1,0,1,0,4,2,18,3,,,,,,,,,,,,,,,,,,,,,,,,,,,,,a,1,None,0,0.5,circleorange.gif,stop,,,,,,,,0.384136915207,,,,,,,,,,,,,,,,,,,,,,,,0.53,0.513998031616,0.00147700309753,0.384136915207,1,a,603.233566046,,,,,,,,,,,,,,,,,,,,,,,,,,,,,,,,,,2015_Jul_06_1138,60.0283088672,LearningTask,1,57,
200,w,200,,,,,,,,,,,,,,,,,1,0,1,0,4,3,19,0,,,,,,,,,,,,,,,,,,,,,,,,,,,,,w,1,None,0,4.0,triangleblue.gif,go,,,,,,,,0.451236963272,,,,,,,,,,,,,,,,,,,,,,,,4.05,0.513928174973,0.000874996185303,0.451236963272,1,w,606.236541033,,,,,,,,,,,,,,,,,,,,,,,,,,,,,,,,,,2015_Jul_06_1138,60.0283088672,LearningTask,1,57,
-200,a,-200,,,,,,,,,,,,,,,,,1,0,1,0,5,0,20,3,,,,,,,,,,,,,,,,,,,,,,,,,,,,,a,1,None,0,0.5,circleorange.gif,stop,,,,,,,,0.367410898209,,,,,,,,,,,,,,,,,,,,,,,,0.51,0.514341115952,0.000892162322998,0.367410898209,1,a,609.239719152,,,,,,,,,,,,,,,,,,,,,,,,,,,,,,,,,,2015_Jul_06_1138,60.0283088672,LearningTask,1,57,
200,s,-200,,,,,,,,,,,,,,,,,1,0,1,0,5,1,21,2,,,,,,,,,,,,,,,,,,,,,,,,,,,,,s,1,None,0,1.0,crosscyan.gif,stop,,,,,,,,0.334270000458,,,,,,,,,,,,,,,,,,,,,,,,0.81,0.514117002487,0.00107598304749,0.334270000458,1,s,612.243463039,,,,,,,,,,,,,,,,,,,,,,,,,,,,,,,,,,2015_Jul_06_1138,60.0283088672,LearningTask,1,57,
-200,q,200,,,,,,,,,,,,,,,,,1,0,1,0,5,2,22,1,,,,,,,,,,,,,,,,,,,,,,,,,,,,,q,1,None,0,0.5,linewhite.gif,go,,,,,,,,0.334563016891,,,,,,,,,,,,,,,,,,,,,,,,0.68,0.514211177826,0.000877141952515,0.334563016891,1,q,615.246538162,,,,,,,,,,,,,,,,,,,,,,,,,,,,,,,,,,2015_Jul_06_1138,60.0283088672,LearningTask,1,57,
-200,q,200,,,,,,,,,,,,,,,,,1,0,1,0,5,3,23,1,,,,,,,,,,,,,,,,,,,,,,,,,,,,,q,1,None,0,2.0,diamondgreen.gif,stop,,,,,,,,0.451275110245,,,,,,,,,,,,,,,,,,,,,,,,2.0,0.514297008514,0.000879049301147,0.451275110245,1,q,618.250456095,,,,,,,,,,,,,,,,,,,,,,,,,,,,,,,,,,2015_Jul_06_1138,60.0283088672,LearningTask,1,57,
200,w,200,,,,,,,,,,,,,,,,,1,0,1,0,6,0,24,0,,,,,,,,,,,,,,,,,,,,,,,,,,,,,w,1,None,0,0.5,circleorange.gif,stop,,,,,,,,0.384527921677,,,,,,,,,,,,,,,,,,,,,,,,0.28,0.513102054596,0.00090217590332,0.384527921677,1,w,621.253241062,,,,,,,,,,,,,,,,,,,,,,,,,,,,,,,,,,2015_Jul_06_1138,60.0283088672,LearningTask,1,57,
200,s,-200,,,,,,,,,,,,,,,,,1,0,1,0,6,1,25,2,,,,,,,,,,,,,,,,,,,,,,,,,,,,,s,1,None,0,2.0,diamondgreen.gif,stop,,,,,,,,0.334608793259,,,,,,,,,,,,,,,,,,,,,,,,1.78,0.51394701004,0.000878095626831,0.334608793259,1,s,624.256626129,,,,,,,,,,,,,,,,,,,,,,,,,,,,,,,,,,2015_Jul_06_1138,60.0283088672,LearningTask,1,57,
200,w,200,,,,,,,,,,,,,,,,,1,0,1,0,6,2,26,0,,,,,,,,,,,,,,,,,,,,,,,,,,,,,w,1,None,0,1.0,invertedtriangleyellow.gif,go,,,,,,,,0.36741399765,,,,,,,,,,,,,,,,,,,,,,,,1.1,0.514302015305,0.000898122787476,0.36741399765,1,w,627.260317087,,,,,,,,,,,,,,,,,,,,,,,,,,,,,,,,,,2015_Jul_06_1138,60.0283088672,LearningTask,1,57,
200,w,200,,,,,,,,,,,,,,,,,1,0,1,0,6,3,27,0,,,,,,,,,,,,,,,,,,,,,,,,,,,,,w,1,None,0,1.0,crosscyan.gif,stop,,,,,,,,0.384007930756,,,,,,,,,,,,,,,,,,,,,,,,0.92,0.51392698288,0.000875949859619,0.384007930756,1,w,630.263277054,,,,,,,,,,,,,,,,,,,,,,,,,,,,,,,,,,2015_Jul_06_1138,60.0283088672,LearningTask,1,57,
-200,q,200,,,,,,,,,,,,,,,,,1,0,1,0,7,0,28,1,,,,,,,,,,,,,,,,,,,,,,,,,,,,,q,1,None,0,1.0,crosscyan.gif,stop,,,,,,,,0.367887020111,,,,,,,,,,,,,,,,,,,,,,,,0.83,0.514342069626,0.000956058502197,0.367887020111,1,q,633.267110109,,,,,,,,,,,,,,,,,,,,,,,,,,,,,,,,,,2015_Jul_06_1138,60.0283088672,LearningTask,1,57,
200,s,-200,,,,,,,,,,,,,,,,,1,0,1,0,7,1,29,2,,,,,,,,,,,,,,,,,,,,,,,,,,,,,s,1,None,0,4.0,triangleblue.gif,go,,,,,,,,0.36757516861,,,,,,,,,,,,,,,,,,,,,,,,0,0.513944864273,0.000871896743774,0.36757516861,1,s,636.270437956,,,,,,,,,,,,,,,,,,,,,,,,,,,,,,,,,,2015_Jul_06_1138,60.0283088672,LearningTask,1,57,
200,s,-200,,,,,,,,,,,,,,,,,1,0,1,0,7,2,30,2,,,,,,,,,,,,,,,,,,,,,,,,,,,,,s,1,None,0,4.0,triangleblue.gif,go,,,,,,,,0.367202997208,,,,,,,,,,,,,,,,,,,,,,,,3.85,0.513874053955,0.00089693069458,0.367202997208,1,s,639.27343297,,,,,,,,,,,,,,,,,,,,,,,,,,,,,,,,,,2015_Jul_06_1138,60.0283088672,LearningTask,1,57,
-200,a,-200,,,,,,,,,,,,,,,,,1,0,1,0,7,3,31,3,,,,,,,,,,,,,,,,,,,,,,,,,,,,,a,1,None,0,2.0,squaregray.gif,go,,,,,,,,0.417457103729,,,,,,,,,,,,,,,,,,,,,,,,1.86,0.51425909996,0.00122213363647,0.417457103729,1,a,642.276710987,,,,,,,,,,,,,,,,,,,,,,,,,,,,,,,,,,2015_Jul_06_1138,60.0283088672,LearningTask,1,57,
200,s,-200,,,,,,,,,,,,,,,,,1,0,1,0,8,0,32,2,,,,,,,,,,,,,,,,,,,,,,,,,,,,,s,1,None,0,0.5,linewhite.gif,go,,,,,,,,0.35089802742,,,,,,,,,,,,,,,,,,,,,,,,0.73,0.514508008957,0.000875949859619,0.35089802742,1,s,645.280293941,,,,,,,,,,,,,,,,,,,,,,,,,,,,,,,,,,2015_Jul_06_1138,60.0283088672,LearningTask,1,57,
200,s,-200,,,,,,,,,,,,,,,,,1,0,1,0,8,1,33,2,,,,,,,,,,,,,,,,,,,,,,,,,,,,,s,1,None,0,1.0,crosscyan.gif,stop,,,,,,,,0.334290027618,,,,,,,,,,,,,,,,,,,,,,,,0.83,0.514178037643,0.000887155532837,0.334290027618,1,s,648.283215046,,,,,,,,,,,,,,,,,,,,,,,,,,,,,,,,,,2015_Jul_06_1138,60.0283088672,LearningTask,1,57,
-200,a,-200,,,,,,,,,,,,,,,,,1,0,1,0,8,2,34,3,,,,,,,,,,,,,,,,,,,,,,,,,,,,,a,1,None,0,1.0,invertedtriangleyellow.gif,go,,,,,,,,0.416887998581,,,,,,,,,,,,,,,,,,,,,,,,0.84,0.51507806778,0.00110697746277,0.416887998581,1,a,651.286627054,,,,,,,,,,,,,,,,,,,,,,,,,,,,,,,,,,2015_Jul_06_1138,60.0283088672,LearningTask,1,57,
200,w,200,,,,,,,,,,,,,,,,,1,0,1,0,8,3,35,0,,,,,,,,,,,,,,,,,,,,,,,,,,,,,w,1,None,0,0.5,circleorange.gif,stop,,,,,,,,0.567902088165,,,,,,,,,,,,,,,,,,,,,,,,0.26,0.514541149139,0.000879049301147,0.567902088165,1,w,654.290363073,,,,,,,,,,,,,,,,,,,,,,,,,,,,,,,,,,2015_Jul_06_1138,60.0283088672,LearningTask,1,57,
200,w,200,,,,,,,,,,,,,,,,,1,0,1,0,9,0,36,0,,,,,,,,,,,,,,,,,,,,,,,,,,,,,w,1,None,0,4.0,triangleblue.gif,go,,,,,,,,0.450707197189,,,,,,,,,,,,,,,,,,,,,,,,4.15,0.514205932617,0.000870943069458,0.450707197189,1,w,657.293583155,,,,,,,,,,,,,,,,,,,,,,,,,,,,,,,,,,2015_Jul_06_1138,60.0283088672,LearningTask,1,57,
200,s,-200,,,,,,,,,,,,,,,,,1,0,1,0,9,1,37,2,,,,,,,,,,,,,,,,,,,,,,,,,,,,,s,1,None,0,2.0,diamondgreen.gif,stop,,,,,,,,0.350989818573,,,,,,,,,,,,,,,,,,,,,,,,2.2,0.513871192932,0.000935077667236,0.350989818573,1,s,660.296947956,,,,,,,,,,,,,,,,,,,,,,,,,,,,,,,,,,2015_Jul_06_1138,60.0283088672,LearningTask,1,57,
-200,q,200,,,,,,,,,,,,,,,,,1,0,1,0,9,2,38,1,,,,,,,,,,,,,,,,,,,,,,,,,,,,,q,1,None,0,0.5,linewhite.gif,go,,,,,,,,0.501019954681,,,,,,,,,,,,,,,,,,,,,,,,0.41,0.514425992966,0.000885009765625,0.501019954681,1,q,663.300294161,,,,,,,,,,,,,,,,,,,,,,,,,,,,,,,,,,2015_Jul_06_1138,60.0283088672,LearningTask,1,57,
-200,q,200,,,,,,,,,,,,,,,,,1,0,1,0,9,3,39,1,,,,,,,,,,,,,,,,,,,,,,,,,,,,,q,1,None,0,1.0,crosscyan.gif,stop,,,,,,,,0.384228944778,,,,,,,,,,,,,,,,,,,,,,,,1.15,0.514054059982,0.000960111618042,0.384228944778,1,q,666.303802967,,,,,,,,,,,,,,,,,,,,,,,,,,,,,,,,,,2015_Jul_06_1138,60.0283088672,LearningTask,1,57,
-200,q,200,,,,,,,,,,,,,,,,,1,0,1,0,10,0,40,1,,,,,,,,,,,,,,,,,,,,,,,,,,,,,q,1,None,0,2.0,squaregray.gif,go,,,,,,,,0.350864887238,,,,,,,,,,,,,,,,,,,,,,,,2.2,0.51372718811,0.000893115997314,0.350864887238,1,q,669.306930065,,,,,,,,,,,,,,,,,,,,,,,,,,,,,,,,,,2015_Jul_06_1138,60.0283088672,LearningTask,1,57,
-200,a,-200,,,,,,,,,,,,,,,,,1,0,1,0,10,1,41,3,,,,,,,,,,,,,,,,,,,,,,,,,,,,,a,1,None,0,0.5,linewhite.gif,go,,,,,,,,0.417744874954,,,,,,,,,,,,,,,,,,,,,,,,0.71,0.514129161835,0.000869989395142,0.417744874954,1,a,672.310297966,,,,,,,,,,,,,,,,,,,,,,,,,,,,,,,,,,2015_Jul_06_1138,60.0283088672,LearningTask,1,57,
200,w,200,,,,,,,,,,,,,,,,,1,0,1,0,10,2,42,0,,,,,,,,,,,,,,,,,,,,,,,,,,,,,w,1,None,0,1.0,crosscyan.gif,stop,,,,,,,,0.350870847702,,,,,,,,,,,,,,,,,,,,,,,,0,0.514385938644,0.000916004180908,0.350870847702,1,w,675.31396699,,,,,,,,,,,,,,,,,,,,,,,,,,,,,,,,,,2015_Jul_06_1138,60.0283088672,LearningTask,1,57,
200,w,200,,,,,,,,,,,,,,,,,1,0,1,0,10,3,43,0,,,,,,,,,,,,,,,,,,,,,,,,,,,,,w,1,None,0,0.5,linewhite.gif,go,,,,,,,,0.400576114655,,,,,,,,,,,,,,,,,,,,,,,,0.55,0.513735055923,0.000895023345947,0.400576114655,1,w,678.317290068,,,,,,,,,,,,,,,,,,,,,,,,,,,,,,,,,,2015_Jul_06_1138,60.0283088672,LearningTask,1,57,
200,w,200,,,,,,,,,,,,,,,,,1,0,1,0,11,0,44,0,,,,,,,,,,,,,,,,,,,,,,,,,,,,,w,1,None,0,4.0,triangleblue.gif,go,,,,,,,,0.334407091141,,,,,,,,,,,,,,,,,,,,,,,,4.2,0.514003992081,0.000952005386353,0.334407091141,1,w,681.320687056,,,,,,,,,,,,,,,,,,,,,,,,,,,,,,,,,,2015_Jul_06_1138,60.0283088672,LearningTask,1,57,
200,w,200,,,,,,,,,,,,,,,,,1,0,1,0,11,1,45,0,,,,,,,,,,,,,,,,,,,,,,,,,,,,,w,1,None,0,1.0,invertedtriangleyellow.gif,go,,,,,,,,0.367399930954,,,,,,,,,,,,,,,,,,,,,,,,0.93,0.514121055603,0.000874042510986,0.367399930954,1,w,684.324095011,,,,,,,,,,,,,,,,,,,,,,,,,,,,,,,,,,2015_Jul_06_1138,60.0283088672,LearningTask,1,57,
200,s,-200,,,,,,,,,,,,,,,,,1,0,1,0,11,2,46,2,,,,,,,,,,,,,,,,,,,,,,,,,,,,,s,1,None,0,1.0,invertedtriangleyellow.gif,go,,,,,,,,0.400840997696,,,,,,,,,,,,,,,,,,,,,,,,1.13,0.514011859894,0.000900983810425,0.400840997696,1,s,687.32717514,,,,,,,,,,,,,,,,,,,,,,,,,,,,,,,,,,2015_Jul_06_1138,60.0283088672,LearningTask,1,57,
-200,a,-200,,,,,,,,,,,,,,,,,1,0,1,0,11,3,47,3,,,,,,,,,,,,,,,,,,,,,,,,,,,,,a,1,None,0,0.5,circleorange.gif,stop,,,,,,,,0.400948047638,,,,,,,,,,,,,,,,,,,,,,,,0,0.514144897461,0.000962018966675,0.400948047638,1,a,690.330472946,,,,,,,,,,,,,,,,,,,,,,,,,,,,,,,,,,2015_Jul_06_1138,60.0283088672,LearningTask,1,57,
200,w,200,,,,,,,,,,,,,,,,,1,0,1,0,12,0,48,0,,,,,,,,,,,,,,,,,,,,,,,,,,,,,w,1,None,0,4.0,triangleblue.gif,go,,,,,,,,0.300770044327,,,,,,,,,,,,,,,,,,,,,,,,4.02,0.514471054077,0.00119805335999,0.300770044327,1,w,693.333884954,,,,,,,,,,,,,,,,,,,,,,,,,,,,,,,,,,2015_Jul_06_1138,60.0283088672,LearningTask,1,57,
-200,q,200,,,,,,,,,,,,,,,,,1,0,1,0,12,1,49,1,,,,,,,,,,,,,,,,,,,,,,,,,,,,,q,1,None,0,0.5,linewhite.gif,go,,,,,,,,0.401196956635,,,,,,,,,,,,,,,,,,,,,,,,0.38,0.51434803009,0.000884056091309,0.401196956635,1,q,696.337203979,,,,,,,,,,,,,,,,,,,,,,,,,,,,,,,,,,2015_Jul_06_1138,60.0283088672,LearningTask,1,57,
-200,a,-200,,,,,,,,,,,,,,,,,1,0,1,0,12,2,50,3,,,,,,,,,,,,,,,,,,,,,,,,,,,,,a,1,None,0,4.0,hexagonmagenta.gif,stop,,,,,,,,0.367240905762,,,,,,,,,,,,,,,,,,,,,,,,3.87,0.514646053314,0.0010130405426,0.367240905762,1,a,699.340986013,,,,,,,,,,,,,,,,,,,,,,,,,,,,,,,,,,2015_Jul_06_1138,60.0283088672,LearningTask,1,57,
200,w,200,,,,,,,,,,,,,,,,,1,0,1,0,12,3,51,0,,,,,,,,,,,,,,,,,,,,,,,,,,,,,w,1,None,0,1.0,crosscyan.gif,stop,,,,,,,,0.333899974823,,,,,,,,,,,,,,,,,,,,,,,,1.0,0.513972043991,0.000882863998413,0.333899974823,1,w,702.343954086,,,,,,,,,,,,,,,,,,,,,,,,,,,,,,,,,,2015_Jul_06_1138,60.0283088672,LearningTask,1,57,
-200,a,-200,,,,,,,,,,,,,,,,,1,0,1,0,13,0,52,3,,,,,,,,,,,,,,,,,,,,,,,,,,,,,a,1,None,0,0.5,linewhite.gif,go,,,,,,,,0.40083694458,,,,,,,,,,,,,,,,,,,,,,,,0.43,0.514270067215,0.000883102416992,0.40083694458,1,a,705.347401142,,,,,,,,,,,,,,,,,,,,,,,,,,,,,,,,,,2015_Jul_06_1138,60.0283088672,LearningTask,1,57,
200,w,200,,,,,,,,,,,,,,,,,1,0,1,0,13,1,53,0,,,,,,,,,,,,,,,,,,,,,,,,,,,,,w,1,None,0,2.0,squaregray.gif,go,,,,,,,,0.333891153336,,,,,,,,,,,,,,,,,,,,,,,,1.77,0.51398396492,0.00103497505188,0.333891153336,1,w,708.350610971,,,,,,,,,,,,,,,,,,,,,,,,,,,,,,,,,,2015_Jul_06_1138,60.0283088672,LearningTask,1,57,
-200,a,-200,,,,,,,,,,,,,,,,,1,0,1,0,13,2,54,3,,,,,,,,,,,,,,,,,,,,,,,,,,,,,a,1,None,0,0.5,linewhite.gif,go,,,,,,,,0.417115926743,,,,,,,,,,,,,,,,,,,,,,,,0.39,0.514704942703,0.00088095664978,0.417115926743,1,a,711.354333162,,,,,,,,,,,,,,,,,,,,,,,,,,,,,,,,,,2015_Jul_06_1138,60.0283088672,LearningTask,1,57,
-200,q,200,,,,,,,,,,,,,,,,,1,0,1,0,13,3,55,1,,,,,,,,,,,,,,,,,,,,,,,,,,,,,q,1,None,0,0.5,circleorange.gif,stop,,,,,,,,0.41787314415,,,,,,,,,,,,,,,,,,,,,,,,0,0.513921022415,0.00117206573486,0.41787314415,1,q,714.357831001,,,,,,,,,,,,,,,,,,,,,,,,,,,,,,,,,,2015_Jul_06_1138,60.0283088672,LearningTask,1,57,
-200,q,200,,,,,,,,,,,,,,,,,1,0,1,0,14,0,56,1,,,,,,,,,,,,,,,,,,,,,,,,,,,,,q,1,None,0,1.0,invertedtriangleyellow.gif,go,,,,,,,,0.350834846497,,,,,,,,,,,,,,,,,,,,,,,,1.21,0.513547182083,0.000905990600586,0.350834846497,1,q,717.360568047,,,,,,,,,,,,,,,,,,,,,,,,,,,,,,,,,,2015_Jul_06_1138,60.0283088672,LearningTask,1,57,
-200,a,-200,,,,,,,,,,,,,,,,,1,0,1,0,14,1,57,3,,,,,,,,,,,,,,,,,,,,,,,,,,,,,a,1,None,0,1.0,invertedtriangleyellow.gif,go,,,,,,,,0.418068885803,,,,,,,,,,,,,,,,,,,,,,,,0,0.514388084412,0.000895977020264,0.418068885803,1,a,720.364381075,,,,,,,,,,,,,,,,,,,,,,,,,,,,,,,,,,2015_Jul_06_1138,60.0283088672,LearningTask,1,57,
200,s,-200,,,,,,,,,,,,,,,,,1,0,1,0,14,2,58,2,,,,,,,,,,,,,,,,,,,,,,,,,,,,,s,1,None,0,0.5,circleorange.gif,stop,,,,,,,,0.384186983109,,,,,,,,,,,,,,,,,,,,,,,,0,0.513997077942,0.000888109207153,0.384186983109,1,s,723.367619991,,,,,,,,,,,,,,,,,,,,,,,,,,,,,,,,,,2015_Jul_06_1138,60.0283088672,LearningTask,1,57,
-200,a,-200,,,,,,,,,,,,,,,,,1,0,1,0,14,3,59,3,,,,,,,,,,,,,,,,,,,,,,,,,,,,,a,1,None,0,2.0,diamondgreen.gif,stop,,,,,,,,0.634238004684,,,,,,,,,,,,,,,,,,,,,,,,2.11,0.51388502121,0.000904083251953,0.634238004684,1,a,726.370766163,,,,,,,,,,,,,,,,,,,,,,,,,,,,,,,,,,2015_Jul_06_1138,60.0283088672,LearningTask,1,57,
200,w,200,,,,,,,,,,,,,,,,,1,0,1,0,15,0,60,0,,,,,,,,,,,,,,,,,,,,,,,,,,,,,w,1,None,0,0.5,linewhite.gif,go,,,,,,,,0.400880813599,,,,,,,,,,,,,,,,,,,,,,,,0.28,0.514223098755,0.000994920730591,0.400880813599,1,w,729.373847008,,,,,,,,,,,,,,,,,,,,,,,,,,,,,,,,,,2015_Jul_06_1138,60.0283088672,LearningTask,1,57,
200,s,-200,,,,,,,,,,,,,,,,,1,0,1,0,15,1,61,2,,,,,,,,,,,,,,,,,,,,,,,,,,,,,s,1,None,0,2.0,diamondgreen.gif,stop,,,,,,,,0.367075204849,,,,,,,,,,,,,,,,,,,,,,,,1.92,0.514947891235,0.000888824462891,0.367075204849,1,s,732.378121138,,,,,,,,,,,,,,,,,,,,,,,,,,,,,,,,,,2015_Jul_06_1138,60.0283088672,LearningTask,1,57,
200,s,-200,,,,,,,,,,,,,,,,,1,0,1,0,15,2,62,2,,,,,,,,,,,,,,,,,,,,,,,,,,,,,s,1,None,0,4.0,hexagonmagenta.gif,stop,,,,,,,,0.351090908051,,,,,,,,,,,,,,,,,,,,,,,,3.83,0.513621091843,0.000888109207153,0.351090908051,1,s,735.380856037,,,,,,,,,,,,,,,,,,,,,,,,,,,,,,,,,,2015_Jul_06_1138,60.0283088672,LearningTask,1,57,
-200,q,200,,,,,,,,,,,,,,,,,1,0,1,0,15,3,63,1,,,,,,,,,,,,,,,,,,,,,,,,,,,,,q,1,None,0,4.0,triangleblue.gif,go,,,,,,,,0.567713975906,,,,,,,,,,,,,,,,,,,,,,,,4.23,0.514214038849,0.000946044921875,0.567713975906,1,q,738.384233952,,,,,,,,,,,,,,,,,,,,,,,,,,,,,,,,,,2015_Jul_06_1138,60.0283088672,LearningTask,1,57,
200,w,200,,,,,,,,,,,,,,,,,1,0,1,0,16,0,64,0,,,,,,,,,,,,,,,,,,,,,,,,,,,,,w,1,None,0,1.0,crosscyan.gif,stop,,,,,,,,0.451440811157,,,,,,,,,,,,,,,,,,,,,,,,0.88,0.514031171799,0.000886201858521,0.451440811157,1,w,741.387621164,,,,,,,,,,,,,,,,,,,,,,,,,,,,,,,,,,2015_Jul_06_1138,60.0283088672,LearningTask,1,57,
-200,a,-200,,,,,,,,,,,,,,,,,1,0,1,0,16,1,65,3,,,,,,,,,,,,,,,,,,,,,,,,,,,,,a,1,None,0,1.0,crosscyan.gif,stop,,,,,,,,0.384002923965,,,,,,,,,,,,,,,,,,,,,,,,1.04,0.514569044113,0.000885009765625,0.384002923965,1,a,744.390866041,,,,,,,,,,,,,,,,,,,,,,,,,,,,,,,,,,2015_Jul_06_1138,60.0283088672,LearningTask,1,57,
-200,q,200,,,,,,,,,,,,,,,,,1,0,1,0,16,2,66,1,,,,,,,,,,,,,,,,,,,,,,,,,,,,,q,1,None,0,1.0,crosscyan.gif,stop,,,,,,,,0.517899036407,,,,,,,,,,,,,,,,,,,,,,,,0.81,0.514053106308,0.00112509727478,0.517899036407,1,q,747.394606113,,,,,,,,,,,,,,,,,,,,,,,,,,,,,,,,,,2015_Jul_06_1138,60.0283088672,LearningTask,1,57,
200,s,-200,,,,,,,,,,,,,,,,,1,0,1,0,16,3,67,2,,,,,,,,,,,,,,,,,,,,,,,,,,,,,s,1,None,0,0.5,circleorange.gif,stop,,,,,,,,0.333798885345,,,,,,,,,,,,,,,,,,,,,,,,0.49,0.514061927795,0.000887870788574,0.333798885345,1,s,750.397618055,,,,,,,,,,,,,,,,,,,,,,,,,,,,,,,,,,2015_Jul_06_1138,60.0283088672,LearningTask,1,57,
-200,a,-200,,,,,,,,,,,,,,,,,1,0,1,0,17,0,68,3,,,,,,,,,,,,,,,,,,,,,,,,,,,,,a,1,None,0,4.0,hexagonmagenta.gif,stop,,,,,,,,0.434066057205,,,,,,,,,,,,,,,,,,,,,,,,4.12,0.514355897903,0.000875949859619,0.434066057205,1,a,753.401064157,,,,,,,,,,,,,,,,,,,,,,,,,,,,,,,,,,2015_Jul_06_1138,60.0283088672,LearningTask,1,57,
200,s,-200,,,,,,,,,,,,,,,,,1,0,1,0,17,1,69,2,,,,,,,,,,,,,,,,,,,,,,,,,,,,,s,1,None,0,4.0,hexagonmagenta.gif,stop,,,,,,,,0.317533969879,,,,,,,,,,,,,,,,,,,,,,,,3.88,0.514021873474,0.00108790397644,0.317533969879,1,s,756.404348135,,,,,,,,,,,,,,,,,,,,,,,,,,,,,,,,,,2015_Jul_06_1138,60.0283088672,LearningTask,1,57,
-200,q,200,,,,,,,,,,,,,,,,,1,0,1,0,17,2,70,1,,,,,,,,,,,,,,,,,,,,,,,,,,,,,q,1,None,0,2.0,diamondgreen.gif,stop,,,,,,,,0.684494972229,,,,,,,,,,,,,,,,,,,,,,,,0,0.514499902725,0.000876903533936,0.684494972229,1,q,759.407565117,,,,,,,,,,,,,,,,,,,,,,,,,,,,,,,,,,2015_Jul_06_1138,60.0283088672,LearningTask,1,57,
-200,a,-200,,,,,,,,,,,,,,,,,1,0,1,0,17,3,71,3,,,,,,,,,,,,,,,,,,,,,,,,,,,,,a,1,None,0,4.0,hexagonmagenta.gif,stop,,,,,,,,0.367647886276,,,,,,,,,,,,,,,,,,,,,,,,4.24,0.514241933823,0.000895023345947,0.367647886276,1,a,762.411503077,,,,,,,,,,,,,,,,,,,,,,,,,,,,,,,,,,2015_Jul_06_1138,60.0283088672,LearningTask,1,57,
200,s,-200,,,,,,,,,,,,,,,,,1,0,1,0,18,0,72,2,,,,,,,,,,,,,,,,,,,,,,,,,,,,,s,1,None,0,2.0,squaregray.gif,go,,,,,,,,0.334444046021,,,,,,,,,,,,,,,,,,,,,,,,1.82,0.513252019882,0.000885963439941,0.334444046021,1,s,765.414358139,,,,,,,,,,,,,,,,,,,,,,,,,,,,,,,,,,2015_Jul_06_1138,60.0283088672,LearningTask,1,57,
200,s,-200,,,,,,,,,,,,,,,,,1,0,1,0,18,1,73,2,,,,,,,,,,,,,,,,,,,,,,,,,,,,,s,1,None,0,2.0,squaregray.gif,go,,,,,,,,0.334868907928,,,,,,,,,,,,,,,,,,,,,,,,1.88,0.514400005341,0.000879049301147,0.334868907928,1,s,768.41774416,,,,,,,,,,,,,,,,,,,,,,,,,,,,,,,,,,2015_Jul_06_1138,60.0283088672,LearningTask,1,57,
-200,a,-200,,,,,,,,,,,,,,,,,1,0,1,0,18,2,74,3,,,,,,,,,,,,,,,,,,,,,,,,,,,,,a,1,None,0,0.5,linewhite.gif,go,,,,,,,,0.450755119324,,,,,,,,,,,,,,,,,,,,,,,,0.26,0.514253854752,0.000964879989624,0.450755119324,1,a,771.421431065,,,,,,,,,,,,,,,,,,,,,,,,,,,,,,,,,,2015_Jul_06_1138,60.0283088672,LearningTask,1,57,
-200,q,200,,,,,,,,,,,,,,,,,1,0,1,0,18,3,75,1,,,,,,,,,,,,,,,,,,,,,,,,,,,,,q,1,None,0,1.0,invertedtriangleyellow.gif,go,,,,,,,,0.417601108551,,,,,,,,,,,,,,,,,,,,,,,,1.2,0.513757944107,0.000898122787476,0.417601108551,1,q,774.424457073,,,,,,,,,,,,,,,,,,,,,,,,,,,,,,,,,,2015_Jul_06_1138,60.0283088672,LearningTask,1,57,
-200,a,-200,,,,,,,,,,,,,,,,,1,0,1,0,19,0,76,3,,,,,,,,,,,,,,,,,,,,,,,,,,,,,a,1,None,0,2.0,diamondgreen.gif,stop,,,,,,,,0.367720127106,,,,,,,,,,,,,,,,,,,,,,,,2.08,0.514323949814,0.000957012176514,0.367720127106,1,a,777.428281069,,,,,,,,,,,,,,,,,,,,,,,,,,,,,,,,,,2015_Jul_06_1138,60.0283088672,LearningTask,1,57,
200,w,200,,,,,,,,,,,,,,,,,1,0,1,0,19,1,77,0,,,,,,,,,,,,,,,,,,,,,,,,,,,,,w,1,None,0,0.5,linewhite.gif,go,,,,,,,,0.384428024292,,,,,,,,,,,,,,,,,,,,,,,,0.56,0.51383805275,0.000876903533936,0.384428024292,1,w,780.431579113,,,,,,,,,,,,,,,,,,,,,,,,,,,,,,,,,,2015_Jul_06_1138,60.0283088672,LearningTask,1,57,
-200,a,-200,,,,,,,,,,,,,,,,,1,0,1,0,19,2,78,3,,,,,,,,,,,,,,,,,,,,,,,,,,,,,a,1,None,0,2.0,diamondgreen.gif,stop,,,,,,,,0.351052045822,,,,,,,,,,,,,,,,,,,,,,,,0,0.513533115387,0.000897169113159,0.351052045822,1,a,783.43444109,,,,,,,,,,,,,,,,,,,,,,,,,,,,,,,,,,2015_Jul_06_1138,60.0283088672,LearningTask,1,57,
-200,a,-200,,,,,,,,,,,,,,,,,1,0,1,0,19,3,79,3,,,,,,,,,,,,,,,,,,,,,,,,,,,,,a,1,None,0,2.0,squaregray.gif,go,,,,,,,,0.384051084518,,,,,,,,,,,,,,,,,,,,,,,,1.92,0.514387845993,0.00092601776123,0.384051084518,1,a,786.437973976,,,,,,,,,,,,,,,,,,,,,,,,,,,,,,,,,,2015_Jul_06_1138,60.0283088672,LearningTask,1,57,
200,s,-200,,,,,,,,,,,,,,,,,1,0,1,0,20,0,80,2,,,,,,,,,,,,,,,,,,,,,,,,,,,,,s,1,None,0,2.0,squaregray.gif,go,,,,,,,,0.284173965454,,,,,,,,,,,,,,,,,,,,,,,,0,0.514302968979,0.000882863998413,0.284173965454,1,s,789.441669941,,,,,,,,,,,,,,,,,,,,,,,,,,,,,,,,,,2015_Jul_06_1138,60.0283088672,LearningTask,1,57,
200,w,200,,,,,,,,,,,,,,,,,1,0,1,0,20,1,81,0,,,,,,,,,,,,,,,,,,,,,,,,,,,,,w,1,None,0,1.0,crosscyan.gif,stop,,,,,,,,0.400871992111,,,,,,,,,,,,,,,,,,,,,,,,1.02,0.513882160187,0.000890016555786,0.400871992111,1,w,792.444988012,,,,,,,,,,,,,,,,,,,,,,,,,,,,,,,,,,2015_Jul_06_1138,60.0283088672,LearningTask,1,57,
200,s,-200,,,,,,,,,,,,,,,,,1,0,1,0,20,2,82,2,,,,,,,,,,,,,,,,,,,,,,,,,,,,,s,1,None,0,0.5,circleorange.gif,stop,,,,,,,,0.284163951874,,,,,,,,,,,,,,,,,,,,,,,,0.65,0.513692855835,0.00117778778076,0.284163951874,1,s,795.448347092,,,,,,,,,,,,,,,,,,,,,,,,,,,,,,,,,,2015_Jul_06_1138,60.0283088672,LearningTask,1,57,
-200,q,200,,,,,,,,,,,,,,,,,1,0,1,0,20,3,83,1,,,,,,,,,,,,,,,,,,,,,,,,,,,,,q,1,None,0,2.0,squaregray.gif,go,,,,,,,,0.368092060089,,,,,,,,,,,,,,,,,,,,,,,,0,0.513638019562,0.000887155532837,0.368092060089,1,q,798.451298952,,,,,,,,,,,,,,,,,,,,,,,,,,,,,,,,,,2015_Jul_06_1138,60.0283088672,LearningTask,1,57,
-200,a,-200,,,,,,,,,,,,,,,,,1,0,1,0,21,0,84,3,,,,,,,,,,,,,,,,,,,,,,,,,,,,,a,1,None,0,1.0,crosscyan.gif,stop,,,,,,,,0.55121421814,,,,,,,,,,,,,,,,,,,,,,,,0,0.514397144318,0.000875949859619,0.55121421814,1,a,801.454703093,,,,,,,,,,,,,,,,,,,,,,,,,,,,,,,,,,2015_Jul_06_1138,60.0283088672,LearningTask,1,57,
200,s,-200,,,,,,,,,,,,,,,,,1,0,1,0,21,1,85,2,,,,,,,,,,,,,,,,,,,,,,,,,,,,,s,1,None,0,2.0,squaregray.gif,go,,,,,,,,0.334256887436,,,,,,,,,,,,,,,,,,,,,,,,0,0.513991117477,0.000925064086914,0.334256887436,1,s,804.458430052,,,,,,,,,,,,,,,,,,,,,,,,,,,,,,,,,,2015_Jul_06_1138,60.0283088672,LearningTask,1,57,
200,w,200,,,,,,,,,,,,,,,,,1,0,1,0,21,2,86,0,,,,,,,,,,,,,,,,,,,,,,,,,,,,,w,1,None,0,4.0,hexagonmagenta.gif,stop,,,,,,,,0.551498174667,,,,,,,,,,,,,,,,,,,,,,,,0,0.514037847519,0.000887870788574,0.334273099899,0,s,807.46145606,,,,4.18,0.515234947205,0.000946044921875,0.551498174667,1,w,810.464552164,,,,,,,,,,,,,,,,,,,,,,,,2015_Jul_06_1138,60.0283088672,LearningTask,1,57,
-200,q,200,,,,,,,,,,,,,,,,,1,0,1,0,21,3,87,1,,,,,,,,,,,,,,,,,,,,,,,,,,,,,q,1,None,0,0.5,circleorange.gif,stop,,,,,,,,0.401563167572,,,,,,,,,,,,,,,,,,,,,,,,0.67,0.514083862305,0.000919818878174,0.401563167572,1,q,813.468237162,,,,,,,,,,,,,,,,,,,,,,,,,,,,,,,,,,2015_Jul_06_1138,60.0283088672,LearningTask,1,57,
-200,q,200,,,,,,,,,,,,,,,,,1,0,1,0,22,0,88,1,,,,,,,,,,,,,,,,,,,,,,,,,,,,,q,1,None,0,2.0,squaregray.gif,go,,,,,,,,0.367341041565,,,,,,,,,,,,,,,,,,,,,,,,2.18,0.514330148697,0.000890016555786,0.367341041565,1,q,816.471452951,,,,,,,,,,,,,,,,,,,,,,,,,,,,,,,,,,2015_Jul_06_1138,60.0283088672,LearningTask,1,57,
200,w,200,,,,,,,,,,,,,,,,,1,0,1,0,22,1,89,0,,,,,,,,,,,,,,,,,,,,,,,,,,,,,w,1,None,0,0.5,linewhite.gif,go,,,,,,,,0.400642871857,,,,,,,,,,,,,,,,,,,,,,,,0.73,0.514205932617,0.000898838043213,0.400642871857,1,w,819.474930048,,,,,,,,,,,,,,,,,,,,,,,,,,,,,,,,,,2015_Jul_06_1138,60.0283088672,LearningTask,1,57,
-200,q,200,,,,,,,,,,,,,,,,,1,0,1,0,22,2,90,1,,,,,,,,,,,,,,,,,,,,,,,,,,,,,q,1,None,0,0.5,circleorange.gif,stop,,,,,,,,0.617777824402,,,,,,,,,,,,,,,,,,,,,,,,0.29,0.513917922974,0.000905990600586,0.617777824402,1,q,822.478379011,,,,,,,,,,,,,,,,,,,,,,,,,,,,,,,,,,2015_Jul_06_1138,60.0283088672,LearningTask,1,57,
-200,q,200,,,,,,,,,,,,,,,,,1,0,1,0,22,3,91,1,,,,,,,,,,,,,,,,,,,,,,,,,,,,,q,1,None,0,0.5,linewhite.gif,go,,,,,,,,0.384122848511,,,,,,,,,,,,,,,,,,,,,,,,0.55,0.514182806015,0.000922918319702,0.384122848511,1,q,825.481938124,,,,,,,,,,,,,,,,,,,,,,,,,,,,,,,,,,2015_Jul_06_1138,60.0283088672,LearningTask,1,57,
-200,a,-200,,,,,,,,,,,,,,,,,1,0,1,0,23,0,92,3,,,,,,,,,,,,,,,,,,,,,,,,,,,,,a,1,None,0,2.0,diamondgreen.gif,stop,,,,,,,,0.484490871429,,,,,,,,,,,,,,,,,,,,,,,,1.9,0.513902902603,0.0013108253479,0.484490871429,1,a,828.485491037,,,,,,,,,,,,,,,,,,,,,,,,,,,,,,,,,,2015_Jul_06_1138,60.0283088672,LearningTask,1,57,
200,s,-200,,,,,,,,,,,,,,,,,1,0,1,0,23,1,93,2,,,,,,,,,,,,,,,,,,,,,,,,,,,,,s,1,None,0,4.0,triangleblue.gif,go,,,,,,,,0.367290019989,,,,,,,,,,,,,,,,,,,,,,,,3.87,0.513659954071,0.000898838043213,0.367290019989,1,s,831.488260031,,,,,,,,,,,,,,,,,,,,,,,,,,,,,,,,,,2015_Jul_06_1138,60.0283088672,LearningTask,1,57,
200,w,200,,,,,,,,,,,,,,,,,1,0,1,0,23,2,94,0,,,,,,,,,,,,,,,,,,,,,,,,,,,,,w,1,None,0,0.5,circleorange.gif,stop,,,,,,,,0.383755922318,,,,,,,,,,,,,,,,,,,,,,,,0,0.514266014099,0.000914096832275,0.383755922318,1,w,834.491353035,,,,,,,,,,,,,,,,,,,,,,,,,,,,,,,,,,2015_Jul_06_1138,60.0283088672,LearningTask,1,57,
-200,q,200,,,,,,,,,,,,,,,,,1,0,1,0,23,3,95,1,,,,,,,,,,,,,,,,,,,,,,,,,,,,,q,1,None,0,2.0,diamondgreen.gif,stop,,,,,,,,0.383883953094,,,,,,,,,,,,,,,,,,,,,,,,1.76,0.514852046967,0.000915050506592,0.383883953094,1,q,837.495012045,,,,,,,,,,,,,,,,,,,,,,,,,,,,,,,,,,2015_Jul_06_1138,60.0283088672,LearningTask,1,57,
-200,q,200,,,,,,,,,,,,,,,,,1,0,1,0,24,0,96,1,,,,,,,,,,,,,,,,,,,,,,,,,,,,,q,1,None,0,4.0,hexagonmagenta.gif,stop,,,,,,,,0.350816965103,,,,,,,,,,,,,,,,,,,,,,,,0,0.514250993729,0.000880002975464,0.350816965103,1,q,840.498095036,,,,,,,,,,,,,,,,,,,,,,,,,,,,,,,,,,2015_Jul_06_1138,60.0283088672,LearningTask,1,57,
-200,a,-200,,,,,,,,,,,,,,,,,1,0,1,0,24,1,97,3,,,,,,,,,,,,,,,,,,,,,,,,,,,,,a,1,None,0,2.0,diamondgreen.gif,stop,,,,,,,,0.450341939926,,,,,,,,,,,,,,,,,,,,,,,,2.07,0.515086174011,0.00106406211853,0.450341939926,1,a,843.501485109,,,,,,,,,,,,,,,,,,,,,,,,,,,,,,,,,,2015_Jul_06_1138,60.0283088672,LearningTask,1,57,
200,s,-200,,,,,,,,,,,,,,,,,1,0,1,0,24,2,98,2,,,,,,,,,,,,,,,,,,,,,,,,,,,,,s,1,None,0,1.0,invertedtriangleyellow.gif,go,,,,,,,,0.38441491127,,,,,,,,,,,,,,,,,,,,,,,,0.82,0.514739990234,0.000926971435547,0.38441491127,1,s,846.505006075,,,,,,,,,,,,,,,,,,,,,,,,,,,,,,,,,,2015_Jul_06_1138,60.0283088672,LearningTask,1,57,
200,w,200,,,,,,,,,,,,,,,,,1,0,1,0,24,3,99,0,,,,,,,,,,,,,,,,,,,,,,,,,,,,,w,1,None,0,2.0,diamondgreen.gif,stop,,,,,,,,0.367822885513,,,,,,,,,,,,,,,,,,,,,,,,1.77,0.514381170273,0.000875949859619,0.367822885513,1,w,849.508510113,,,,,,,,,,,,,,,,,,,,,,,,,,,,,,,,,,2015_Jul_06_1138,60.0283088672,LearningTask,1,57,
,,,,,,,,,,,,,,,,,,,1,0,1,0,,,,,,,,,,,,,,,,,,,,,,,,,,,,,,,,,,,,,,,,,,,,,,,,,,,,,,,,,,,,,,,,,,,,,,,,,,,,,,,9,2.25649499893,,,,,,,,,,,,,,,,,,,,,,,,,,,,,,,2015_Jul_06_1138,60.0283088672,LearningTask,1,57,
-200,q,200,,,,,,,,,,,,,,,,,2,0,2,0,0,0,0,1,,,,,,,,,,,,,,,,,,,,,,,,,,,,,q,1,None,0,2.0,squaregray.gif,go,,,,,,,,0.417756080627,,,,,,,,,,,,,,,,,,,,,,,,2.17,0.509958028793,0.00086498260498,0.417756080627,1,q,855.382017136,,,,,,,,,,,,,,,,,,,,,,,,,,,,,,,,,,2015_Jul_06_1138,60.0283088672,LearningTask,1,57,
200,s,-200,,,,,,,,,,,,,,,,,2,0,2,0,0,1,1,2,,,,,,,,,,,,,,,,,,,,,,,,,,,,,s,1,None,0,1.0,crosscyan.gif,stop,,,,,,,,0.333855867386,,,,,,,,,,,,,,,,,,,,,,,,1.21,0.513844013214,0.00106883049011,0.333855867386,1,s,858.385059118,,,,,,,,,,,,,,,,,,,,,,,,,,,,,,,,,,2015_Jul_06_1138,60.0283088672,LearningTask,1,57,
-200,q,200,,,,,,,,,,,,,,,,,2,0,2,0,0,2,2,1,,,,,,,,,,,,,,,,,,,,,,,,,,,,,q,1,None,0,2.0,squaregray.gif,go,,,,,,,,0.350702047348,,,,,,,,,,,,,,,,,,,,,,,,1.78,0.514255046844,0.0011351108551,0.350702047348,1,q,861.38825202,,,,,,,,,,,,,,,,,,,,,,,,,,,,,,,,,,2015_Jul_06_1138,60.0283088672,LearningTask,1,57,
200,s,-200,,,,,,,,,,,,,,,,,2,0,2,0,0,3,3,2,,,,,,,,,,,,,,,,,,,,,,,,,,,,,s,1,None,0,0.5,circleorange.gif,stop,,,,,,,,0.350530147552,,,,,,,,,,,,,,,,,,,,,,,,0.32,0.514579057693,0.000886201858521,0.350530147552,1,s,864.392205,,,,,,,,,,,,,,,,,,,,,,,,,,,,,,,,,,2015_Jul_06_1138,60.0283088672,LearningTask,1,57,
-200,q,200,,,,,,,,,,,,,,,,,2,0,2,0,1,0,4,1,,,,,,,,,,,,,,,,,,,,,,,,,,,,,q,1,None,0,4.0,triangleblue.gif,go,,,,,,,,0.418093204498,,,,,,,,,,,,,,,,,,,,,,,,0,0.513329029083,0.000904083251953,0.418093204498,1,q,867.395039082,,,,,,,,,,,,,,,,,,,,,,,,,,,,,,,,,,2015_Jul_06_1138,60.0283088672,LearningTask,1,57,
200,w,200,,,,,,,,,,,,,,,,,2,0,2,0,1,1,5,0,,,,,,,,,,,,,,,,,,,,,,,,,,,,,w,1,None,0,0.5,linewhite.gif,go,,,,,,,,0.367053031921,,,,,,,,,,,,,,,,,,,,,,,,0.74,0.514539957047,0.00089693069458,0.367053031921,1,w,870.398394108,,,,,,,,,,,,,,,,,,,,,,,,,,,,,,,,,,2015_Jul_06_1138,60.0283088672,LearningTask,1,57,
-200,q,200,,,,,,,,,,,,,,,,,2,0,2,0,1,2,6,1,,,,,,,,,,,,,,,,,,,,,,,,,,,,,q,1,None,0,2.0,squaregray.gif,go,,,,,,,,0.367911100388,,,,,,,,,,,,,,,,,,,,,,,,1.86,0.514178037643,0.000874996185303,0.367911100388,1,q,873.401765108,,,,,,,,,,,,,,,,,,,,,,,,,,,,,,,,,,2015_Jul_06_1138,60.0283088672,LearningTask,1,57,
200,s,-200,,,,,,,,,,,,,,,,,2,0,2,0,1,3,7,2,,,,,,,,,,,,,,,,,,,,,,,,,,,,,s,1,None,0,1.0,invertedtriangleyellow.gif,go,,,,,,,,0.333577156067,,,,,,,,,,,,,,,,,,,,,,,,0.98,0.514215946198,0.00089693069458,0.333577156067,1,s,876.405581951,,,,,,,,,,,,,,,,,,,,,,,,,,,,,,,,,,2015_Jul_06_1138,60.0283088672,LearningTask,1,57,
200,s,-200,,,,,,,,,,,,,,,,,2,0,2,0,2,0,8,2,,,,,,,,,,,,,,,,,,,,,,,,,,,,,s,1,None,0,1.0,invertedtriangleyellow.gif,go,,,,,,,,0.351002931595,,,,,,,,,,,,,,,,,,,,,,,,1.03,0.5134100914,0.00103712081909,0.351002931595,1,s,879.408807993,,,,,,,,,,,,,,,,,,,,,,,,,,,,,,,,,,2015_Jul_06_1138,60.0283088672,LearningTask,1,57,
-200,a,-200,,,,,,,,,,,,,,,,,2,0,2,0,2,1,9,3,,,,,,,,,,,,,,,,,,,,,,,,,,,,,a,1,None,0,2.0,squaregray.gif,go,,,,,,,,0.451066017151,,,,,,,,,,,,,,,,,,,,,,,,0,0.513869047165,0.000869035720825,0.451066017151,1,a,882.412071943,,,,,,,,,,,,,,,,,,,,,,,,,,,,,,,,,,2015_Jul_06_1138,60.0283088672,LearningTask,1,57,
200,s,-200,,,,,,,,,,,,,,,,,2,0,2,0,2,2,10,2,,,,,,,,,,,,,,,,,,,,,,,,,,,,,s,1,None,0,0.5,linewhite.gif,go,,,,,,,,0.334107875824,,,,,,,,,,,,,,,,,,,,,,,,0.6,0.513777971268,0.000886917114258,0.334107875824,1,s,885.415155172,,,,,,,,,,,,,,,,,,,,,,,,,,,,,,,,,,2015_Jul_06_1138,60.0283088672,LearningTask,1,57,
-200,q,200,,,,,,,,,,,,,,,,,2,0,2,0,2,3,11,1,,,,,,,,,,,,,,,,,,,,,,,,,,,,,q,1,None,0,0.5,circleorange.gif,stop,,,,,,,,0.334194898605,,,,,,,,,,,,,,,,,,,,,,,,0.4,0.514386177063,0.000881195068359,0.334194898605,1,q,888.418589115,,,,,,,,,,,,,,,,,,,,,,,,,,,,,,,,,,2015_Jul_06_1138,60.0283088672,LearningTask,1,57,
200,w,200,,,,,,,,,,,,,,,,,2,0,2,0,3,0,12,0,,,,,,,,,,,,,,,,,,,,,,,,,,,,,w,1,None,0,4.0,hexagonmagenta.gif,stop,,,,,,,,0.367513895035,,,,,,,,,,,,,,,,,,,,,,,,0,0.51448392868,0.00095009803772,0.367513895035,1,w,891.422013998,,,,,,,,,,,,,,,,,,,,,,,,,,,,,,,,,,2015_Jul_06_1138,60.0283088672,LearningTask,1,57,
-200,q,200,,,,,,,,,,,,,,,,,2,0,2,0,3,1,13,1,,,,,,,,,,,,,,,,,,,,,,,,,,,,,q,1,None,0,2.0,squaregray.gif,go,,,,,,,,0.418168067932,,,,,,,,,,,,,,,,,,,,,,,,2.21,0.514198064804,0.000890016555786,0.418168067932,1,q,894.425721169,,,,,,,,,,,,,,,,,,,,,,,,,,,,,,,,,,2015_Jul_06_1138,60.0283088672,LearningTask,1,57,
200,w,200,,,,,,,,,,,,,,,,,2,0,2,0,3,2,14,0,,,,,,,,,,,,,,,,,,,,,,,,,,,,,w,1,None,0,0.5,linewhite.gif,go,,,,,,,,0.400676012039,,,,,,,,,,,,,,,,,,,,,,,,0.37,0.513818025589,0.000904083251953,0.400676012039,1,w,897.428980112,,,,,,,,,,,,,,,,,,,,,,,,,,,,,,,,,,2015_Jul_06_1138,60.0283088672,LearningTask,1,57,
-200,a,-200,,,,,,,,,,,,,,,,,2,0,2,0,3,3,15,3,,,,,,,,,,,,,,,,,,,,,,,,,,,,,a,1,None,0,0.5,circleorange.gif,stop,,,,,,,,0.417694091797,,,,,,,,,,,,,,,,,,,,,,,,0.59,0.513783931732,0.000881910324097,0.417694091797,1,a,900.432041168,,,,,,,,,,,,,,,,,,,,,,,,,,,,,,,,,,2015_Jul_06_1138,60.0283088672,LearningTask,1,57,
-200,a,-200,,,,,,,,,,,,,,,,,2,0,2,0,4,0,16,3,,,,,,,,,,,,,,,,,,,,,,,,,,,,,a,1,None,0,4.0,triangleblue.gif,go,,,,,,,,0.383829116821,,,,,,,,,,,,,,,,,,,,,,,,3.86,0.514390945435,0.000871896743774,0.383829116821,1,a,903.435274124,,,,,,,,,,,,,,,,,,,,,,,,,,,,,,,,,,2015_Jul_06_1138,60.0283088672,LearningTask,1,57,
200,w,200,,,,,,,,,,,,,,,,,2,0,2,0,4,1,17,0,,,,,,,,,,,,,,,,,,,,,,,,,,,,,w,1,None,0,4.0,triangleblue.gif,go,,,,,,,,0.417793035507,,,,,,,,,,,,,,,,,,,,,,,,4.19,0.514095067978,0.000958919525146,0.417793035507,1,w,906.438903093,,,,,,,,,,,,,,,,,,,,,,,,,,,,,,,,,,2015_Jul_06_1138,60.0283088672,LearningTask,1,57,
200,s,-200,,,,,,,,,,,,,,,,,2,0,2,0,4,2,18,2,,,,,,,,,,,,,,,,,,,,,,,,,,,,,s,1,None,0,4.0,hexagonmagenta.gif,stop,,,,,,,,0.317219018936,,,,,,,,,,,,,,,,,,,,,,,,4.23,0.514060020447,0.000934839248657,0.317219018936,1,s,909.442351103,,,,,,,,,,,,,,,,,,,,,,,,,,,,,,,,,,2015_Jul_06_1138,60.0283088672,LearningTask,1,57,
200,w,200,,,,,,,,,,,,,,,,,2,0,2,0,4,3,19,0,,,,,,,,,,,,,,,,,,,,,,,,,,,,,w,1,None,0,0.5,linewhite.gif,go,,,,,,,,0.383852005005,,,,,,,,,,,,,,,,,,,,,,,,0,0.514206171036,0.000877141952515,0.383852005005,1,w,912.445192099,,,,,,,,,,,,,,,,,,,,,,,,,,,,,,,,,,2015_Jul_06_1138,60.0283088672,LearningTask,1,57,
-200,q,200,,,,,,,,,,,,,,,,,2,0,2,0,5,0,20,1,,,,,,,,,,,,,,,,,,,,,,,,,,,,,q,1,None,0,4.0,hexagonmagenta.gif,stop,,,,,,,,0.35138297081,,,,,,,,,,,,,,,,,,,,,,,,3.9,0.514230966568,0.000926971435547,0.35138297081,1,q,915.448945999,,,,,,,,,,,,,,,,,,,,,,,,,,,,,,,,,,2015_Jul_06_1138,60.0283088672,LearningTask,1,57,
200,s,-200,,,,,,,,,,,,,,,,,2,0,2,0,5,1,21,2,,,,,,,,,,,,,,,,,,,,,,,,,,,,,s,1,None,0,1.0,crosscyan.gif,stop,,,,,,,,0.367059230804,,,,,,,,,,,,,,,,,,,,,,,,0,0.514474153519,0.00116801261902,0.367059230804,1,s,918.452092171,,,,,,,,,,,,,,,,,,,,,,,,,,,,,,,,,,2015_Jul_06_1138,60.0283088672,LearningTask,1,57,
200,w,200,,,,,,,,,,,,,,,,,2,0,2,0,5,2,22,0,,,,,,,,,,,,,,,,,,,,,,,,,,,,,w,1,None,0,2.0,diamondgreen.gif,stop,,,,,,,,0.383897066116,,,,,,,,,,,,,,,,,,,,,,,,1.75,0.514630079269,0.000876188278198,0.383897066116,1,w,921.455574036,,,,,,,,,,,,,,,,,,,,,,,,,,,,,,,,,,2015_Jul_06_1138,60.0283088672,LearningTask,1,57,
-200,a,-200,,,,,,,,,,,,,,,,,2,0,2,0,5,3,23,3,,,,,,,,,,,,,,,,,,,,,,,,,,,,,a,1,None,0,1.0,crosscyan.gif,stop,,,,,,,,0.383954048157,,,,,,,,,,,,,,,,,,,,,,,,1.04,0.514136075974,0.000883102416992,0.383954048157,1,a,924.458801985,,,,,,,,,,,,,,,,,,,,,,,,,,,,,,,,,,2015_Jul_06_1138,60.0283088672,LearningTask,1,57,
-200,a,-200,,,,,,,,,,,,,,,,,2,0,2,0,6,0,24,3,,,,,,,,,,,,,,,,,,,,,,,,,,,,,a,1,None,0,2.0,squaregray.gif,go,,,,,,,,0.417477846146,,,,,,,,,,,,,,,,,,,,,,,,0,0.514129161835,0.000933170318604,0.417477846146,1,a,927.462203979,,,,,,,,,,,,,,,,,,,,,,,,,,,,,,,,,,2015_Jul_06_1138,60.0283088672,LearningTask,1,57,
200,s,-200,,,,,,,,,,,,,,,,,2,0,2,0,6,1,25,2,,,,,,,,,,,,,,,,,,,,,,,,,,,,,s,1,None,0,0.5,linewhite.gif,go,,,,,,,,0.334400177002,,,,,,,,,,,,,,,,,,,,,,,,0,0.514196872711,0.00088095664978,0.334400177002,1,s,930.465579033,,,,,,,,,,,,,,,,,,,,,,,,,,,,,,,,,,2015_Jul_06_1138,60.0283088672,LearningTask,1,57,
-200,q,200,,,,,,,,,,,,,,,,,2,0,2,0,6,2,26,1,,,,,,,,,,,,,,,,,,,,,,,,,,,,,q,1,None,0,4.0,triangleblue.gif,go,,,,,,,,0.551205873489,,,,,,,,,,,,,,,,,,,,,,,,4.02,0.513786077499,0.000945091247559,0.551205873489,1,q,933.468557119,,,,,,,,,,,,,,,,,,,,,,,,,,,,,,,,,,2015_Jul_06_1138,60.0283088672,LearningTask,1,57,
-200,q,200,,,,,,,,,,,,,,,,,2,0,2,0,6,3,27,1,,,,,,,,,,,,,,,,,,,,,,,,,,,,,q,1,None,0,4.0,hexagonmagenta.gif,stop,,,,,,,,0.384151935577,,,,,,,,,,,,,,,,,,,,,,,,3.93,0.514561891556,0.000876903533936,0.384151935577,1,q,936.47213006,,,,,,,,,,,,,,,,,,,,,,,,,,,,,,,,,,2015_Jul_06_1138,60.0283088672,LearningTask,1,57,
200,w,200,,,,,,,,,,,,,,,,,2,0,2,0,7,0,28,0,,,,,,,,,,,,,,,,,,,,,,,,,,,,,w,1,None,0,1.0,invertedtriangleyellow.gif,go,,,,,,,,0.400376081467,,,,,,,,,,,,,,,,,,,,,,,,0,0.514691114426,0.000874042510986,0.400376081467,1,w,939.475712061,,,,,,,,,,,,,,,,,,,,,,,,,,,,,,,,,,2015_Jul_06_1138,60.0283088672,LearningTask,1,57,
-200,q,200,,,,,,,,,,,,,,,,,2,0,2,0,7,1,29,1,,,,,,,,,,,,,,,,,,,,,,,,,,,,,q,1,None,0,0.5,circleorange.gif,stop,,,,,,,,0.367217063904,,,,,,,,,,,,,,,,,,,,,,,,0,0.514059066772,0.000895977020264,0.367217063904,1,q,942.479207039,,,,,,,,,,,,,,,,,,,,,,,,,,,,,,,,,,2015_Jul_06_1138,60.0283088672,LearningTask,1,57,
200,s,-200,,,,,,,,,,,,,,,,,2,0,2,0,7,2,30,2,,,,,,,,,,,,,,,,,,,,,,,,,,,,,s,1,None,0,0.5,circleorange.gif,stop,,,,,,,,0.33448600769,,,,,,,,,,,,,,,,,,,,,,,,0.63,0.514127016068,0.000996828079224,0.33448600769,1,s,945.482551098,,,,,,,,,,,,,,,,,,,,,,,,,,,,,,,,,,2015_Jul_06_1138,60.0283088672,LearningTask,1,57,
-200,a,-200,,,,,,,,,,,,,,,,,2,0,2,0,7,3,31,3,,,,,,,,,,,,,,,,,,,,,,,,,,,,,a,1,None,0,4.0,hexagonmagenta.gif,stop,,,,,,,,0.417675018311,,,,,,,,,,,,,,,,,,,,,,,,3.86,0.513949155807,0.000894069671631,0.417675018311,1,a,948.485707998,,,,,,,,,,,,,,,,,,,,,,,,,,,,,,,,,,2015_Jul_06_1138,60.0283088672,LearningTask,1,57,
-200,a,-200,,,,,,,,,,,,,,,,,2,0,2,0,8,0,32,3,,,,,,,,,,,,,,,,,,,,,,,,,,,,,a,1,None,0,2.0,squaregray.gif,go,,,,,,,,0.467525005341,,,,,,,,,,,,,,,,,,,,,,,,2.09,0.514464855194,0.000871896743774,0.467525005341,1,a,951.489032984,,,,,,,,,,,,,,,,,,,,,,,,,,,,,,,,,,2015_Jul_06_1138,60.0283088672,LearningTask,1,57,
200,s,-200,,,,,,,,,,,,,,,,,2,0,2,0,8,1,33,2,,,,,,,,,,,,,,,,,,,,,,,,,,,,,s,1,None,0,2.0,squaregray.gif,go,,,,,,,,0.334262132645,,,,,,,,,,,,,,,,,,,,,,,,2.2,0.514242887497,0.000968933105469,0.334262132645,1,s,954.492459059,,,,,,,,,,,,,,,,,,,,,,,,,,,,,,,,,,2015_Jul_06_1138,60.0283088672,LearningTask,1,57,
-200,q,200,,,,,,,,,,,,,,,,,2,0,2,0,8,2,34,1,,,,,,,,,,,,,,,,,,,,,,,,,,,,,q,1,None,0,4.0,hexagonmagenta.gif,stop,,,,,,,,0.334141016006,,,,,,,,,,,,,,,,,,,,,,,,4.1,0.514476060867,0.000881195068359,0.334141016006,1,q,957.495697975,,,,,,,,,,,,,,,,,,,,,,,,,,,,,,,,,,2015_Jul_06_1138,60.0283088672,LearningTask,1,57,
-200,q,200,,,,,,,,,,,,,,,,,2,0,2,0,8,3,35,1,,,,,,,,,,,,,,,,,,,,,,,,,,,,,q,1,None,0,2.0,diamondgreen.gif,stop,,,,,,,,0.367669820786,,,,,,,,,,,,,,,,,,,,,,,,2.05,0.514097929001,0.000881910324097,0.367669820786,1,q,960.499063969,,,,,,,,,,,,,,,,,,,,,,,,,,,,,,,,,,2015_Jul_06_1138,60.0283088672,LearningTask,1,57,
-200,q,200,,,,,,,,,,,,,,,,,2,0,2,0,9,0,36,1,,,,,,,,,,,,,,,,,,,,,,,,,,,,,q,1,None,0,2.0,squaregray.gif,go,,,,,,,,0.384249925613,,,,,,,,,,,,,,,,,,,,,,,,2.23,0.514004945755,0.000916957855225,0.384249925613,1,q,963.502334118,,,,,,,,,,,,,,,,,,,,,,,,,,,,,,,,,,2015_Jul_06_1138,60.0283088672,LearningTask,1,57,
200,w,200,,,,,,,,,,,,,,,,,2,0,2,0,9,1,37,0,,,,,,,,,,,,,,,,,,,,,,,,,,,,,w,1,None,0,1.0,invertedtriangleyellow.gif,go,,,,,,,,0.434049129486,,,,,,,,,,,,,,,,,,,,,,,,0,0.514466047287,0.000878095626831,0.434049129486,1,w,966.505861998,,,,,,,,,,,,,,,,,,,,,,,,,,,,,,,,,,2015_Jul_06_1138,60.0283088672,LearningTask,1,57,
200,s,-200,,,,,,,,,,,,,,,,,2,0,2,0,9,2,38,2,,,,,,,,,,,,,,,,,,,,,,,,,,,,,s,1,None,0,1.0,invertedtriangleyellow.gif,go,,,,,,,,0.350644826889,,,,,,,,,,,,,,,,,,,,,,,,0.87,0.514367103577,0.000880002975464,0.350644826889,1,s,969.509220123,,,,,,,,,,,,,,,,,,,,,,,,,,,,,,,,,,2015_Jul_06_1138,60.0283088672,LearningTask,1,57,
-200,q,200,,,,,,,,,,,,,,,,,2,0,2,0,9,3,39,1,,,,,,,,,,,,,,,,,,,,,,,,,,,,,q,1,None,0,4.0,hexagonmagenta.gif,stop,,,,,,,,0.417366027832,,,,,,,,,,,,,,,,,,,,,,,,4.14,0.514256954193,0.000895023345947,0.417366027832,1,q,972.512421131,,,,,,,,,,,,,,,,,,,,,,,,,,,,,,,,,,2015_Jul_06_1138,60.0283088672,LearningTask,1,57,
200,s,-200,,,,,,,,,,,,,,,,,2,0,2,0,10,0,40,2,,,,,,,,,,,,,,,,,,,,,,,,,,,,,s,1,None,0,4.0,triangleblue.gif,go,,,,,,,,0.367617845535,,,,,,,,,,,,,,,,,,,,,,,,0,0.51421713829,0.000930070877075,0.367617845535,1,s,975.515651941,,,,,,,,,,,,,,,,,,,,,,,,,,,,,,,,,,2015_Jul_06_1138,60.0283088672,LearningTask,1,57,
200,w,200,,,,,,,,,,,,,,,,,2,0,2,0,10,1,41,0,,,,,,,,,,,,,,,,,,,,,,,,,,,,,w,1,None,0,0.5,circleorange.gif,stop,,,,,,,,0.367658853531,,,,,,,,,,,,,,,,,,,,,,,,0.62,0.514704227448,0.000877141952515,0.367658853531,1,w,978.519623995,,,,,,,,,,,,,,,,,,,,,,,,,,,,,,,,,,2015_Jul_06_1138,60.0283088672,LearningTask,1,57,
200,s,-200,,,,,,,,,,,,,,,,,2,0,2,0,10,2,42,2,,,,,,,,,,,,,,,,,,,,,,,,,,,,,s,1,None,0,0.5,circleorange.gif,stop,,,,,,,,0.333622932434,,,,,,,,,,,,,,,,,,,,,,,,0.44,0.513947963715,0.00091290473938,0.333622932434,1,s,981.522598028,,,,,,,,,,,,,,,,,,,,,,,,,,,,,,,,,,2015_Jul_06_1138,60.0283088672,LearningTask,1,57,
-200,a,-200,,,,,,,,,,,,,,,,,2,0,2,0,10,3,43,3,,,,,,,,,,,,,,,,,,,,,,,,,,,,,a,1,None,0,2.0,diamondgreen.gif,stop,,,,,,,,0.400961875916,,,,,,,,,,,,,,,,,,,,,,,,0,0.514414072037,0.000876188278198,0.384569168091,0,q,984.525943041,,,,0,0.515771150589,0.000962018966675,0.400961875916,1,a,987.52986002,,,,,,,,,,,,,,,,,,,,,,,,2015_Jul_06_1138,60.0283088672,LearningTask,1,57,
200,s,-200,,,,,,,,,,,,,,,,,2,0,2,0,11,0,44,2,,,,,,,,,,,,,,,,,,,,,,,,,,,,,s,1,None,0,1.0,crosscyan.gif,stop,,,,,,,,0.384501934052,,,,,,,,,,,,,,,,,,,,,,,,1.03,0.513473987579,0.000874996185303,0.384501934052,1,s,990.532945156,,,,,,,,,,,,,,,,,,,,,,,,,,,,,,,,,,2015_Jul_06_1138,60.0283088672,LearningTask,1,57,
-200,q,200,,,,,,,,,,,,,,,,,2,0,2,0,11,1,45,1,,,,,,,,,,,,,,,,,,,,,,,,,,,,,q,1,None,0,0.5,linewhite.gif,go,,,,,,,,0.434159994125,,,,,,,,,,,,,,,,,,,,,,,,0.34,0.51411485672,0.00100207328796,0.434159994125,1,q,993.535755157,,,,,,,,,,,,,,,,,,,,,,,,,,,,,,,,,,2015_Jul_06_1138,60.0283088672,LearningTask,1,57,
-200,a,-200,,,,,,,,,,,,,,,,,2,0,2,0,11,2,46,3,,,,,,,,,,,,,,,,,,,,,,,,,,,,,a,1,None,0,2.0,diamondgreen.gif,stop,,,,,,,,0.417422056198,,,,,,,,,,,,,,,,,,,,,,,,2.06,0.514601945877,0.000895977020264,0.417422056198,1,a,996.53948617,,,,,,,,,,,,,,,,,,,,,,,,,,,,,,,,,,2015_Jul_06_1138,60.0283088672,LearningTask,1,57,
200,w,200,,,,,,,,,,,,,,,,,2,0,2,0,11,3,47,0,,,,,,,,,,,,,,,,,,,,,,,,,,,,,w,1,None,0,0.5,circleorange.gif,stop,,,,,,,,0.434586048126,,,,,,,,,,,,,,,,,,,,,,,,0.63,0.514122009277,0.000886917114258,0.434586048126,1,w,999.542691946,,,,,,,,,,,,,,,,,,,,,,,,,,,,,,,,,,2015_Jul_06_1138,60.0283088672,LearningTask,1,57,
200,w,200,,,,,,,,,,,,,,,,,2,0,2,0,12,0,48,0,,,,,,,,,,,,,,,,,,,,,,,,,,,,,w,1,None,0,2.0,diamondgreen.gif,stop,,,,,,,,0.4510409832,,,,,,,,,,,,,,,,,,,,,,,,1.82,0.514292955399,0.000980854034424,0.4510409832,1,w,1002.54636598,,,,,,,,,,,,,,,,,,,,,,,,,,,,,,,,,,2015_Jul_06_1138,60.0283088672,LearningTask,1,57,
200,w,200,,,,,,,,,,,,,,,,,2,0,2,0,12,1,49,0,,,,,,,,,,,,,,,,,,,,,,,,,,,,,w,1,None,0,0.5,circleorange.gif,stop,,,,,,,,0.400862932205,,,,,,,,,,,,,,,,,,,,,,,,0.38,0.514044046402,0.00088906288147,0.400862932205,1,w,1005.54954195,,,,,,,,,,,,,,,,,,,,,,,,,,,,,,,,,,2015_Jul_06_1138,60.0283088672,LearningTask,1,57,
-200,q,200,,,,,,,,,,,,,,,,,2,0,2,0,12,2,50,1,,,,,,,,,,,,,,,,,,,,,,,,,,,,,q,1,None,0,4.0,hexagonmagenta.gif,stop,,,,,,,,0.53420996666,,,,,,,,,,,,,,,,,,,,,,,,4.15,0.514323949814,0.000881910324097,0.53420996666,1,q,1008.55313706,,,,,,,,,,,,,,,,,,,,,,,,,,,,,,,,,,2015_Jul_06_1138,60.0283088672,LearningTask,1,57,
-200,q,200,,,,,,,,,,,,,,,,,2,0,2,0,12,3,51,1,,,,,,,,,,,,,,,,,,,,,,,,,,,,,q,1,None,0,2.0,diamondgreen.gif,stop,,,,,,,,0.518410921097,,,,,,,,,,,,,,,,,,,,,,,,2.06,0.513438940048,0.000888109207153,0.518410921097,1,q,1011.55630112,,,,,,,,,,,,,,,,,,,,,,,,,,,,,,,,,,2015_Jul_06_1138,60.0283088672,LearningTask,1,57,
200,w,200,,,,,,,,,,,,,,,,,2,0,2,0,13,0,52,0,,,,,,,,,,,,,,,,,,,,,,,,,,,,,w,1,None,0,4.0,triangleblue.gif,go,,,,,,,,0.467664957047,,,,,,,,,,,,,,,,,,,,,,,,0,0.514368057251,0.000878095626831,0.467664957047,1,w,1014.55946898,,,,,,,,,,,,,,,,,,,,,,,,,,,,,,,,,,2015_Jul_06_1138,60.0283088672,LearningTask,1,57,
-200,q,200,,,,,,,,,,,,,,,,,2,0,2,0,13,1,53,1,,,,,,,,,,,,,,,,,,,,,,,,,,,,,q,1,None,0,1.0,crosscyan.gif,stop,,,,,,,,0.401361942291,,,,,,,,,,,,,,,,,,,,,,,,0.79,0.514238119125,0.000883102416992,0.401361942291,1,q,1017.56291103,,,,,,,,,,,,,,,,,,,,,,,,,,,,,,,,,,2015_Jul_06_1138,60.0283088672,LearningTask,1,57,
-200,q,200,,,,,,,,,,,,,,,,,2,0,2,0,13,2,54,1,,,,,,,,,,,,,,,,,,,,,,,,,,,,,q,1,None,0,4.0,triangleblue.gif,go,,,,,,,,0.450747966766,,,,,,,,,,,,,,,,,,,,,,,,4.01,0.514281988144,0.000890016555786,0.450747966766,1,q,1020.56623602,,,,,,,,,,,,,,,,,,,,,,,,,,,,,,,,,,2015_Jul_06_1138,60.0283088672,LearningTask,1,57,
-200,a,-200,,,,,,,,,,,,,,,,,2,0,2,0,13,3,55,3,,,,,,,,,,,,,,,,,,,,,,,,,,,,,a,1,None,0,4.0,hexagonmagenta.gif,stop,,,,,,,,0.48414683342,,,,,,,,,,,,,,,,,,,,,,,,0,0.514381885529,0.0011510848999,0.48414683342,1,a,1023.56973004,,,,,,,,,,,,,,,,,,,,,,,,,,,,,,,,,,2015_Jul_06_1138,60.0283088672,LearningTask,1,57,
200,w,200,,,,,,,,,,,,,,,,,2,0,2,0,14,0,56,0,,,,,,,,,,,,,,,,,,,,,,,,,,,,,w,1,None,0,4.0,triangleblue.gif,go,,,,,,,,0.417441129684,,,,,,,,,,,,,,,,,,,,,,,,3.82,0.514056921005,0.000897884368896,0.417441129684,1,w,1026.57312703,,,,,,,,,,,,,,,,,,,,,,,,,,,,,,,,,,2015_Jul_06_1138,60.0283088672,LearningTask,1,57,
200,w,200,,,,,,,,,,,,,,,,,2,0,2,0,14,1,57,0,,,,,,,,,,,,,,,,,,,,,,,,,,,,,w,1,None,0,0.5,circleorange.gif,stop,,,,,,,,0.384439945221,,,,,,,,,,,,,,,,,,,,,,,,0.56,0.514042139053,0.000900983810425,0.384439945221,1,w,1029.57617402,,,,,,,,,,,,,,,,,,,,,,,,,,,,,,,,,,2015_Jul_06_1138,60.0283088672,LearningTask,1,57,
200,s,-200,,,,,,,,,,,,,,,,,2,0,2,0,14,2,58,2,,,,,,,,,,,,,,,,,,,,,,,,,,,,,s,1,None,0,2.0,diamondgreen.gif,stop,,,,,,,,0.384057044983,,,,,,,,,,,,,,,,,,,,,,,,1.89,0.514609098434,0.000881195068359,0.384057044983,1,s,1032.57963896,,,,,,,,,,,,,,,,,,,,,,,,,,,,,,,,,,2015_Jul_06_1138,60.0283088672,LearningTask,1,57,
200,s,-200,,,,,,,,,,,,,,,,,2,0,2,0,14,3,59,2,,,,,,,,,,,,,,,,,,,,,,,,,,,,,s,1,None,0,2.0,squaregray.gif,go,,,,,,,,0.400639057159,,,,,,,,,,,,,,,,,,,,,,,,2.23,0.51457285881,0.000885963439941,0.400639057159,1,s,1035.5831461,,,,,,,,,,,,,,,,,,,,,,,,,,,,,,,,,,2015_Jul_06_1138,60.0283088672,LearningTask,1,57,
200,s,-200,,,,,,,,,,,,,,,,,2,0,2,0,15,0,60,2,,,,,,,,,,,,,,,,,,,,,,,,,,,,,s,1,None,0,0.5,linewhite.gif,go,,,,,,,,0.3510658741,,,,,,,,,,,,,,,,,,,,,,,,0.4,0.514059066772,0.000883102416992,0.3510658741,1,s,1038.58640099,,,,,,,,,,,,,,,,,,,,,,,,,,,,,,,,,,2015_Jul_06_1138,60.0283088672,LearningTask,1,57,
-200,a,-200,,,,,,,,,,,,,,,,,2,0,2,0,15,1,61,3,,,,,,,,,,,,,,,,,,,,,,,,,,,,,a,1,None,0,0.5,circleorange.gif,stop,,,,,,,,0.484184980392,,,,,,,,,,,,,,,,,,,,,,,,0.5,0.51432299614,0.000967025756836,0.484184980392,1,a,1041.59030199,,,,,,,,,,,,,,,,,,,,,,,,,,,,,,,,,,2015_Jul_06_1138,60.0283088672,LearningTask,1,57,
200,w,200,,,,,,,,,,,,,,,,,2,0,2,0,15,2,62,0,,,,,,,,,,,,,,,,,,,,,,,,,,,,,w,1,None,0,2.0,diamondgreen.gif,stop,,,,,,,,0.484769105911,,,,,,,,,,,,,,,,,,,,,,,,1.81,0.513890028,0.000883102416992,0.484769105911,1,w,1044.59318209,,,,,,,,,,,,,,,,,,,,,,,,,,,,,,,,,,2015_Jul_06_1138,60.0283088672,LearningTask,1,57,
-200,q,200,,,,,,,,,,,,,,,,,2,0,2,0,15,3,63,1,,,,,,,,,,,,,,,,,,,,,,,,,,,,,q,1,None,0,4.0,hexagonmagenta.gif,stop,,,,,,,,0.401046991348,,,,,,,,,,,,,,,,,,,,,,,,4.17,0.514195919037,0.000890016555786,0.401046991348,1,q,1047.59640718,,,,,,,,,,,,,,,,,,,,,,,,,,,,,,,,,,2015_Jul_06_1138,60.0283088672,LearningTask,1,57,
-200,a,-200,,,,,,,,,,,,,,,,,2,0,2,0,16,0,64,3,,,,,,,,,,,,,,,,,,,,,,,,,,,,,a,1,None,0,4.0,hexagonmagenta.gif,stop,,,,,,,,0.451394081116,,,,,,,,,,,,,,,,,,,,,,,,4.04,0.514106035233,0.00107407569885,0.451394081116,1,a,1050.59966207,,,,,,,,,,,,,,,,,,,,,,,,,,,,,,,,,,2015_Jul_06_1138,60.0283088672,LearningTask,1,57,
200,w,200,,,,,,,,,,,,,,,,,2,0,2,0,16,1,65,0,,,,,,,,,,,,,,,,,,,,,,,,,,,,,w,1,None,0,1.0,invertedtriangleyellow.gif,go,,,,,,,,0.367020130157,,,,,,,,,,,,,,,,,,,,,,,,1.13,0.514766931534,0.000882863998413,0.367020130157,1,w,1053.60319495,,,,,,,,,,,,,,,,,,,,,,,,,,,,,,,,,,2015_Jul_06_1138,60.0283088672,LearningTask,1,57,
-200,q,200,,,,,,,,,,,,,,,,,2,0,2,0,16,2,66,1,,,,,,,,,,,,,,,,,,,,,,,,,,,,,q,1,None,0,0.5,linewhite.gif,go,,,,,,,,0.434065103531,,,,,,,,,,,,,,,,,,,,,,,,0.48,0.514275074005,0.000874996185303,0.434065103531,1,q,1056.60650206,,,,,,,,,,,,,,,,,,,,,,,,,,,,,,,,,,2015_Jul_06_1138,60.0283088672,LearningTask,1,57,
200,w,200,,,,,,,,,,,,,,,,,2,0,2,0,16,3,67,0,,,,,,,,,,,,,,,,,,,,,,,,,,,,,w,1,None,0,1.0,invertedtriangleyellow.gif,go,,,,,,,,0.384392976761,,,,,,,,,,,,,,,,,,,,,,,,0,0.513757944107,0.000908851623535,0.384392976761,1,w,1059.60979104,,,,,,,,,,,,,,,,,,,,,,,,,,,,,,,,,,2015_Jul_06_1138,60.0283088672,LearningTask,1,57,
-200,a,-200,,,,,,,,,,,,,,,,,2,0,2,0,17,0,68,3,,,,,,,,,,,,,,,,,,,,,,,,,,,,,a,1,None,0,1.0,crosscyan.gif,stop,,,,,,,,0.434517860413,,,,,,,,,,,,,,,,,,,,,,,,0.99,0.514538049698,0.000895977020264,0.434517860413,1,a,1062.613276,,,,,,,,,,,,,,,,,,,,,,,,,,,,,,,,,,2015_Jul_06_1138,60.0283088672,LearningTask,1,57,
200,w,200,,,,,,,,,,,,,,,,,2,0,2,0,17,1,69,0,,,,,,,,,,,,,,,,,,,,,,,,,,,,,w,1,None,0,1.0,invertedtriangleyellow.gif,go,,,,,,,,0.450706958771,,,,,,,,,,,,,,,,,,,,,,,,0.75,0.514293193817,0.000878095626831,0.450706958771,1,w,1065.61675,,,,,,,,,,,,,,,,,,,,,,,,,,,,,,,,,,2015_Jul_06_1138,60.0283088672,LearningTask,1,57,
200,s,-200,,,,,,,,,,,,,,,,,2,0,2,0,17,2,70,2,,,,,,,,,,,,,,,,,,,,,,,,,,,,,s,1,None,0,2.0,squaregray.gif,go,,,,,,,,0.417053937912,,,,,,,,,,,,,,,,,,,,,,,,2.11,0.514187097549,0.000916957855225,0.417053937912,1,s,1068.61982012,,,,,,,,,,,,,,,,,,,,,,,,,,,,,,,,,,2015_Jul_06_1138,60.0283088672,LearningTask,1,57,
-200,a,-200,,,,,,,,,,,,,,,,,2,0,2,0,17,3,71,3,,,,,,,,,,,,,,,,,,,,,,,,,,,,,a,1,None,0,1.0,invertedtriangleyellow.gif,go,,,,,,,,0.451275110245,,,,,,,,,,,,,,,,,,,,,,,,0.92,0.514568090439,0.000961065292358,0.451275110245,1,a,1071.623631,,,,,,,,,,,,,,,,,,,,,,,,,,,,,,,,,,2015_Jul_06_1138,60.0283088672,LearningTask,1,57,
-200,a,-200,,,,,,,,,,,,,,,,,2,0,2,0,18,0,72,3,,,,,,,,,,,,,,,,,,,,,,,,,,,,,a,1,None,0,2.0,squaregray.gif,go,,,,,,,,0.434178113937,,,,,,,,,,,,,,,,,,,,,,,,2.14,0.51357293129,0.000932931900024,0.434178113937,1,a,1074.62730312,,,,,,,,,,,,,,,,,,,,,,,,,,,,,,,,,,2015_Jul_06_1138,60.0283088672,LearningTask,1,57,
-200,a,-200,,,,,,,,,,,,,,,,,2,0,2,0,18,1,73,3,,,,,,,,,,,,,,,,,,,,,,,,,,,,,a,1,None,0,2.0,diamondgreen.gif,stop,,,,,,,,0.451508998871,,,,,,,,,,,,,,,,,,,,,,,,0,0.513314962387,0.000904083251953,0.451508998871,1,a,1077.63013196,,,,,,,,,,,,,,,,,,,,,,,,,,,,,,,,,,2015_Jul_06_1138,60.0283088672,LearningTask,1,57,
200,s,-200,,,,,,,,,,,,,,,,,2,0,2,0,18,2,74,2,,,,,,,,,,,,,,,,,,,,,,,,,,,,,s,1,None,0,0.5,linewhite.gif,go,,,,,,,,0.383965969086,,,,,,,,,,,,,,,,,,,,,,,,0.27,0.514297008514,0.000870943069458,0.383965969086,1,s,1080.63335896,,,,,,,,,,,,,,,,,,,,,,,,,,,,,,,,,,2015_Jul_06_1138,60.0283088672,LearningTask,1,57,
200,w,200,,,,,,,,,,,,,,,,,2,0,2,0,18,3,75,0,,,,,,,,,,,,,,,,,,,,,,,,,,,,,w,1,None,0,4.0,hexagonmagenta.gif,stop,,,,,,,,0.433876991272,,,,,,,,,,,,,,,,,,,,,,,,0,0.514627933502,0.000883817672729,0.433876991272,1,w,1083.63695216,,,,,,,,,,,,,,,,,,,,,,,,,,,,,,,,,,2015_Jul_06_1138,60.0283088672,LearningTask,1,57,
200,s,-200,,,,,,,,,,,,,,,,,2,0,2,0,19,0,76,2,,,,,,,,,,,,,,,,,,,,,,,,,,,,,s,1,None,0,4.0,triangleblue.gif,go,,,,,,,,0.350611209869,,,,,,,,,,,,,,,,,,,,,,,,3.91,0.514202833176,0.000890970230103,0.350611209869,1,s,1086.64004803,,,,,,,,,,,,,,,,,,,,,,,,,,,,,,,,,,2015_Jul_06_1138,60.0283088672,LearningTask,1,57,
-200,a,-200,,,,,,,,,,,,,,,,,2,0,2,0,19,1,77,3,,,,,,,,,,,,,,,,,,,,,,,,,,,,,a,1,None,0,4.0,triangleblue.gif,go,,,,,,,,0.417490005493,,,,,,,,,,,,,,,,,,,,,,,,4.08,0.514292955399,0.000980138778687,0.417490005493,1,a,1089.64373207,,,,,,,,,,,,,,,,,,,,,,,,,,,,,,,,,,2015_Jul_06_1138,60.0283088672,LearningTask,1,57,
-200,a,-200,,,,,,,,,,,,,,,,,2,0,2,0,19,2,78,3,,,,,,,,,,,,,,,,,,,,,,,,,,,,,a,1,None,0,2.0,diamondgreen.gif,stop,,,,,,,,0.417773008347,,,,,,,,,,,,,,,,,,,,,,,,2.02,0.513900995255,0.000874996185303,0.417773008347,1,a,1092.64699697,,,,,,,,,,,,,,,,,,,,,,,,,,,,,,,,,,2015_Jul_06_1138,60.0283088672,LearningTask,1,57,
200,w,200,,,,,,,,,,,,,,,,,2,0,2,0,19,3,79,0,,,,,,,,,,,,,,,,,,,,,,,,,,,,,w,1,None,0,4.0,hexagonmagenta.gif,stop,,,,,,,,0.434184789658,,,,,,,,,,,,,,,,,,,,,,,,0,0.514147996902,0.00118494033813,0.434184789658,1,w,1095.65014005,,,,,,,,,,,,,,,,,,,,,,,,,,,,,,,,,,2015_Jul_06_1138,60.0283088672,LearningTask,1,57,
-200,a,-200,,,,,,,,,,,,,,,,,2,0,2,0,20,0,80,3,,,,,,,,,,,,,,,,,,,,,,,,,,,,,a,1,None,0,0.5,circleorange.gif,stop,,,,,,,,0.417676210403,,,,,,,,,,,,,,,,,,,,,,,,0,0.51403093338,0.00107598304749,0.417676210403,1,a,1098.65345001,,,,,,,,,,,,,,,,,,,,,,,,,,,,,,,,,,2015_Jul_06_1138,60.0283088672,LearningTask,1,57,
-200,a,-200,,,,,,,,,,,,,,,,,2,0,2,0,20,1,81,3,,,,,,,,,,,,,,,,,,,,,,,,,,,,,a,1,None,0,1.0,invertedtriangleyellow.gif,go,,,,,,,,0.384377002716,,,,,,,,,,,,,,,,,,,,,,,,0.81,0.514487028122,0.000882148742676,0.384377002716,1,a,1101.65681601,,,,,,,,,,,,,,,,,,,,,,,,,,,,,,,,,,2015_Jul_06_1138,60.0283088672,LearningTask,1,57,
200,w,200,,,,,,,,,,,,,,,,,2,0,2,0,20,2,82,0,,,,,,,,,,,,,,,,,,,,,,,,,,,,,w,1,None,0,0.5,circleorange.gif,stop,,,,,,,,0.417683124542,,,,,,,,,,,,,,,,,,,,,,,,0.58,0.51437497139,0.000888109207153,0.417683124542,1,w,1104.66017914,,,,,,,,,,,,,,,,,,,,,,,,,,,,,,,,,,2015_Jul_06_1138,60.0283088672,LearningTask,1,57,
200,s,-200,,,,,,,,,,,,,,,,,2,0,2,0,20,3,83,2,,,,,,,,,,,,,,,,,,,,,,,,,,,,,s,1,None,0,4.0,hexagonmagenta.gif,stop,,,,,,,,0.450877189636,,,,,,,,,,,,,,,,,,,,,,,,4.11,0.514116048813,0.000927209854126,0.450877189636,1,s,1107.66345501,,,,,,,,,,,,,,,,,,,,,,,,,,,,,,,,,,2015_Jul_06_1138,60.0283088672,LearningTask,1,57,
200,w,200,,,,,,,,,,,,,,,,,2,0,2,0,21,0,84,0,,,,,,,,,,,,,,,,,,,,,,,,,,,,,w,1,None,0,2.0,squaregray.gif,go,,,,,,,,0.40098118782,,,,,,,,,,,,,,,,,,,,,,,,0,0.514390945435,0.000864028930664,0.40098118782,1,w,1110.66668415,,,,,,,,,,,,,,,,,,,,,,,,,,,,,,,,,,2015_Jul_06_1138,60.0283088672,LearningTask,1,57,
200,s,-200,,,,,,,,,,,,,,,,,2,0,2,0,21,1,85,2,,,,,,,,,,,,,,,,,,,,,,,,,,,,,s,1,None,0,0.5,linewhite.gif,go,,,,,,,,0.451395988464,,,,,,,,,,,,,,,,,,,,,,,,0,0.514449834824,0.000887870788574,0.451395988464,1,s,1113.67055416,,,,,,,,,,,,,,,,,,,,,,,,,,,,,,,,,,2015_Jul_06_1138,60.0283088672,LearningTask,1,57,
-200,q,200,,,,,,,,,,,,,,,,,2,0,2,0,21,2,86,1,,,,,,,,,,,,,,,,,,,,,,,,,,,,,q,1,None,0,0.5,linewhite.gif,go,,,,,,,,0.534927845001,,,,,,,,,,,,,,,,,,,,,,,,0.54,0.513689994812,0.000887870788574,0.534927845001,1,q,1116.67375517,,,,,,,,,,,,,,,,,,,,,,,,,,,,,,,,,,2015_Jul_06_1138,60.0283088672,LearningTask,1,57,
200,s,-200,,,,,,,,,,,,,,,,,2,0,2,0,21,3,87,2,,,,,,,,,,,,,,,,,,,,,,,,,,,,,s,1,None,0,1.0,crosscyan.gif,stop,,,,,,,,0.401119947433,,,,,,,,,,,,,,,,,,,,,,,,1.03,0.513967990875,0.000910997390747,0.401119947433,1,s,1119.67708898,,,,,,,,,,,,,,,,,,,,,,,,,,,,,,,,,,2015_Jul_06_1138,60.0283088672,LearningTask,1,57,
-200,q,200,,,,,,,,,,,,,,,,,2,0,2,0,22,0,88,1,,,,,,,,,,,,,,,,,,,,,,,,,,,,,q,1,None,0,4.0,triangleblue.gif,go,,,,,,,,0.418054819107,,,,,,,,,,,,,,,,,,,,,,,,0,0.51417016983,0.000871181488037,0.418054819107,1,q,1122.680686,,,,,,,,,,,,,,,,,,,,,,,,,,,,,,,,,,2015_Jul_06_1138,60.0283088672,LearningTask,1,57,
-200,a,-200,,,,,,,,,,,,,,,,,2,0,2,0,22,1,89,3,,,,,,,,,,,,,,,,,,,,,,,,,,,,,a,1,None,0,0.5,circleorange.gif,stop,,,,,,,,0.601568937302,,,,,,,,,,,,,,,,,,,,,,,,0.37,0.513682842255,0.000892877578735,0.601568937302,1,a,1125.68373895,,,,,,,,,,,,,,,,,,,,,,,,,,,,,,,,,,2015_Jul_06_1138,60.0283088672,LearningTask,1,57,
-200,q,200,,,,,,,,,,,,,,,,,2,0,2,0,22,2,90,1,,,,,,,,,,,,,,,,,,,,,,,,,,,,,q,1,None,0,1.0,invertedtriangleyellow.gif,go,,,,,,,,0.484116077423,,,,,,,,,,,,,,,,,,,,,,,,1.22,0.514467000961,0.000874996185303,0.484116077423,1,q,1128.68713617,,,,,,,,,,,,,,,,,,,,,,,,,,,,,,,,,,2015_Jul_06_1138,60.0283088672,LearningTask,1,57,
200,s,-200,,,,,,,,,,,,,,,,,2,0,2,0,22,3,91,2,,,,,,,,,,,,,,,,,,,,,,,,,,,,,s,1,None,0,4.0,triangleblue.gif,go,,,,,,,,0.401087999344,,,,,,,,,,,,,,,,,,,,,,,,4.0,0.514461040497,0.000884056091309,0.401087999344,1,s,1131.69029617,,,,,,,,,,,,,,,,,,,,,,,,,,,,,,,,,,2015_Jul_06_1138,60.0283088672,LearningTask,1,57,
-200,a,-200,,,,,,,,,,,,,,,,,2,0,2,0,23,0,92,3,,,,,,,,,,,,,,,,,,,,,,,,,,,,,a,1,None,0,1.0,invertedtriangleyellow.gif,go,,,,,,,,0.584324836731,,,,,,,,,,,,,,,,,,,,,,,,0,0.51438498497,0.00103402137756,0.584324836731,1,a,1134.69376206,,,,,,,,,,,,,,,,,,,,,,,,,,,,,,,,,,2015_Jul_06_1138,60.0283088672,LearningTask,1,57,
-200,q,200,,,,,,,,,,,,,,,,,2,0,2,0,23,1,93,1,,,,,,,,,,,,,,,,,,,,,,,,,,,,,q,1,None,0,4.0,triangleblue.gif,go,,,,,,,,0.434275865555,,,,,,,,,,,,,,,,,,,,,,,,0,0.514231204987,0.00099515914917,0.434275865555,1,q,1137.69737601,,,,,,,,,,,,,,,,,,,,,,,,,,,,,,,,,,2015_Jul_06_1138,60.0283088672,LearningTask,1,57,
