xPos,corrAns,yPos,corrGoResp,yPosGoStim,xPosGoStim,pracTrials.thisRepN,pracTrials.thisTrialN,pracTrials.thisN,pracTrials.thisIndex,ReDoLoopPrac.thisRepN,ReDoLoopPrac.thisTrialN,ReDoLoopPrac.thisN,ReDoLoopPrac.thisIndex,ReDoLoopPrac.thisTrial,pracStopTrials.thisRepN,pracStopTrials.thisTrialN,pracStopTrials.thisN,pracStopTrials.thisIndex,Blocks.thisRepN,Blocks.thisTrialN,Blocks.thisN,Blocks.thisIndex,trials.thisRepN,trials.thisTrialN,trials.thisN,trials.thisIndex,ReDoLoopMain.thisRepN,ReDoLoopMain.thisTrialN,ReDoLoopMain.thisN,ReDoLoopMain.thisIndex,ReDoLoopMain.thisTrial,StopBlocks.thisRepN,StopBlocks.thisTrialN,StopBlocks.thisN,StopBlocks.thisIndex,StopTrials.thisRepN,StopTrials.thisTrialN,StopTrials.thisN,StopTrials.thisIndex,auctionBlocks.thisRepN,auctionBlocks.thisTrialN,auctionBlocks.thisN,auctionBlocks.thisIndex,auctionTrials.thisRepN,auctionTrials.thisTrialN,auctionTrials.thisN,auctionTrials.thisIndex,learningTrialList,learningPracTrialList,stopTrialList,stopPracTrialList,auctionTrialList,ok1.keys,ok1.rt,resp.keys,resp.corr,resp.rt,feedbackResp.keys,feedbackResp.corr,currentReward,currentStimulus,currentStimType,firstPracComputedRewardOutput,firstPracLearningStimOnset,firstPracLearningFixOnset,firstPracPresentationRT,firstPracPresentationAcc,firstPracPresentationResp,firstPracEndTrialTimeStamp,StartTrialTimeStamp,trialType,goStim,stimType,stopStimValue,goResp.keys,goResp.corr,goResp.rt,key_resp_9.keys,key_resp_9.corr,fixStopOnset,goStimOnset,EndTrialTimeStamp,stopSignalOnset,key_resp_3.keys,key_resp_3.rt,firstComputedRewardOutput,firstLearningStimOnset,firstLearningFixOnset,firstPresentationRT,firstPresentationAcc,firstPresentationResp,firstEndTrialTimeStamp,secondComputedRewardOutput,secondLearningStimOnset,secondLearningFixOnset,secondPresentationRT,secondPresentationAcc,secondPresentationResp,secondEndTrialTimeStamp,key_resp_7.keys,key_resp_7.rt,feedbackResp.rt,beginningSSD,key_resp_9.rt,EndingSSD,key_resp_4.keys,key_resp_4.rt,auctionResponse.keys,auctionResponse.rt,auctionStimDuration,auctionStim,auctionAmounts,auctionStimValue,auctionCondition,chosenAuctionAmount,key_resp_5.keys,key_resp_5.rt,shuffledRewardList,chosenReward1,chosenReward2,chosenReward3,chosenReward4,chosenReward5,key_resp_6.keys,key_resp_6.rt,date,frameRate,expName,session,participant,
,,,,,,,,,,,,,,,,,,,,,,,,,,,,,,,,,,,,,,,,,,,,,,,,[],[],[],[],[],9,105.910511017,,,,,,,,,,,,,,,,,,,,,,,,,,,,,,,,,,,,,,,,,,,,,,,,,,,,,,,,,,,,,,,,,,,,,,,,2015_Jun_24_1402,59.94123498,LearningTask,1,65,
-200,q,200,,,,0,0,0,5,,,,,,,,,,,,,,,,,,,,,,,,,,,,,,,,,,,,,,,,,,,,,,q,1,0.818625926971,None,0,1.0,squarewhite.gif,stop,0,0.507196187973,0.00302219390869,0.818625926971,1,q,128.661432028,,,,,,,,,,,,,,,,,,,,,,,,,,,,,,,,,,,,,,,,,,,,,,,,,,,,,,,,,2015_Jun_24_1402,59.94123498,LearningTask,1,65,
-200,q,200,,,,0,1,1,1,,,,,,,,,,,,,,,,,,,,,,,,,,,,,,,,,,,,,,,,,,,,,,q,1,0.417654037476,None,0,2.0,circlegreen.gif,go,1.8,0.514559984207,0.00131011009216,0.417654037476,1,q,131.664124012,,,,,,,,,,,,,,,,,,,,,,,,,,,,,,,,,,,,,,,,,,,,,,,,,,,,,,,,,2015_Jun_24_1402,59.94123498,LearningTask,1,65,
200,w,200,,,,0,2,2,4,,,,,,,,,,,,,,,,,,,,,,,,,,,,,,,,,,,,,,,,,,,,,,w,1,0.367384910583,None,0,1.0,squarewhite.gif,stop,1.01,0.515290975571,0.000908851623535,0.367384910583,1,w,134.667483091,,,,,,,,,,,,,,,,,,,,,,,,,,,,,,,,,,,,,,,,,,,,,,,,,,,,,,,,,2015_Jun_24_1402,59.94123498,LearningTask,1,65,
-200,a,-200,,,,0,3,3,7,,,,,,,,,,,,,,,,,,,,,,,,,,,,,,,,,,,,,,,,,,,,,,a,1,0.334315061569,None,0,2.0,invertedtrianglecyan.gif,stop,1.78,0.514937162399,0.00172901153564,0.334315061569,1,a,137.670888186,,,,,,,,,,,,,,,,,,,,,,,,,,,,,,,,,,,,,,,,,,,,,,,,,,,,,,,,,2015_Jun_24_1402,59.94123498,LearningTask,1,65,
200,s,-200,,,,0,4,4,6,,,,,,,,,,,,,,,,,,,,,,,,,,,,,,,,,,,,,,,,,,,,,,s,1,0.334557056427,None,0,1.0,squarewhite.gif,stop,0.9,0.515066146851,0.000913143157959,0.334557056427,1,s,140.674195051,,,,,,,,,,,,,,,,,,,,,,,,,,,,,,,,,,,,,,,,,,,,,,,,,,,,,,,,,2015_Jun_24_1402,59.94123498,LearningTask,1,65,
200,w,200,,,,0,5,5,8,,,,,,,,,,,,,,,,,,,,,,,,,,,,,,,,,,,,,,,,,,,,,,w,1,0.384028911591,None,0,2.0,invertedtrianglecyan.gif,stop,2.24,0.515122890472,0.000916957855225,0.384028911591,1,w,143.677812099,,,,,,,,,,,,,,,,,,,,,,,,,,,,,,,,,,,,,,,,,,,,,,,,,,,,,,,,,2015_Jun_24_1402,59.94123498,LearningTask,1,65,
200,s,-200,,,,0,6,6,2,,,,,,,,,,,,,,,,,,,,,,,,,,,,,,,,,,,,,,,,,,,,,,s,1,0.417685031891,None,0,0.5,crossyellow.gif,go,0.38,0.514745950699,0.00136995315552,0.417685031891,1,s,146.681007147,,,,,,,,,,,,,,,,,,,,,,,,,,,,,,,,,,,,,,,,,,,,,,,,,,,,,,,,,2015_Jun_24_1402,59.94123498,LearningTask,1,65,
200,w,200,,,,0,7,7,0,,,,,,,,,,,,,,,,,,,,,,,,,,,,,,,,,,,,,,,,,,,,,,w,1,0.367403030396,None,0,2.0,circlegreen.gif,go,0,0.515029907227,0.000921964645386,0.367403030396,1,w,149.684396029,,,,,,,,,,,,,,,,,,,,,,,,,,,,,,,,,,,,,,,,,,,,,,,,,,,,,,,,,2015_Jun_24_1402,59.94123498,LearningTask,1,65,
-200,q,200,,,,0,8,8,9,,,,,,,,,,,,,,,,,,,,,,,,,,,,,,,,,,,,,,,,,,,,,,q,1,0.467838048935,None,0,2.0,invertedtrianglecyan.gif,stop,2.16,0.51513504982,0.000920057296753,0.467838048935,1,q,152.688359976,,,,,,,,,,,,,,,,,,,,,,,,,,,,,,,,,,,,,,,,,,,,,,,,,,,,,,,,,2015_Jun_24_1402,59.94123498,LearningTask,1,65,
-200,a,-200,,,,0,9,9,3,,,,,,,,,,,,,,,,,,,,,,,,,,,,,,,,,,,,,,,,,,,,,,a,1,0.400808811188,None,0,2.0,invertedtrianglecyan.gif,stop,0,0.514580965042,0.000916004180908,0.400808811188,1,a,155.691055059,,,,,,,,,,,,,,,,,,,,,,,,,,,,,,,,,,,,,,,,,,,,,,,,,,,,,,,,,2015_Jun_24_1402,59.94123498,LearningTask,1,65,
,,,z,0,-200,,,,,,,,,,0,0,0,0,,,,,,,,,,,,,,,,,,,,,,,,,,,,,,,,,,,,,,,,,,,,,,,,,,,,218.767166138,go,crossyellow.gif,go,0.5,z,1,0.38392496109,None,0,0.00132703781128,0.510558128357,221.765333176,,,,,,,,,,,,,,,,,,,,,,,,,,,,,,,,,,,,,,,,,,,,2015_Jun_24_1402,59.94123498,LearningTask,1,65,
,,,m,0,200,,,,,,,,,,0,1,1,1,,,,,,,,,,,,,,,,,,,,,,,,,,,,,,,,,,,,,,,,,,,,,,,,,,,,221.765727997,go,crossyellow.gif,go,0.5,m,1,0.334138870239,None,0,0.00105094909668,0.515752077103,224.768464088,,,,,,,,,,,,,,,,,,,,,,,,,,,,,,,,,,,,,,,,,,,,2015_Jun_24_1402,59.94123498,LearningTask,1,65,
,,,m,0,200,,,,,,,,,,1,0,2,1,,,,,,,,,,,,,,,,,,,,,,,,,,,,,,,,,,,,,,,,,,,,,,,,,,,,224.768877983,go,crossyellow.gif,go,0.5,m,1,0.367644071579,None,0,0.00101900100708,0.515657901764,227.772121191,,,,,,,,,,,,,,,,,,,,,,,,,,,,,,,,,,,,,,,,,,,,2015_Jun_24_1402,59.94123498,LearningTask,1,65,
,,,z,0,-200,,,,,,,,,,1,1,3,0,,,,,,,,,,,,,,,,,,,,,,,,,,,,,,,,,,,,,,,,,,,,,,,,,,,,227.772534132,stop,squarewhite.gif,stop,1.0,z,1,0.35080909729,None,0,0.00098705291748,0.515897035599,230.775391102,0.765586137772,,,,,,,,,,,,,,,,,,,,,,,,,,,,,,,,,,,,,,,,,,,2015_Jun_24_1402,59.94123498,LearningTask,1,65,
,,,m,0,200,,,,,,,,,,2,0,4,1,,,,,,,,,,,,,,,,,,,,,,,,,,,,,,,,,,,,,,,,,,,,,,,,,,,,230.775974035,go,hexagonmagenta.gif,go,4.0,m,1,0.36699795723,None,0,0.00155520439148,0.515376091003,233.778629065,,,,,,,,,,,,,,,,,,,,,,,,,,,,,,,,,,,,,,,,,,,,2015_Jun_24_1402,59.94123498,LearningTask,1,65,
,,,z,0,-200,,,,,,,,,,2,1,5,0,,,,,,,,,,,,,,,,,,,,,,,,,,,,,,,,,,,,,,,,,,,,,,,,,,,,233.779055119,go,hexagonmagenta.gif,go,4.0,z,1,0.467550992966,None,0,0.00100111961365,0.515879154205,236.781965017,,,,,,,,,,,,,,,,,,,,,,,,,,,,,,,,,,,,,,,,,,,,2015_Jun_24_1402,59.94123498,LearningTask,1,65,
,,,m,0,200,,,,,,,,,,3,0,6,1,,,,,,,,,,,,,,,,,,,,,,,,,,,,,,,,,,,,,,,,,,,,,,,,,,,,236.782341003,stop,lineorange.gif,stop,4.0,m,1,0.501145124435,None,0,0.00134205818176,0.515832185745,239.785819054,0.766502141953,,,,,,,,,,,,,,,,,,,,,,,,,,,,,,,,,,,,,,,,,,,2015_Jun_24_1402,59.94123498,LearningTask,1,65,
,,,z,0,-200,,,,,,,,,,3,1,7,0,,,,,,,,,,,,,,,,,,,,,,,,,,,,,,,,,,,,,,,,,,,,,,,,,,,,239.786241055,stop,squarewhite.gif,stop,1.0,None,0,,None,0,0.00130796432495,0.515274047852,242.788838148,0.765589952469,,,,,,,,,,,,,,,,,,,,,,,,,,,,,,,,,,,,,,,,,,,2015_Jun_24_1402,59.94123498,LearningTask,1,65,
,,,z,0,-200,,,,,,,,,,4,0,8,0,,,,,,,,,,,,,,,,,,,,,,,,,,,,,,,,,,,,,,,,,,,,,,,,,,,,242.789216042,stop,squarewhite.gif,stop,1.0,None,0,,None,0,0.000957012176514,0.515818119049,245.792052984,0.766113042831,,,,,,,,,,,,,,,,,,,,,,,,,,,,,,,,,,,,,,,,,,,2015_Jun_24_1402,59.94123498,LearningTask,1,65,
,,,m,0,200,,,,,,,,,,4,1,9,1,,,,,,,,,,,,,,,,,,,,,,,,,,,,,,,,,,,,,,,,,,,,,,,,,,,,245.792425156,go,crossyellow.gif,go,0.5,m,1,0.51771903038,None,0,0.000964879989624,0.515852928162,248.795602083,,,,,,,,,,,,,,,,,,,,,,,,,,,,,,,,,,,,,,,,,,,,2015_Jun_24_1402,59.94123498,LearningTask,1,65,
,,,,,,,,,,,,,,,,,,,,,,,,,,,,,,,,,,,,,,,,,,,,,,,,,,,,,,,,,,,,,,,,,,,,,,,,,,,,,,,,,,,,9,85.7130820751,,,,,,,,,,,,,,,,,,,,,,,,,,,,,,,,,,,,,,,,,2015_Jun_24_1402,59.94123498,LearningTask,1,65,
,,,,,,,,,,,,,,,,,,,,,,,,,,,,,,,,,,,,,,,,,,,,,,,,,,,,,9,8.6259829998,,,,,,,,,,,,,,,,,,,,,,,,,,,,,,,,,,,,,,,,,,,,,,,,,,,,,,,,,,,,,,,,,,,,,,,,2015_Jun_24_1402,59.94123498,LearningTask,1,65,
200,w,200,,,,,,,,,,,,,,,,,0,0,0,0,0,0,0,0,,,,,,,,,,,,,,,,,,,,,,,,,,,,,w,1,0.634492874146,None,0,1.0,squarewhite.gif,stop,,,,,,,,,,,,,,,,,,,,,,,,1.07,0.508255004883,0.000962018966675,0.634492874146,1,w,346.273502111,,,,,,,,,,,,,,,,,,,,,,,,,,,,,,,,,,2015_Jun_24_1402,59.94123498,LearningTask,1,65,
200,w,200,,,,,,,,,,,,,,,,,0,0,0,0,0,1,1,0,,,,,,,,,,,,,,,,,,,,,,,,,,,,,w,1,0.384747982025,None,0,4.0,hexagonmagenta.gif,go,,,,,,,,,,,,,,,,,,,,,,,,3.76,0.51308298111,0.000938892364502,0.384747982025,1,w,349.275905132,,,,,,,,,,,,,,,,,,,,,,,,,,,,,,,,,,2015_Jun_24_1402,59.94123498,LearningTask,1,65,
-200,q,200,,,,,,,,,,,,,,,,,0,0,0,0,0,2,2,1,,,,,,,,,,,,,,,,,,,,,,,,,,,,,q,1,0.550910949707,None,0,4.0,hexagonmagenta.gif,go,,,,,,,,,,,,,,,,,,,,,,,,4.12,0.514177083969,0.000915050506592,0.550910949707,1,q,352.279244184,,,,,,,,,,,,,,,,,,,,,,,,,,,,,,,,,,2015_Jun_24_1402,59.94123498,LearningTask,1,65,
200,s,-200,,,,,,,,,,,,,,,,,0,0,0,0,0,3,3,2,,,,,,,,,,,,,,,,,,,,,,,,,,,,,s,1,0.367705106735,None,0,2.0,circlegreen.gif,go,,,,,,,,,,,,,,,,,,,,,,,,0,0.514303207397,0.00100207328796,0.367705106735,1,s,355.282930136,,,,,,,,,,,,,,,,,,,,,,,,,,,,,,,,,,2015_Jun_24_1402,59.94123498,LearningTask,1,65,
-200,q,200,,,,,,,,,,,,,,,,,0,0,0,0,1,0,4,1,,,,,,,,,,,,,,,,,,,,,,,,,,,,,q,1,0.334199905396,None,0,1.0,squarewhite.gif,stop,,,,,,,,,,,,,,,,,,,,,,,,0.94,0.513894081116,0.000906944274902,0.334199905396,1,q,358.285732985,,,,,,,,,,,,,,,,,,,,,,,,,,,,,,,,,,2015_Jun_24_1402,59.94123498,LearningTask,1,65,
200,s,-200,,,,,,,,,,,,,,,,,0,0,0,0,1,1,5,2,,,,,,,,,,,,,,,,,,,,,,,,,,,,,s,1,0.350845098495,None,0,4.0,hexagonmagenta.gif,go,,,,,,,,,,,,,,,,,,,,,,,,0,0.514459133148,0.0011191368103,0.350845098495,1,s,361.289570093,,,,,,,,,,,,,,,,,,,,,,,,,,,,,,,,,,2015_Jun_24_1402,59.94123498,LearningTask,1,65,
200,s,-200,,,,,,,,,,,,,,,,,0,0,0,0,1,2,6,2,,,,,,,,,,,,,,,,,,,,,,,,,,,,,s,1,0.38424706459,None,0,2.0,circlegreen.gif,go,,,,,,,,,,,,,,,,,,,,,,,,1.99,0.514013051987,0.00095009803772,0.38424706459,1,s,364.29284215,,,,,,,,,,,,,,,,,,,,,,,,,,,,,,,,,,2015_Jun_24_1402,59.94123498,LearningTask,1,65,
200,w,200,,,,,,,,,,,,,,,,,0,0,0,0,1,3,7,0,,,,,,,,,,,,,,,,,,,,,,,,,,,,,w,1,0.300525903702,None,0,0.5,crossyellow.gif,go,,,,,,,,,,,,,,,,,,,,,,,,0.62,0.51428103447,0.000931024551392,0.300525903702,1,w,367.296068192,,,,,,,,,,,,,,,,,,,,,,,,,,,,,,,,,,2015_Jun_24_1402,59.94123498,LearningTask,1,65,
200,w,200,,,,,,,,,,,,,,,,,0,0,0,0,2,0,8,0,,,,,,,,,,,,,,,,,,,,,,,,,,,,,w,1,0.350742101669,None,0,4.0,hexagonmagenta.gif,go,,,,,,,,,,,,,,,,,,,,,,,,4.12,0.51411986351,0.000992774963379,0.350742101669,1,w,370.299601078,,,,,,,,,,,,,,,,,,,,,,,,,,,,,,,,,,2015_Jun_24_1402,59.94123498,LearningTask,1,65,
-200,q,200,,,,,,,,,,,,,,,,,0,0,0,0,2,1,9,1,,,,,,,,,,,,,,,,,,,,,,,,,,,,,q,1,0.316986083984,None,0,2.0,invertedtrianglecyan.gif,stop,,,,,,,,,,,,,,,,,,,,,,,,2.19,0.514310121536,0.000915050506592,0.316986083984,1,q,373.302703142,,,,,,,,,,,,,,,,,,,,,,,,,,,,,,,,,,2015_Jun_24_1402,59.94123498,LearningTask,1,65,
200,w,200,,,,,,,,,,,,,,,,,0,0,0,0,2,2,10,0,,,,,,,,,,,,,,,,,,,,,,,,,,,,,w,1,0.451610088348,None,0,0.5,crossyellow.gif,go,,,,,,,,,,,,,,,,,,,,,,,,0.46,0.514199972153,0.00118088722229,0.451610088348,1,w,376.306313038,,,,,,,,,,,,,,,,,,,,,,,,,,,,,,,,,,2015_Jun_24_1402,59.94123498,LearningTask,1,65,
-200,a,-200,,,,,,,,,,,,,,,,,0,0,0,0,2,3,11,3,,,,,,,,,,,,,,,,,,,,,,,,,,,,,a,1,0.417335987091,None,0,1.0,diamondgray.gif,go,,,,,,,,,,,,,,,,,,,,,,,,1.11,0.513895988464,0.00134801864624,0.417335987091,1,a,379.309596062,,,,,,,,,,,,,,,,,,,,,,,,,,,,,,,,,,2015_Jun_24_1402,59.94123498,LearningTask,1,65,
200,s,-200,,,,,,,,,,,,,,,,,0,0,0,0,3,0,12,2,,,,,,,,,,,,,,,,,,,,,,,,,,,,,s,1,0.38437795639,None,0,0.5,crossyellow.gif,go,,,,,,,,,,,,,,,,,,,,,,,,0.52,0.514147996902,0.00103497505188,0.38437795639,1,s,382.312678099,,,,,,,,,,,,,,,,,,,,,,,,,,,,,,,,,,2015_Jun_24_1402,59.94123498,LearningTask,1,65,
200,w,200,,,,,,,,,,,,,,,,,0,0,0,0,3,1,13,0,,,,,,,,,,,,,,,,,,,,,,,,,,,,,w,1,0.350843191147,None,0,1.0,diamondgray.gif,go,,,,,,,,,,,,,,,,,,,,,,,,0,0.51456284523,0.000917911529541,0.350843191147,1,w,385.316393137,,,,,,,,,,,,,,,,,,,,,,,,,,,,,,,,,,2015_Jun_24_1402,59.94123498,LearningTask,1,65,
-200,a,-200,,,,,,,,,,,,,,,,,0,0,0,0,3,2,14,3,,,,,,,,,,,,,,,,,,,,,,,,,,,,,a,1,0.467368125916,None,0,0.5,crossyellow.gif,go,,,,,,,,,,,,,,,,,,,,,,,,0.26,0.514102935791,0.000948905944824,0.467368125916,1,a,388.319789171,,,,,,,,,,,,,,,,,,,,,,,,,,,,,,,,,,2015_Jun_24_1402,59.94123498,LearningTask,1,65,
200,s,-200,,,,,,,,,,,,,,,,,0,0,0,0,3,3,15,2,,,,,,,,,,,,,,,,,,,,,,,,,,,,,s,1,0.401300191879,None,0,2.0,invertedtrianglecyan.gif,stop,,,,,,,,,,,,,,,,,,,,,,,,1.93,0.514272928238,0.00091290473938,0.401300191879,1,s,391.323107004,,,,,,,,,,,,,,,,,,,,,,,,,,,,,,,,,,2015_Jun_24_1402,59.94123498,LearningTask,1,65,
200,w,200,,,,,,,,,,,,,,,,,0,0,0,0,4,0,16,0,,,,,,,,,,,,,,,,,,,,,,,,,,,,,w,1,0.517803907394,None,0,4.0,hexagonmagenta.gif,go,,,,,,,,,,,,,,,,,,,,,,,,3.9,0.514325141907,0.000909090042114,0.517803907394,1,w,394.326658964,,,,,,,,,,,,,,,,,,,,,,,,,,,,,,,,,,2015_Jun_24_1402,59.94123498,LearningTask,1,65,
-200,q,200,,,,,,,,,,,,,,,,,0,0,0,0,4,1,17,1,,,,,,,,,,,,,,,,,,,,,,,,,,,,,q,1,0.401404857635,None,0,1.0,diamondgray.gif,go,,,,,,,,,,,,,,,,,,,,,,,,0.92,0.51390504837,0.000944137573242,0.401404857635,1,q,397.329800129,,,,,,,,,,,,,,,,,,,,,,,,,,,,,,,,,,2015_Jun_24_1402,59.94123498,LearningTask,1,65,
200,w,200,,,,,,,,,,,,,,,,,0,0,0,0,4,2,18,0,,,,,,,,,,,,,,,,,,,,,,,,,,,,,w,1,0.417621135712,None,0,2.0,circlegreen.gif,go,,,,,,,,,,,,,,,,,,,,,,,,0,0.514297962189,0.000960111618042,0.417621135712,1,w,400.333041191,,,,,,,,,,,,,,,,,,,,,,,,,,,,,,,,,,2015_Jun_24_1402,59.94123498,LearningTask,1,65,
-200,q,200,,,,,,,,,,,,,,,,,0,0,0,0,4,3,19,1,,,,,,,,,,,,,,,,,,,,,,,,,,,,,q,1,0.434454917908,None,0,1.0,diamondgray.gif,go,,,,,,,,,,,,,,,,,,,,,,,,0.97,0.51455616951,0.000972032546997,0.434454917908,1,q,403.336699009,,,,,,,,,,,,,,,,,,,,,,,,,,,,,,,,,,2015_Jun_24_1402,59.94123498,LearningTask,1,65,
200,w,200,,,,,,,,,,,,,,,,,0,0,0,0,5,0,20,0,,,,,,,,,,,,,,,,,,,,,,,,,,,,,w,1,0.367560863495,None,0,4.0,hexagonmagenta.gif,go,,,,,,,,,,,,,,,,,,,,,,,,4.14,0.514237880707,0.000913858413696,0.367560863495,1,w,406.339846134,,,,,,,,,,,,,,,,,,,,,,,,,,,,,,,,,,2015_Jun_24_1402,59.94123498,LearningTask,1,65,
200,w,200,,,,,,,,,,,,,,,,,0,0,0,0,5,1,21,0,,,,,,,,,,,,,,,,,,,,,,,,,,,,,w,1,0.384256124496,None,0,2.0,invertedtrianglecyan.gif,stop,,,,,,,,,,,,,,,,,,,,,,,,0,0.514492034912,0.00118017196655,0.384256124496,1,w,409.343472004,,,,,,,,,,,,,,,,,,,,,,,,,,,,,,,,,,2015_Jun_24_1402,59.94123498,LearningTask,1,65,
200,w,200,,,,,,,,,,,,,,,,,0,0,0,0,5,2,22,0,,,,,,,,,,,,,,,,,,,,,,,,,,,,,w,1,0.367673873901,None,0,4.0,lineorange.gif,stop,,,,,,,,,,,,,,,,,,,,,,,,3.87,0.513899087906,0.000936031341553,0.367673873901,1,w,412.347089052,,,,,,,,,,,,,,,,,,,,,,,,,,,,,,,,,,2015_Jun_24_1402,59.94123498,LearningTask,1,65,
-200,a,-200,,,,,,,,,,,,,,,,,0,0,0,0,5,3,23,3,,,,,,,,,,,,,,,,,,,,,,,,,,,,,a,1,0.417528867722,None,0,0.5,triangleblue.gif,stop,,,,,,,,,,,,,,,,,,,,,,,,0.29,0.513849020004,0.00129294395447,0.417528867722,1,a,415.350068092,,,,,,,,,,,,,,,,,,,,,,,,,,,,,,,,,,2015_Jun_24_1402,59.94123498,LearningTask,1,65,
-200,a,-200,,,,,,,,,,,,,,,,,0,0,0,0,6,0,24,3,,,,,,,,,,,,,,,,,,,,,,,,,,,,,a,1,0.501085996628,None,0,4.0,hexagonmagenta.gif,go,,,,,,,,,,,,,,,,,,,,,,,,4.2,0.514017820358,0.000944852828979,0.501085996628,1,a,418.353260994,,,,,,,,,,,,,,,,,,,,,,,,,,,,,,,,,,2015_Jun_24_1402,59.94123498,LearningTask,1,65,
200,s,-200,,,,,,,,,,,,,,,,,0,0,0,0,6,1,25,2,,,,,,,,,,,,,,,,,,,,,,,,,,,,,s,1,0.434153079987,None,0,1.0,diamondgray.gif,go,,,,,,,,,,,,,,,,,,,,,,,,1.01,0.514750003815,0.000920057296753,0.434153079987,1,s,421.357347012,,,,,,,,,,,,,,,,,,,,,,,,,,,,,,,,,,2015_Jun_24_1402,59.94123498,LearningTask,1,65,
200,s,-200,,,,,,,,,,,,,,,,,0,0,0,0,6,2,26,2,,,,,,,,,,,,,,,,,,,,,,,,,,,,,s,1,0.401154994965,None,0,0.5,crossyellow.gif,go,,,,,,,,,,,,,,,,,,,,,,,,0.42,0.513450860977,0.000945806503296,0.401154994965,1,s,424.360197067,,,,,,,,,,,,,,,,,,,,,,,,,,,,,,,,,,2015_Jun_24_1402,59.94123498,LearningTask,1,65,
200,w,200,,,,,,,,,,,,,,,,,0,0,0,0,6,3,27,0,,,,,,,,,,,,,,,,,,,,,,,,,,,,,w,1,0.317729949951,None,0,2.0,circlegreen.gif,go,,,,,,,,,,,,,,,,,,,,,,,,2.18,0.514097929001,0.000932931900024,0.317729949951,1,w,427.363765001,,,,,,,,,,,,,,,,,,,,,,,,,,,,,,,,,,2015_Jun_24_1402,59.94123498,LearningTask,1,65,
200,s,-200,,,,,,,,,,,,,,,,,0,0,0,0,7,0,28,2,,,,,,,,,,,,,,,,,,,,,,,,,,,,,s,1,0.400845050812,None,0,1.0,diamondgray.gif,go,,,,,,,,,,,,,,,,,,,,,,,,1.02,0.51410984993,0.00120401382446,0.400845050812,1,s,430.366870165,,,,,,,,,,,,,,,,,,,,,,,,,,,,,,,,,,2015_Jun_24_1402,59.94123498,LearningTask,1,65,
-200,a,-200,,,,,,,,,,,,,,,,,0,0,0,0,7,1,29,3,,,,,,,,,,,,,,,,,,,,,,,,,,,,,a,1,0.434096097946,None,0,4.0,lineorange.gif,stop,,,,,,,,,,,,,,,,,,,,,,,,3.97,0.514376878738,0.000910997390747,0.434096097946,1,a,433.370889187,,,,,,,,,,,,,,,,,,,,,,,,,,,,,,,,,,2015_Jun_24_1402,59.94123498,LearningTask,1,65,
200,s,-200,,,,,,,,,,,,,,,,,0,0,0,0,7,2,30,2,,,,,,,,,,,,,,,,,,,,,,,,,,,,,s,1,0.400537967682,None,0,1.0,squarewhite.gif,stop,,,,,,,,,,,,,,,,,,,,,,,,0,0.513799905777,0.00127387046814,0.400537967682,1,s,436.374022961,,,,,,,,,,,,,,,,,,,,,,,,,,,,,,,,,,2015_Jun_24_1402,59.94123498,LearningTask,1,65,
-200,a,-200,,,,,,,,,,,,,,,,,0,0,0,0,7,3,31,3,,,,,,,,,,,,,,,,,,,,,,,,,,,,,a,1,0.417695045471,None,0,4.0,hexagonmagenta.gif,go,,,,,,,,,,,,,,,,,,,,,,,,3.75,0.514062166214,0.000913143157959,0.417695045471,1,a,439.377041101,,,,,,,,,,,,,,,,,,,,,,,,,,,,,,,,,,2015_Jun_24_1402,59.94123498,LearningTask,1,65,
200,s,-200,,,,,,,,,,,,,,,,,0,0,0,0,8,0,32,2,,,,,,,,,,,,,,,,,,,,,,,,,,,,,s,1,0.367579936981,None,0,1.0,squarewhite.gif,stop,,,,,,,,,,,,,,,,,,,,,,,,0.84,0.514549970627,0.00092601776123,0.367579936981,1,s,442.380846977,,,,,,,,,,,,,,,,,,,,,,,,,,,,,,,,,,2015_Jun_24_1402,59.94123498,LearningTask,1,65,
-200,q,200,,,,,,,,,,,,,,,,,0,0,0,0,8,1,33,1,,,,,,,,,,,,,,,,,,,,,,,,,,,,,q,1,0.467859983444,None,0,2.0,invertedtrianglecyan.gif,stop,,,,,,,,,,,,,,,,,,,,,,,,2.01,0.51354598999,0.000982046127319,0.467859983444,1,q,445.383989096,,,,,,,,,,,,,,,,,,,,,,,,,,,,,,,,,,2015_Jun_24_1402,59.94123498,LearningTask,1,65,
-200,a,-200,,,,,,,,,,,,,,,,,0,0,0,0,8,2,34,3,,,,,,,,,,,,,,,,,,,,,,,,,,,,,a,1,0.417587041855,None,0,0.5,triangleblue.gif,stop,,,,,,,,,,,,,,,,,,,,,,,,0.46,0.514011859894,0.000979900360107,0.417587041855,1,a,448.386973143,,,,,,,,,,,,,,,,,,,,,,,,,,,,,,,,,,2015_Jun_24_1402,59.94123498,LearningTask,1,65,
200,w,200,,,,,,,,,,,,,,,,,0,0,0,0,8,3,35,0,,,,,,,,,,,,,,,,,,,,,,,,,,,,,w,1,0.417913913727,None,0,4.0,lineorange.gif,stop,,,,,,,,,,,,,,,,,,,,,,,,4.22,0.514506816864,0.00096583366394,0.417913913727,1,w,451.390592098,,,,,,,,,,,,,,,,,,,,,,,,,,,,,,,,,,2015_Jun_24_1402,59.94123498,LearningTask,1,65,
-200,q,200,,,,,,,,,,,,,,,,,0,0,0,0,9,0,36,1,,,,,,,,,,,,,,,,,,,,,,,,,,,,,q,1,0.434185028076,None,0,0.5,crossyellow.gif,go,,,,,,,,,,,,,,,,,,,,,,,,0.32,0.514336109161,0.000920057296753,0.434185028076,1,q,454.393929958,,,,,,,,,,,,,,,,,,,,,,,,,,,,,,,,,,2015_Jun_24_1402,59.94123498,LearningTask,1,65,
-200,a,-200,,,,,,,,,,,,,,,,,0,0,0,0,9,1,37,3,,,,,,,,,,,,,,,,,,,,,,,,,,,,,a,1,0.367456912994,None,0,4.0,hexagonmagenta.gif,go,,,,,,,,,,,,,,,,,,,,,,,,4.09,0.514180183411,0.00113296508789,0.367456912994,1,a,457.397415161,,,,,,,,,,,,,,,,,,,,,,,,,,,,,,,,,,2015_Jun_24_1402,59.94123498,LearningTask,1,65,
200,s,-200,,,,,,,,,,,,,,,,,0,0,0,0,9,2,38,2,,,,,,,,,,,,,,,,,,,,,,,,,,,,,s,1,0.351227998734,None,0,0.5,crossyellow.gif,go,,,,,,,,,,,,,,,,,,,,,,,,0.53,0.513815164566,0.000914096832275,0.351227998734,1,s,460.40073514,,,,,,,,,,,,,,,,,,,,,,,,,,,,,,,,,,2015_Jun_24_1402,59.94123498,LearningTask,1,65,
-200,a,-200,,,,,,,,,,,,,,,,,0,0,0,0,9,3,39,3,,,,,,,,,,,,,,,,,,,,,,,,,,,,,a,1,0.367129802704,None,0,4.0,lineorange.gif,stop,,,,,,,,,,,,,,,,,,,,,,,,3.91,0.514226913452,0.000947952270508,0.367129802704,1,a,463.404000044,,,,,,,,,,,,,,,,,,,,,,,,,,,,,,,,,,2015_Jun_24_1402,59.94123498,LearningTask,1,65,
-200,q,200,,,,,,,,,,,,,,,,,0,0,0,0,10,0,40,1,,,,,,,,,,,,,,,,,,,,,,,,,,,,,q,1,0.401377916336,None,0,2.0,invertedtrianglecyan.gif,stop,,,,,,,,,,,,,,,,,,,,,,,,2.23,0.513779163361,0.000977993011475,0.401377916336,1,q,466.407404184,,,,,,,,,,,,,,,,,,,,,,,,,,,,,,,,,,2015_Jun_24_1402,59.94123498,LearningTask,1,65,
-200,a,-200,,,,,,,,,,,,,,,,,0,0,0,0,10,1,41,3,,,,,,,,,,,,,,,,,,,,,,,,,,,,,a,1,0.401018857956,None,0,2.0,circlegreen.gif,go,,,,,,,,,,,,,,,,,,,,,,,,1.98,0.5141248703,0.000932931900024,0.401018857956,1,a,469.410986185,,,,,,,,,,,,,,,,,,,,,,,,,,,,,,,,,,2015_Jun_24_1402,59.94123498,LearningTask,1,65,
200,s,-200,,,,,,,,,,,,,,,,,0,0,0,0,10,2,42,2,,,,,,,,,,,,,,,,,,,,,,,,,,,,,s,1,0.367324113846,None,0,0.5,triangleblue.gif,stop,,,,,,,,,,,,,,,,,,,,,,,,0.63,0.514178037643,0.000910997390747,0.367324113846,1,s,472.41450119,,,,,,,,,,,,,,,,,,,,,,,,,,,,,,,,,,2015_Jun_24_1402,59.94123498,LearningTask,1,65,
200,w,200,,,,,,,,,,,,,,,,,0,0,0,0,10,3,43,0,,,,,,,,,,,,,,,,,,,,,,,,,,,,,w,1,0.367944002151,None,0,4.0,lineorange.gif,stop,,,,,,,,,,,,,,,,,,,,,,,,4.07,0.513779878616,0.000941038131714,0.367944002151,1,w,475.417670012,,,,,,,,,,,,,,,,,,,,,,,,,,,,,,,,,,2015_Jun_24_1402,59.94123498,LearningTask,1,65,
-200,a,-200,,,,,,,,,,,,,,,,,0,0,0,0,11,0,44,3,,,,,,,,,,,,,,,,,,,,,,,,,,,,,a,1,0.401206970215,None,0,0.5,triangleblue.gif,stop,,,,,,,,,,,,,,,,,,,,,,,,0.38,0.514142990112,0.00115394592285,0.401206970215,1,a,478.420801163,,,,,,,,,,,,,,,,,,,,,,,,,,,,,,,,,,2015_Jun_24_1402,59.94123498,LearningTask,1,65,
-200,a,-200,,,,,,,,,,,,,,,,,0,0,0,0,11,1,45,3,,,,,,,,,,,,,,,,,,,,,,,,,,,,,a,1,0.367624044418,None,0,2.0,invertedtrianglecyan.gif,stop,,,,,,,,,,,,,,,,,,,,,,,,2.1,0.514329910278,0.000917911529541,0.367624044418,1,a,481.424659014,,,,,,,,,,,,,,,,,,,,,,,,,,,,,,,,,,2015_Jun_24_1402,59.94123498,LearningTask,1,65,
200,s,-200,,,,,,,,,,,,,,,,,0,0,0,0,11,2,46,2,,,,,,,,,,,,,,,,,,,,,,,,,,,,,s,1,0.351011037827,None,0,0.5,triangleblue.gif,stop,,,,,,,,,,,,,,,,,,,,,,,,0.71,0.513717889786,0.000916957855225,0.351011037827,1,s,484.427736044,,,,,,,,,,,,,,,,,,,,,,,,,,,,,,,,,,2015_Jun_24_1402,59.94123498,LearningTask,1,65,
-200,a,-200,,,,,,,,,,,,,,,,,0,0,0,0,11,3,47,3,,,,,,,,,,,,,,,,,,,,,,,,,,,,,a,1,0.434617996216,None,0,0.5,crossyellow.gif,go,,,,,,,,,,,,,,,,,,,,,,,,0.35,0.514019966125,0.000923871994019,0.434617996216,1,a,487.431048155,,,,,,,,,,,,,,,,,,,,,,,,,,,,,,,,,,2015_Jun_24_1402,59.94123498,LearningTask,1,65,
-200,a,-200,,,,,,,,,,,,,,,,,0,0,0,0,12,0,48,3,,,,,,,,,,,,,,,,,,,,,,,,,,,,,a,1,0.41739487648,None,0,4.0,lineorange.gif,stop,,,,,,,,,,,,,,,,,,,,,,,,4.22,0.51430606842,0.00104308128357,0.41739487648,1,a,490.434808969,,,,,,,,,,,,,,,,,,,,,,,,,,,,,,,,,,2015_Jun_24_1402,59.94123498,LearningTask,1,65,
200,w,200,,,,,,,,,,,,,,,,,0,0,0,0,12,1,49,0,,,,,,,,,,,,,,,,,,,,,,,,,,,,,w,1,0.384243965149,None,0,4.0,lineorange.gif,stop,,,,,,,,,,,,,,,,,,,,,,,,3.75,0.513962030411,0.000904083251953,0.384243965149,1,w,493.437829018,,,,,,,,,,,,,,,,,,,,,,,,,,,,,,,,,,2015_Jun_24_1402,59.94123498,LearningTask,1,65,
200,s,-200,,,,,,,,,,,,,,,,,0,0,0,0,12,2,50,2,,,,,,,,,,,,,,,,,,,,,,,,,,,,,s,1,0.35062289238,None,0,1.0,diamondgray.gif,go,,,,,,,,,,,,,,,,,,,,,,,,0.99,0.514396190643,0.00113201141357,0.35062289238,1,s,496.441469193,,,,,,,,,,,,,,,,,,,,,,,,,,,,,,,,,,2015_Jun_24_1402,59.94123498,LearningTask,1,65,
-200,q,200,,,,,,,,,,,,,,,,,0,0,0,0,12,3,51,1,,,,,,,,,,,,,,,,,,,,,,,,,,,,,q,1,0.434476852417,None,0,4.0,hexagonmagenta.gif,go,,,,,,,,,,,,,,,,,,,,,,,,3.88,0.513940095901,0.000947952270508,0.434476852417,1,q,499.44452405,,,,,,,,,,,,,,,,,,,,,,,,,,,,,,,,,,2015_Jun_24_1402,59.94123498,LearningTask,1,65,
200,w,200,,,,,,,,,,,,,,,,,0,0,0,0,13,0,52,0,,,,,,,,,,,,,,,,,,,,,,,,,,,,,w,1,0.367439985275,None,0,2.0,circlegreen.gif,go,,,,,,,,,,,,,,,,,,,,,,,,1.88,0.514398813248,0.000907897949219,0.367439985275,1,w,502.447867155,,,,,,,,,,,,,,,,,,,,,,,,,,,,,,,,,,2015_Jun_24_1402,59.94123498,LearningTask,1,65,
-200,q,200,,,,,,,,,,,,,,,,,0,0,0,0,13,1,53,1,,,,,,,,,,,,,,,,,,,,,,,,,,,,,q,1,0.468249082565,None,0,0.5,triangleblue.gif,stop,,,,,,,,,,,,,,,,,,,,,,,,0.47,0.513568878174,0.000974893569946,0.468249082565,1,q,505.451321125,,,,,,,,,,,,,,,,,,,,,,,,,,,,,,,,,,2015_Jun_24_1402,59.94123498,LearningTask,1,65,
200,s,-200,,,,,,,,,,,,,,,,,0,0,0,0,13,2,54,2,,,,,,,,,,,,,,,,,,,,,,,,,,,,,s,1,0.384146928787,None,0,1.0,squarewhite.gif,stop,,,,,,,,,,,,,,,,,,,,,,,,1.24,0.514232158661,0.000910997390747,0.384146928787,1,s,508.454672098,,,,,,,,,,,,,,,,,,,,,,,,,,,,,,,,,,2015_Jun_24_1402,59.94123498,LearningTask,1,65,
-200,a,-200,,,,,,,,,,,,,,,,,0,0,0,0,13,3,55,3,,,,,,,,,,,,,,,,,,,,,,,,,,,,,a,1,0.350895881653,None,0,0.5,triangleblue.gif,stop,,,,,,,,,,,,,,,,,,,,,,,,0.37,0.514389038086,0.000937938690186,0.350895881653,1,a,511.458460093,,,,,,,,,,,,,,,,,,,,,,,,,,,,,,,,,,2015_Jun_24_1402,59.94123498,LearningTask,1,65,
200,s,-200,,,,,,,,,,,,,,,,,0,0,0,0,14,0,56,2,,,,,,,,,,,,,,,,,,,,,,,,,,,,,s,1,0.35107588768,None,0,2.0,circlegreen.gif,go,,,,,,,,,,,,,,,,,,,,,,,,0,0.513887882233,0.000946998596191,0.35107588768,1,s,514.461551189,,,,,,,,,,,,,,,,,,,,,,,,,,,,,,,,,,2015_Jun_24_1402,59.94123498,LearningTask,1,65,
200,w,200,,,,,,,,,,,,,,,,,0,0,0,0,14,1,57,0,,,,,,,,,,,,,,,,,,,,,,,,,,,,,w,1,0.334022045135,None,0,0.5,crossyellow.gif,go,,,,,,,,,,,,,,,,,,,,,,,,0.33,0.514213085175,0.000920057296753,0.334022045135,1,w,517.464682102,,,,,,,,,,,,,,,,,,,,,,,,,,,,,,,,,,2015_Jun_24_1402,59.94123498,LearningTask,1,65,
200,s,-200,,,,,,,,,,,,,,,,,0,0,0,0,14,2,58,2,,,,,,,,,,,,,,,,,,,,,,,,,,,,,s,1,0.450911045074,None,0,1.0,squarewhite.gif,stop,,,,,,,,,,,,,,,,,,,,,,,,0,0.514480113983,0.000910043716431,0.450911045074,1,s,520.468593121,,,,,,,,,,,,,,,,,,,,,,,,,,,,,,,,,,2015_Jun_24_1402,59.94123498,LearningTask,1,65,
-200,q,200,,,,,,,,,,,,,,,,,0,0,0,0,14,3,59,1,,,,,,,,,,,,,,,,,,,,,,,,,,,,,q,1,0.366991996765,None,0,4.0,hexagonmagenta.gif,go,,,,,,,,,,,,,,,,,,,,,,,,0,0.513606071472,0.000924110412598,0.366991996765,1,q,523.471677065,,,,,,,,,,,,,,,,,,,,,,,,,,,,,,,,,,2015_Jun_24_1402,59.94123498,LearningTask,1,65,
-200,q,200,,,,,,,,,,,,,,,,,0,0,0,0,15,0,60,1,,,,,,,,,,,,,,,,,,,,,,,,,,,,,q,1,0.450845956802,None,0,1.0,squarewhite.gif,stop,,,,,,,,,,,,,,,,,,,,,,,,0.99,0.514279127121,0.000906944274902,0.450845956802,1,q,526.474938154,,,,,,,,,,,,,,,,,,,,,,,,,,,,,,,,,,2015_Jun_24_1402,59.94123498,LearningTask,1,65,
200,w,200,,,,,,,,,,,,,,,,,0,0,0,0,15,1,61,0,,,,,,,,,,,,,,,,,,,,,,,,,,,,,w,1,0.36740899086,None,0,4.0,lineorange.gif,stop,,,,,,,,,,,,,,,,,,,,,,,,3.83,0.51429104805,0.000910043716431,0.36740899086,1,w,529.478800058,,,,,,,,,,,,,,,,,,,,,,,,,,,,,,,,,,2015_Jun_24_1402,59.94123498,LearningTask,1,65,
-200,q,200,,,,,,,,,,,,,,,,,0,0,0,0,15,2,62,1,,,,,,,,,,,,,,,,,,,,,,,,,,,,,q,1,0.368007898331,None,0,2.0,invertedtrianglecyan.gif,stop,,,,,,,,,,,,,,,,,,,,,,,,1.79,0.513671875,0.000927925109863,0.368007898331,1,q,532.481686115,,,,,,,,,,,,,,,,,,,,,,,,,,,,,,,,,,2015_Jun_24_1402,59.94123498,LearningTask,1,65,
-200,q,200,,,,,,,,,,,,,,,,,0,0,0,0,15,3,63,1,,,,,,,,,,,,,,,,,,,,,,,,,,,,,q,1,0.350692033768,None,0,2.0,circlegreen.gif,go,,,,,,,,,,,,,,,,,,,,,,,,2.16,0.514446020126,0.000917911529541,0.350692033768,1,q,535.48477006,,,,,,,,,,,,,,,,,,,,,,,,,,,,,,,,,,2015_Jun_24_1402,59.94123498,LearningTask,1,65,
-200,q,200,,,,,,,,,,,,,,,,,0,0,0,0,16,0,64,1,,,,,,,,,,,,,,,,,,,,,,,,,,,,,q,1,0.367333173752,None,0,0.5,crossyellow.gif,go,,,,,,,,,,,,,,,,,,,,,,,,0.45,0.514740943909,0.00101900100708,0.367333173752,1,q,538.488651991,,,,,,,,,,,,,,,,,,,,,,,,,,,,,,,,,,2015_Jun_24_1402,59.94123498,LearningTask,1,65,
-200,q,200,,,,,,,,,,,,,,,,,0,0,0,0,16,1,65,1,,,,,,,,,,,,,,,,,,,,,,,,,,,,,q,1,0.401027917862,None,0,2.0,circlegreen.gif,go,,,,,,,,,,,,,,,,,,,,,,,,1.82,0.514203071594,0.00117802619934,0.401027917862,1,q,541.491976023,,,,,,,,,,,,,,,,,,,,,,,,,,,,,,,,,,2015_Jun_24_1402,59.94123498,LearningTask,1,65,
200,s,-200,,,,,,,,,,,,,,,,,0,0,0,0,16,2,66,2,,,,,,,,,,,,,,,,,,,,,,,,,,,,,s,1,0.334369182587,None,0,1.0,squarewhite.gif,stop,,,,,,,,,,,,,,,,,,,,,,,,1.06,0.514026880264,0.00114297866821,0.334369182587,1,s,544.495179176,,,,,,,,,,,,,,,,,,,,,,,,,,,,,,,,,,2015_Jun_24_1402,59.94123498,LearningTask,1,65,
200,s,-200,,,,,,,,,,,,,,,,,0,0,0,0,16,3,67,2,,,,,,,,,,,,,,,,,,,,,,,,,,,,,s,1,0.400825977325,None,0,2.0,invertedtrianglecyan.gif,stop,,,,,,,,,,,,,,,,,,,,,,,,1.85,0.514027118683,0.00093412399292,0.400825977325,1,s,547.498530149,,,,,,,,,,,,,,,,,,,,,,,,,,,,,,,,,,2015_Jun_24_1402,59.94123498,LearningTask,1,65,
200,s,-200,,,,,,,,,,,,,,,,,0,0,0,0,17,0,68,2,,,,,,,,,,,,,,,,,,,,,,,,,,,,,s,1,0.400789022446,None,0,2.0,circlegreen.gif,go,,,,,,,,,,,,,,,,,,,,,,,,0,0.514266014099,0.000923871994019,0.400789022446,1,s,550.50188899,,,,,,,,,,,,,,,,,,,,,,,,,,,,,,,,,,2015_Jun_24_1402,59.94123498,LearningTask,1,65,
200,s,-200,,,,,,,,,,,,,,,,,0,0,0,0,17,1,69,2,,,,,,,,,,,,,,,,,,,,,,,,,,,,,s,1,0.384681940079,None,0,4.0,lineorange.gif,stop,,,,,,,,,,,,,,,,,,,,,,,,4.19,0.514090061188,0.000955104827881,0.384681940079,1,s,553.50532198,,,,,,,,,,,,,,,,,,,,,,,,,,,,,,,,,,2015_Jun_24_1402,59.94123498,LearningTask,1,65,
200,s,-200,,,,,,,,,,,,,,,,,0,0,0,0,17,2,70,2,,,,,,,,,,,,,,,,,,,,,,,,,,,,,s,1,0.350990056992,None,0,0.5,triangleblue.gif,stop,,,,,,,,,,,,,,,,,,,,,,,,0.53,0.514399051666,0.000913143157959,0.350990056992,1,s,556.508633137,,,,,,,,,,,,,,,,,,,,,,,,,,,,,,,,,,2015_Jun_24_1402,59.94123498,LearningTask,1,65,
-200,a,-200,,,,,,,,,,,,,,,,,0,0,0,0,17,3,71,3,,,,,,,,,,,,,,,,,,,,,,,,,,,,,a,1,0.41778087616,None,0,4.0,hexagonmagenta.gif,go,,,,,,,,,,,,,,,,,,,,,,,,4.06,0.514444828033,0.00132203102112,0.41778087616,1,a,559.512207031,,,,,,,,,,,,,,,,,,,,,,,,,,,,,,,,,,2015_Jun_24_1402,59.94123498,LearningTask,1,65,
200,w,200,,,,,,,,,,,,,,,,,0,0,0,0,18,0,72,0,,,,,,,,,,,,,,,,,,,,,,,,,,,,,w,1,0.36781001091,None,0,2.0,invertedtrianglecyan.gif,stop,,,,,,,,,,,,,,,,,,,,,,,,2.15,0.513725996017,0.00121998786926,0.36781001091,1,w,562.515601158,,,,,,,,,,,,,,,,,,,,,,,,,,,,,,,,,,2015_Jun_24_1402,59.94123498,LearningTask,1,65,
200,s,-200,,,,,,,,,,,,,,,,,0,0,0,0,18,1,73,2,,,,,,,,,,,,,,,,,,,,,,,,,,,,,s,1,0.367568016052,None,0,4.0,hexagonmagenta.gif,go,,,,,,,,,,,,,,,,,,,,,,,,4.0,0.514249801636,0.000916004180908,0.367568016052,1,s,565.518754959,,,,,,,,,,,,,,,,,,,,,,,,,,,,,,,,,,2015_Jun_24_1402,59.94123498,LearningTask,1,65,
200,w,200,,,,,,,,,,,,,,,,,0,0,0,0,18,2,74,0,,,,,,,,,,,,,,,,,,,,,,,,,,,,,w,1,0.517544031143,None,0,4.0,lineorange.gif,stop,,,,,,,,,,,,,,,,,,,,,,,,3.92,0.514420032501,0.00104904174805,0.517544031143,1,w,568.522420168,,,,,,,,,,,,,,,,,,,,,,,,,,,,,,,,,,2015_Jun_24_1402,59.94123498,LearningTask,1,65,
-200,a,-200,,,,,,,,,,,,,,,,,0,0,0,0,18,3,75,3,,,,,,,,,,,,,,,,,,,,,,,,,,,,,a,1,0.567799806595,None,0,1.0,diamondgray.gif,go,,,,,,,,,,,,,,,,,,,,,,,,0.88,0.514091968536,0.000992059707642,0.567799806595,1,a,571.525647163,,,,,,,,,,,,,,,,,,,,,,,,,,,,,,,,,,2015_Jun_24_1402,59.94123498,LearningTask,1,65,
200,w,200,,,,,,,,,,,,,,,,,0,0,0,0,19,0,76,0,,,,,,,,,,,,,,,,,,,,,,,,,,,,,w,1,0.417367935181,None,0,0.5,crossyellow.gif,go,,,,,,,,,,,,,,,,,,,,,,,,0.64,0.514276981354,0.000917196273804,0.417367935181,1,w,574.528817177,,,,,,,,,,,,,,,,,,,,,,,,,,,,,,,,,,2015_Jun_24_1402,59.94123498,LearningTask,1,65,
200,w,200,,,,,,,,,,,,,,,,,0,0,0,0,19,1,77,0,,,,,,,,,,,,,,,,,,,,,,,,,,,,,w,1,0.433947086334,None,0,0.5,triangleblue.gif,stop,,,,,,,,,,,,,,,,,,,,,,,,0.26,0.51443696022,0.00092601776123,0.433947086334,1,w,577.532644033,,,,,,,,,,,,,,,,,,,,,,,,,,,,,,,,,,2015_Jun_24_1402,59.94123498,LearningTask,1,65,
-200,a,-200,,,,,,,,,,,,,,,,,0,0,0,0,19,2,78,3,,,,,,,,,,,,,,,,,,,,,,,,,,,,,a,1,0.433632135391,None,0,0.5,triangleblue.gif,stop,,,,,,,,,,,,,,,,,,,,,,,,0.45,0.514084815979,0.00091290473938,0.433632135391,1,a,580.535761118,,,,,,,,,,,,,,,,,,,,,,,,,,,,,,,,,,2015_Jun_24_1402,59.94123498,LearningTask,1,65,
-200,a,-200,,,,,,,,,,,,,,,,,0,0,0,0,19,3,79,3,,,,,,,,,,,,,,,,,,,,,,,,,,,,,a,1,0.500926017761,None,0,1.0,diamondgray.gif,go,,,,,,,,,,,,,,,,,,,,,,,,0,0.514075040817,0.00142908096313,0.417548894882,0,q,583.539003134,0.93,0.51558804512,0.00107598304749,0.500926017761,1,a,586.543007135,,,,,,,,,,,,,,,,,,,,,,,,,,,2015_Jun_24_1402,59.94123498,LearningTask,1,65,
-200,q,200,,,,,,,,,,,,,,,,,0,0,0,0,20,0,80,1,,,,,,,,,,,,,,,,,,,,,,,,,,,,,q,1,0.500785827637,None,0,1.0,squarewhite.gif,stop,,,,,,,,,,,,,,,,,,,,,,,,0,0.513068199158,0.00120210647583,0.500785827637,1,q,589.545845032,,,,,,,,,,,,,,,,,,,,,,,,,,,,,,,,,,2015_Jun_24_1402,59.94123498,LearningTask,1,65,
-200,q,200,,,,,,,,,,,,,,,,,0,0,0,0,20,1,81,1,,,,,,,,,,,,,,,,,,,,,,,,,,,,,q,1,0.567408084869,None,0,1.0,squarewhite.gif,stop,,,,,,,,,,,,,,,,,,,,,,,,1.01,0.514086008072,0.000956058502197,0.567408084869,1,q,592.548895121,,,,,,,,,,,,,,,,,,,,,,,,,,,,,,,,,,2015_Jun_24_1402,59.94123498,LearningTask,1,65,
-200,q,200,,,,,,,,,,,,,,,,,0,0,0,0,20,2,82,1,,,,,,,,,,,,,,,,,,,,,,,,,,,,,q,1,0.467278003693,None,0,4.0,lineorange.gif,stop,,,,,,,,,,,,,,,,,,,,,,,,0,0.515038013458,0.00132203102112,0.467278003693,1,q,595.552749157,,,,,,,,,,,,,,,,,,,,,,,,,,,,,,,,,,2015_Jun_24_1402,59.94123498,LearningTask,1,65,
-200,a,-200,,,,,,,,,,,,,,,,,0,0,0,0,20,3,83,3,,,,,,,,,,,,,,,,,,,,,,,,,,,,,a,1,0.533854007721,None,0,1.0,squarewhite.gif,stop,,,,,,,,,,,,,,,,,,,,,,,,1.17,0.514302968979,0.000914096832275,0.533854007721,1,a,598.556141138,,,,,,,,,,,,,,,,,,,,,,,,,,,,,,,,,,2015_Jun_24_1402,59.94123498,LearningTask,1,65,
-200,q,200,,,,,,,,,,,,,,,,,0,0,0,0,21,0,84,1,,,,,,,,,,,,,,,,,,,,,,,,,,,,,q,1,0.584578037262,None,0,1.0,diamondgray.gif,go,,,,,,,,,,,,,,,,,,,,,,,,1.25,0.51368522644,0.000962018966675,0.584578037262,1,q,601.559509993,,,,,,,,,,,,,,,,,,,,,,,,,,,,,,,,,,2015_Jun_24_1402,59.94123498,LearningTask,1,65,
-200,a,-200,,,,,,,,,,,,,,,,,0,0,0,0,21,1,85,3,,,,,,,,,,,,,,,,,,,,,,,,,,,,,a,1,0.501184940338,None,0,1.0,squarewhite.gif,stop,,,,,,,,,,,,,,,,,,,,,,,,0,0.514117956161,0.00091814994812,0.501184940338,1,a,604.562586069,,,,,,,,,,,,,,,,,,,,,,,,,,,,,,,,,,2015_Jun_24_1402,59.94123498,LearningTask,1,65,
200,s,-200,,,,,,,,,,,,,,,,,0,0,0,0,21,2,86,2,,,,,,,,,,,,,,,,,,,,,,,,,,,,,s,1,0.417742013931,None,0,1.0,squarewhite.gif,stop,,,,,,,,,,,,,,,,,,,,,,,,1.01,0.514494180679,0.000908136367798,0.417742013931,1,s,607.566715002,,,,,,,,,,,,,,,,,,,,,,,,,,,,,,,,,,2015_Jun_24_1402,59.94123498,LearningTask,1,65,
200,w,200,,,,,,,,,,,,,,,,,0,0,0,0,21,3,87,0,,,,,,,,,,,,,,,,,,,,,,,,,,,,,w,1,0.450646877289,None,0,2.0,circlegreen.gif,go,,,,,,,,,,,,,,,,,,,,,,,,2.05,0.513127803802,0.00132894515991,0.450646877289,1,w,610.569643021,,,,,,,,,,,,,,,,,,,,,,,,,,,,,,,,,,2015_Jun_24_1402,59.94123498,LearningTask,1,65,
200,s,-200,,,,,,,,,,,,,,,,,0,0,0,0,22,0,88,2,,,,,,,,,,,,,,,,,,,,,,,,,,,,,s,1,0.467935085297,None,0,1.0,diamondgray.gif,go,,,,,,,,,,,,,,,,,,,,,,,,0,0.514313936234,0.000915050506592,0.467935085297,1,s,613.572856188,,,,,,,,,,,,,,,,,,,,,,,,,,,,,,,,,,2015_Jun_24_1402,59.94123498,LearningTask,1,65,
-200,q,200,,,,,,,,,,,,,,,,,0,0,0,0,22,1,89,1,,,,,,,,,,,,,,,,,,,,,,,,,,,,,q,1,0.517791986465,None,0,1.0,diamondgray.gif,go,,,,,,,,,,,,,,,,,,,,,,,,1.13,0.514041185379,0.00102806091309,0.517791986465,1,q,616.576543093,,,,,,,,,,,,,,,,,,,,,,,,,,,,,,,,,,2015_Jun_24_1402,59.94123498,LearningTask,1,65,
-200,q,200,,,,,,,,,,,,,,,,,0,0,0,0,22,2,90,1,,,,,,,,,,,,,,,,,,,,,,,,,,,,,q,1,0.467647075653,None,0,0.5,crossyellow.gif,go,,,,,,,,,,,,,,,,,,,,,,,,0,0.513877868652,0.00131487846375,0.467647075653,1,q,619.579668999,,,,,,,,,,,,,,,,,,,,,,,,,,,,,,,,,,2015_Jun_24_1402,59.94123498,LearningTask,1,65,
200,w,200,,,,,,,,,,,,,,,,,0,0,0,0,22,3,91,0,,,,,,,,,,,,,,,,,,,,,,,,,,,,,w,1,0.38423705101,None,0,0.5,crossyellow.gif,go,,,,,,,,,,,,,,,,,,,,,,,,0.35,0.514339923859,0.000914096832275,0.38423705101,1,w,622.582924128,,,,,,,,,,,,,,,,,,,,,,,,,,,,,,,,,,2015_Jun_24_1402,59.94123498,LearningTask,1,65,
-200,q,200,,,,,,,,,,,,,,,,,0,0,0,0,23,0,92,1,,,,,,,,,,,,,,,,,,,,,,,,,,,,,q,1,0.467319011688,None,0,2.0,invertedtrianglecyan.gif,stop,,,,,,,,,,,,,,,,,,,,,,,,1.95,0.514476060867,0.00144195556641,0.467319011688,1,q,625.586564064,,,,,,,,,,,,,,,,,,,,,,,,,,,,,,,,,,2015_Jun_24_1402,59.94123498,LearningTask,1,65,
-200,a,-200,,,,,,,,,,,,,,,,,0,0,0,0,23,1,93,3,,,,,,,,,,,,,,,,,,,,,,,,,,,,,a,1,0.417844057083,None,0,1.0,diamondgray.gif,go,,,,,,,,,,,,,,,,,,,,,,,,0,0.514066934586,0.00092601776123,0.417844057083,1,a,628.589945078,,,,,,,,,,,,,,,,,,,,,,,,,,,,,,,,,,2015_Jun_24_1402,59.94123498,LearningTask,1,65,
-200,a,-200,,,,,,,,,,,,,,,,,0,0,0,0,23,2,94,3,,,,,,,,,,,,,,,,,,,,,,,,,,,,,a,1,0.417299032211,None,0,1.0,squarewhite.gif,stop,,,,,,,,,,,,,,,,,,,,,,,,0.97,0.51419711113,0.00122308731079,0.417299032211,1,a,631.593046188,,,,,,,,,,,,,,,,,,,,,,,,,,,,,,,,,,2015_Jun_24_1402,59.94123498,LearningTask,1,65,
200,w,200,,,,,,,,,,,,,,,,,0,0,0,0,23,3,95,0,,,,,,,,,,,,,,,,,,,,,,,,,,,,,w,1,0.417933940887,None,0,1.0,squarewhite.gif,stop,,,,,,,,,,,,,,,,,,,,,,,,0.78,0.514110088348,0.000957012176514,0.417933940887,1,w,634.596750021,,,,,,,,,,,,,,,,,,,,,,,,,,,,,,,,,,2015_Jun_24_1402,59.94123498,LearningTask,1,65,
-200,q,200,,,,,,,,,,,,,,,,,0,0,0,0,24,0,96,1,,,,,,,,,,,,,,,,,,,,,,,,,,,,,q,1,0.351167917252,None,0,4.0,hexagonmagenta.gif,go,,,,,,,,,,,,,,,,,,,,,,,,3.94,0.513697147369,0.0014340877533,0.351167917252,1,q,637.599912167,,,,,,,,,,,,,,,,,,,,,,,,,,,,,,,,,,2015_Jun_24_1402,59.94123498,LearningTask,1,65,
-200,a,-200,,,,,,,,,,,,,,,,,0,0,0,0,24,1,97,3,,,,,,,,,,,,,,,,,,,,,,,,,,,,,a,1,0.451209068298,None,0,2.0,circlegreen.gif,go,,,,,,,,,,,,,,,,,,,,,,,,2.04,0.513940095901,0.00105309486389,0.451209068298,1,a,640.603343964,,,,,,,,,,,,,,,,,,,,,,,,,,,,,,,,,,2015_Jun_24_1402,59.94123498,LearningTask,1,65,
-200,q,200,,,,,,,,,,,,,,,,,0,0,0,0,24,2,98,1,,,,,,,,,,,,,,,,,,,,,,,,,,,,,q,1,0.400314092636,None,0,0.5,triangleblue.gif,stop,,,,,,,,,,,,,,,,,,,,,,,,0.29,0.514342069626,0.00131297111511,0.400314092636,1,q,643.606548071,,,,,,,,,,,,,,,,,,,,,,,,,,,,,,,,,,2015_Jun_24_1402,59.94123498,LearningTask,1,65,
-200,a,-200,,,,,,,,,,,,,,,,,0,0,0,0,24,3,99,3,,,,,,,,,,,,,,,,,,,,,,,,,,,,,a,1,0.45067191124,None,0,4.0,hexagonmagenta.gif,go,,,,,,,,,,,,,,,,,,,,,,,,3.91,0.514513969421,0.000949144363403,0.45067191124,1,a,646.610072136,,,,,,,,,,,,,,,,,,,,,,,,,,,,,,,,,,2015_Jun_24_1402,59.94123498,LearningTask,1,65,
,,,,,,,,,,,,,,,,,,,0,0,0,0,,,,,,,,,,,,,,,,,,,,,,,,,,,,,,,,,,,,,,,,,,,,,,,,,,,,,,,,,,,,,,,,,,,,,,,,,,,,,,9,7.23057198524,,,,,,,,,,,,,,,,,,,,,,,,,2015_Jun_24_1402,59.94123498,LearningTask,1,65,
-200,q,200,,,,,,,,,,,,,,,,,1,0,1,0,0,0,0,1,,,,,,,,,,,,,,,,,,,,,,,,,,,,,q,1,0.467179059982,None,0,0.5,crossyellow.gif,go,,,,,,,,,,,,,,,,,,,,,,,,0,0.508322954178,0.000933885574341,0.600905895233,0,w,657.289129019,0.56,0.515038967133,0.00097393989563,0.467179059982,1,q,660.292188168,,,,,,,,,,,,,,,,,,,,,,,,,,,2015_Jun_24_1402,59.94123498,LearningTask,1,65,
-200,a,-200,,,,,,,,,,,,,,,,,1,0,1,0,0,1,1,3,,,,,,,,,,,,,,,,,,,,,,,,,,,,,a,1,0.467124938965,None,0,0.5,crossyellow.gif,go,,,,,,,,,,,,,,,,,,,,,,,,0,0.514358043671,0.000982046127319,0.467124938965,1,a,663.29563117,,,,,,,,,,,,,,,,,,,,,,,,,,,,,,,,,,2015_Jun_24_1402,59.94123498,LearningTask,1,65,
-200,q,200,,,,,,,,,,,,,,,,,1,0,1,0,0,2,2,1,,,,,,,,,,,,,,,,,,,,,,,,,,,,,q,1,0.584493160248,None,0,0.5,crossyellow.gif,go,,,,,,,,,,,,,,,,,,,,,,,,0.51,0.514303922653,0.00092601776123,0.584493160248,1,q,666.299338102,,,,,,,,,,,,,,,,,,,,,,,,,,,,,,,,,,2015_Jun_24_1402,59.94123498,LearningTask,1,65,
200,s,-200,,,,,,,,,,,,,,,,,1,0,1,0,0,3,3,2,,,,,,,,,,,,,,,,,,,,,,,,,,,,,s,1,0.45134806633,None,0,4.0,hexagonmagenta.gif,go,,,,,,,,,,,,,,,,,,,,,,,,3.97,0.513113975525,0.00107002258301,0.45134806633,1,s,669.302172184,,,,,,,,,,,,,,,,,,,,,,,,,,,,,,,,,,2015_Jun_24_1402,59.94123498,LearningTask,1,65,
200,w,200,,,,,,,,,,,,,,,,,1,0,1,0,1,0,4,0,,,,,,,,,,,,,,,,,,,,,,,,,,,,,w,1,0.400718927383,None,0,1.0,squarewhite.gif,stop,,,,,,,,,,,,,,,,,,,,,,,,1.07,0.514081954956,0.00095009803772,0.400718927383,1,w,672.305549145,,,,,,,,,,,,,,,,,,,,,,,,,,,,,,,,,,2015_Jun_24_1402,59.94123498,LearningTask,1,65,
-200,q,200,,,,,,,,,,,,,,,,,1,0,1,0,1,1,5,1,,,,,,,,,,,,,,,,,,,,,,,,,,,,,q,1,0.467782974243,None,0,0.5,triangleblue.gif,stop,,,,,,,,,,,,,,,,,,,,,,,,0.37,0.514338970184,0.00117588043213,0.467782974243,1,q,675.308923006,,,,,,,,,,,,,,,,,,,,,,,,,,,,,,,,,,2015_Jun_24_1402,59.94123498,LearningTask,1,65,
200,s,-200,,,,,,,,,,,,,,,,,1,0,1,0,1,2,6,2,,,,,,,,,,,,,,,,,,,,,,,,,,,,,s,1,0.434391021729,None,0,0.5,crossyellow.gif,go,,,,,,,,,,,,,,,,,,,,,,,,0.63,0.51381111145,0.00102996826172,0.434391021729,1,s,678.312081099,,,,,,,,,,,,,,,,,,,,,,,,,,,,,,,,,,2015_Jun_24_1402,59.94123498,LearningTask,1,65,
200,w,200,,,,,,,,,,,,,,,,,1,0,1,0,1,3,7,0,,,,,,,,,,,,,,,,,,,,,,,,,,,,,w,1,0.434017181396,None,0,4.0,hexagonmagenta.gif,go,,,,,,,,,,,,,,,,,,,,,,,,3.92,0.514632940292,0.000924110412598,0.434017181396,1,w,681.31559515,,,,,,,,,,,,,,,,,,,,,,,,,,,,,,,,,,2015_Jun_24_1402,59.94123498,LearningTask,1,65,
-200,a,-200,,,,,,,,,,,,,,,,,1,0,1,0,2,0,8,3,,,,,,,,,,,,,,,,,,,,,,,,,,,,,a,1,0.533859968185,None,0,4.0,lineorange.gif,stop,,,,,,,,,,,,,,,,,,,,,,,,3.98,0.515020847321,0.000914812088013,0.533859968185,1,a,684.319102049,,,,,,,,,,,,,,,,,,,,,,,,,,,,,,,,,,2015_Jun_24_1402,59.94123498,LearningTask,1,65,
-200,q,200,,,,,,,,,,,,,,,,,1,0,1,0,2,1,9,1,,,,,,,,,,,,,,,,,,,,,,,,,,,,,q,1,0.417176961899,None,0,0.5,triangleblue.gif,stop,,,,,,,,,,,,,,,,,,,,,,,,0.72,0.514166116714,0.000916004180908,0.417176961899,1,q,687.322627068,,,,,,,,,,,,,,,,,,,,,,,,,,,,,,,,,,2015_Jun_24_1402,59.94123498,LearningTask,1,65,
-200,a,-200,,,,,,,,,,,,,,,,,1,0,1,0,2,2,10,3,,,,,,,,,,,,,,,,,,,,,,,,,,,,,a,1,0.418022155762,None,0,4.0,hexagonmagenta.gif,go,,,,,,,,,,,,,,,,,,,,,,,,4.05,0.51402592659,0.000922918319702,0.418022155762,1,a,690.326146126,,,,,,,,,,,,,,,,,,,,,,,,,,,,,,,,,,2015_Jun_24_1402,59.94123498,LearningTask,1,65,
-200,q,200,,,,,,,,,,,,,,,,,1,0,1,0,2,3,11,1,,,,,,,,,,,,,,,,,,,,,,,,,,,,,q,1,0.467563867569,None,0,4.0,lineorange.gif,stop,,,,,,,,,,,,,,,,,,,,,,,,4.16,0.513674020767,0.000919818878174,0.467563867569,1,q,693.329272985,,,,,,,,,,,,,,,,,,,,,,,,,,,,,,,,,,2015_Jun_24_1402,59.94123498,LearningTask,1,65,
-200,a,-200,,,,,,,,,,,,,,,,,1,0,1,0,3,0,12,3,,,,,,,,,,,,,,,,,,,,,,,,,,,,,a,1,0.400639057159,None,0,1.0,squarewhite.gif,stop,,,,,,,,,,,,,,,,,,,,,,,,0,0.513849020004,0.000953197479248,0.400639057159,1,a,696.332771063,,,,,,,,,,,,,,,,,,,,,,,,,,,,,,,,,,2015_Jun_24_1402,59.94123498,LearningTask,1,65,
200,s,-200,,,,,,,,,,,,,,,,,1,0,1,0,3,1,13,2,,,,,,,,,,,,,,,,,,,,,,,,,,,,,s,1,0.384582042694,None,0,1.0,diamondgray.gif,go,,,,,,,,,,,,,,,,,,,,,,,,1.08,0.513849973679,0.0010199546814,0.384582042694,1,s,699.335954189,,,,,,,,,,,,,,,,,,,,,,,,,,,,,,,,,,2015_Jun_24_1402,59.94123498,LearningTask,1,65,
200,w,200,,,,,,,,,,,,,,,,,1,0,1,0,3,2,14,0,,,,,,,,,,,,,,,,,,,,,,,,,,,,,w,1,0.350850105286,None,0,4.0,hexagonmagenta.gif,go,,,,,,,,,,,,,,,,,,,,,,,,0,0.514554977417,0.000922918319702,0.350850105286,1,w,702.339784145,,,,,,,,,,,,,,,,,,,,,,,,,,,,,,,,,,2015_Jun_24_1402,59.94123498,LearningTask,1,65,
200,s,-200,,,,,,,,,,,,,,,,,1,0,1,0,3,3,15,2,,,,,,,,,,,,,,,,,,,,,,,,,,,,,s,1,0.434497117996,None,0,0.5,triangleblue.gif,stop,,,,,,,,,,,,,,,,,,,,,,,,0.43,0.513526916504,0.00092887878418,0.434497117996,1,s,705.342383146,,,,,,,,,,,,,,,,,,,,,,,,,,,,,,,,,,2015_Jun_24_1402,59.94123498,LearningTask,1,65,
-200,a,-200,,,,,,,,,,,,,,,,,1,0,1,0,4,0,16,3,,,,,,,,,,,,,,,,,,,,,,,,,,,,,a,1,0.484215974808,None,0,4.0,lineorange.gif,stop,,,,,,,,,,,,,,,,,,,,,,,,4.15,0.514693975449,0.000942945480347,0.484215974808,1,a,708.345906019,,,,,,,,,,,,,,,,,,,,,,,,,,,,,,,,,,2015_Jun_24_1402,59.94123498,LearningTask,1,65,
-200,q,200,,,,,,,,,,,,,,,,,1,0,1,0,4,1,17,1,,,,,,,,,,,,,,,,,,,,,,,,,,,,,q,1,0.434140920639,None,0,1.0,diamondgray.gif,go,,,,,,,,,,,,,,,,,,,,,,,,0,0.514446020126,0.000955820083618,0.434140920639,1,q,711.349516153,,,,,,,,,,,,,,,,,,,,,,,,,,,,,,,,,,2015_Jun_24_1402,59.94123498,LearningTask,1,65,
200,s,-200,,,,,,,,,,,,,,,,,1,0,1,0,4,2,18,2,,,,,,,,,,,,,,,,,,,,,,,,,,,,,s,1,0.384181022644,None,0,2.0,invertedtrianglecyan.gif,stop,,,,,,,,,,,,,,,,,,,,,,,,2.09,0.514284133911,0.00116014480591,0.384181022644,1,s,714.352795124,,,,,,,,,,,,,,,,,,,,,,,,,,,,,,,,,,2015_Jun_24_1402,59.94123498,LearningTask,1,65,
-200,q,200,,,,,,,,,,,,,,,,,1,0,1,0,4,3,19,1,,,,,,,,,,,,,,,,,,,,,,,,,,,,,q,1,0.38415312767,None,0,4.0,lineorange.gif,stop,,,,,,,,,,,,,,,,,,,,,,,,4.09,0.514101028442,0.000940084457397,0.38415312767,1,q,717.356119156,,,,,,,,,,,,,,,,,,,,,,,,,,,,,,,,,,2015_Jun_24_1402,59.94123498,LearningTask,1,65,
200,s,-200,,,,,,,,,,,,,,,,,1,0,1,0,5,0,20,2,,,,,,,,,,,,,,,,,,,,,,,,,,,,,s,1,0.384600877762,None,0,1.0,diamondgray.gif,go,,,,,,,,,,,,,,,,,,,,,,,,0.85,0.514075994492,0.000915765762329,0.384600877762,1,s,720.359584093,,,,,,,,,,,,,,,,,,,,,,,,,,,,,,,,,,2015_Jun_24_1402,59.94123498,LearningTask,1,65,
-200,a,-200,,,,,,,,,,,,,,,,,1,0,1,0,5,1,21,3,,,,,,,,,,,,,,,,,,,,,,,,,,,,,a,1,0.384708881378,None,0,4.0,hexagonmagenta.gif,go,,,,,,,,,,,,,,,,,,,,,,,,3.96,0.51416516304,0.000900030136108,0.384708881378,1,a,723.363132,,,,,,,,,,,,,,,,,,,,,,,,,,,,,,,,,,2015_Jun_24_1402,59.94123498,LearningTask,1,65,
200,w,200,,,,,,,,,,,,,,,,,1,0,1,0,5,2,22,0,,,,,,,,,,,,,,,,,,,,,,,,,,,,,w,1,0.434062004089,None,0,1.0,squarewhite.gif,stop,,,,,,,,,,,,,,,,,,,,,,,,0.81,0.513536930084,0.000941038131714,0.434062004089,1,w,726.366271019,,,,,,,,,,,,,,,,,,,,,,,,,,,,,,,,,,2015_Jun_24_1402,59.94123498,LearningTask,1,65,
-200,a,-200,,,,,,,,,,,,,,,,,1,0,1,0,5,3,23,3,,,,,,,,,,,,,,,,,,,,,,,,,,,,,a,1,0.417462110519,None,0,0.5,triangleblue.gif,stop,,,,,,,,,,,,,,,,,,,,,,,,0.74,0.514369010925,0.000898122787476,0.417462110519,1,a,729.36958909,,,,,,,,,,,,,,,,,,,,,,,,,,,,,,,,,,2015_Jun_24_1402,59.94123498,LearningTask,1,65,
-200,a,-200,,,,,,,,,,,,,,,,,1,0,1,0,6,0,24,3,,,,,,,,,,,,,,,,,,,,,,,,,,,,,a,1,0.451323032379,None,0,2.0,circlegreen.gif,go,,,,,,,,,,,,,,,,,,,,,,,,1.81,0.514460086823,0.000892877578735,0.451323032379,1,a,732.372771978,,,,,,,,,,,,,,,,,,,,,,,,,,,,,,,,,,2015_Jun_24_1402,59.94123498,LearningTask,1,65,
-200,a,-200,,,,,,,,,,,,,,,,,1,0,1,0,6,1,25,3,,,,,,,,,,,,,,,,,,,,,,,,,,,,,a,1,0.467914104462,None,0,4.0,lineorange.gif,stop,,,,,,,,,,,,,,,,,,,,,,,,4.02,0.514061927795,0.000909805297852,0.467914104462,1,a,735.376471996,,,,,,,,,,,,,,,,,,,,,,,,,,,,,,,,,,2015_Jun_24_1402,59.94123498,LearningTask,1,65,
200,w,200,,,,,,,,,,,,,,,,,1,0,1,0,6,2,26,0,,,,,,,,,,,,,,,,,,,,,,,,,,,,,w,1,0.467517137527,None,0,4.0,hexagonmagenta.gif,go,,,,,,,,,,,,,,,,,,,,,,,,3.87,0.514229059219,0.00090503692627,0.467517137527,1,w,738.379863024,,,,,,,,,,,,,,,,,,,,,,,,,,,,,,,,,,2015_Jun_24_1402,59.94123498,LearningTask,1,65,
200,w,200,,,,,,,,,,,,,,,,,1,0,1,0,6,3,27,0,,,,,,,,,,,,,,,,,,,,,,,,,,,,,w,1,0.434365987778,None,0,1.0,squarewhite.gif,stop,,,,,,,,,,,,,,,,,,,,,,,,1.22,0.513881921768,0.000938892364502,0.434365987778,1,w,741.383511066,,,,,,,,,,,,,,,,,,,,,,,,,,,,,,,,,,2015_Jun_24_1402,59.94123498,LearningTask,1,65,
-200,q,200,,,,,,,,,,,,,,,,,1,0,1,0,7,0,28,1,,,,,,,,,,,,,,,,,,,,,,,,,,,,,q,1,0.467720031738,None,0,4.0,hexagonmagenta.gif,go,,,,,,,,,,,,,,,,,,,,,,,,0,0.513768911362,0.000910997390747,0.467720031738,1,q,744.386666059,,,,,,,,,,,,,,,,,,,,,,,,,,,,,,,,,,2015_Jun_24_1402,59.94123498,LearningTask,1,65,
-200,q,200,,,,,,,,,,,,,,,,,1,0,1,0,7,1,29,1,,,,,,,,,,,,,,,,,,,,,,,,,,,,,q,1,0.433641910553,None,0,4.0,lineorange.gif,stop,,,,,,,,,,,,,,,,,,,,,,,,4.09,0.514422178268,0.000894069671631,0.433641910553,1,q,747.38986516,,,,,,,,,,,,,,,,,,,,,,,,,,,,,,,,,,2015_Jun_24_1402,59.94123498,LearningTask,1,65,
-200,q,200,,,,,,,,,,,,,,,,,1,0,1,0,7,2,30,1,,,,,,,,,,,,,,,,,,,,,,,,,,,,,q,1,0.45143198967,None,0,2.0,circlegreen.gif,go,,,,,,,,,,,,,,,,,,,,,,,,1.91,0.514201879501,0.000988006591797,0.45143198967,1,q,750.393347025,,,,,,,,,,,,,,,,,,,,,,,,,,,,,,,,,,2015_Jun_24_1402,59.94123498,LearningTask,1,65,
200,s,-200,,,,,,,,,,,,,,,,,1,0,1,0,7,3,31,2,,,,,,,,,,,,,,,,,,,,,,,,,,,,,s,1,0.434315919876,None,0,4.0,lineorange.gif,stop,,,,,,,,,,,,,,,,,,,,,,,,4.24,0.51415514946,0.000910997390747,0.434315919876,1,s,753.396986961,,,,,,,,,,,,,,,,,,,,,,,,,,,,,,,,,,2015_Jun_24_1402,59.94123498,LearningTask,1,65,
-200,q,200,,,,,,,,,,,,,,,,,1,0,1,0,8,0,32,1,,,,,,,,,,,,,,,,,,,,,,,,,,,,,q,1,0.434482097626,None,0,4.0,lineorange.gif,stop,,,,,,,,,,,,,,,,,,,,,,,,4.14,0.514019966125,0.00121903419495,0.434482097626,1,q,756.400443077,,,,,,,,,,,,,,,,,,,,,,,,,,,,,,,,,,2015_Jun_24_1402,59.94123498,LearningTask,1,65,
-200,q,200,,,,,,,,,,,,,,,,,1,0,1,0,8,1,33,1,,,,,,,,,,,,,,,,,,,,,,,,,,,,,q,1,0.467348098755,None,0,1.0,squarewhite.gif,stop,,,,,,,,,,,,,,,,,,,,,,,,1.04,0.513907909393,0.000920057296753,0.467348098755,1,q,759.403836966,,,,,,,,,,,,,,,,,,,,,,,,,,,,,,,,,,2015_Jun_24_1402,59.94123498,LearningTask,1,65,
-200,a,-200,,,,,,,,,,,,,,,,,1,0,1,0,8,2,34,3,,,,,,,,,,,,,,,,,,,,,,,,,,,,,a,1,0.468411922455,None,0,2.0,invertedtrianglecyan.gif,stop,,,,,,,,,,,,,,,,,,,,,,,,2.07,0.513774871826,0.000905990600586,0.468411922455,1,a,762.406751156,,,,,,,,,,,,,,,,,,,,,,,,,,,,,,,,,,2015_Jun_24_1402,59.94123498,LearningTask,1,65,
-200,q,200,,,,,,,,,,,,,,,,,1,0,1,0,8,3,35,1,,,,,,,,,,,,,,,,,,,,,,,,,,,,,q,1,0.384124994278,None,0,4.0,hexagonmagenta.gif,go,,,,,,,,,,,,,,,,,,,,,,,,0,0.514106988907,0.00111889839172,0.384124994278,1,q,765.410156965,,,,,,,,,,,,,,,,,,,,,,,,,,,,,,,,,,2015_Jun_24_1402,59.94123498,LearningTask,1,65,
200,w,200,,,,,,,,,,,,,,,,,1,0,1,0,9,0,36,0,,,,,,,,,,,,,,,,,,,,,,,,,,,,,w,1,0.350790023804,None,0,2.0,invertedtrianglecyan.gif,stop,,,,,,,,,,,,,,,,,,,,,,,,1.94,0.514299869537,0.000900983810425,0.350790023804,1,w,768.413510084,,,,,,,,,,,,,,,,,,,,,,,,,,,,,,,,,,2015_Jun_24_1402,59.94123498,LearningTask,1,65,
-200,a,-200,,,,,,,,,,,,,,,,,1,0,1,0,9,1,37,3,,,,,,,,,,,,,,,,,,,,,,,,,,,,,a,1,0.451374053955,None,0,2.0,circlegreen.gif,go,,,,,,,,,,,,,,,,,,,,,,,,1.92,0.514452934265,0.000906944274902,0.451374053955,1,a,771.418416977,,,,,,,,,,,,,,,,,,,,,,,,,,,,,,,,,,2015_Jun_24_1402,59.94123498,LearningTask,1,65,
200,s,-200,,,,,,,,,,,,,,,,,1,0,1,0,9,2,38,2,,,,,,,,,,,,,,,,,,,,,,,,,,,,,s,1,0.384038925171,None,0,1.0,squarewhite.gif,stop,,,,,,,,,,,,,,,,,,,,,,,,1.12,0.512964963913,0.000897884368896,0.384038925171,1,s,774.420252085,,,,,,,,,,,,,,,,,,,,,,,,,,,,,,,,,,2015_Jun_24_1402,59.94123498,LearningTask,1,65,
200,w,200,,,,,,,,,,,,,,,,,1,0,1,0,9,3,39,0,,,,,,,,,,,,,,,,,,,,,,,,,,,,,w,1,0.334056854248,None,0,4.0,hexagonmagenta.gif,go,,,,,,,,,,,,,,,,,,,,,,,,3.79,0.514287948608,0.000891923904419,0.334056854248,1,w,777.423727036,,,,,,,,,,,,,,,,,,,,,,,,,,,,,,,,,,2015_Jun_24_1402,59.94123498,LearningTask,1,65,
200,w,200,,,,,,,,,,,,,,,,,1,0,1,0,10,0,40,0,,,,,,,,,,,,,,,,,,,,,,,,,,,,,w,1,0.367562055588,None,0,0.5,triangleblue.gif,stop,,,,,,,,,,,,,,,,,,,,,,,,0.44,0.514401197433,0.000899076461792,0.367562055588,1,w,780.427752018,,,,,,,,,,,,,,,,,,,,,,,,,,,,,,,,,,2015_Jun_24_1402,59.94123498,LearningTask,1,65,
-200,a,-200,,,,,,,,,,,,,,,,,1,0,1,0,10,1,41,3,,,,,,,,,,,,,,,,,,,,,,,,,,,,,a,1,0.484260082245,None,0,4.0,hexagonmagenta.gif,go,,,,,,,,,,,,,,,,,,,,,,,,0,0.513253927231,0.000921964645386,0.484260082245,1,a,783.43069315,,,,,,,,,,,,,,,,,,,,,,,,,,,,,,,,,,2015_Jun_24_1402,59.94123498,LearningTask,1,65,
200,w,200,,,,,,,,,,,,,,,,,1,0,1,0,10,2,42,0,,,,,,,,,,,,,,,,,,,,,,,,,,,,,w,1,0.384649991989,None,0,1.0,diamondgray.gif,go,,,,,,,,,,,,,,,,,,,,,,,,0.75,0.514085054398,0.000892162322998,0.384649991989,1,w,786.433794975,,,,,,,,,,,,,,,,,,,,,,,,,,,,,,,,,,2015_Jun_24_1402,59.94123498,LearningTask,1,65,
200,s,-200,,,,,,,,,,,,,,,,,1,0,1,0,10,3,43,2,,,,,,,,,,,,,,,,,,,,,,,,,,,,,s,1,0.417884111404,None,0,4.0,hexagonmagenta.gif,go,,,,,,,,,,,,,,,,,,,,,,,,4.05,0.514522075653,0.000900983810425,0.417884111404,1,s,789.437308073,,,,,,,,,,,,,,,,,,,,,,,,,,,,,,,,,,2015_Jun_24_1402,59.94123498,LearningTask,1,65,
200,s,-200,,,,,,,,,,,,,,,,,1,0,1,0,11,0,44,2,,,,,,,,,,,,,,,,,,,,,,,,,,,,,s,1,0.434344053268,None,0,0.5,crossyellow.gif,go,,,,,,,,,,,,,,,,,,,,,,,,0.36,0.513944149017,0.000935077667236,0.434344053268,1,s,792.440675974,,,,,,,,,,,,,,,,,,,,,,,,,,,,,,,,,,2015_Jun_24_1402,59.94123498,LearningTask,1,65,
-200,a,-200,,,,,,,,,,,,,,,,,1,0,1,0,11,1,45,3,,,,,,,,,,,,,,,,,,,,,,,,,,,,,a,1,0.501043796539,None,0,1.0,squarewhite.gif,stop,,,,,,,,,,,,,,,,,,,,,,,,1.02,0.51421713829,0.000890970230103,0.501043796539,1,a,795.443798065,,,,,,,,,,,,,,,,,,,,,,,,,,,,,,,,,,2015_Jun_24_1402,59.94123498,LearningTask,1,65,
-200,q,200,,,,,,,,,,,,,,,,,1,0,1,0,11,2,46,1,,,,,,,,,,,,,,,,,,,,,,,,,,,,,q,1,0.534384012222,None,0,0.5,triangleblue.gif,stop,,,,,,,,,,,,,,,,,,,,,,,,0.57,0.514569997787,0.000968933105469,0.534384012222,1,q,798.447187185,,,,,,,,,,,,,,,,,,,,,,,,,,,,,,,,,,2015_Jun_24_1402,59.94123498,LearningTask,1,65,
-200,q,200,,,,,,,,,,,,,,,,,1,0,1,0,11,3,47,1,,,,,,,,,,,,,,,,,,,,,,,,,,,,,q,1,0.467627048492,None,0,4.0,lineorange.gif,stop,,,,,,,,,,,,,,,,,,,,,,,,3.83,0.514664888382,0.000899076461792,0.467627048492,1,q,801.450628042,,,,,,,,,,,,,,,,,,,,,,,,,,,,,,,,,,2015_Jun_24_1402,59.94123498,LearningTask,1,65,
-200,a,-200,,,,,,,,,,,,,,,,,1,0,1,0,12,0,48,3,,,,,,,,,,,,,,,,,,,,,,,,,,,,,a,1,0.484791040421,None,0,1.0,diamondgray.gif,go,,,,,,,,,,,,,,,,,,,,,,,,1.14,0.514166116714,0.0010621547699,0.484791040421,1,a,804.454265118,,,,,,,,,,,,,,,,,,,,,,,,,,,,,,,,,,2015_Jun_24_1402,59.94123498,LearningTask,1,65,
200,s,-200,,,,,,,,,,,,,,,,,1,0,1,0,12,1,49,2,,,,,,,,,,,,,,,,,,,,,,,,,,,,,s,1,0.400990009308,None,0,0.5,triangleblue.gif,stop,,,,,,,,,,,,,,,,,,,,,,,,0.65,0.513852119446,0.00125217437744,0.400990009308,1,s,807.458316088,,,,,,,,,,,,,,,,,,,,,,,,,,,,,,,,,,2015_Jun_24_1402,59.94123498,LearningTask,1,65,
200,s,-200,,,,,,,,,,,,,,,,,1,0,1,0,12,2,50,2,,,,,,,,,,,,,,,,,,,,,,,,,,,,,s,1,0.384410858154,None,0,1.0,squarewhite.gif,stop,,,,,,,,,,,,,,,,,,,,,,,,0.96,0.513471126556,0.000893115997314,0.384410858154,1,s,810.460880041,,,,,,,,,,,,,,,,,,,,,,,,,,,,,,,,,,2015_Jun_24_1402,59.94123498,LearningTask,1,65,
200,w,200,,,,,,,,,,,,,,,,,1,0,1,0,12,3,51,0,,,,,,,,,,,,,,,,,,,,,,,,,,,,,w,1,0.367899894714,None,0,4.0,lineorange.gif,stop,,,,,,,,,,,,,,,,,,,,,,,,3.92,0.513793945312,0.000936031341553,0.367899894714,1,w,813.464223146,,,,,,,,,,,,,,,,,,,,,,,,,,,,,,,,,,2015_Jun_24_1402,59.94123498,LearningTask,1,65,
200,s,-200,,,,,,,,,,,,,,,,,1,0,1,0,13,0,52,2,,,,,,,,,,,,,,,,,,,,,,,,,,,,,s,1,0.434195995331,None,0,0.5,crossyellow.gif,go,,,,,,,,,,,,,,,,,,,,,,,,0.59,0.514327049255,0.000903129577637,0.434195995331,1,s,816.467538118,,,,,,,,,,,,,,,,,,,,,,,,,,,,,,,,,,2015_Jun_24_1402,59.94123498,LearningTask,1,65,
200,w,200,,,,,,,,,,,,,,,,,1,0,1,0,13,1,53,0,,,,,,,,,,,,,,,,,,,,,,,,,,,,,w,1,0.435033798218,None,0,2.0,invertedtrianglecyan.gif,stop,,,,,,,,,,,,,,,,,,,,,,,,0,0.513849020004,0.000893115997314,0.435033798218,1,w,819.471160173,,,,,,,,,,,,,,,,,,,,,,,,,,,,,,,,,,2015_Jun_24_1402,59.94123498,LearningTask,1,65,
200,w,200,,,,,,,,,,,,,,,,,1,0,1,0,13,2,54,0,,,,,,,,,,,,,,,,,,,,,,,,,,,,,w,1,0.367516040802,None,0,4.0,hexagonmagenta.gif,go,,,,,,,,,,,,,,,,,,,,,,,,4.12,0.513852119446,0.000909090042114,0.367516040802,1,w,822.474775076,,,,,,,,,,,,,,,,,,,,,,,,,,,,,,,,,,2015_Jun_24_1402,59.94123498,LearningTask,1,65,
-200,q,200,,,,,,,,,,,,,,,,,1,0,1,0,13,3,55,1,,,,,,,,,,,,,,,,,,,,,,,,,,,,,q,1,0.417484045029,None,0,2.0,invertedtrianglecyan.gif,stop,,,,,,,,,,,,,,,,,,,,,,,,1.89,0.513913869858,0.000897884368896,0.417484045029,1,q,825.477787971,,,,,,,,,,,,,,,,,,,,,,,,,,,,,,,,,,2015_Jun_24_1402,59.94123498,LearningTask,1,65,
-200,a,-200,,,,,,,,,,,,,,,,,1,0,1,0,14,0,56,3,,,,,,,,,,,,,,,,,,,,,,,,,,,,,a,1,0.4846971035,None,0,0.5,triangleblue.gif,stop,,,,,,,,,,,,,,,,,,,,,,,,0.67,0.514226913452,0.000895023345947,0.4846971035,1,a,828.481441975,,,,,,,,,,,,,,,,,,,,,,,,,,,,,,,,,,2015_Jun_24_1402,59.94123498,LearningTask,1,65,
200,s,-200,,,,,,,,,,,,,,,,,1,0,1,0,14,1,57,2,,,,,,,,,,,,,,,,,,,,,,,,,,,,,s,1,0.417861938477,None,0,4.0,lineorange.gif,stop,,,,,,,,,,,,,,,,,,,,,,,,4.17,0.513911962509,0.000905990600586,0.417861938477,1,s,831.484909058,,,,,,,,,,,,,,,,,,,,,,,,,,,,,,,,,,2015_Jun_24_1402,59.94123498,LearningTask,1,65,
200,w,200,,,,,,,,,,,,,,,,,1,0,1,0,14,2,58,0,,,,,,,,,,,,,,,,,,,,,,,,,,,,,w,1,0.450971126556,None,0,4.0,lineorange.gif,stop,,,,,,,,,,,,,,,,,,,,,,,,0,0.513823986053,0.000993013381958,0.450971126556,1,w,834.488085985,,,,,,,,,,,,,,,,,,,,,,,,,,,,,,,,,,2015_Jun_24_1402,59.94123498,LearningTask,1,65,
-200,a,-200,,,,,,,,,,,,,,,,,1,0,1,0,14,3,59,3,,,,,,,,,,,,,,,,,,,,,,,,,,,,,a,1,0.48441696167,None,0,4.0,lineorange.gif,stop,,,,,,,,,,,,,,,,,,,,,,,,4.01,0.513987064362,0.00110411643982,0.48441696167,1,a,837.491132021,,,,,,,,,,,,,,,,,,,,,,,,,,,,,,,,,,2015_Jun_24_1402,59.94123498,LearningTask,1,65,
-200,q,200,,,,,,,,,,,,,,,,,1,0,1,0,15,0,60,1,,,,,,,,,,,,,,,,,,,,,,,,,,,,,q,1,0.451086997986,None,0,0.5,triangleblue.gif,stop,,,,,,,,,,,,,,,,,,,,,,,,0.72,0.514186859131,0.000890970230103,0.451086997986,1,q,840.494673967,,,,,,,,,,,,,,,,,,,,,,,,,,,,,,,,,,2015_Jun_24_1402,59.94123498,LearningTask,1,65,
200,s,-200,,,,,,,,,,,,,,,,,1,0,1,0,15,1,61,2,,,,,,,,,,,,,,,,,,,,,,,,,,,,,s,1,0.434676885605,None,0,4.0,hexagonmagenta.gif,go,,,,,,,,,,,,,,,,,,,,,,,,3.76,0.514122962952,0.00101208686829,0.434676885605,1,s,843.498028994,,,,,,,,,,,,,,,,,,,,,,,,,,,,,,,,,,2015_Jun_24_1402,59.94123498,LearningTask,1,65,
200,s,-200,,,,,,,,,,,,,,,,,1,0,1,0,15,2,62,2,,,,,,,,,,,,,,,,,,,,,,,,,,,,,s,1,0.367383956909,None,0,2.0,circlegreen.gif,go,,,,,,,,,,,,,,,,,,,,,,,,0,0.514183998108,0.000949144363403,0.367383956909,1,s,846.501698971,,,,,,,,,,,,,,,,,,,,,,,,,,,,,,,,,,2015_Jun_24_1402,59.94123498,LearningTask,1,65,
-200,a,-200,,,,,,,,,,,,,,,,,1,0,1,0,15,3,63,3,,,,,,,,,,,,,,,,,,,,,,,,,,,,,a,1,0.367654800415,None,0,2.0,invertedtrianglecyan.gif,stop,,,,,,,,,,,,,,,,,,,,,,,,1.88,0.513870954514,0.000890016555786,0.367654800415,1,a,849.504697084,,,,,,,,,,,,,,,,,,,,,,,,,,,,,,,,,,2015_Jun_24_1402,59.94123498,LearningTask,1,65,
-200,a,-200,,,,,,,,,,,,,,,,,1,0,1,0,16,0,64,3,,,,,,,,,,,,,,,,,,,,,,,,,,,,,a,1,0.400780916214,None,0,1.0,squarewhite.gif,stop,,,,,,,,,,,,,,,,,,,,,,,,1.22,0.514242887497,0.000954866409302,0.400780916214,1,a,852.508493185,,,,,,,,,,,,,,,,,,,,,,,,,,,,,,,,,,2015_Jun_24_1402,59.94123498,LearningTask,1,65,
200,w,200,,,,,,,,,,,,,,,,,1,0,1,0,16,1,65,0,,,,,,,,,,,,,,,,,,,,,,,,,,,,,w,1,0.334571123123,None,0,2.0,circlegreen.gif,go,,,,,,,,,,,,,,,,,,,,,,,,1.78,0.51323390007,0.00132179260254,0.334571123123,1,w,855.511684179,,,,,,,,,,,,,,,,,,,,,,,,,,,,,,,,,,2015_Jun_24_1402,59.94123498,LearningTask,1,65,
-200,q,200,,,,,,,,,,,,,,,,,1,0,1,0,16,2,66,1,,,,,,,,,,,,,,,,,,,,,,,,,,,,,q,1,0.40057516098,None,0,1.0,diamondgray.gif,go,,,,,,,,,,,,,,,,,,,,,,,,1.13,0.514281988144,0.000901937484741,0.40057516098,1,q,858.514796019,,,,,,,,,,,,,,,,,,,,,,,,,,,,,,,,,,2015_Jun_24_1402,59.94123498,LearningTask,1,65,
200,s,-200,,,,,,,,,,,,,,,,,1,0,1,0,16,3,67,2,,,,,,,,,,,,,,,,,,,,,,,,,,,,,s,1,0.368065834045,None,0,1.0,squarewhite.gif,stop,,,,,,,,,,,,,,,,,,,,,,,,1.01,0.514009952545,0.00102305412292,0.368065834045,1,s,861.518274069,,,,,,,,,,,,,,,,,,,,,,,,,,,,,,,,,,2015_Jun_24_1402,59.94123498,LearningTask,1,65,
200,w,200,,,,,,,,,,,,,,,,,1,0,1,0,17,0,68,0,,,,,,,,,,,,,,,,,,,,,,,,,,,,,w,1,0.350880146027,None,0,0.5,crossyellow.gif,go,,,,,,,,,,,,,,,,,,,,,,,,0.73,0.514164924622,0.000895977020264,0.350880146027,1,w,864.521521091,,,,,,,,,,,,,,,,,,,,,,,,,,,,,,,,,,2015_Jun_24_1402,59.94123498,LearningTask,1,65,
-200,a,-200,,,,,,,,,,,,,,,,,1,0,1,0,17,1,69,3,,,,,,,,,,,,,,,,,,,,,,,,,,,,,a,1,0.434359073639,None,0,2.0,invertedtrianglecyan.gif,stop,,,,,,,,,,,,,,,,,,,,,,,,2.1,0.514369010925,0.000895023345947,0.434359073639,1,a,867.525817156,,,,,,,,,,,,,,,,,,,,,,,,,,,,,,,,,,2015_Jun_24_1402,59.94123498,LearningTask,1,65,
-200,q,200,,,,,,,,,,,,,,,,,1,0,1,0,17,2,70,1,,,,,,,,,,,,,,,,,,,,,,,,,,,,,q,1,0.401044130325,None,0,4.0,hexagonmagenta.gif,go,,,,,,,,,,,,,,,,,,,,,,,,3.89,0.513247013092,0.000924110412598,0.401044130325,1,q,870.528567076,,,,,,,,,,,,,,,,,,,,,,,,,,,,,,,,,,2015_Jun_24_1402,59.94123498,LearningTask,1,65,
200,s,-200,,,,,,,,,,,,,,,,,1,0,1,0,17,3,71,2,,,,,,,,,,,,,,,,,,,,,,,,,,,,,s,1,0.367188930511,None,0,0.5,triangleblue.gif,stop,,,,,,,,,,,,,,,,,,,,,,,,0,0.513924121857,0.00101399421692,0.367840051651,0,w,873.531742096,0.57,0.515762090683,0.000964164733887,0.367188930511,1,s,876.535700083,,,0.694998025894,,,,,,,,,,,,,,,,,,,,,,,,2015_Jun_24_1402,59.94123498,LearningTask,1,65,
200,w,200,,,,,,,,,,,,,,,,,1,0,1,0,18,0,72,0,,,,,,,,,,,,,,,,,,,,,,,,,,,,,w,1,0.501219034195,None,0,4.0,hexagonmagenta.gif,go,,,,,,,,,,,,,,,,,,,,,,,,0,0.513128995895,0.000914096832275,0.501219034195,1,w,879.538638115,,,,,,,,,,,,,,,,,,,,,,,,,,,,,,,,,,2015_Jun_24_1402,59.94123498,LearningTask,1,65,
200,s,-200,,,,,,,,,,,,,,,,,1,0,1,0,18,1,73,2,,,,,,,,,,,,,,,,,,,,,,,,,,,,,s,1,0.350610017776,None,0,0.5,triangleblue.gif,stop,,,,,,,,,,,,,,,,,,,,,,,,0.69,0.514164924622,0.000903129577637,0.350610017776,1,s,882.54173398,,,,,,,,,,,,,,,,,,,,,,,,,,,,,,,,,,2015_Jun_24_1402,59.94123498,LearningTask,1,65,
-200,a,-200,,,,,,,,,,,,,,,,,1,0,1,0,18,2,74,3,,,,,,,,,,,,,,,,,,,,,,,,,,,,,a,1,0.734897851944,None,0,0.5,crossyellow.gif,go,,,,,,,,,,,,,,,,,,,,,,,,0.33,0.514422893524,0.000962018966675,0.734897851944,1,a,885.545627117,,,,,,,,,,,,,,,,,,,,,,,,,,,,,,,,,,2015_Jun_24_1402,59.94123498,LearningTask,1,65,
200,w,200,,,,,,,,,,,,,,,,,1,0,1,0,18,3,75,0,,,,,,,,,,,,,,,,,,,,,,,,,,,,,w,1,0.400844812393,None,0,1.0,squarewhite.gif,stop,,,,,,,,,,,,,,,,,,,,,,,,1.12,0.513883829117,0.000891923904419,0.400844812393,1,w,888.548747063,,,,,,,,,,,,,,,,,,,,,,,,,,,,,,,,,,2015_Jun_24_1402,59.94123498,LearningTask,1,65,
-200,q,200,,,,,,,,,,,,,,,,,1,0,1,0,19,0,76,1,,,,,,,,,,,,,,,,,,,,,,,,,,,,,q,1,0.651350021362,None,0,4.0,hexagonmagenta.gif,go,,,,,,,,,,,,,,,,,,,,,,,,3.91,0.514153957367,0.00120401382446,0.651350021362,1,q,891.551985979,,,,,,,,,,,,,,,,,,,,,,,,,,,,,,,,,,2015_Jun_24_1402,59.94123498,LearningTask,1,65,
-200,q,200,,,,,,,,,,,,,,,,,1,0,1,0,19,1,77,1,,,,,,,,,,,,,,,,,,,,,,,,,,,,,q,1,0.467657804489,None,0,2.0,invertedtrianglecyan.gif,stop,,,,,,,,,,,,,,,,,,,,,,,,1.86,0.514204978943,0.000944852828979,0.467657804489,1,q,894.555418015,,,,,,,,,,,,,,,,,,,,,,,,,,,,,,,,,,2015_Jun_24_1402,59.94123498,LearningTask,1,65,
-200,a,-200,,,,,,,,,,,,,,,,,1,0,1,0,19,2,78,3,,,,,,,,,,,,,,,,,,,,,,,,,,,,,a,1,0.56822013855,None,0,0.5,crossyellow.gif,go,,,,,,,,,,,,,,,,,,,,,,,,0.34,0.51410984993,0.000972986221313,0.56822013855,1,a,897.558897972,,,,,,,,,,,,,,,,,,,,,,,,,,,,,,,,,,2015_Jun_24_1402,59.94123498,LearningTask,1,65,
200,w,200,,,,,,,,,,,,,,,,,1,0,1,0,19,3,79,0,,,,,,,,,,,,,,,,,,,,,,,,,,,,,w,1,0.417695999146,None,0,2.0,circlegreen.gif,go,,,,,,,,,,,,,,,,,,,,,,,,1.92,0.513946771622,0.000937938690186,0.417695999146,1,w,900.561886072,,,,,,,,,,,,,,,,,,,,,,,,,,,,,,,,,,2015_Jun_24_1402,59.94123498,LearningTask,1,65,
200,w,200,,,,,,,,,,,,,,,,,1,0,1,0,20,0,80,0,,,,,,,,,,,,,,,,,,,,,,,,,,,,,w,1,0.38440489769,None,0,2.0,circlegreen.gif,go,,,,,,,,,,,,,,,,,,,,,,,,2.09,0.514438152313,0.00090503692627,0.38440489769,1,w,903.565621138,,,,,,,,,,,,,,,,,,,,,,,,,,,,,,,,,,2015_Jun_24_1402,59.94123498,LearningTask,1,65,
200,s,-200,,,,,,,,,,,,,,,,,1,0,1,0,20,1,81,2,,,,,,,,,,,,,,,,,,,,,,,,,,,,,s,1,0.350606918335,None,0,2.0,invertedtrianglecyan.gif,stop,,,,,,,,,,,,,,,,,,,,,,,,0,0.514240980148,0.000898838043213,0.350606918335,1,s,906.568953037,,,,,,,,,,,,,,,,,,,,,,,,,,,,,,,,,,2015_Jun_24_1402,59.94123498,LearningTask,1,65,
200,s,-200,,,,,,,,,,,,,,,,,1,0,1,0,20,2,82,2,,,,,,,,,,,,,,,,,,,,,,,,,,,,,s,1,0.450737953186,None,0,4.0,lineorange.gif,stop,,,,,,,,,,,,,,,,,,,,,,,,4.0,0.514310121536,0.000898122787476,0.450737953186,1,s,909.572367191,,,,,,,,,,,,,,,,,,,,,,,,,,,,,,,,,,2015_Jun_24_1402,59.94123498,LearningTask,1,65,
-200,q,200,,,,,,,,,,,,,,,,,1,0,1,0,20,3,83,1,,,,,,,,,,,,,,,,,,,,,,,,,,,,,q,1,0.433810949326,None,0,0.5,triangleblue.gif,stop,,,,,,,,,,,,,,,,,,,,,,,,0.4,0.514100074768,0.00102400779724,0.433810949326,1,q,912.575648069,,,,,,,,,,,,,,,,,,,,,,,,,,,,,,,,,,2015_Jun_24_1402,59.94123498,LearningTask,1,65,
-200,a,-200,,,,,,,,,,,,,,,,,1,0,1,0,21,0,84,3,,,,,,,,,,,,,,,,,,,,,,,,,,,,,a,1,0.467974901199,None,0,4.0,hexagonmagenta.gif,go,,,,,,,,,,,,,,,,,,,,,,,,4.15,0.514271020889,0.000895977020264,0.467974901199,1,a,915.579568148,,,,,,,,,,,,,,,,,,,,,,,,,,,,,,,,,,2015_Jun_24_1402,59.94123498,LearningTask,1,65,
200,s,-200,,,,,,,,,,,,,,,,,1,0,1,0,21,1,85,2,,,,,,,,,,,,,,,,,,,,,,,,,,,,,s,1,0.400655984879,None,0,2.0,circlegreen.gif,go,,,,,,,,,,,,,,,,,,,,,,,,0,0.51368689537,0.000924110412598,0.400655984879,1,s,918.582467079,,,,,,,,,,,,,,,,,,,,,,,,,,,,,,,,,,2015_Jun_24_1402,59.94123498,LearningTask,1,65,
200,w,200,,,,,,,,,,,,,,,,,1,0,1,0,21,2,86,0,,,,,,,,,,,,,,,,,,,,,,,,,,,,,w,1,0.400696992874,None,0,1.0,diamondgray.gif,go,,,,,,,,,,,,,,,,,,,,,,,,1.23,0.514224052429,0.000909090042114,0.400696992874,1,w,921.585828066,,,,,,,,,,,,,,,,,,,,,,,,,,,,,,,,,,2015_Jun_24_1402,59.94123498,LearningTask,1,65,
200,w,200,,,,,,,,,,,,,,,,,1,0,1,0,21,3,87,0,,,,,,,,,,,,,,,,,,,,,,,,,,,,,w,1,0.400732040405,None,0,1.0,squarewhite.gif,stop,,,,,,,,,,,,,,,,,,,,,,,,0.78,0.514345884323,0.000916004180908,0.400732040405,1,w,924.589184999,,,,,,,,,,,,,,,,,,,,,,,,,,,,,,,,,,2015_Jun_24_1402,59.94123498,LearningTask,1,65,
200,w,200,,,,,,,,,,,,,,,,,1,0,1,0,22,0,88,0,,,,,,,,,,,,,,,,,,,,,,,,,,,,,w,1,0.41753077507,None,0,1.0,diamondgray.gif,go,,,,,,,,,,,,,,,,,,,,,,,,1.05,0.514026880264,0.000937938690186,0.41753077507,1,w,927.592761993,,,,,,,,,,,,,,,,,,,,,,,,,,,,,,,,,,2015_Jun_24_1402,59.94123498,LearningTask,1,65,
-200,a,-200,,,,,,,,,,,,,,,,,1,0,1,0,22,1,89,3,,,,,,,,,,,,,,,,,,,,,,,,,,,,,a,1,0.48432803154,None,0,1.0,diamondgray.gif,go,,,,,,,,,,,,,,,,,,,,,,,,0,0.514023065567,0.000962972640991,0.48432803154,1,a,930.595786095,,,,,,,,,,,,,,,,,,,,,,,,,,,,,,,,,,2015_Jun_24_1402,59.94123498,LearningTask,1,65,
-200,a,-200,,,,,,,,,,,,,,,,,1,0,1,0,22,2,90,3,,,,,,,,,,,,,,,,,,,,,,,,,,,,,a,1,0.417456865311,None,0,4.0,hexagonmagenta.gif,go,,,,,,,,,,,,,,,,,,,,,,,,4.05,0.514314889908,0.000956773757935,0.417456865311,1,a,933.599493027,,,,,,,,,,,,,,,,,,,,,,,,,,,,,,,,,,2015_Jun_24_1402,59.94123498,LearningTask,1,65,
200,s,-200,,,,,,,,,,,,,,,,,1,0,1,0,22,3,91,2,,,,,,,,,,,,,,,,,,,,,,,,,,,,,s,1,0.367604970932,None,0,4.0,lineorange.gif,stop,,,,,,,,,,,,,,,,,,,,,,,,4.12,0.513885974884,0.00105094909668,0.367604970932,1,s,936.602996111,,,,,,,,,,,,,,,,,,,,,,,,,,,,,,,,,,2015_Jun_24_1402,59.94123498,LearningTask,1,65,
200,w,200,,,,,,,,,,,,,,,,,1,0,1,0,23,0,92,0,,,,,,,,,,,,,,,,,,,,,,,,,,,,,w,1,0.417713165283,None,0,4.0,hexagonmagenta.gif,go,,,,,,,,,,,,,,,,,,,,,,,,3.82,0.513711929321,0.000963926315308,0.417713165283,1,w,939.605992079,,,,,,,,,,,,,,,,,,,,,,,,,,,,,,,,,,2015_Jun_24_1402,59.94123498,LearningTask,1,65,
-200,q,200,,,,,,,,,,,,,,,,,1,0,1,0,23,1,93,1,,,,,,,,,,,,,,,,,,,,,,,,,,,,,q,1,0.484384059906,None,0,0.5,crossyellow.gif,go,,,,,,,,,,,,,,,,,,,,,,,,0.73,0.514039039612,0.00091814994812,0.484384059906,1,q,942.609475136,,,,,,,,,,,,,,,,,,,,,,,,,,,,,,,,,,2015_Jun_24_1402,59.94123498,LearningTask,1,65,
200,s,-200,,,,,,,,,,,,,,,,,1,0,1,0,23,2,94,2,,,,,,,,,,,,,,,,,,,,,,,,,,,,,s,1,0.350882053375,None,0,1.0,diamondgray.gif,go,,,,,,,,,,,,,,,,,,,,,,,,0.91,0.514235019684,0.00089693069458,0.350882053375,1,s,945.612714052,,,,,,,,,,,,,,,,,,,,,,,,,,,,,,,,,,2015_Jun_24_1402,59.94123498,LearningTask,1,65,
-200,a,-200,,,,,,,,,,,,,,,,,1,0,1,0,23,3,95,3,,,,,,,,,,,,,,,,,,,,,,,,,,,,,a,1,0.38466501236,None,0,2.0,circlegreen.gif,go,,,,,,,,,,,,,,,,,,,,,,,,1.76,0.513961076736,0.000936031341553,0.38466501236,1,a,948.616422176,,,,,,,,,,,,,,,,,,,,,,,,,,,,,,,,,,2015_Jun_24_1402,59.94123498,LearningTask,1,65,
200,w,200,,,,,,,,,,,,,,,,,1,0,1,0,24,0,96,0,,,,,,,,,,,,,,,,,,,,,,,,,,,,,w,1,0.350602149963,None,0,4.0,lineorange.gif,stop,,,,,,,,,,,,,,,,,,,,,,,,4.25,0.514017820358,0.00099778175354,0.350602149963,1,w,951.619791031,,,,,,,,,,,,,,,,,,,,,,,,,,,,,,,,,,2015_Jun_24_1402,59.94123498,LearningTask,1,65,
-200,q,200,,,,,,,,,,,,,,,,,1,0,1,0,24,1,97,1,,,,,,,,,,,,,,,,,,,,,,,,,,,,,q,1,0.367350101471,None,0,4.0,hexagonmagenta.gif,go,,,,,,,,,,,,,,,,,,,,,,,,3.99,0.513999938965,0.000988960266113,0.367350101471,1,q,954.623520136,,,,,,,,,,,,,,,,,,,,,,,,,,,,,,,,,,2015_Jun_24_1402,59.94123498,LearningTask,1,65,
200,s,-200,,,,,,,,,,,,,,,,,1,0,1,0,24,2,98,2,,,,,,,,,,,,,,,,,,,,,,,,,,,,,s,1,0.484451055527,None,0,1.0,diamondgray.gif,go,,,,,,,,,,,,,,,,,,,,,,,,1.03,0.513447999954,0.000894069671631,0.484451055527,1,s,957.626563072,,,,,,,,,,,,,,,,,,,,,,,,,,,,,,,,,,2015_Jun_24_1402,59.94123498,LearningTask,1,65,
-200,q,200,,,,,,,,,,,,,,,,,1,0,1,0,24,3,99,1,,,,,,,,,,,,,,,,,,,,,,,,,,,,,q,1,0.484545946121,None,0,1.0,squarewhite.gif,stop,,,,,,,,,,,,,,,,,,,,,,,,1.14,0.514063835144,0.000886917114258,0.484545946121,1,q,960.629860163,,,,,,,,,,,,,,,,,,,,,,,,,,,,,,,,,,2015_Jun_24_1402,59.94123498,LearningTask,1,65,
,,,,,,,,,,,,,,,,,,,1,0,1,0,,,,,,,,,,,,,,,,,,,,,,,,,,,,,,,,,,,,,,,,,,,,,,,,,,,,,,,,,,,,,,,,,,,,,,,,,,,,,,9,9.24923300743,,,,,,,,,,,,,,,,,,,,,,,,,2015_Jun_24_1402,59.94123498,LearningTask,1,65,
-200,a,-200,,,,,,,,,,,,,,,,,2,0,2,0,0,0,0,3,,,,,,,,,,,,,,,,,,,,,,,,,,,,,a,1,0.684719800949,None,0,0.5,triangleblue.gif,stop,,,,,,,,,,,,,,,,,,,,,,,,0.48,0.509767055511,0.000887870788574,0.684719800949,1,a,973.594532013,,,,,,,,,,,,,,,,,,,,,,,,,,,,,,,,,,2015_Jun_24_1402,59.94123498,LearningTask,1,65,
200,s,-200,,,,,,,,,,,,,,,,,2,0,2,0,0,1,1,2,,,,,,,,,,,,,,,,,,,,,,,,,,,,,s,1,0.417345046997,None,0,2.0,invertedtrianglecyan.gif,stop,,,,,,,,,,,,,,,,,,,,,,,,2.09,0.514232873917,0.000902891159058,0.417345046997,1,s,976.597741127,,,,,,,,,,,,,,,,,,,,,,,,,,,,,,,,,,2015_Jun_24_1402,59.94123498,LearningTask,1,65,
-200,q,200,,,,,,,,,,,,,,,,,2,0,2,0,0,2,2,1,,,,,,,,,,,,,,,,,,,,,,,,,,,,,q,1,0.417853116989,None,0,0.5,triangleblue.gif,stop,,,,,,,,,,,,,,,,,,,,,,,,0.3,0.514409065247,0.000898122787476,0.417853116989,1,q,979.600932121,,,,,,,,,,,,,,,,,,,,,,,,,,,,,,,,,,2015_Jun_24_1402,59.94123498,LearningTask,1,65,
-200,a,-200,,,,,,,,,,,,,,,,,2,0,2,0,0,3,3,3,,,,,,,,,,,,,,,,,,,,,,,,,,,,,a,1,0.500895023346,None,0,2.0,circlegreen.gif,go,,,,,,,,,,,,,,,,,,,,,,,,1.99,0.514324903488,0.000980854034424,0.500895023346,1,a,982.604699135,,,,,,,,,,,,,,,,,,,,,,,,,,,,,,,,,,2015_Jun_24_1402,59.94123498,LearningTask,1,65,
-200,q,200,,,,,,,,,,,,,,,,,2,0,2,0,1,0,4,1,,,,,,,,,,,,,,,,,,,,,,,,,,,,,q,1,0.434152841568,None,0,0.5,triangleblue.gif,stop,,,,,,,,,,,,,,,,,,,,,,,,0.67,0.514110803604,0.000897884368896,0.434152841568,1,q,985.607815981,,,,,,,,,,,,,,,,,,,,,,,,,,,,,,,,,,2015_Jun_24_1402,59.94123498,LearningTask,1,65,
200,s,-200,,,,,,,,,,,,,,,,,2,0,2,0,1,1,5,2,,,,,,,,,,,,,,,,,,,,,,,,,,,,,s,1,0.384473085403,None,0,1.0,squarewhite.gif,stop,,,,,,,,,,,,,,,,,,,,,,,,1.03,0.514407157898,0.000895023345947,0.384473085403,1,s,988.611045122,,,,,,,,,,,,,,,,,,,,,,,,,,,,,,,,,,2015_Jun_24_1402,59.94123498,LearningTask,1,65,
200,s,-200,,,,,,,,,,,,,,,,,2,0,2,0,1,2,6,2,,,,,,,,,,,,,,,,,,,,,,,,,,,,,s,1,0.433908939362,None,0,0.5,triangleblue.gif,stop,,,,,,,,,,,,,,,,,,,,,,,,0.67,0.51441192627,0.000967979431152,0.433908939362,1,s,991.614940166,,,,,,,,,,,,,,,,,,,,,,,,,,,,,,,,,,2015_Jun_24_1402,59.94123498,LearningTask,1,65,
-200,q,200,,,,,,,,,,,,,,,,,2,0,2,0,1,3,7,1,,,,,,,,,,,,,,,,,,,,,,,,,,,,,q,1,0.384128093719,None,0,0.5,crossyellow.gif,go,,,,,,,,,,,,,,,,,,,,,,,,0.75,0.513240098953,0.00101613998413,0.384128093719,1,q,994.618059158,,,,,,,,,,,,,,,,,,,,,,,,,,,,,,,,,,2015_Jun_24_1402,59.94123498,LearningTask,1,65,
-200,q,200,,,,,,,,,,,,,,,,,2,0,2,0,2,0,8,1,,,,,,,,,,,,,,,,,,,,,,,,,,,,,q,1,0.450935125351,None,0,2.0,invertedtrianglecyan.gif,stop,,,,,,,,,,,,,,,,,,,,,,,,1.87,0.514112949371,0.000904083251953,0.450935125351,1,q,997.6214571,,,,,,,,,,,,,,,,,,,,,,,,,,,,,,,,,,2015_Jun_24_1402,59.94123498,LearningTask,1,65,
200,w,200,,,,,,,,,,,,,,,,,2,0,2,0,2,1,9,0,,,,,,,,,,,,,,,,,,,,,,,,,,,,,w,1,0.383934020996,None,0,2.0,circlegreen.gif,go,,,,,,,,,,,,,,,,,,,,,,,,0,0.514227867126,0.000921010971069,0.383934020996,1,w,1000.62460113,,,,,,,,,,,,,,,,,,,,,,,,,,,,,,,,,,2015_Jun_24_1402,59.94123498,LearningTask,1,65,
200,w,200,,,,,,,,,,,,,,,,,2,0,2,0,2,2,10,0,,,,,,,,,,,,,,,,,,,,,,,,,,,,,w,1,0.450833797455,None,0,0.5,crossyellow.gif,go,,,,,,,,,,,,,,,,,,,,,,,,0.69,0.514375925064,0.00089693069458,0.450833797455,1,w,1003.62804818,,,,,,,,,,,,,,,,,,,,,,,,,,,,,,,,,,2015_Jun_24_1402,59.94123498,LearningTask,1,65,
-200,a,-200,,,,,,,,,,,,,,,,,2,0,2,0,2,3,11,3,,,,,,,,,,,,,,,,,,,,,,,,,,,,,a,1,0.484256029129,None,0,1.0,diamondgray.gif,go,,,,,,,,,,,,,,,,,,,,,,,,1.1,0.514229059219,0.000898122787476,0.484256029129,1,a,1006.63192916,,,,,,,,,,,,,,,,,,,,,,,,,,,,,,,,,,2015_Jun_24_1402,59.94123498,LearningTask,1,65,
-200,a,-200,,,,,,,,,,,,,,,,,2,0,2,0,3,0,12,3,,,,,,,,,,,,,,,,,,,,,,,,,,,,,a,1,0.450821876526,None,0,2.0,circlegreen.gif,go,,,,,,,,,,,,,,,,,,,,,,,,1.77,0.513864040375,0.000921964645386,0.450821876526,1,a,1009.63486814,,,,,,,,,,,,,,,,,,,,,,,,,,,,,,,,,,2015_Jun_24_1402,59.94123498,LearningTask,1,65,
200,w,200,,,,,,,,,,,,,,,,,2,0,2,0,3,1,13,0,,,,,,,,,,,,,,,,,,,,,,,,,,,,,w,1,0.450711011887,None,0,1.0,squarewhite.gif,stop,,,,,,,,,,,,,,,,,,,,,,,,1.25,0.514384031296,0.000885009765625,0.450711011887,1,w,1012.63821101,,,,,,,,,,,,,,,,,,,,,,,,,,,,,,,,,,2015_Jun_24_1402,59.94123498,LearningTask,1,65,
-200,q,200,,,,,,,,,,,,,,,,,2,0,2,0,3,2,14,1,,,,,,,,,,,,,,,,,,,,,,,,,,,,,q,1,0.433781862259,None,0,2.0,invertedtrianglecyan.gif,stop,,,,,,,,,,,,,,,,,,,,,,,,1.83,0.514253854752,0.000917911529541,0.433781862259,1,q,1015.6416111,,,,,,,,,,,,,,,,,,,,,,,,,,,,,,,,,,2015_Jun_24_1402,59.94123498,LearningTask,1,65,
200,s,-200,,,,,,,,,,,,,,,,,2,0,2,0,3,3,15,2,,,,,,,,,,,,,,,,,,,,,,,,,,,,,s,1,0.401345014572,None,0,1.0,diamondgray.gif,go,,,,,,,,,,,,,,,,,,,,,,,,1.18,0.513962030411,0.000895977020264,0.401345014572,1,s,1018.64482403,,,,,,,,,,,,,,,,,,,,,,,,,,,,,,,,,,2015_Jun_24_1402,59.94123498,LearningTask,1,65,
-200,a,-200,,,,,,,,,,,,,,,,,2,0,2,0,4,0,16,3,,,,,,,,,,,,,,,,,,,,,,,,,,,,,a,1,0.434075117111,None,0,2.0,circlegreen.gif,go,,,,,,,,,,,,,,,,,,,,,,,,2.22,0.514338970184,0.00104594230652,0.434075117111,1,a,1021.64821219,,,,,,,,,,,,,,,,,,,,,,,,,,,,,,,,,,2015_Jun_24_1402,59.94123498,LearningTask,1,65,
200,s,-200,,,,,,,,,,,,,,,,,2,0,2,0,4,1,17,2,,,,,,,,,,,,,,,,,,,,,,,,,,,,,s,1,0.38467502594,None,0,2.0,circlegreen.gif,go,,,,,,,,,,,,,,,,,,,,,,,,1.95,0.514388084412,0.000896215438843,0.38467502594,1,s,1024.65190315,,,,,,,,,,,,,,,,,,,,,,,,,,,,,,,,,,2015_Jun_24_1402,59.94123498,LearningTask,1,65,
200,w,200,,,,,,,,,,,,,,,,,2,0,2,0,4,2,18,0,,,,,,,,,,,,,,,,,,,,,,,,,,,,,w,1,0.367351055145,None,0,4.0,lineorange.gif,stop,,,,,,,,,,,,,,,,,,,,,,,,3.94,0.514075040817,0.000890970230103,0.367351055145,1,w,1027.65509009,,,,,,,,,,,,,,,,,,,,,,,,,,,,,,,,,,2015_Jun_24_1402,59.94123498,LearningTask,1,65,
-200,a,-200,,,,,,,,,,,,,,,,,2,0,2,0,4,3,19,3,,,,,,,,,,,,,,,,,,,,,,,,,,,,,a,1,0.534378051758,None,0,4.0,lineorange.gif,stop,,,,,,,,,,,,,,,,,,,,,,,,4.1,0.514003992081,0.000928163528442,0.534378051758,1,a,1030.65839911,,,,,,,,,,,,,,,,,,,,,,,,,,,,,,,,,,2015_Jun_24_1402,59.94123498,LearningTask,1,65,
-200,a,-200,,,,,,,,,,,,,,,,,2,0,2,0,5,0,20,3,,,,,,,,,,,,,,,,,,,,,,,,,,,,,a,1,0.434912919998,None,0,0.5,triangleblue.gif,stop,,,,,,,,,,,,,,,,,,,,,,,,0.33,0.51430606842,0.000899076461792,0.434912919998,1,a,1033.66177511,,,,,,,,,,,,,,,,,,,,,,,,,,,,,,,,,,2015_Jun_24_1402,59.94123498,LearningTask,1,65,
-200,a,-200,,,,,,,,,,,,,,,,,2,0,2,0,5,1,21,3,,,,,,,,,,,,,,,,,,,,,,,,,,,,,a,1,0.500813007355,None,0,1.0,diamondgray.gif,go,,,,,,,,,,,,,,,,,,,,,,,,0,0.514506101608,0.000893115997314,0.500813007355,1,a,1036.66533899,,,,,,,,,,,,,,,,,,,,,,,,,,,,,,,,,,2015_Jun_24_1402,59.94123498,LearningTask,1,65,
200,s,-200,,,,,,,,,,,,,,,,,2,0,2,0,5,2,22,2,,,,,,,,,,,,,,,,,,,,,,,,,,,,,s,1,0.400522232056,None,0,0.5,crossyellow.gif,go,,,,,,,,,,,,,,,,,,,,,,,,0.5,0.514292001724,0.000908136367798,0.400522232056,1,s,1039.66851401,,,,,,,,,,,,,,,,,,,,,,,,,,,,,,,,,,2015_Jun_24_1402,59.94123498,LearningTask,1,65,
200,s,-200,,,,,,,,,,,,,,,,,2,0,2,0,5,3,23,2,,,,,,,,,,,,,,,,,,,,,,,,,,,,,s,1,0.333745956421,None,0,0.5,crossyellow.gif,go,,,,,,,,,,,,,,,,,,,,,,,,0.71,0.514727115631,0.000888109207153,0.333745956421,1,s,1042.67199802,,,,,,,,,,,,,,,,,,,,,,,,,,,,,,,,,,2015_Jun_24_1402,59.94123498,LearningTask,1,65,
-200,q,200,,,,,,,,,,,,,,,,,2,0,2,0,6,0,24,1,,,,,,,,,,,,,,,,,,,,,,,,,,,,,q,1,0.451179027557,None,0,2.0,invertedtrianglecyan.gif,stop,,,,,,,,,,,,,,,,,,,,,,,,2.02,0.514235973358,0.000894069671631,0.451179027557,1,q,1045.67553806,,,,,,,,,,,,,,,,,,,,,,,,,,,,,,,,,,2015_Jun_24_1402,59.94123498,LearningTask,1,65,
200,w,200,,,,,,,,,,,,,,,,,2,0,2,0,6,1,25,0,,,,,,,,,,,,,,,,,,,,,,,,,,,,,w,1,0.434135913849,None,0,2.0,circlegreen.gif,go,,,,,,,,,,,,,,,,,,,,,,,,2.09,0.51407122612,0.000893115997314,0.434135913849,1,w,1048.67893219,,,,,,,,,,,,,,,,,,,,,,,,,,,,,,,,,,2015_Jun_24_1402,59.94123498,LearningTask,1,65,
200,s,-200,,,,,,,,,,,,,,,,,2,0,2,0,6,2,26,2,,,,,,,,,,,,,,,,,,,,,,,,,,,,,s,1,0.367239952087,None,0,4.0,lineorange.gif,stop,,,,,,,,,,,,,,,,,,,,,,,,4.06,0.514245986938,0.000890016555786,0.367239952087,1,s,1051.68208313,,,,,,,,,,,,,,,,,,,,,,,,,,,,,,,,,,2015_Jun_24_1402,59.94123498,LearningTask,1,65,
-200,a,-200,,,,,,,,,,,,,,,,,2,0,2,0,6,3,27,3,,,,,,,,,,,,,,,,,,,,,,,,,,,,,a,1,0.434261083603,None,0,1.0,squarewhite.gif,stop,,,,,,,,,,,,,,,,,,,,,,,,1.04,0.514189004898,0.000893831253052,0.434261083603,1,a,1054.68569303,,,,,,,,,,,,,,,,,,,,,,,,,,,,,,,,,,2015_Jun_24_1402,59.94123498,LearningTask,1,65,
200,s,-200,,,,,,,,,,,,,,,,,2,0,2,0,7,0,28,2,,,,,,,,,,,,,,,,,,,,,,,,,,,,,s,1,0.33451795578,None,0,2.0,circlegreen.gif,go,,,,,,,,,,,,,,,,,,,,,,,,1.75,0.514102935791,0.000901937484741,0.33451795578,1,s,1057.68887615,,,,,,,,,,,,,,,,,,,,,,,,,,,,,,,,,,2015_Jun_24_1402,59.94123498,LearningTask,1,65,
200,w,200,,,,,,,,,,,,,,,,,2,0,2,0,7,1,29,0,,,,,,,,,,,,,,,,,,,,,,,,,,,,,w,1,0.401132822037,None,0,0.5,crossyellow.gif,go,,,,,,,,,,,,,,,,,,,,,,,,0.75,0.514285087585,0.000897884368896,0.401132822037,1,w,1060.69211316,,,,,,,,,,,,,,,,,,,,,,,,,,,,,,,,,,2015_Jun_24_1402,59.94123498,LearningTask,1,65,
-200,a,-200,,,,,,,,,,,,,,,,,2,0,2,0,7,2,30,3,,,,,,,,,,,,,,,,,,,,,,,,,,,,,a,1,0.517643928528,None,0,4.0,lineorange.gif,stop,,,,,,,,,,,,,,,,,,,,,,,,4.22,0.514534950256,0.000894784927368,0.517643928528,1,a,1063.69576097,,,,,,,,,,,,,,,,,,,,,,,,,,,,,,,,,,2015_Jun_24_1402,59.94123498,LearningTask,1,65,
200,w,200,,,,,,,,,,,,,,,,,2,0,2,0,7,3,31,0,,,,,,,,,,,,,,,,,,,,,,,,,,,,,w,1,0.384397029877,None,0,2.0,invertedtrianglecyan.gif,stop,,,,,,,,,,,,,,,,,,,,,,,,0,0.514298915863,0.00090503692627,0.384397029877,1,w,1066.69897008,,,,,,,,,,,,,,,,,,,,,,,,,,,,,,,,,,2015_Jun_24_1402,59.94123498,LearningTask,1,65,
200,w,200,,,,,,,,,,,,,,,,,2,0,2,0,8,0,32,0,,,,,,,,,,,,,,,,,,,,,,,,,,,,,w,1,0.40087890625,None,0,2.0,circlegreen.gif,go,,,,,,,,,,,,,,,,,,,,,,,,2.07,0.514233827591,0.00123691558838,0.40087890625,1,w,1069.70293498,,,,,,,,,,,,,,,,,,,,,,,,,,,,,,,,,,2015_Jun_24_1402,59.94123498,LearningTask,1,65,
-200,a,-200,,,,,,,,,,,,,,,,,2,0,2,0,8,1,33,3,,,,,,,,,,,,,,,,,,,,,,,,,,,,,a,1,0.500609874725,None,0,0.5,crossyellow.gif,go,,,,,,,,,,,,,,,,,,,,,,,,0.41,0.513978004456,0.00091290473938,0.500609874725,1,a,1072.70576,,,,,,,,,,,,,,,,,,,,,,,,,,,,,,,,,,2015_Jun_24_1402,59.94123498,LearningTask,1,65,
200,w,200,,,,,,,,,,,,,,,,,2,0,2,0,8,2,34,0,,,,,,,,,,,,,,,,,,,,,,,,,,,,,w,1,0.33407998085,None,0,2.0,invertedtrianglecyan.gif,stop,,,,,,,,,,,,,,,,,,,,,,,,2.16,0.514276981354,0.000892877578735,0.33407998085,1,w,1075.70900917,,,,,,,,,,,,,,,,,,,,,,,,,,,,,,,,,,2015_Jun_24_1402,59.94123498,LearningTask,1,65,
-200,q,200,,,,,,,,,,,,,,,,,2,0,2,0,8,3,35,1,,,,,,,,,,,,,,,,,,,,,,,,,,,,,q,1,0.567822217941,None,0,1.0,squarewhite.gif,stop,,,,,,,,,,,,,,,,,,,,,,,,1.12,0.514084815979,0.000942945480347,0.567822217941,1,q,1078.7125361,,,,,,,,,,,,,,,,,,,,,,,,,,,,,,,,,,2015_Jun_24_1402,59.94123498,LearningTask,1,65,
-200,a,-200,,,,,,,,,,,,,,,,,2,0,2,0,9,0,36,3,,,,,,,,,,,,,,,,,,,,,,,,,,,,,a,1,0.434531927109,None,0,1.0,squarewhite.gif,stop,,,,,,,,,,,,,,,,,,,,,,,,0,0.514313220978,0.000923156738281,0.434531927109,1,a,1081.71603107,,,,,,,,,,,,,,,,,,,,,,,,,,,,,,,,,,2015_Jun_24_1402,59.94123498,LearningTask,1,65,
-200,a,-200,,,,,,,,,,,,,,,,,2,0,2,0,9,1,37,3,,,,,,,,,,,,,,,,,,,,,,,,,,,,,a,1,0.467624902725,None,0,4.0,lineorange.gif,stop,,,,,,,,,,,,,,,,,,,,,,,,0,0.514117956161,0.000902891159058,0.467624902725,1,a,1084.71948719,,,,,,,,,,,,,,,,,,,,,,,,,,,,,,,,,,2015_Jun_24_1402,59.94123498,LearningTask,1,65,
-200,q,200,,,,,,,,,,,,,,,,,2,0,2,0,9,2,38,1,,,,,,,,,,,,,,,,,,,,,,,,,,,,,q,1,0.500838041306,None,0,1.0,diamondgray.gif,go,,,,,,,,,,,,,,,,,,,,,,,,1.02,0.513799190521,0.000923156738281,0.500838041306,1,q,1087.72253203,,,,,,,,,,,,,,,,,,,,,,,,,,,,,,,,,,2015_Jun_24_1402,59.94123498,LearningTask,1,65,
200,w,200,,,,,,,,,,,,,,,,,2,0,2,0,9,3,39,0,,,,,,,,,,,,,,,,,,,,,,,,,,,,,w,1,0.401030063629,None,0,4.0,lineorange.gif,stop,,,,,,,,,,,,,,,,,,,,,,,,0,0.514287948608,0.000992059707642,0.401030063629,1,w,1090.72604203,,,,,,,,,,,,,,,,,,,,,,,,,,,,,,,,,,2015_Jun_24_1402,59.94123498,LearningTask,1,65,
-200,q,200,,,,,,,,,,,,,,,,,2,0,2,0,10,0,40,1,,,,,,,,,,,,,,,,,,,,,,,,,,,,,q,1,0.468125104904,None,0,0.5,triangleblue.gif,stop,,,,,,,,,,,,,,,,,,,,,,,,0.5,0.514232873917,0.000890970230103,0.468125104904,1,q,1093.72997713,,,,,,,,,,,,,,,,,,,,,,,,,,,,,,,,,,2015_Jun_24_1402,59.94123498,LearningTask,1,65,
-200,a,-200,,,,,,,,,,,,,,,,,2,0,2,0,10,1,41,3,,,,,,,,,,,,,,,,,,,,,,,,,,,,,a,1,0.450664997101,None,0,1.0,squarewhite.gif,stop,,,,,,,,,,,,,,,,,,,,,,,,1.14,0.513494968414,0.000923156738281,0.450664997101,1,a,1096.7328701,,,,,,,,,,,,,,,,,,,,,,,,,,,,,,,,,,2015_Jun_24_1402,59.94123498,LearningTask,1,65,
-200,q,200,,,,,,,,,,,,,,,,,2,0,2,0,10,2,42,1,,,,,,,,,,,,,,,,,,,,,,,,,,,,,q,1,0.367250919342,None,0,0.5,triangleblue.gif,stop,,,,,,,,,,,,,,,,,,,,,,,,0,0.514183998108,0.000894069671631,0.367250919342,1,q,1099.73621702,,,,,,,,,,,,,,,,,,,,,,,,,,,,,,,,,,2015_Jun_24_1402,59.94123498,LearningTask,1,65,
200,w,200,,,,,,,,,,,,,,,,,2,0,2,0,10,3,43,0,,,,,,,,,,,,,,,,,,,,,,,,,,,,,w,1,0.333650112152,None,0,0.5,triangleblue.gif,stop,,,,,,,,,,,,,,,,,,,,,,,,0.67,0.514514923096,0.000915050506592,0.333650112152,1,w,1102.73972297,,,,,,,,,,,,,,,,,,,,,,,,,,,,,,,,,,2015_Jun_24_1402,59.94123498,LearningTask,1,65,
-200,a,-200,,,,,,,,,,,,,,,,,2,0,2,0,11,0,44,3,,,,,,,,,,,,,,,,,,,,,,,,,,,,,a,1,0.383653879166,None,0,2.0,invertedtrianglecyan.gif,stop,,,,,,,,,,,,,,,,,,,,,,,,2.17,0.514237880707,0.000952005386353,0.383653879166,1,a,1105.74305701,,,,,,,,,,,,,,,,,,,,,,,,,,,,,,,,,,2015_Jun_24_1402,59.94123498,LearningTask,1,65,
200,s,-200,,,,,,,,,,,,,,,,,2,0,2,0,11,1,45,2,,,,,,,,,,,,,,,,,,,,,,,,,,,,,s,1,0.384114027023,None,0,0.5,triangleblue.gif,stop,,,,,,,,,,,,,,,,,,,,,,,,0.67,0.514130115509,0.00115203857422,0.384114027023,1,s,1108.74605608,,,,,,,,,,,,,,,,,,,,,,,,,,,,,,,,,,2015_Jun_24_1402,59.94123498,LearningTask,1,65,
200,s,-200,,,,,,,,,,,,,,,,,2,0,2,0,11,2,46,2,,,,,,,,,,,,,,,,,,,,,,,,,,,,,s,1,0.384342908859,None,0,1.0,squarewhite.gif,stop,,,,,,,,,,,,,,,,,,,,,,,,1.21,0.513946056366,0.000905990600586,0.384342908859,1,s,1111.74967909,,,,,,,,,,,,,,,,,,,,,,,,,,,,,,,,,,2015_Jun_24_1402,59.94123498,LearningTask,1,65,
200,w,200,,,,,,,,,,,,,,,,,2,0,2,0,11,3,47,0,,,,,,,,,,,,,,,,,,,,,,,,,,,,,w,1,0.351025104523,None,0,4.0,lineorange.gif,stop,,,,,,,,,,,,,,,,,,,,,,,,3.89,0.514260053635,0.000930070877075,0.351025104523,1,w,1114.75271201,,,,,,,,,,,,,,,,,,,,,,,,,,,,,,,,,,2015_Jun_24_1402,59.94123498,LearningTask,1,65,
-200,q,200,,,,,,,,,,,,,,,,,2,0,2,0,12,0,48,1,,,,,,,,,,,,,,,,,,,,,,,,,,,,,q,1,0.384345054626,None,0,2.0,circlegreen.gif,go,,,,,,,,,,,,,,,,,,,,,,,,0,0.51433801651,0.00112104415894,0.384345054626,1,q,1117.75644708,,,,,,,,,,,,,,,,,,,,,,,,,,,,,,,,,,2015_Jun_24_1402,59.94123498,LearningTask,1,65,
-200,q,200,,,,,,,,,,,,,,,,,2,0,2,0,12,1,49,1,,,,,,,,,,,,,,,,,,,,,,,,,,,,,q,1,0.384341001511,None,0,1.0,squarewhite.gif,stop,,,,,,,,,,,,,,,,,,,,,,,,0.88,0.514456033707,0.000881910324097,0.384341001511,1,q,1120.75971198,,,,,,,,,,,,,,,,,,,,,,,,,,,,,,,,,,2015_Jun_24_1402,59.94123498,LearningTask,1,65,
-200,q,200,,,,,,,,,,,,,,,,,2,0,2,0,12,2,50,1,,,,,,,,,,,,,,,,,,,,,,,,,,,,,q,1,0.468119859695,None,0,4.0,hexagonmagenta.gif,go,,,,,,,,,,,,,,,,,,,,,,,,3.95,0.514248132706,0.000898122787476,0.468119859695,1,q,1123.76299596,,,,,,,,,,,,,,,,,,,,,,,,,,,,,,,,,,2015_Jun_24_1402,59.94123498,LearningTask,1,65,
200,w,200,,,,,,,,,,,,,,,,,2,0,2,0,12,3,51,0,,,,,,,,,,,,,,,,,,,,,,,,,,,,,w,1,0.417917013168,None,0,0.5,crossyellow.gif,go,,,,,,,,,,,,,,,,,,,,,,,,0.47,0.514174938202,0.00136280059814,0.417917013168,1,w,1126.76669812,,,,,,,,,,,,,,,,,,,,,,,,,,,,,,,,,,2015_Jun_24_1402,59.94123498,LearningTask,1,65,
-200,a,-200,,,,,,,,,,,,,,,,,2,0,2,0,13,0,52,3,,,,,,,,,,,,,,,,,,,,,,,,,,,,,a,1,0.384393930435,None,0,2.0,invertedtrianglecyan.gif,stop,,,,,,,,,,,,,,,,,,,,,,,,1.79,0.514139890671,0.000917911529541,0.384393930435,1,a,1129.77000213,,,,,,,,,,,,,,,,,,,,,,,,,,,,,,,,,,2015_Jun_24_1402,59.94123498,LearningTask,1,65,
200,w,200,,,,,,,,,,,,,,,,,2,0,2,0,13,1,53,0,,,,,,,,,,,,,,,,,,,,,,,,,,,,,w,1,0.334632873535,None,0,0.5,triangleblue.gif,stop,,,,,,,,,,,,,,,,,,,,,,,,0.53,0.513801813126,0.000944852828979,0.334632873535,1,w,1132.77347612,,,,,,,,,,,,,,,,,,,,,,,,,,,,,,,,,,2015_Jun_24_1402,59.94123498,LearningTask,1,65,
-200,q,200,,,,,,,,,,,,,,,,,2,0,2,0,13,2,54,1,,,,,,,,,,,,,,,,,,,,,,,,,,,,,q,1,0.434354066849,None,0,2.0,circlegreen.gif,go,,,,,,,,,,,,,,,,,,,,,,,,1.86,0.51359295845,0.000911951065063,0.434354066849,1,q,1135.77662802,,,,,,,,,,,,,,,,,,,,,,,,,,,,,,,,,,2015_Jun_24_1402,59.94123498,LearningTask,1,65,
200,w,200,,,,,,,,,,,,,,,,,2,0,2,0,13,3,55,0,,,,,,,,,,,,,,,,,,,,,,,,,,,,,w,1,0.367394924164,None,0,2.0,circlegreen.gif,go,,,,,,,,,,,,,,,,,,,,,,,,1.89,0.514167070389,0.000903129577637,0.367394924164,1,w,1138.78021407,,,,,,,,,,,,,,,,,,,,,,,,,,,,,,,,,,2015_Jun_24_1402,59.94123498,LearningTask,1,65,
200,w,200,,,,,,,,,,,,,,,,,2,0,2,0,14,0,56,0,,,,,,,,,,,,,,,,,,,,,,,,,,,,,w,1,0.333623170853,None,0,1.0,squarewhite.gif,stop,,,,,,,,,,,,,,,,,,,,,,,,1.14,0.514369010925,0.000888109207153,0.333623170853,1,w,1141.78387713,,,,,,,,,,,,,,,,,,,,,,,,,,,,,,,,,,2015_Jun_24_1402,59.94123498,LearningTask,1,65,
200,w,200,,,,,,,,,,,,,,,,,2,0,2,0,14,1,57,0,,,,,,,,,,,,,,,,,,,,,,,,,,,,,w,1,0.334070920944,None,0,1.0,squarewhite.gif,stop,,,,,,,,,,,,,,,,,,,,,,,,1.02,0.513736009598,0.00088906288147,0.334070920944,1,w,1144.78670216,,,,,,,,,,,,,,,,,,,,,,,,,,,,,,,,,,2015_Jun_24_1402,59.94123498,LearningTask,1,65,
200,s,-200,,,,,,,,,,,,,,,,,2,0,2,0,14,2,58,2,,,,,,,,,,,,,,,,,,,,,,,,,,,,,s,1,0.434175014496,None,0,1.0,squarewhite.gif,stop,,,,,,,,,,,,,,,,,,,,,,,,0,0.514512062073,0.000897169113159,0.434175014496,1,s,1147.79005504,,,,,,,,,,,,,,,,,,,,,,,,,,,,,,,,,,2015_Jun_24_1402,59.94123498,LearningTask,1,65,
-200,a,-200,,,,,,,,,,,,,,,,,2,0,2,0,14,3,59,3,,,,,,,,,,,,,,,,,,,,,,,,,,,,,a,1,0.383990049362,None,0,4.0,hexagonmagenta.gif,go,,,,,,,,,,,,,,,,,,,,,,,,4.25,0.514441013336,0.000898122787476,0.383990049362,1,a,1150.79342508,,,,,,,,,,,,,,,,,,,,,,,,,,,,,,,,,,2015_Jun_24_1402,59.94123498,LearningTask,1,65,
-200,a,-200,,,,,,,,,,,,,,,,,2,0,2,0,15,0,60,3,,,,,,,,,,,,,,,,,,,,,,,,,,,,,a,1,0.434239149094,None,0,0.5,crossyellow.gif,go,,,,,,,,,,,,,,,,,,,,,,,,0.32,0.514338970184,0.000988960266113,0.434239149094,1,a,1153.79692507,,,,,,,,,,,,,,,,,,,,,,,,,,,,,,,,,,2015_Jun_24_1402,59.94123498,LearningTask,1,65,
200,s,-200,,,,,,,,,,,,,,,,,2,0,2,0,15,1,61,2,,,,,,,,,,,,,,,,,,,,,,,,,,,,,s,1,0.400676012039,None,0,0.5,crossyellow.gif,go,,,,,,,,,,,,,,,,,,,,,,,,0.67,0.514178991318,0.00120687484741,0.400676012039,1,s,1156.80008006,,,,,,,,,,,,,,,,,,,,,,,,,,,,,,,,,,2015_Jun_24_1402,59.94123498,LearningTask,1,65,
200,s,-200,,,,,,,,,,,,,,,,,2,0,2,0,15,2,62,2,,,,,,,,,,,,,,,,,,,,,,,,,,,,,s,1,0.467609882355,None,0,1.0,diamondgray.gif,go,,,,,,,,,,,,,,,,,,,,,,,,0.86,0.514470100403,0.000895023345947,0.467609882355,1,s,1159.80408406,,,,,,,,,,,,,,,,,,,,,,,,,,,,,,,,,,2015_Jun_24_1402,59.94123498,LearningTask,1,65,
-200,q,200,,,,,,,,,,,,,,,,,2,0,2,0,15,3,63,1,,,,,,,,,,,,,,,,,,,,,,,,,,,,,q,1,0.517410039902,None,0,0.5,triangleblue.gif,stop,,,,,,,,,,,,,,,,,,,,,,,,0.65,0.514103889465,0.000958919525146,0.517410039902,1,q,1162.80705714,,,,,,,,,,,,,,,,,,,,,,,,,,,,,,,,,,2015_Jun_24_1402,59.94123498,LearningTask,1,65,
200,w,200,,,,,,,,,,,,,,,,,2,0,2,0,16,0,64,0,,,,,,,,,,,,,,,,,,,,,,,,,,,,,w,1,0.43418097496,None,0,1.0,squarewhite.gif,stop,,,,,,,,,,,,,,,,,,,,,,,,0,0.514101982117,0.000918865203857,0.43418097496,1,w,1165.81042004,,,,,,,,,,,,,,,,,,,,,,,,,,,,,,,,,,2015_Jun_24_1402,59.94123498,LearningTask,1,65,
200,s,-200,,,,,,,,,,,,,,,,,2,0,2,0,16,1,65,2,,,,,,,,,,,,,,,,,,,,,,,,,,,,,s,1,0.350613117218,None,0,4.0,hexagonmagenta.gif,go,,,,,,,,,,,,,,,,,,,,,,,,0,0.514123916626,0.000899076461792,0.350613117218,1,s,1168.813869,,,,,,,,,,,,,,,,,,,,,,,,,,,,,,,,,,2015_Jun_24_1402,59.94123498,LearningTask,1,65,
200,w,200,,,,,,,,,,,,,,,,,2,0,2,0,16,2,66,0,,,,,,,,,,,,,,,,,,,,,,,,,,,,,w,1,0.384104013443,None,0,4.0,lineorange.gif,stop,,,,,,,,,,,,,,,,,,,,,,,,4.04,0.51429104805,0.000891923904419,0.384104013443,1,w,1171.81703115,,,,,,,,,,,,,,,,,,,,,,,,,,,,,,,,,,2015_Jun_24_1402,59.94123498,LearningTask,1,65,
200,s,-200,,,,,,,,,,,,,,,,,2,0,2,0,16,3,67,2,,,,,,,,,,,,,,,,,,,,,,,,,,,,,s,1,0.417438030243,None,0,1.0,diamondgray.gif,go,,,,,,,,,,,,,,,,,,,,,,,,0,0.514307975769,0.000938892364502,0.417438030243,1,s,1174.82059503,,,,,,,,,,,,,,,,,,,,,,,,,,,,,,,,,,2015_Jun_24_1402,59.94123498,LearningTask,1,65,
200,s,-200,,,,,,,,,,,,,,,,,2,0,2,0,17,0,68,2,,,,,,,,,,,,,,,,,,,,,,,,,,,,,s,1,0.367348909378,None,0,2.0,invertedtrianglecyan.gif,stop,,,,,,,,,,,,,,,,,,,,,,,,1.78,0.514356136322,0.000893115997314,0.367348909378,1,s,1177.82396603,,,,,,,,,,,,,,,,,,,,,,,,,,,,,,,,,,2015_Jun_24_1402,59.94123498,LearningTask,1,65,
200,w,200,,,,,,,,,,,,,,,,,2,0,2,0,17,1,69,0,,,,,,,,,,,,,,,,,,,,,,,,,,,,,w,1,0.500900030136,None,0,2.0,circlegreen.gif,go,,,,,,,,,,,,,,,,,,,,,,,,1.75,0.514204978943,0.000887870788574,0.500900030136,1,w,1180.827878,,,,,,,,,,,,,,,,,,,,,,,,,,,,,,,,,,2015_Jun_24_1402,59.94123498,LearningTask,1,65,
200,w,200,,,,,,,,,,,,,,,,,2,0,2,0,17,2,70,0,,,,,,,,,,,,,,,,,,,,,,,,,,,,,w,1,0.3508040905,None,0,4.0,lineorange.gif,stop,,,,,,,,,,,,,,,,,,,,,,,,3.95,0.513602018356,0.000944137573242,0.3508040905,1,w,1183.83077717,,,,,,,,,,,,,,,,,,,,,,,,,,,,,,,,,,2015_Jun_24_1402,59.94123498,LearningTask,1,65,
200,s,-200,,,,,,,,,,,,,,,,,2,0,2,0,17,3,71,2,,,,,,,,,,,,,,,,,,,,,,,,,,,,,s,1,0.41734790802,None,0,0.5,crossyellow.gif,go,,,,,,,,,,,,,,,,,,,,,,,,0,0.5145008564,0.00089693069458,0.41734790802,1,s,1186.8341291,,,,,,,,,,,,,,,,,,,,,,,,,,,,,,,,,,2015_Jun_24_1402,59.94123498,LearningTask,1,65,
-200,q,200,,,,,,,,,,,,,,,,,2,0,2,0,18,0,72,1,,,,,,,,,,,,,,,,,,,,,,,,,,,,,q,1,0.434151887894,None,0,4.0,lineorange.gif,stop,,,,,,,,,,,,,,,,,,,,,,,,0,0.514130115509,0.000892162322998,0.434151887894,1,q,1189.83760405,,,,,,,,,,,,,,,,,,,,,,,,,,,,,,,,,,2015_Jun_24_1402,59.94123498,LearningTask,1,65,
-200,q,200,,,,,,,,,,,,,,,,,2,0,2,0,18,1,73,1,,,,,,,,,,,,,,,,,,,,,,,,,,,,,q,1,0.417654037476,None,0,2.0,circlegreen.gif,go,,,,,,,,,,,,,,,,,,,,,,,,0,0.513974189758,0.000892162322998,0.417654037476,1,q,1192.84066796,,,,,,,,,,,,,,,,,,,,,,,,,,,,,,,,,,2015_Jun_24_1402,59.94123498,LearningTask,1,65,
-200,a,-200,,,,,,,,,,,,,,,,,2,0,2,0,18,2,74,3,,,,,,,,,,,,,,,,,,,,,,,,,,,,,a,1,0.467159032822,None,0,0.5,crossyellow.gif,go,,,,,,,,,,,,,,,,,,,,,,,,0.51,0.514366865158,0.00107407569885,0.467159032822,1,a,1195.84398508,,,,,,,,,,,,,,,,,,,,,,,,,,,,,,,,,,2015_Jun_24_1402,59.94123498,LearningTask,1,65,
-200,a,-200,,,,,,,,,,,,,,,,,2,0,2,0,18,3,75,3,,,,,,,,,,,,,,,,,,,,,,,,,,,,,a,1,0.417614936829,None,0,4.0,hexagonmagenta.gif,go,,,,,,,,,,,,,,,,,,,,,,,,3.79,0.514455080032,0.000905990600586,0.417614936829,1,a,1198.84761119,,,,,,,,,,,,,,,,,,,,,,,,,,,,,,,,,,2015_Jun_24_1402,59.94123498,LearningTask,1,65,
-200,a,-200,,,,,,,,,,,,,,,,,2,0,2,0,19,0,76,3,,,,,,,,,,,,,,,,,,,,,,,,,,,,,a,1,0.434415102005,None,0,0.5,triangleblue.gif,stop,,,,,,,,,,,,,,,,,,,,,,,,0,0.514292001724,0.000898122787476,0.434415102005,1,a,1201.85093117,,,,,,,,,,,,,,,,,,,,,,,,,,,,,,,,,,2015_Jun_24_1402,59.94123498,LearningTask,1,65,
-200,a,-200,,,,,,,,,,,,,,,,,2,0,2,0,19,1,77,3,,,,,,,,,,,,,,,,,,,,,,,,,,,,,a,1,0.434081077576,None,0,2.0,invertedtrianglecyan.gif,stop,,,,,,,,,,,,,,,,,,,,,,,,1.75,0.514101028442,0.00122714042664,0.434081077576,1,a,1204.85456419,,,,,,,,,,,,,,,,,,,,,,,,,,,,,,,,,,2015_Jun_24_1402,59.94123498,LearningTask,1,65,
-200,a,-200,,,,,,,,,,,,,,,,,2,0,2,0,19,2,78,3,,,,,,,,,,,,,,,,,,,,,,,,,,,,,a,1,0.384479999542,None,0,1.0,diamondgray.gif,go,,,,,,,,,,,,,,,,,,,,,,,,1.21,0.513739824295,0.00089693069458,0.384479999542,1,a,1207.85767317,,,,,,,,,,,,,,,,,,,,,,,,,,,,,,,,,,2015_Jun_24_1402,59.94123498,LearningTask,1,65,
-200,a,-200,,,,,,,,,,,,,,,,,2,0,2,0,19,3,79,3,,,,,,,,,,,,,,,,,,,,,,,,,,,,,a,1,0.434504985809,None,0,0.5,triangleblue.gif,stop,,,,,,,,,,,,,,,,,,,,,,,,0.7,0.514191150665,0.000895977020264,0.434504985809,1,a,1210.86111808,,,,,,,,,,,,,,,,,,,,,,,,,,,,,,,,,,2015_Jun_24_1402,59.94123498,LearningTask,1,65,
-200,q,200,,,,,,,,,,,,,,,,,2,0,2,0,20,0,80,1,,,,,,,,,,,,,,,,,,,,,,,,,,,,,q,1,0.501169919968,None,0,0.5,triangleblue.gif,stop,,,,,,,,,,,,,,,,,,,,,,,,0,0.513886928558,0.000934839248657,0.501169919968,1,q,1213.86433816,,,,,,,,,,,,,,,,,,,,,,,,,,,,,,,,,,2015_Jun_24_1402,59.94123498,LearningTask,1,65,
200,s,-200,,,,,,,,,,,,,,,,,2,0,2,0,20,1,81,2,,,,,,,,,,,,,,,,,,,,,,,,,,,,,s,1,0.40099978447,None,0,2.0,circlegreen.gif,go,,,,,,,,,,,,,,,,,,,,,,,,0,0.513913154602,0.000936031341553,0.40099978447,1,s,1216.86784101,,,,,,,,,,,,,,,,,,,,,,,,,,,,,,,,,,2015_Jun_24_1402,59.94123498,LearningTask,1,65,
200,w,200,,,,,,,,,,,,,,,,,2,0,2,0,20,2,82,0,,,,,,,,,,,,,,,,,,,,,,,,,,,,,w,1,0.334249973297,None,0,2.0,circlegreen.gif,go,,,,,,,,,,,,,,,,,,,,,,,,0,0.514243125916,0.000895977020264,0.334249973297,1,w,1219.87171912,,,,,,,,,,,,,,,,,,,,,,,,,,,,,,,,,,2015_Jun_24_1402,59.94123498,LearningTask,1,65,
-200,q,200,,,,,,,,,,,,,,,,,2,0,2,0,20,3,83,1,,,,,,,,,,,,,,,,,,,,,,,,,,,,,q,1,0.450622081757,None,0,0.5,triangleblue.gif,stop,,,,,,,,,,,,,,,,,,,,,,,,0.51,0.513855934143,0.000910043716431,0.450622081757,1,q,1222.8746531,,,,,,,,,,,,,,,,,,,,,,,,,,,,,,,,,,2015_Jun_24_1402,59.94123498,LearningTask,1,65,
-200,a,-200,,,,,,,,,,,,,,,,,2,0,2,0,21,0,84,3,,,,,,,,,,,,,,,,,,,,,,,,,,,,,a,1,0.367623090744,None,0,0.5,triangleblue.gif,stop,,,,,,,,,,,,,,,,,,,,,,,,0.36,0.514169931412,0.000895977020264,0.367623090744,1,a,1225.87790918,,,,,,,,,,,,,,,,,,,,,,,,,,,,,,,,,,2015_Jun_24_1402,59.94123498,LearningTask,1,65,
200,s,-200,,,,,,,,,,,,,,,,,2,0,2,0,21,1,85,2,,,,,,,,,,,,,,,,,,,,,,,,,,,,,s,1,0.367487192154,None,0,0.5,triangleblue.gif,stop,,,,,,,,,,,,,,,,,,,,,,,,0.48,0.514340877533,0.000886917114258,0.367487192154,1,s,1228.88195896,,,,,,,,,,,,,,,,,,,,,,,,,,,,,,,,,,2015_Jun_24_1402,59.94123498,LearningTask,1,65,
200,s,-200,,,,,,,,,,,,,,,,,2,0,2,0,21,2,86,2,,,,,,,,,,,,,,,,,,,,,,,,,,,,,s,1,0.367447137833,None,0,4.0,lineorange.gif,stop,,,,,,,,,,,,,,,,,,,,,,,,3.9,0.513355016708,0.000952959060669,0.367447137833,1,s,1231.88484597,,,,,,,,,,,,,,,,,,,,,,,,,,,,,,,,,,2015_Jun_24_1402,59.94123498,LearningTask,1,65,
200,w,200,,,,,,,,,,,,,,,,,2,0,2,0,21,3,87,0,,,,,,,,,,,,,,,,,,,,,,,,,,,,,w,1,0.417469024658,None,0,2.0,invertedtrianglecyan.gif,stop,,,,,,,,,,,,,,,,,,,,,,,,1.86,0.514361143112,0.00108814239502,0.417469024658,1,w,1234.88804817,,,,,,,,,,,,,,,,,,,,,,,,,,,,,,,,,,2015_Jun_24_1402,59.94123498,LearningTask,1,65,
200,s,-200,,,,,,,,,,,,,,,,,2,0,2,0,22,0,88,2,,,,,,,,,,,,,,,,,,,,,,,,,,,,,s,1,0.417589902878,None,0,1.0,squarewhite.gif,stop,,,,,,,,,,,,,,,,,,,,,,,,0.98,0.514206886292,0.000892877578735,0.417589902878,1,s,1237.89162302,,,,,,,,,,,,,,,,,,,,,,,,,,,,,,,,,,2015_Jun_24_1402,59.94123498,LearningTask,1,65,
200,w,200,,,,,,,,,,,,,,,,,2,0,2,0,22,1,89,0,,,,,,,,,,,,,,,,,,,,,,,,,,,,,w,1,0.417586088181,None,0,2.0,invertedtrianglecyan.gif,stop,,,,,,,,,,,,,,,,,,,,,,,,1.9,0.513989925385,0.000892877578735,0.417586088181,1,w,1240.89508414,,,,,,,,,,,,,,,,,,,,,,,,,,,,,,,,,,2015_Jun_24_1402,59.94123498,LearningTask,1,65,
200,s,-200,,,,,,,,,,,,,,,,,2,0,2,0,22,2,90,2,,,,,,,,,,,,,,,,,,,,,,,,,,,,,s,1,0.351119995117,None,0,2.0,invertedtrianglecyan.gif,stop,,,,,,,,,,,,,,,,,,,,,,,,2.15,0.514141082764,0.00121998786926,0.351119995117,1,s,1243.89805603,,,,,,,,,,,,,,,,,,,,,,,,,,,,,,,,,,2015_Jun_24_1402,59.94123498,LearningTask,1,65,
200,s,-200,,,,,,,,,,,,,,,,,2,0,2,0,22,3,91,2,,,,,,,,,,,,,,,,,,,,,,,,,,,,,s,1,0.451081037521,None,0,4.0,hexagonmagenta.gif,go,,,,,,,,,,,,,,,,,,,,,,,,4.08,0.514498949051,0.000906944274902,0.451081037521,1,s,1246.90200806,,,,,,,,,,,,,,,,,,,,,,,,,,,,,,,,,,2015_Jun_24_1402,59.94123498,LearningTask,1,65,
-200,q,200,,,,,,,,,,,,,,,,,2,0,2,0,23,0,92,1,,,,,,,,,,,,,,,,,,,,,,,,,,,,,q,1,0.317606925964,None,0,2.0,invertedtrianglecyan.gif,stop,,,,,,,,,,,,,,,,,,,,,,,,0,0.513590812683,0.000921964645386,0.46762919426,0,a,1249.90496898,1.81,0.515655040741,0.00109386444092,0.317606925964,1,q,1252.90869999,,,,,,,,,,,,,,,,,,,,,,,,,,,2015_Jun_24_1402,59.94123498,LearningTask,1,65,
-200,q,200,,,,,,,,,,,,,,,,,2,0,2,0,23,1,93,1,,,,,,,,,,,,,,,,,,,,,,,,,,,,,q,1,0.467502832413,None,0,2.0,invertedtrianglecyan.gif,stop,,,,,,,,,,,,,,,,,,,,,,,,2.22,0.514147996902,0.000894784927368,0.467502832413,1,q,1255.91215515,,,,,,,,,,,,,,,,,,,,,,,,,,,,,,,,,,2015_Jun_24_1402,59.94123498,LearningTask,1,65,
-200,q,200,,,,,,,,,,,,,,,,,2,0,2,0,23,2,94,1,,,,,,,,,,,,,,,,,,,,,,,,,,,,,q,1,0.418303966522,None,0,2.0,circlegreen.gif,go,,,,,,,,,,,,,,,,,,,,,,,,2.22,0.513654947281,0.000901937484741,0.418303966522,1,q,1258.91526699,,,,,,,,,,,,,,,,,,,,,,,,,,,,,,,,,,2015_Jun_24_1402,59.94123498,LearningTask,1,65,
-200,q,200,,,,,,,,,,,,,,,,,2,0,2,0,23,3,95,1,,,,,,,,,,,,,,,,,,,,,,,,,,,,,q,1,0.534499168396,None,0,1.0,squarewhite.gif,stop,,,,,,,,,,,,,,,,,,,,,,,,1.04,0.513610839844,0.000960826873779,0.534499168396,1,q,1261.91849709,,,,,,,,,,,,,,,,,,,,,,,,,,,,,,,,,,2015_Jun_24_1402,59.94123498,LearningTask,1,65,
-200,q,200,,,,,,,,,,,,,,,,,2,0,2,0,24,0,96,1,,,,,,,,,,,,,,,,,,,,,,,,,,,,,q,1,0.534173965454,None,0,4.0,lineorange.gif,stop,,,,,,,,,,,,,,,,,,,,,,,,3.75,0.514442920685,0.000893831253052,0.534173965454,1,q,1264.92224407,,,,,,,,,,,,,,,,,,,,,,,,,,,,,,,,,,2015_Jun_24_1402,59.94123498,LearningTask,1,65,
200,s,-200,,,,,,,,,,,,,,,,,2,0,2,0,24,1,97,2,,,,,,,,,,,,,,,,,,,,,,,,,,,,,s,1,0.417634010315,None,0,2.0,circlegreen.gif,go,,,,,,,,,,,,,,,,,,,,,,,,2.14,0.513771057129,0.000899076461792,0.417634010315,1,s,1267.92573714,,,,,,,,,,,,,,,,,,,,,,,,,,,,,,,,,,2015_Jun_24_1402,59.94123498,LearningTask,1,65,
-200,q,200,,,,,,,,,,,,,,,,,2,0,2,0,24,2,98,1,,,,,,,,,,,,,,,,,,,,,,,,,,,,,q,1,0.434499025345,None,0,1.0,diamondgray.gif,go,,,,,,,,,,,,,,,,,,,,,,,,1.13,0.513765096664,0.000895023345947,0.434499025345,1,q,1270.92878199,,,,,,,,,,,,,,,,,,,,,,,,,,,,,,,,,,2015_Jun_24_1402,59.94123498,LearningTask,1,65,
200,w,200,,,,,,,,,,,,,,,,,2,0,2,0,24,3,99,0,,,,,,,,,,,,,,,,,,,,,,,,,,,,,w,1,0.351037025452,None,0,1.0,diamondgray.gif,go,,,,,,,,,,,,,,,,,,,,,,,,1.01,0.514153957367,0.000894069671631,0.351037025452,1,w,1273.93203402,,,,,,,,,,,,,,,,,,,,,,,,,,,,,,,,,,2015_Jun_24_1402,59.94123498,LearningTask,1,65,
,,,,,,,,,,,,,,,,,,,2,0,2,0,,,,,,,,,,,,,,,,,,,,,,,,,,,,,,,,,,,,,,,,,,,,,,,,,,,,,,,,,,,,,,,,,,,,,,,,,,,,,,9,13.5096828938,,,,,,,,,,,,,,,,,,,,,,,,,2015_Jun_24_1402,59.94123498,LearningTask,1,65,
200,w,200,,,,,,,,,,,,,,,,,3,0,3,0,0,0,0,0,,,,,,,,,,,,,,,,,,,,,,,,,,,,,w,1,0.518029928207,None,0,4.0,lineorange.gif,stop,,,,,,,,,,,,,,,,,,,,,,,,4.19,0.510880947113,0.001051902771,0.518029928207,1,w,1291.33539701,,,,,,,,,,,,,,,,,,,,,,,,,,,,,,,,,,2015_Jun_24_1402,59.94123498,LearningTask,1,65,
-200,a,-200,,,,,,,,,,,,,,,,,3,0,3,0,0,1,1,3,,,,,,,,,,,,,,,,,,,,,,,,,,,,,a,1,0.434280872345,None,0,0.5,triangleblue.gif,stop,,,,,,,,,,,,,,,,,,,,,,,,0.62,0.513828039169,0.000887870788574,0.434280872345,1,a,1294.33868909,,,,,,,,,,,,,,,,,,,,,,,,,,,,,,,,,,2015_Jun_24_1402,59.94123498,LearningTask,1,65,
200,s,-200,,,,,,,,,,,,,,,,,3,0,3,0,0,2,2,2,,,,,,,,,,,,,,,,,,,,,,,,,,,,,s,1,0.383439064026,None,0,2.0,invertedtrianglecyan.gif,stop,,,,,,,,,,,,,,,,,,,,,,,,2.04,0.513899087906,0.000899076461792,0.383439064026,1,s,1297.3416791,,,,,,,,,,,,,,,,,,,,,,,,,,,,,,,,,,2015_Jun_24_1402,59.94123498,LearningTask,1,65,
