xPos,corrAns,yPos,corrGoResp,yPosGoStim,xPosGoStim,pracTrials.thisRepN,pracTrials.thisTrialN,pracTrials.thisN,pracTrials.thisIndex,ReDoLoopPrac.thisRepN,ReDoLoopPrac.thisTrialN,ReDoLoopPrac.thisN,ReDoLoopPrac.thisIndex,ReDoLoopPrac.thisTrial,pracStopTrials.thisRepN,pracStopTrials.thisTrialN,pracStopTrials.thisN,pracStopTrials.thisIndex,Blocks.thisRepN,Blocks.thisTrialN,Blocks.thisN,Blocks.thisIndex,trials.thisRepN,trials.thisTrialN,trials.thisN,trials.thisIndex,ReDoLoopMain.thisRepN,ReDoLoopMain.thisTrialN,ReDoLoopMain.thisN,ReDoLoopMain.thisIndex,ReDoLoopMain.thisTrial,StopBlocks.thisRepN,StopBlocks.thisTrialN,StopBlocks.thisN,StopBlocks.thisIndex,StopTrials.thisRepN,StopTrials.thisTrialN,StopTrials.thisN,StopTrials.thisIndex,auctionBlocks.thisRepN,auctionBlocks.thisTrialN,auctionBlocks.thisN,auctionBlocks.thisIndex,auctionTrials.thisRepN,auctionTrials.thisTrialN,auctionTrials.thisN,auctionTrials.thisIndex,learningTrialList,learningPracTrialList,stopTrialList,stopPracTrialList,auctionTrialList,ok1.keys,ok1.rt,resp.keys,resp.corr,resp.rt,feedbackResp.keys,feedbackResp.corr,currentReward,currentStimulus,currentStimType,firstPracComputedRewardOutput,firstPracLearningStimOnset,firstPracLearningFixOnset,firstPracPresentationRT,firstPracPresentationAcc,firstPracPresentationResp,firstPracEndTrialTimeStamp,StartTrialTimeStamp,trialType,goStim,stimType,stopStimValue,goResp.keys,goResp.corr,goResp.rt,key_resp_9.keys,key_resp_9.corr,fixStopOnset,goStimOnset,EndTrialTimeStamp,stopSignalOnset,key_resp_3.keys,key_resp_3.rt,firstComputedRewardOutput,firstLearningStimOnset,firstLearningFixOnset,firstPresentationRT,firstPresentationAcc,firstPresentationResp,firstEndTrialTimeStamp,secondComputedRewardOutput,secondLearningStimOnset,secondLearningFixOnset,secondPresentationRT,secondPresentationAcc,secondPresentationResp,secondEndTrialTimeStamp,key_resp_7.keys,key_resp_7.rt,feedbackResp.rt,beginningSSD,EndingSSD,key_resp_4.keys,key_resp_4.rt,auctionResponse.keys,auctionStimDuration,auctionStim,auctionAmounts,auctionStimValue,auctionCondition,chosenAuctionAmount,auctionResponse.rt,key_resp_5.keys,key_resp_5.rt,shuffledRewardList,chosenReward1,chosenReward2,chosenReward3,chosenReward4,chosenReward5,key_resp_6.keys,key_resp_6.rt,date,frameRate,expName,session,participant,
,,,,,,,,,,,,,,,,,,,,,,,,,,,,,,,,,,,,,,,,,,,,,,,,[],[],[],[],[],9,41.6577680111,,,,,,,,,,,,,,,,,,,,,,,,,,,,,,,,,,,,,,,,,,,,,,,,,,,,,,,,,,,,,,,,,,,,,,,2015_Jun_25_1141,59.9408923314,LearningTask,1,67,
200,s,-200,,,,0,0,0,2,,,,,,,,,,,,,,,,,,,,,,,,,,,,,,,,,,,,,,,,,,,,,,s,1,0.467799901962,None,0,1.0,crosscyan.gif,go,0,0.509069919586,0.00319480895996,0.467799901962,1,s,69.8160638809,,,,,,,,,,,,,,,,,,,,,,,,,,,,,,,,,,,,,,,,,,,,,,,,,,,,,,,,2015_Jun_25_1141,59.9408923314,LearningTask,1,67,
-200,q,200,,,,0,1,1,5,,,,,,,,,,,,,,,,,,,,,,,,,,,,,,,,,,,,,,,,,,,,,,q,1,0.367311000824,None,0,2.0,circlewhite.gif,go,1.76,0.514312982559,0.00130200386047,0.367311000824,1,q,72.8184809685,,,,,,,,,,,,,,,,,,,,,,,,,,,,,,,,,,,,,,,,,,,,,,,,,,,,,,,,2015_Jun_25_1141,59.9408923314,LearningTask,1,67,
-200,a,-200,,,,0,2,2,3,,,,,,,,,,,,,,,,,,,,,,,,,,,,,,,,,,,,,,,,,,,,,,a,1,0.300612211227,None,0,0.5,triangleorange.gif,go,0.29,0.515075922012,0.000906944274902,0.300612211227,1,a,75.8217079639,,,,,,,,,,,,,,,,,,,,,,,,,,,,,,,,,,,,,,,,,,,,,,,,,,,,,,,,2015_Jun_25_1141,59.9408923314,LearningTask,1,67,
-200,q,200,,,,0,3,3,9,,,,,,,,,,,,,,,,,,,,,,,,,,,,,,,,,,,,,,,,,,,,,,q,1,0.31772518158,None,0,0.5,hexagonmagenta.gif,stop,0.57,0.515254020691,0.00130319595337,0.31772518158,1,q,78.8255178928,,,,,,,,,,,,,,,,,,,,,,,,,,,,,,,,,,,,,,,,,,,,,,,,,,,,,,,,2015_Jun_25_1141,59.9408923314,LearningTask,1,67,
200,w,200,,,,0,4,4,4,,,,,,,,,,,,,,,,,,,,,,,,,,,,,,,,,,,,,,,,,,,,,,w,1,0.31746006012,None,0,1.0,crosscyan.gif,go,0,0.514765977859,0.000907897949219,0.31746006012,1,w,81.8286030293,,,,,,,,,,,,,,,,,,,,,,,,,,,,,,,,,,,,,,,,,,,,,,,,,,,,,,,,2015_Jun_25_1141,59.9408923314,LearningTask,1,67,
200,w,200,,,,0,5,5,0,,,,,,,,,,,,,,,,,,,,,,,,,,,,,,,,,,,,,,,,,,,,,,w,1,0.317655086517,None,0,4.0,diamondyellow.gif,go,4.17,0.515132904053,0.00129699707031,0.317655086517,1,w,84.8319919109,,,,,,,,,,,,,,,,,,,,,,,,,,,,,,,,,,,,,,,,,,,,,,,,,,,,,,,,2015_Jun_25_1141,59.9408923314,LearningTask,1,67,
-200,a,-200,,,,0,6,6,7,,,,,,,,,,,,,,,,,,,,,,,,,,,,,,,,,,,,,,,,,,,,,,a,1,0.31756401062,None,0,4.0,squareblue.gif,stop,0,0.514909029007,0.00132393836975,0.31756401062,1,a,87.8355388641,,,,,,,,,,,,,,,,,,,,,,,,,,,,,,,,,,,,,,,,,,,,,,,,,,,,,,,,2015_Jun_25_1141,59.9408923314,LearningTask,1,67,
-200,q,200,,,,0,7,7,1,,,,,,,,,,,,,,,,,,,,,,,,,,,,,,,,,,,,,,,,,,,,,,q,1,0.267351150513,None,0,2.0,invertedtrianglegray.gif,stop,2.11,0.514956951141,0.00132703781128,0.267351150513,1,q,90.838739872,,,,,,,,,,,,,,,,,,,,,,,,,,,,,,,,,,,,,,,,,,,,,,,,,,,,,,,,2015_Jun_25_1141,59.9408923314,LearningTask,1,67,
200,w,200,,,,0,8,8,8,,,,,,,,,,,,,,,,,,,,,,,,,,,,,,,,,,,,,,,,,,,,,,w,1,0.284543991089,None,0,1.0,crosscyan.gif,go,0.87,0.51527094841,0.000898122787476,0.284543991089,1,w,93.8421239853,,,,,,,,,,,,,,,,,,,,,,,,,,,,,,,,,,,,,,,,,,,,,,,,,,,,,,,,2015_Jun_25_1141,59.9408923314,LearningTask,1,67,
200,s,-200,,,,0,9,9,6,,,,,,,,,,,,,,,,,,,,,,,,,,,,,,,,,,,,,,,,,,,,,,s,1,0.300899982452,None,0,0.5,hexagonmagenta.gif,stop,0.29,0.515068054199,0.000949859619141,0.300899982452,1,s,96.845471859,,,,,,,,,,,,,,,,,,,,,,,,,,,,,,,,,,,,,,,,,,,,,,,,,,,,,,,,2015_Jun_25_1141,59.9408923314,LearningTask,1,67,
,,,z,0,-200,,,,,,,,,,0,0,0,0,,,,,,,,,,,,,,,,,,,,,,,,,,,,,,,,,,,,,,,,,,,,,,,,,,,,140.39862299,go,crosscyan.gif,go,1.0,z,1,0.333828926086,None,0,0.00133895874023,0.511481046677,143.397572041,,,,,,,,,,,,,,,,,,,,,,,,,,,,,,,,,,,,,,,,,,,2015_Jun_25_1141,59.9408923314,LearningTask,1,67,
,,,z,0,-200,,,,,,,,,,0,1,1,0,,,,,,,,,,,,,,,,,,,,,,,,,,,,,,,,,,,,,,,,,,,,,,,,,,,,143.397969007,stop,linegreen.gif,stop,1.0,z,1,0.334313869476,None,0,0.00145792961121,0.515478134155,146.401087999,0.765916109085,,,,,,,,,,,,,,,,,,,,,,,,,,,,,,,,,,,,,,,,,,2015_Jun_25_1141,59.9408923314,LearningTask,1,67,
,,,m,0,200,,,,,,,,,,1,0,2,1,,,,,,,,,,,,,,,,,,,,,,,,,,,,,,,,,,,,,,,,,,,,,,,,,,,,146.401450872,stop,hexagonmagenta.gif,stop,0.5,None,0,,None,0,0.000985145568848,0.515825986862,149.404347897,0.766312122345,,,,,,,,,,,,,,,,,,,,,,,,,,,,,,,,,,,,,,,,,,2015_Jun_25_1141,59.9408923314,LearningTask,1,67,
,,,m,0,200,,,,,,,,,,1,1,3,1,,,,,,,,,,,,,,,,,,,,,,,,,,,,,,,,,,,,,,,,,,,,,,,,,,,,149.404739857,stop,invertedtrianglegray.gif,stop,2.0,None,0,,None,0,0.000975847244263,0.515995979309,152.407968998,0.766013860703,,,,,,,,,,,,,,,,,,,,,,,,,,,,,,,,,,,,,,,,,,2015_Jun_25_1141,59.9408923314,LearningTask,1,67,
,,,m,0,200,,,,,,,,,,2,0,4,1,,,,,,,,,,,,,,,,,,,,,,,,,,,,,,,,,,,,,,,,,,,,,,,,,,,,152.408330917,go,triangleorange.gif,go,0.5,m,1,0.450361967087,None,0,0.00126910209656,0.515917062759,155.411098957,,,,,,,,,,,,,,,,,,,,,,,,,,,,,,,,,,,,,,,,,,,2015_Jun_25_1141,59.9408923314,LearningTask,1,67,
,,,z,0,-200,,,,,,,,,,2,1,5,0,,,,,,,,,,,,,,,,,,,,,,,,,,,,,,,,,,,,,,,,,,,,,,,,,,,,155.411541939,go,crosscyan.gif,go,1.0,z,1,0.41761302948,None,0,0.000983953475952,0.515885829926,158.414383888,,,,,,,,,,,,,,,,,,,,,,,,,,,,,,,,,,,,,,,,,,,2015_Jun_25_1141,59.9408923314,LearningTask,1,67,
,,,m,0,200,,,,,,,,,,3,0,6,1,,,,,,,,,,,,,,,,,,,,,,,,,,,,,,,,,,,,,,,,,,,,,,,,,,,,158.414746046,go,diamondyellow.gif,go,4.0,m,1,0.517606019974,None,0,0.000953912734985,0.515981912613,161.418082952,,,,,,,,,,,,,,,,,,,,,,,,,,,,,,,,,,,,,,,,,,,2015_Jun_25_1141,59.9408923314,LearningTask,1,67,
,,,m,0,200,,,,,,,,,,3,1,7,1,,,,,,,,,,,,,,,,,,,,,,,,,,,,,,,,,,,,,,,,,,,,,,,,,,,,161.418593884,go,crosscyan.gif,go,1.0,m,1,0.417443037033,None,0,0.00103616714478,0.515393018723,164.421314001,,,,,,,,,,,,,,,,,,,,,,,,,,,,,,,,,,,,,,,,,,,2015_Jun_25_1141,59.9408923314,LearningTask,1,67,
,,,z,0,-200,,,,,,,,,,4,0,8,0,,,,,,,,,,,,,,,,,,,,,,,,,,,,,,,,,,,,,,,,,,,,,,,,,,,,164.421731949,stop,linegreen.gif,stop,1.0,z,1,0.31752705574,None,0,0.000962972640991,0.515532970428,167.424638033,0.765997886658,,,,,,,,,,,,,,,,,,,,,,,,,,,,,,,,,,,,,,,,,,2015_Jun_25_1141,59.9408923314,LearningTask,1,67,
,,,z,0,-200,,,,,,,,,,4,1,9,0,,,,,,,,,,,,,,,,,,,,,,,,,,,,,,,,,,,,,,,,,,,,,,,,,,,,167.425004005,stop,squareblue.gif,stop,4.0,None,0,,None,0,0.000934839248657,0.516003847122,170.427890062,0.766670942307,,,,,,,,,,,,,,,,,,,,,,,,,,,,,,,,,,,,,,,,,,2015_Jun_25_1141,59.9408923314,LearningTask,1,67,
,,,,,,,,,,,,,,,,,,,,,,,,,,,,,,,,,,,,,,,,,,,,,,,,,,,,,,,,,,,,,,,,,,,,,,,,,,,,,,,,,,,,9,59.441770792,,,,,,,,,,,,,,,,,,,,,,,,,,,,,,,,,,,,,,,,2015_Jun_25_1141,59.9408923314,LearningTask,1,67,
,,,,,,,,,,,,,,,,,,,,,,,,,,,,,,,,,,,,,,,,,,,,,,,,,,,,,9,2.41894602776,,,,,,,,,,,,,,,,,,,,,,,,,,,,,,,,,,,,,,,,,,,,,,,,,,,,,,,,,,,,,,,,,,,,,,,2015_Jun_25_1141,59.9408923314,LearningTask,1,67,
-200,q,200,,,,,,,,,,,,,,,,,0,0,0,0,0,0,0,1,,,,,,,,,,,,,,,,,,,,,,,,,,,,,q,1,0.267497062683,None,0,4.0,squareblue.gif,stop,,,,,,,,,,,,,,,,,,,,,,,,4.05,0.509812116623,0.000914096832275,0.267497062683,1,q,235.435656071,,,,,,,,,,,,,,,,,,,,,,,,,,,,,,,,,2015_Jun_25_1141,59.9408923314,LearningTask,1,67,
200,s,-200,,,,,,,,,,,,,,,,,0,0,0,0,0,1,1,2,,,,,,,,,,,,,,,,,,,,,,,,,,,,,s,1,0.317407131195,None,0,4.0,squareblue.gif,stop,,,,,,,,,,,,,,,,,,,,,,,,3.84,0.514133930206,0.00088095664978,0.317407131195,1,s,238.438631058,,,,,,,,,,,,,,,,,,,,,,,,,,,,,,,,,2015_Jun_25_1141,59.9408923314,LearningTask,1,67,
200,s,-200,,,,,,,,,,,,,,,,,0,0,0,0,0,2,2,2,,,,,,,,,,,,,,,,,,,,,,,,,,,,,s,1,0.333958864212,None,0,2.0,circlewhite.gif,go,,,,,,,,,,,,,,,,,,,,,,,,0,0.514298915863,0.000927925109863,0.333958864212,1,s,241.441906929,,,,,,,,,,,,,,,,,,,,,,,,,,,,,,,,,2015_Jun_25_1141,59.9408923314,LearningTask,1,67,
-200,a,-200,,,,,,,,,,,,,,,,,0,0,0,0,0,3,3,3,,,,,,,,,,,,,,,,,,,,,,,,,,,,,a,1,0.300748109818,None,0,0.5,hexagonmagenta.gif,stop,,,,,,,,,,,,,,,,,,,,,,,,0,0.51423406601,0.000911951065063,0.300748109818,1,a,244.445354939,,,,,,,,,,,,,,,,,,,,,,,,,,,,,,,,,2015_Jun_25_1141,59.9408923314,LearningTask,1,67,
200,s,-200,,,,,,,,,,,,,,,,,0,0,0,0,1,0,4,2,,,,,,,,,,,,,,,,,,,,,,,,,,,,,s,1,0.284351110458,None,0,4.0,diamondyellow.gif,go,,,,,,,,,,,,,,,,,,,,,,,,0,0.514281988144,0.00092887878418,0.284351110458,1,s,247.449069023,,,,,,,,,,,,,,,,,,,,,,,,,,,,,,,,,2015_Jun_25_1141,59.9408923314,LearningTask,1,67,
-200,q,200,,,,,,,,,,,,,,,,,0,0,0,0,1,1,5,1,,,,,,,,,,,,,,,,,,,,,,,,,,,,,q,1,0.283764123917,None,0,2.0,invertedtrianglegray.gif,stop,,,,,,,,,,,,,,,,,,,,,,,,2.14,0.514081954956,0.00090503692627,0.283764123917,1,q,250.45229888,,,,,,,,,,,,,,,,,,,,,,,,,,,,,,,,,2015_Jun_25_1141,59.9408923314,LearningTask,1,67,
-200,a,-200,,,,,,,,,,,,,,,,,0,0,0,0,1,2,6,3,,,,,,,,,,,,,,,,,,,,,,,,,,,,,a,1,0.28430891037,None,0,4.0,diamondyellow.gif,go,,,,,,,,,,,,,,,,,,,,,,,,4.02,0.51414513588,0.000892162322998,0.28430891037,1,a,253.455529928,,,,,,,,,,,,,,,,,,,,,,,,,,,,,,,,,2015_Jun_25_1141,59.9408923314,LearningTask,1,67,
-200,q,200,,,,,,,,,,,,,,,,,0,0,0,0,1,3,7,1,,,,,,,,,,,,,,,,,,,,,,,,,,,,,q,1,0.251032829285,None,0,1.0,crosscyan.gif,go,,,,,,,,,,,,,,,,,,,,,,,,1.17,0.514312028885,0.000943899154663,0.251032829285,1,q,256.459105015,,,,,,,,,,,,,,,,,,,,,,,,,,,,,,,,,2015_Jun_25_1141,59.9408923314,LearningTask,1,67,
200,w,200,,,,,,,,,,,,,,,,,0,0,0,0,2,0,8,0,,,,,,,,,,,,,,,,,,,,,,,,,,,,,w,1,0.283793926239,None,0,0.5,hexagonmagenta.gif,stop,,,,,,,,,,,,,,,,,,,,,,,,0,0.51433300972,0.000915050506592,0.283793926239,1,w,259.462426901,,,,,,,,,,,,,,,,,,,,,,,,,,,,,,,,,2015_Jun_25_1141,59.9408923314,LearningTask,1,67,
-200,a,-200,,,,,,,,,,,,,,,,,0,0,0,0,2,1,9,3,,,,,,,,,,,,,,,,,,,,,,,,,,,,,a,1,0.267025947571,None,0,0.5,triangleorange.gif,go,,,,,,,,,,,,,,,,,,,,,,,,0.56,0.514348983765,0.00123190879822,0.267025947571,1,a,262.465409994,,,,,,,,,,,,,,,,,,,,,,,,,,,,,,,,,2015_Jun_25_1141,59.9408923314,LearningTask,1,67,
200,s,-200,,,,,,,,,,,,,,,,,0,0,0,0,2,2,10,2,,,,,,,,,,,,,,,,,,,,,,,,,,,,,s,1,0.26726603508,None,0,0.5,hexagonmagenta.gif,stop,,,,,,,,,,,,,,,,,,,,,,,,0.32,0.514557123184,0.000957012176514,0.26726603508,1,s,265.468873978,,,,,,,,,,,,,,,,,,,,,,,,,,,,,,,,,2015_Jun_25_1141,59.9408923314,LearningTask,1,67,
-200,a,-200,,,,,,,,,,,,,,,,,0,0,0,0,2,3,11,3,,,,,,,,,,,,,,,,,,,,,,,,,,,,,a,1,0.267509937286,None,0,4.0,squareblue.gif,stop,,,,,,,,,,,,,,,,,,,,,,,,4.0,0.514117956161,0.000922918319702,0.267509937286,1,a,268.472338915,,,,,,,,,,,,,,,,,,,,,,,,,,,,,,,,,2015_Jun_25_1141,59.9408923314,LearningTask,1,67,
-200,q,200,,,,,,,,,,,,,,,,,0,0,0,0,3,0,12,1,,,,,,,,,,,,,,,,,,,,,,,,,,,,,q,1,0.234208106995,None,0,4.0,diamondyellow.gif,go,,,,,,,,,,,,,,,,,,,,,,,,4.01,0.514312028885,0.00112009048462,0.234208106995,1,q,271.475754976,,,,,,,,,,,,,,,,,,,,,,,,,,,,,,,,,2015_Jun_25_1141,59.9408923314,LearningTask,1,67,
200,w,200,,,,,,,,,,,,,,,,,0,0,0,0,3,1,13,0,,,,,,,,,,,,,,,,,,,,,,,,,,,,,w,1,0.267624855042,None,0,2.0,invertedtrianglegray.gif,stop,,,,,,,,,,,,,,,,,,,,,,,,2.23,0.513916015625,0.000894069671631,0.267624855042,1,w,274.479136944,,,,,,,,,,,,,,,,,,,,,,,,,,,,,,,,,2015_Jun_25_1141,59.9408923314,LearningTask,1,67,
200,s,-200,,,,,,,,,,,,,,,,,0,0,0,0,3,2,14,2,,,,,,,,,,,,,,,,,,,,,,,,,,,,,s,1,0.284384965897,None,0,1.0,linegreen.gif,stop,,,,,,,,,,,,,,,,,,,,,,,,0.92,0.514353990555,0.000892877578735,0.284384965897,1,s,277.482735872,,,,,,,,,,,,,,,,,,,,,,,,,,,,,,,,,2015_Jun_25_1141,59.9408923314,LearningTask,1,67,
-200,q,200,,,,,,,,,,,,,,,,,0,0,0,0,3,3,15,1,,,,,,,,,,,,,,,,,,,,,,,,,,,,,q,1,0.234205961227,None,0,4.0,diamondyellow.gif,go,,,,,,,,,,,,,,,,,,,,,,,,4.09,0.513565778732,0.00095796585083,0.234205961227,1,q,280.485949039,,,,,,,,,,,,,,,,,,,,,,,,,,,,,,,,,2015_Jun_25_1141,59.9408923314,LearningTask,1,67,
200,s,-200,,,,,,,,,,,,,,,,,0,0,0,0,4,0,16,2,,,,,,,,,,,,,,,,,,,,,,,,,,,,,s,1,0.300666093826,None,0,0.5,hexagonmagenta.gif,stop,,,,,,,,,,,,,,,,,,,,,,,,0,0.514193058014,0.000976085662842,0.284183979034,0,w,283.488926888,0.49,0.515878915787,0.000908851623535,0.300666093826,1,s,286.493038893,,,,,,,,,,,,,,,,,,,,,,,,,,2015_Jun_25_1141,59.9408923314,LearningTask,1,67,
-200,a,-200,,,,,,,,,,,,,,,,,0,0,0,0,4,1,17,3,,,,,,,,,,,,,,,,,,,,,,,,,,,,,a,1,0.31730389595,None,0,4.0,squareblue.gif,stop,,,,,,,,,,,,,,,,,,,,,,,,3.92,0.51339507103,0.00103902816772,0.31730389595,1,a,289.496087074,,,,,,,,,,,,,,,,,,,,,,,,,,,,,,,,,2015_Jun_25_1141,59.9408923314,LearningTask,1,67,
-200,q,200,,,,,,,,,,,,,,,,,0,0,0,0,4,2,18,1,,,,,,,,,,,,,,,,,,,,,,,,,,,,,q,1,0.283736944199,None,0,1.0,linegreen.gif,stop,,,,,,,,,,,,,,,,,,,,,,,,0.98,0.514499187469,0.000893115997314,0.283736944199,1,q,292.499333858,,,,,,,,,,,,,,,,,,,,,,,,,,,,,,,,,2015_Jun_25_1141,59.9408923314,LearningTask,1,67,
-200,a,-200,,,,,,,,,,,,,,,,,0,0,0,0,4,3,19,3,,,,,,,,,,,,,,,,,,,,,,,,,,,,,a,1,0.283920049667,None,0,4.0,squareblue.gif,stop,,,,,,,,,,,,,,,,,,,,,,,,4.0,0.514403820038,0.000885009765625,0.283920049667,1,a,295.503206968,,,,,,,,,,,,,,,,,,,,,,,,,,,,,,,,,2015_Jun_25_1141,59.9408923314,LearningTask,1,67,
200,w,200,,,,,,,,,,,,,,,,,0,0,0,0,5,0,20,0,,,,,,,,,,,,,,,,,,,,,,,,,,,,,w,1,0.267598152161,None,0,2.0,circlewhite.gif,go,,,,,,,,,,,,,,,,,,,,,,,,1.97,0.513732910156,0.000916957855225,0.267598152161,1,w,298.506160975,,,,,,,,,,,,,,,,,,,,,,,,,,,,,,,,,2015_Jun_25_1141,59.9408923314,LearningTask,1,67,
-200,a,-200,,,,,,,,,,,,,,,,,0,0,0,0,5,1,21,3,,,,,,,,,,,,,,,,,,,,,,,,,,,,,a,1,0.300951957703,None,0,4.0,squareblue.gif,stop,,,,,,,,,,,,,,,,,,,,,,,,3.93,0.51428103447,0.00088095664978,0.300951957703,1,a,301.509608984,,,,,,,,,,,,,,,,,,,,,,,,,,,,,,,,,2015_Jun_25_1141,59.9408923314,LearningTask,1,67,
-200,a,-200,,,,,,,,,,,,,,,,,0,0,0,0,5,2,22,3,,,,,,,,,,,,,,,,,,,,,,,,,,,,,a,1,0.300489902496,None,0,4.0,diamondyellow.gif,go,,,,,,,,,,,,,,,,,,,,,,,,0,0.514405012131,0.00101113319397,0.300489902496,1,a,304.51316905,,,,,,,,,,,,,,,,,,,,,,,,,,,,,,,,,2015_Jun_25_1141,59.9408923314,LearningTask,1,67,
-200,q,200,,,,,,,,,,,,,,,,,0,0,0,0,5,3,23,1,,,,,,,,,,,,,,,,,,,,,,,,,,,,,q,1,0.300749063492,None,0,1.0,crosscyan.gif,go,,,,,,,,,,,,,,,,,,,,,,,,1.22,0.514126062393,0.000894069671631,0.300749063492,1,q,307.516207933,,,,,,,,,,,,,,,,,,,,,,,,,,,,,,,,,2015_Jun_25_1141,59.9408923314,LearningTask,1,67,
200,s,-200,,,,,,,,,,,,,,,,,0,0,0,0,6,0,24,2,,,,,,,,,,,,,,,,,,,,,,,,,,,,,s,1,0.267556190491,None,0,0.5,triangleorange.gif,go,,,,,,,,,,,,,,,,,,,,,,,,0.55,0.514369010925,0.00109481811523,0.267556190491,1,s,310.519803047,,,,,,,,,,,,,,,,,,,,,,,,,,,,,,,,,2015_Jun_25_1141,59.9408923314,LearningTask,1,67,
-200,q,200,,,,,,,,,,,,,,,,,0,0,0,0,6,1,25,1,,,,,,,,,,,,,,,,,,,,,,,,,,,,,q,1,0.300822973251,None,0,0.5,triangleorange.gif,go,,,,,,,,,,,,,,,,,,,,,,,,0.58,0.513983011246,0.000931024551392,0.300822973251,1,q,313.522897005,,,,,,,,,,,,,,,,,,,,,,,,,,,,,,,,,2015_Jun_25_1141,59.9408923314,LearningTask,1,67,
200,s,-200,,,,,,,,,,,,,,,,,0,0,0,0,6,2,26,2,,,,,,,,,,,,,,,,,,,,,,,,,,,,,s,1,0.317330121994,None,0,0.5,triangleorange.gif,go,,,,,,,,,,,,,,,,,,,,,,,,0.66,0.514512062073,0.000898122787476,0.317330121994,1,s,316.526498079,,,,,,,,,,,,,,,,,,,,,,,,,,,,,,,,,2015_Jun_25_1141,59.9408923314,LearningTask,1,67,
200,s,-200,,,,,,,,,,,,,,,,,0,0,0,0,6,3,27,2,,,,,,,,,,,,,,,,,,,,,,,,,,,,,s,1,0.33365893364,None,0,1.0,crosscyan.gif,go,,,,,,,,,,,,,,,,,,,,,,,,0,0.514097929001,0.00105881690979,0.33365893364,1,s,319.529978991,,,,,,,,,,,,,,,,,,,,,,,,,,,,,,,,,2015_Jun_25_1141,59.9408923314,LearningTask,1,67,
-200,a,-200,,,,,,,,,,,,,,,,,0,0,0,0,7,0,28,3,,,,,,,,,,,,,,,,,,,,,,,,,,,,,a,1,0.333894968033,None,0,1.0,linegreen.gif,stop,,,,,,,,,,,,,,,,,,,,,,,,1.0,0.514202833176,0.000890016555786,0.333894968033,1,a,322.533171892,,,,,,,,,,,,,,,,,,,,,,,,,,,,,,,,,2015_Jun_25_1141,59.9408923314,LearningTask,1,67,
200,w,200,,,,,,,,,,,,,,,,,0,0,0,0,7,1,29,0,,,,,,,,,,,,,,,,,,,,,,,,,,,,,w,1,0.300611972809,None,0,2.0,circlewhite.gif,go,,,,,,,,,,,,,,,,,,,,,,,,1.99,0.51438498497,0.000906944274902,0.300611972809,1,w,325.536576033,,,,,,,,,,,,,,,,,,,,,,,,,,,,,,,,,2015_Jun_25_1141,59.9408923314,LearningTask,1,67,
200,w,200,,,,,,,,,,,,,,,,,0,0,0,0,7,2,30,0,,,,,,,,,,,,,,,,,,,,,,,,,,,,,w,1,0.317004203796,None,0,2.0,invertedtrianglegray.gif,stop,,,,,,,,,,,,,,,,,,,,,,,,2.17,0.514447927475,0.000922918319702,0.317004203796,1,w,328.539862871,,,,,,,,,,,,,,,,,,,,,,,,,,,,,,,,,2015_Jun_25_1141,59.9408923314,LearningTask,1,67,
-200,q,200,,,,,,,,,,,,,,,,,0,0,0,0,7,3,31,1,,,,,,,,,,,,,,,,,,,,,,,,,,,,,q,1,0.300906896591,None,0,4.0,squareblue.gif,stop,,,,,,,,,,,,,,,,,,,,,,,,4.13,0.514122009277,0.00088906288147,0.300906896591,1,q,331.543178082,,,,,,,,,,,,,,,,,,,,,,,,,,,,,,,,,2015_Jun_25_1141,59.9408923314,LearningTask,1,67,
200,w,200,,,,,,,,,,,,,,,,,0,0,0,0,8,0,32,0,,,,,,,,,,,,,,,,,,,,,,,,,,,,,w,1,0.284516096115,None,0,0.5,triangleorange.gif,go,,,,,,,,,,,,,,,,,,,,,,,,0.57,0.514503955841,0.000888824462891,0.284516096115,1,w,334.546966076,,,,,,,,,,,,,,,,,,,,,,,,,,,,,,,,,2015_Jun_25_1141,59.9408923314,LearningTask,1,67,
200,w,200,,,,,,,,,,,,,,,,,0,0,0,0,8,1,33,0,,,,,,,,,,,,,,,,,,,,,,,,,,,,,w,1,0.333909034729,None,0,1.0,linegreen.gif,stop,,,,,,,,,,,,,,,,,,,,,,,,0.98,0.514045953751,0.000901937484741,0.333909034729,1,w,337.550188065,,,,,,,,,,,,,,,,,,,,,,,,,,,,,,,,,2015_Jun_25_1141,59.9408923314,LearningTask,1,67,
-200,a,-200,,,,,,,,,,,,,,,,,0,0,0,0,8,2,34,3,,,,,,,,,,,,,,,,,,,,,,,,,,,,,a,1,0.301076173782,None,0,0.5,hexagonmagenta.gif,stop,,,,,,,,,,,,,,,,,,,,,,,,0.5,0.514164924622,0.00090503692627,0.301076173782,1,a,340.553377867,,,,,,,,,,,,,,,,,,,,,,,,,,,,,,,,,2015_Jun_25_1141,59.9408923314,LearningTask,1,67,
-200,a,-200,,,,,,,,,,,,,,,,,0,0,0,0,8,3,35,3,,,,,,,,,,,,,,,,,,,,,,,,,,,,,a,1,0.317542076111,None,0,4.0,diamondyellow.gif,go,,,,,,,,,,,,,,,,,,,,,,,,0,0.514466047287,0.000900030136108,0.317542076111,1,a,343.557148933,,,,,,,,,,,,,,,,,,,,,,,,,,,,,,,,,2015_Jun_25_1141,59.9408923314,LearningTask,1,67,
-200,q,200,,,,,,,,,,,,,,,,,0,0,0,0,9,0,36,1,,,,,,,,,,,,,,,,,,,,,,,,,,,,,q,1,0.301169157028,None,0,1.0,linegreen.gif,stop,,,,,,,,,,,,,,,,,,,,,,,,1.07,0.513912916183,0.000905990600586,0.301169157028,1,q,346.560174942,,,,,,,,,,,,,,,,,,,,,,,,,,,,,,,,,2015_Jun_25_1141,59.9408923314,LearningTask,1,67,
-200,a,-200,,,,,,,,,,,,,,,,,0,0,0,0,9,1,37,3,,,,,,,,,,,,,,,,,,,,,,,,,,,,,a,1,0.300554990768,None,0,1.0,crosscyan.gif,go,,,,,,,,,,,,,,,,,,,,,,,,0,0.51442694664,0.000940084457397,0.300554990768,1,a,349.56348896,,,,,,,,,,,,,,,,,,,,,,,,,,,,,,,,,2015_Jun_25_1141,59.9408923314,LearningTask,1,67,
200,w,200,,,,,,,,,,,,,,,,,0,0,0,0,9,2,38,0,,,,,,,,,,,,,,,,,,,,,,,,,,,,,w,1,0.284004926682,None,0,4.0,squareblue.gif,stop,,,,,,,,,,,,,,,,,,,,,,,,4.16,0.514312028885,0.00092601776123,0.284004926682,1,w,352.567065954,,,,,,,,,,,,,,,,,,,,,,,,,,,,,,,,,2015_Jun_25_1141,59.9408923314,LearningTask,1,67,
-200,q,200,,,,,,,,,,,,,,,,,0,0,0,0,9,3,39,1,,,,,,,,,,,,,,,,,,,,,,,,,,,,,q,1,0.300662994385,None,0,1.0,linegreen.gif,stop,,,,,,,,,,,,,,,,,,,,,,,,1.12,0.514317035675,0.000902891159058,0.300662994385,1,q,355.570291996,,,,,,,,,,,,,,,,,,,,,,,,,,,,,,,,,2015_Jun_25_1141,59.9408923314,LearningTask,1,67,
200,w,200,,,,,,,,,,,,,,,,,0,0,0,0,10,0,40,0,,,,,,,,,,,,,,,,,,,,,,,,,,,,,w,1,0.284198045731,None,0,0.5,hexagonmagenta.gif,stop,,,,,,,,,,,,,,,,,,,,,,,,0.34,0.514302015305,0.00113010406494,0.284198045731,1,w,358.573691845,,,,,,,,,,,,,,,,,,,,,,,,,,,,,,,,,2015_Jun_25_1141,59.9408923314,LearningTask,1,67,
200,w,200,,,,,,,,,,,,,,,,,0,0,0,0,10,1,41,0,,,,,,,,,,,,,,,,,,,,,,,,,,,,,w,1,0.30073094368,None,0,4.0,diamondyellow.gif,go,,,,,,,,,,,,,,,,,,,,,,,,3.87,0.514151096344,0.000905990600586,0.30073094368,1,w,361.576956987,,,,,,,,,,,,,,,,,,,,,,,,,,,,,,,,,2015_Jun_25_1141,59.9408923314,LearningTask,1,67,
200,s,-200,,,,,,,,,,,,,,,,,0,0,0,0,10,2,42,2,,,,,,,,,,,,,,,,,,,,,,,,,,,,,s,1,0.31735086441,None,0,4.0,diamondyellow.gif,go,,,,,,,,,,,,,,,,,,,,,,,,0,0.51444196701,0.000892877578735,0.31735086441,1,s,364.580440998,,,,,,,,,,,,,,,,,,,,,,,,,,,,,,,,,2015_Jun_25_1141,59.9408923314,LearningTask,1,67,
200,s,-200,,,,,,,,,,,,,,,,,0,0,0,0,10,3,43,2,,,,,,,,,,,,,,,,,,,,,,,,,,,,,s,1,0.31761097908,None,0,1.0,linegreen.gif,stop,,,,,,,,,,,,,,,,,,,,,,,,0,0.514058113098,0.000943183898926,0.31761097908,1,s,367.583785057,,,,,,,,,,,,,,,,,,,,,,,,,,,,,,,,,2015_Jun_25_1141,59.9408923314,LearningTask,1,67,
-200,q,200,,,,,,,,,,,,,,,,,0,0,0,0,11,0,44,1,,,,,,,,,,,,,,,,,,,,,,,,,,,,,q,1,0.233922958374,None,0,2.0,circlewhite.gif,go,,,,,,,,,,,,,,,,,,,,,,,,1.86,0.514181137085,0.000900983810425,0.233922958374,1,q,370.587154865,,,,,,,,,,,,,,,,,,,,,,,,,,,,,,,,,2015_Jun_25_1141,59.9408923314,LearningTask,1,67,
200,s,-200,,,,,,,,,,,,,,,,,0,0,0,0,11,1,45,2,,,,,,,,,,,,,,,,,,,,,,,,,,,,,s,1,0.283852100372,None,0,4.0,diamondyellow.gif,go,,,,,,,,,,,,,,,,,,,,,,,,4.23,0.514516830444,0.000890016555786,0.283852100372,1,s,373.59078598,,,,,,,,,,,,,,,,,,,,,,,,,,,,,,,,,2015_Jun_25_1141,59.9408923314,LearningTask,1,67,
-200,q,200,,,,,,,,,,,,,,,,,0,0,0,0,11,2,46,1,,,,,,,,,,,,,,,,,,,,,,,,,,,,,q,1,0.317332029343,None,0,4.0,diamondyellow.gif,go,,,,,,,,,,,,,,,,,,,,,,,,4.18,0.513810873032,0.000951051712036,0.317332029343,1,q,376.594055891,,,,,,,,,,,,,,,,,,,,,,,,,,,,,,,,,2015_Jun_25_1141,59.9408923314,LearningTask,1,67,
-200,a,-200,,,,,,,,,,,,,,,,,0,0,0,0,11,3,47,3,,,,,,,,,,,,,,,,,,,,,,,,,,,,,a,1,0.284158945084,None,0,2.0,circlewhite.gif,go,,,,,,,,,,,,,,,,,,,,,,,,0,0.514303922653,0.00091290473938,0.284158945084,1,a,379.597219944,,,,,,,,,,,,,,,,,,,,,,,,,,,,,,,,,2015_Jun_25_1141,59.9408923314,LearningTask,1,67,
-200,a,-200,,,,,,,,,,,,,,,,,0,0,0,0,12,0,48,3,,,,,,,,,,,,,,,,,,,,,,,,,,,,,a,1,0.284422874451,None,0,1.0,crosscyan.gif,go,,,,,,,,,,,,,,,,,,,,,,,,1.0,0.514467954636,0.000900030136108,0.284422874451,1,a,382.601125002,,,,,,,,,,,,,,,,,,,,,,,,,,,,,,,,,2015_Jun_25_1141,59.9408923314,LearningTask,1,67,
200,w,200,,,,,,,,,,,,,,,,,0,0,0,0,12,1,49,0,,,,,,,,,,,,,,,,,,,,,,,,,,,,,w,1,0.300522089005,None,0,0.5,hexagonmagenta.gif,stop,,,,,,,,,,,,,,,,,,,,,,,,0.26,0.513683080673,0.000921964645386,0.300522089005,1,w,385.604434013,,,,,,,,,,,,,,,,,,,,,,,,,,,,,,,,,2015_Jun_25_1141,59.9408923314,LearningTask,1,67,
-200,a,-200,,,,,,,,,,,,,,,,,0,0,0,0,12,2,50,3,,,,,,,,,,,,,,,,,,,,,,,,,,,,,a,1,0.300818920135,None,0,0.5,hexagonmagenta.gif,stop,,,,,,,,,,,,,,,,,,,,,,,,0.53,0.51353597641,0.00127387046814,0.300818920135,1,a,388.60746789,,,,,,,,,,,,,,,,,,,,,,,,,,,,,,,,,2015_Jun_25_1141,59.9408923314,LearningTask,1,67,
200,w,200,,,,,,,,,,,,,,,,,0,0,0,0,12,3,51,0,,,,,,,,,,,,,,,,,,,,,,,,,,,,,w,1,0.300838947296,None,0,0.5,triangleorange.gif,go,,,,,,,,,,,,,,,,,,,,,,,,0.29,0.514384031296,0.000936031341553,0.300838947296,1,w,391.611140013,,,,,,,,,,,,,,,,,,,,,,,,,,,,,,,,,2015_Jun_25_1141,59.9408923314,LearningTask,1,67,
-200,q,200,,,,,,,,,,,,,,,,,0,0,0,0,13,0,52,1,,,,,,,,,,,,,,,,,,,,,,,,,,,,,q,1,0.250762224197,None,0,1.0,crosscyan.gif,go,,,,,,,,,,,,,,,,,,,,,,,,0,0.514266014099,0.000900030136108,0.250762224197,1,q,394.614248037,,,,,,,,,,,,,,,,,,,,,,,,,,,,,,,,,2015_Jun_25_1141,59.9408923314,LearningTask,1,67,
200,s,-200,,,,,,,,,,,,,,,,,0,0,0,0,13,1,53,2,,,,,,,,,,,,,,,,,,,,,,,,,,,,,s,1,0.300486803055,None,0,2.0,invertedtrianglegray.gif,stop,,,,,,,,,,,,,,,,,,,,,,,,2.07,0.514347076416,0.00110816955566,0.300486803055,1,s,397.61775589,,,,,,,,,,,,,,,,,,,,,,,,,,,,,,,,,2015_Jun_25_1141,59.9408923314,LearningTask,1,67,
200,s,-200,,,,,,,,,,,,,,,,,0,0,0,0,13,2,54,2,,,,,,,,,,,,,,,,,,,,,,,,,,,,,s,1,0.31754899025,None,0,1.0,linegreen.gif,stop,,,,,,,,,,,,,,,,,,,,,,,,0.88,0.51392698288,0.000953912734985,0.31754899025,1,s,400.620997906,,,,,,,,,,,,,,,,,,,,,,,,,,,,,,,,,2015_Jun_25_1141,59.9408923314,LearningTask,1,67,
200,w,200,,,,,,,,,,,,,,,,,0,0,0,0,13,3,55,0,,,,,,,,,,,,,,,,,,,,,,,,,,,,,w,1,0.30096411705,None,0,4.0,squareblue.gif,stop,,,,,,,,,,,,,,,,,,,,,,,,0,0.514349222183,0.00266122817993,0.30096411705,1,w,403.624346972,,,,,,,,,,,,,,,,,,,,,,,,,,,,,,,,,2015_Jun_25_1141,59.9408923314,LearningTask,1,67,
200,s,-200,,,,,,,,,,,,,,,,,0,0,0,0,14,0,56,2,,,,,,,,,,,,,,,,,,,,,,,,,,,,,s,1,0.300570964813,None,0,0.5,triangleorange.gif,go,,,,,,,,,,,,,,,,,,,,,,,,0.67,0.514126062393,0.00108313560486,0.300570964813,1,s,406.627671957,,,,,,,,,,,,,,,,,,,,,,,,,,,,,,,,,2015_Jun_25_1141,59.9408923314,LearningTask,1,67,
200,w,200,,,,,,,,,,,,,,,,,0,0,0,0,14,1,57,0,,,,,,,,,,,,,,,,,,,,,,,,,,,,,w,1,0.283949136734,None,0,2.0,circlewhite.gif,go,,,,,,,,,,,,,,,,,,,,,,,,1.86,0.514553070068,0.000899076461792,0.283949136734,1,w,409.631129026,,,,,,,,,,,,,,,,,,,,,,,,,,,,,,,,,2015_Jun_25_1141,59.9408923314,LearningTask,1,67,
-200,q,200,,,,,,,,,,,,,,,,,0,0,0,0,14,2,58,1,,,,,,,,,,,,,,,,,,,,,,,,,,,,,q,1,0.301098108292,None,0,1.0,crosscyan.gif,go,,,,,,,,,,,,,,,,,,,,,,,,1.24,0.51432299614,0.000885963439941,0.301098108292,1,q,412.634588003,,,,,,,,,,,,,,,,,,,,,,,,,,,,,,,,,2015_Jun_25_1141,59.9408923314,LearningTask,1,67,
200,w,200,,,,,,,,,,,,,,,,,0,0,0,0,14,3,59,0,,,,,,,,,,,,,,,,,,,,,,,,,,,,,w,1,0.283699989319,None,0,2.0,invertedtrianglegray.gif,stop,,,,,,,,,,,,,,,,,,,,,,,,2.18,0.514344930649,0.000902891159058,0.283699989319,1,w,415.637940884,,,,,,,,,,,,,,,,,,,,,,,,,,,,,,,,,2015_Jun_25_1141,59.9408923314,LearningTask,1,67,
200,w,200,,,,,,,,,,,,,,,,,0,0,0,0,15,0,60,0,,,,,,,,,,,,,,,,,,,,,,,,,,,,,w,1,0.300784111023,None,0,1.0,crosscyan.gif,go,,,,,,,,,,,,,,,,,,,,,,,,0.96,0.514163970947,0.000901937484741,0.300784111023,1,w,418.641272068,,,,,,,,,,,,,,,,,,,,,,,,,,,,,,,,,2015_Jun_25_1141,59.9408923314,LearningTask,1,67,
-200,q,200,,,,,,,,,,,,,,,,,0,0,0,0,15,1,61,1,,,,,,,,,,,,,,,,,,,,,,,,,,,,,q,1,0.251061916351,None,0,4.0,squareblue.gif,stop,,,,,,,,,,,,,,,,,,,,,,,,4.13,0.514332056046,0.000879049301147,0.251061916351,1,q,421.644814014,,,,,,,,,,,,,,,,,,,,,,,,,,,,,,,,,2015_Jun_25_1141,59.9408923314,LearningTask,1,67,
200,w,200,,,,,,,,,,,,,,,,,0,0,0,0,15,2,62,0,,,,,,,,,,,,,,,,,,,,,,,,,,,,,w,1,0.26687002182,None,0,1.0,crosscyan.gif,go,,,,,,,,,,,,,,,,,,,,,,,,0,0.514199972153,0.000913143157959,0.26687002182,1,w,424.648125887,,,,,,,,,,,,,,,,,,,,,,,,,,,,,,,,,2015_Jun_25_1141,59.9408923314,LearningTask,1,67,
-200,a,-200,,,,,,,,,,,,,,,,,0,0,0,0,15,3,63,3,,,,,,,,,,,,,,,,,,,,,,,,,,,,,a,1,0.317559957504,None,0,1.0,crosscyan.gif,go,,,,,,,,,,,,,,,,,,,,,,,,1.25,0.514353990555,0.000891923904419,0.317559957504,1,a,427.651394844,,,,,,,,,,,,,,,,,,,,,,,,,,,,,,,,,2015_Jun_25_1141,59.9408923314,LearningTask,1,67,
-200,q,200,,,,,,,,,,,,,,,,,0,0,0,0,16,0,64,1,,,,,,,,,,,,,,,,,,,,,,,,,,,,,q,1,0.250277996063,None,0,1.0,linegreen.gif,stop,,,,,,,,,,,,,,,,,,,,,,,,1.14,0.514663934708,0.000979900360107,0.250277996063,1,q,430.654994965,,,,,,,,,,,,,,,,,,,,,,,,,,,,,,,,,2015_Jun_25_1141,59.9408923314,LearningTask,1,67,
-200,q,200,,,,,,,,,,,,,,,,,0,0,0,0,16,1,65,1,,,,,,,,,,,,,,,,,,,,,,,,,,,,,q,1,0.283972978592,None,0,0.5,hexagonmagenta.gif,stop,,,,,,,,,,,,,,,,,,,,,,,,0.54,0.513833999634,0.000880002975464,0.283972978592,1,q,433.658221006,,,,,,,,,,,,,,,,,,,,,,,,,,,,,,,,,2015_Jun_25_1141,59.9408923314,LearningTask,1,67,
-200,a,-200,,,,,,,,,,,,,,,,,0,0,0,0,16,2,66,3,,,,,,,,,,,,,,,,,,,,,,,,,,,,,a,1,0.284105062485,None,0,4.0,diamondyellow.gif,go,,,,,,,,,,,,,,,,,,,,,,,,4.19,0.514246940613,0.00090503692627,0.284105062485,1,a,436.661437988,,,,,,,,,,,,,,,,,,,,,,,,,,,,,,,,,2015_Jun_25_1141,59.9408923314,LearningTask,1,67,
-200,q,200,,,,,,,,,,,,,,,,,0,0,0,0,16,3,67,1,,,,,,,,,,,,,,,,,,,,,,,,,,,,,q,1,0.28394985199,None,0,2.0,invertedtrianglegray.gif,stop,,,,,,,,,,,,,,,,,,,,,,,,1.79,0.514504909515,0.00111603736877,0.28394985199,1,q,439.665005922,,,,,,,,,,,,,,,,,,,,,,,,,,,,,,,,,2015_Jun_25_1141,59.9408923314,LearningTask,1,67,
200,s,-200,,,,,,,,,,,,,,,,,0,0,0,0,17,0,68,2,,,,,,,,,,,,,,,,,,,,,,,,,,,,,s,1,0.284482002258,None,0,0.5,hexagonmagenta.gif,stop,,,,,,,,,,,,,,,,,,,,,,,,0,0.514199018478,0.000891923904419,0.284482002258,1,s,442.668232918,,,,,,,,,,,,,,,,,,,,,,,,,,,,,,,,,2015_Jun_25_1141,59.9408923314,LearningTask,1,67,
200,w,200,,,,,,,,,,,,,,,,,0,0,0,0,17,1,69,0,,,,,,,,,,,,,,,,,,,,,,,,,,,,,w,1,0.317648887634,None,0,0.5,hexagonmagenta.gif,stop,,,,,,,,,,,,,,,,,,,,,,,,0,0.51459813118,0.0010199546814,0.317648887634,1,w,445.671766996,,,,,,,,,,,,,,,,,,,,,,,,,,,,,,,,,2015_Jun_25_1141,59.9408923314,LearningTask,1,67,
200,w,200,,,,,,,,,,,,,,,,,0,0,0,0,17,2,70,0,,,,,,,,,,,,,,,,,,,,,,,,,,,,,w,1,0.267747879028,None,0,4.0,diamondyellow.gif,go,,,,,,,,,,,,,,,,,,,,,,,,3.81,0.514042139053,0.000913143157959,0.267747879028,1,w,448.675065994,,,,,,,,,,,,,,,,,,,,,,,,,,,,,,,,,2015_Jun_25_1141,59.9408923314,LearningTask,1,67,
-200,a,-200,,,,,,,,,,,,,,,,,0,0,0,0,17,3,71,3,,,,,,,,,,,,,,,,,,,,,,,,,,,,,a,1,0.267245054245,None,0,0.5,triangleorange.gif,go,,,,,,,,,,,,,,,,,,,,,,,,0.45,0.514048099518,0.000936031341553,0.267245054245,1,a,451.678389072,,,,,,,,,,,,,,,,,,,,,,,,,,,,,,,,,2015_Jun_25_1141,59.9408923314,LearningTask,1,67,
-200,a,-200,,,,,,,,,,,,,,,,,0,0,0,0,18,0,72,3,,,,,,,,,,,,,,,,,,,,,,,,,,,,,a,1,0.334141969681,None,0,2.0,circlewhite.gif,go,,,,,,,,,,,,,,,,,,,,,,,,2.24,0.51411986351,0.000938892364502,0.334141969681,1,a,454.681779861,,,,,,,,,,,,,,,,,,,,,,,,,,,,,,,,,2015_Jun_25_1141,59.9408923314,LearningTask,1,67,
200,w,200,,,,,,,,,,,,,,,,,0,0,0,0,18,1,73,0,,,,,,,,,,,,,,,,,,,,,,,,,,,,,w,1,0.300567150116,None,0,2.0,circlewhite.gif,go,,,,,,,,,,,,,,,,,,,,,,,,2.23,0.514449834824,0.00117301940918,0.300567150116,1,w,457.685189962,,,,,,,,,,,,,,,,,,,,,,,,,,,,,,,,,2015_Jun_25_1141,59.9408923314,LearningTask,1,67,
-200,q,200,,,,,,,,,,,,,,,,,0,0,0,0,18,2,74,1,,,,,,,,,,,,,,,,,,,,,,,,,,,,,q,1,0.267291069031,None,0,0.5,triangleorange.gif,go,,,,,,,,,,,,,,,,,,,,,,,,0.41,0.514441013336,0.000897169113159,0.267291069031,1,q,460.688631058,,,,,,,,,,,,,,,,,,,,,,,,,,,,,,,,,2015_Jun_25_1141,59.9408923314,LearningTask,1,67,
200,s,-200,,,,,,,,,,,,,,,,,0,0,0,0,18,3,75,2,,,,,,,,,,,,,,,,,,,,,,,,,,,,,s,1,0.267562150955,None,0,1.0,linegreen.gif,stop,,,,,,,,,,,,,,,,,,,,,,,,0.85,0.513993024826,0.000931978225708,0.267562150955,1,s,463.692026854,,,,,,,,,,,,,,,,,,,,,,,,,,,,,,,,,2015_Jun_25_1141,59.9408923314,LearningTask,1,67,
-200,q,200,,,,,,,,,,,,,,,,,0,0,0,0,19,0,76,1,,,,,,,,,,,,,,,,,,,,,,,,,,,,,q,1,0.250847816467,None,0,4.0,diamondyellow.gif,go,,,,,,,,,,,,,,,,,,,,,,,,4.06,0.514159917831,0.000960111618042,0.250847816467,1,q,466.695255995,,,,,,,,,,,,,,,,,,,,,,,,,,,,,,,,,2015_Jun_25_1141,59.9408923314,LearningTask,1,67,
200,w,200,,,,,,,,,,,,,,,,,0,0,0,0,19,1,77,0,,,,,,,,,,,,,,,,,,,,,,,,,,,,,w,1,0.300716161728,None,0,0.5,triangleorange.gif,go,,,,,,,,,,,,,,,,,,,,,,,,0,0.514358043671,0.000891208648682,0.300716161728,1,w,469.699048042,,,,,,,,,,,,,,,,,,,,,,,,,,,,,,,,,2015_Jun_25_1141,59.9408923314,LearningTask,1,67,
200,w,200,,,,,,,,,,,,,,,,,0,0,0,0,19,2,78,0,,,,,,,,,,,,,,,,,,,,,,,,,,,,,w,1,0.317293167114,None,0,0.5,hexagonmagenta.gif,stop,,,,,,,,,,,,,,,,,,,,,,,,0.55,0.513762950897,0.000906944274902,0.317293167114,1,w,472.702338934,,,,,,,,,,,,,,,,,,,,,,,,,,,,,,,,,2015_Jun_25_1141,59.9408923314,LearningTask,1,67,
200,s,-200,,,,,,,,,,,,,,,,,0,0,0,0,19,3,79,2,,,,,,,,,,,,,,,,,,,,,,,,,,,,,s,1,0.267555952072,None,0,2.0,invertedtrianglegray.gif,stop,,,,,,,,,,,,,,,,,,,,,,,,2.0,0.514109134674,0.00091814994812,0.267555952072,1,s,475.705451965,,,,,,,,,,,,,,,,,,,,,,,,,,,,,,,,,2015_Jun_25_1141,59.9408923314,LearningTask,1,67,
200,s,-200,,,,,,,,,,,,,,,,,0,0,0,0,20,0,80,2,,,,,,,,,,,,,,,,,,,,,,,,,,,,,s,1,0.334423065186,None,0,4.0,squareblue.gif,stop,,,,,,,,,,,,,,,,,,,,,,,,0,0.514348983765,0.00127506256104,0.317585945129,0,w,478.709289074,3.76,0.515002012253,0.000962018966675,0.334423065186,1,s,481.712064028,,,,,,,,,,,,,,,,,,,,,,,,,,2015_Jun_25_1141,59.9408923314,LearningTask,1,67,
200,s,-200,,,,,,,,,,,,,,,,,0,0,0,0,20,1,81,2,,,,,,,,,,,,,,,,,,,,,,,,,,,,,s,1,0.317497014999,None,0,2.0,circlewhite.gif,go,,,,,,,,,,,,,,,,,,,,,,,,2.01,0.514806032181,0.000916004180908,0.317497014999,1,s,484.715349913,,,,,,,,,,,,,,,,,,,,,,,,,,,,,,,,,2015_Jun_25_1141,59.9408923314,LearningTask,1,67,
-200,q,200,,,,,,,,,,,,,,,,,0,0,0,0,20,2,82,1,,,,,,,,,,,,,,,,,,,,,,,,,,,,,q,1,0.334434986115,None,0,1.0,linegreen.gif,stop,,,,,,,,,,,,,,,,,,,,,,,,0.96,0.514519929886,0.000946044921875,0.334434986115,1,q,487.71915102,,,,,,,,,,,,,,,,,,,,,,,,,,,,,,,,,2015_Jun_25_1141,59.9408923314,LearningTask,1,67,
-200,a,-200,,,,,,,,,,,,,,,,,0,0,0,0,20,3,83,3,,,,,,,,,,,,,,,,,,,,,,,,,,,,,a,1,0.333534955978,None,0,0.5,triangleorange.gif,go,,,,,,,,,,,,,,,,,,,,,,,,0.47,0.514505147934,0.00092601776123,0.333534955978,1,a,490.722248077,,,,,,,,,,,,,,,,,,,,,,,,,,,,,,,,,2015_Jun_25_1141,59.9408923314,LearningTask,1,67,
200,w,200,,,,,,,,,,,,,,,,,0,0,0,0,21,0,84,0,,,,,,,,,,,,,,,,,,,,,,,,,,,,,w,1,0.284228086472,None,0,2.0,invertedtrianglegray.gif,stop,,,,,,,,,,,,,,,,,,,,,,,,1.76,0.514196872711,0.00115990638733,0.284228086472,1,w,493.725668907,,,,,,,,,,,,,,,,,,,,,,,,,,,,,,,,,2015_Jun_25_1141,59.9408923314,LearningTask,1,67,
200,s,-200,,,,,,,,,,,,,,,,,0,0,0,0,21,1,85,2,,,,,,,,,,,,,,,,,,,,,,,,,,,,,s,1,0.28376698494,None,0,4.0,squareblue.gif,stop,,,,,,,,,,,,,,,,,,,,,,,,0,0.514671087265,0.000894069671631,0.28376698494,1,s,496.729054928,,,,,,,,,,,,,,,,,,,,,,,,,,,,,,,,,2015_Jun_25_1141,59.9408923314,LearningTask,1,67,
-200,a,-200,,,,,,,,,,,,,,,,,0,0,0,0,21,2,86,3,,,,,,,,,,,,,,,,,,,,,,,,,,,,,a,1,0.333765029907,None,0,2.0,circlewhite.gif,go,,,,,,,,,,,,,,,,,,,,,,,,1.77,0.514729976654,0.000936985015869,0.333765029907,1,a,499.732708931,,,,,,,,,,,,,,,,,,,,,,,,,,,,,,,,,2015_Jun_25_1141,59.9408923314,LearningTask,1,67,
-200,q,200,,,,,,,,,,,,,,,,,0,0,0,0,21,3,87,1,,,,,,,,,,,,,,,,,,,,,,,,,,,,,q,1,0.351199150085,None,0,2.0,invertedtrianglegray.gif,stop,,,,,,,,,,,,,,,,,,,,,,,,2.23,0.513489961624,0.000934839248657,0.351199150085,1,q,502.736021996,,,,,,,,,,,,,,,,,,,,,,,,,,,,,,,,,2015_Jun_25_1141,59.9408923314,LearningTask,1,67,
-200,a,-200,,,,,,,,,,,,,,,,,0,0,0,0,22,0,88,3,,,,,,,,,,,,,,,,,,,,,,,,,,,,,a,1,0.284077882767,None,0,0.5,triangleorange.gif,go,,,,,,,,,,,,,,,,,,,,,,,,0.59,0.514032125473,0.000900983810425,0.284077882767,1,a,505.739156961,,,,,,,,,,,,,,,,,,,,,,,,,,,,,,,,,2015_Jun_25_1141,59.9408923314,LearningTask,1,67,
200,w,200,,,,,,,,,,,,,,,,,0,0,0,0,22,1,89,0,,,,,,,,,,,,,,,,,,,,,,,,,,,,,w,1,0.334288835526,None,0,2.0,invertedtrianglegray.gif,stop,,,,,,,,,,,,,,,,,,,,,,,,1.99,0.514319896698,0.000893115997314,0.334288835526,1,w,508.742560863,,,,,,,,,,,,,,,,,,,,,,,,,,,,,,,,,2015_Jun_25_1141,59.9408923314,LearningTask,1,67,
-200,a,-200,,,,,,,,,,,,,,,,,0,0,0,0,22,2,90,3,,,,,,,,,,,,,,,,,,,,,,,,,,,,,a,1,0.300203800201,None,0,1.0,linegreen.gif,stop,,,,,,,,,,,,,,,,,,,,,,,,0.82,0.51437997818,0.00091814994812,0.300203800201,1,a,511.746129036,,,,,,,,,,,,,,,,,,,,,,,,,,,,,,,,,2015_Jun_25_1141,59.9408923314,LearningTask,1,67,
200,s,-200,,,,,,,,,,,,,,,,,0,0,0,0,22,3,91,2,,,,,,,,,,,,,,,,,,,,,,,,,,,,,s,1,0.284274101257,None,0,0.5,triangleorange.gif,go,,,,,,,,,,,,,,,,,,,,,,,,0,0.514080047607,0.000899076461792,0.284274101257,1,s,514.749424934,,,,,,,,,,,,,,,,,,,,,,,,,,,,,,,,,2015_Jun_25_1141,59.9408923314,LearningTask,1,67,
200,s,-200,,,,,,,,,,,,,,,,,0,0,0,0,23,0,92,2,,,,,,,,,,,,,,,,,,,,,,,,,,,,,s,1,0.351374864578,None,0,1.0,linegreen.gif,stop,,,,,,,,,,,,,,,,,,,,,,,,0.83,0.514042139053,0.000895977020264,0.351374864578,1,s,517.753120899,,,,,,,,,,,,,,,,,,,,,,,,,,,,,,,,,2015_Jun_25_1141,59.9408923314,LearningTask,1,67,
200,w,200,,,,,,,,,,,,,,,,,0,0,0,0,23,1,93,0,,,,,,,,,,,,,,,,,,,,,,,,,,,,,w,1,0.33437204361,None,0,0.5,hexagonmagenta.gif,stop,,,,,,,,,,,,,,,,,,,,,,,,0.75,0.513850927353,0.000905990600586,0.33437204361,1,w,520.756146908,,,,,,,,,,,,,,,,,,,,,,,,,,,,,,,,,2015_Jun_25_1141,59.9408923314,LearningTask,1,67,
200,s,-200,,,,,,,,,,,,,,,,,0,0,0,0,23,2,94,2,,,,,,,,,,,,,,,,,,,,,,,,,,,,,s,1,0.317447900772,None,0,1.0,linegreen.gif,stop,,,,,,,,,,,,,,,,,,,,,,,,1.0,0.514260053635,0.000908851623535,0.317447900772,1,s,523.759404898,,,,,,,,,,,,,,,,,,,,,,,,,,,,,,,,,2015_Jun_25_1141,59.9408923314,LearningTask,1,67,
200,s,-200,,,,,,,,,,,,,,,,,0,0,0,0,23,3,95,2,,,,,,,,,,,,,,,,,,,,,,,,,,,,,s,1,0.317914009094,None,0,2.0,invertedtrianglegray.gif,stop,,,,,,,,,,,,,,,,,,,,,,,,1.83,0.514367103577,0.00112414360046,0.317914009094,1,s,526.763059855,,,,,,,,,,,,,,,,,,,,,,,,,,,,,,,,,2015_Jun_25_1141,59.9408923314,LearningTask,1,67,
-200,q,200,,,,,,,,,,,,,,,,,0,0,0,0,24,0,96,1,,,,,,,,,,,,,,,,,,,,,,,,,,,,,q,1,0.334076881409,None,0,4.0,diamondyellow.gif,go,,,,,,,,,,,,,,,,,,,,,,,,4.21,0.514191150665,0.000895023345947,0.334076881409,1,q,529.766299963,,,,,,,,,,,,,,,,,,,,,,,,,,,,,,,,,2015_Jun_25_1141,59.9408923314,LearningTask,1,67,
-200,a,-200,,,,,,,,,,,,,,,,,0,0,0,0,24,1,97,3,,,,,,,,,,,,,,,,,,,,,,,,,,,,,a,1,0.300983905792,None,0,0.5,hexagonmagenta.gif,stop,,,,,,,,,,,,,,,,,,,,,,,,0,0.514115095139,0.00120210647583,0.300983905792,1,a,532.769677877,,,,,,,,,,,,,,,,,,,,,,,,,,,,,,,,,2015_Jun_25_1141,59.9408923314,LearningTask,1,67,
-200,q,200,,,,,,,,,,,,,,,,,0,0,0,0,24,2,98,1,,,,,,,,,,,,,,,,,,,,,,,,,,,,,q,1,0.317620038986,None,0,2.0,circlewhite.gif,go,,,,,,,,,,,,,,,,,,,,,,,,2.18,0.514001131058,0.00095009803772,0.317620038986,1,q,535.772963047,,,,,,,,,,,,,,,,,,,,,,,,,,,,,,,,,2015_Jun_25_1141,59.9408923314,LearningTask,1,67,
-200,a,-200,,,,,,,,,,,,,,,,,0,0,0,0,24,3,99,3,,,,,,,,,,,,,,,,,,,,,,,,,,,,,a,1,0.333914041519,None,0,1.0,crosscyan.gif,go,,,,,,,,,,,,,,,,,,,,,,,,1.03,0.514386892319,0.000897884368896,0.333914041519,1,a,538.776329994,,,,,,,,,,,,,,,,,,,,,,,,,,,,,,,,,2015_Jun_25_1141,59.9408923314,LearningTask,1,67,
,,,,,,,,,,,,,,,,,,,0,0,0,0,,,,,,,,,,,,,,,,,,,,,,,,,,,,,,,,,,,,,,,,,,,,,,,,,,,,,,,,,,,,,,,,,,,,,,,,,,,,,,9,9.66579604149,,,,,,,,,,,,,,,,,,,,,,,,2015_Jun_25_1141,59.9408923314,LearningTask,1,67,
-200,q,200,,,,,,,,,,,,,,,,,1,0,1,0,0,0,0,1,,,,,,,,,,,,,,,,,,,,,,,,,,,,,q,1,0.651246070862,None,0,4.0,diamondyellow.gif,go,,,,,,,,,,,,,,,,,,,,,,,,4.25,0.509870052338,0.000888109207153,0.651246070862,1,q,551.891592979,,,,,,,,,,,,,,,,,,,,,,,,,,,,,,,,,2015_Jun_25_1141,59.9408923314,LearningTask,1,67,
-200,q,200,,,,,,,,,,,,,,,,,1,0,1,0,0,1,1,1,,,,,,,,,,,,,,,,,,,,,,,,,,,,,q,1,0.334484100342,None,0,2.0,circlewhite.gif,go,,,,,,,,,,,,,,,,,,,,,,,,2.19,0.513481140137,0.000908136367798,0.334484100342,1,q,554.89478898,,,,,,,,,,,,,,,,,,,,,,,,,,,,,,,,,2015_Jun_25_1141,59.9408923314,LearningTask,1,67,
-200,q,200,,,,,,,,,,,,,,,,,1,0,1,0,0,2,2,1,,,,,,,,,,,,,,,,,,,,,,,,,,,,,q,1,0.317176818848,None,0,1.0,crosscyan.gif,go,,,,,,,,,,,,,,,,,,,,,,,,0.79,0.514316797256,0.00089693069458,0.317176818848,1,q,557.897889853,,,,,,,,,,,,,,,,,,,,,,,,,,,,,,,,,2015_Jun_25_1141,59.9408923314,LearningTask,1,67,
200,s,-200,,,,,,,,,,,,,,,,,1,0,1,0,0,3,3,2,,,,,,,,,,,,,,,,,,,,,,,,,,,,,s,1,0.284187078476,None,0,0.5,hexagonmagenta.gif,stop,,,,,,,,,,,,,,,,,,,,,,,,0.36,0.514126062393,0.000891923904419,0.284187078476,1,s,560.90130496,,,,,,,,,,,,,,,,,,,,,,,,,,,,,,,,,2015_Jun_25_1141,59.9408923314,LearningTask,1,67,
200,w,200,,,,,,,,,,,,,,,,,1,0,1,0,1,0,4,0,,,,,,,,,,,,,,,,,,,,,,,,,,,,,w,1,0.317683935165,None,0,2.0,circlewhite.gif,go,,,,,,,,,,,,,,,,,,,,,,,,1.87,0.513938188553,0.000917196273804,0.317683935165,1,w,563.90457201,,,,,,,,,,,,,,,,,,,,,,,,,,,,,,,,,2015_Jun_25_1141,59.9408923314,LearningTask,1,67,
200,w,200,,,,,,,,,,,,,,,,,1,0,1,0,1,1,5,0,,,,,,,,,,,,,,,,,,,,,,,,,,,,,w,1,0.351269960403,None,0,4.0,squareblue.gif,stop,,,,,,,,,,,,,,,,,,,,,,,,3.81,0.514413118362,0.000885963439941,0.351269960403,1,w,566.908021927,,,,,,,,,,,,,,,,,,,,,,,,,,,,,,,,,2015_Jun_25_1141,59.9408923314,LearningTask,1,67,
200,s,-200,,,,,,,,,,,,,,,,,1,0,1,0,1,2,6,2,,,,,,,,,,,,,,,,,,,,,,,,,,,,,s,1,0.30087518692,None,0,2.0,circlewhite.gif,go,,,,,,,,,,,,,,,,,,,,,,,,1.86,0.514139890671,0.000959873199463,0.30087518692,1,s,569.911720991,,,,,,,,,,,,,,,,,,,,,,,,,,,,,,,,,2015_Jun_25_1141,59.9408923314,LearningTask,1,67,
200,w,200,,,,,,,,,,,,,,,,,1,0,1,0,1,3,7,0,,,,,,,,,,,,,,,,,,,,,,,,,,,,,w,1,0.33406496048,None,0,0.5,triangleorange.gif,go,,,,,,,,,,,,,,,,,,,,,,,,0,0.513921022415,0.00090479850769,0.33406496048,1,w,572.914946079,,,,,,,,,,,,,,,,,,,,,,,,,,,,,,,,,2015_Jun_25_1141,59.9408923314,LearningTask,1,67,
200,s,-200,,,,,,,,,,,,,,,,,1,0,1,0,2,0,8,2,,,,,,,,,,,,,,,,,,,,,,,,,,,,,s,1,0.317687034607,None,0,1.0,crosscyan.gif,go,,,,,,,,,,,,,,,,,,,,,,,,1.01,0.514147043228,0.00089693069458,0.317687034607,1,s,575.918144941,,,,,,,,,,,,,,,,,,,,,,,,,,,,,,,,,2015_Jun_25_1141,59.9408923314,LearningTask,1,67,
200,s,-200,,,,,,,,,,,,,,,,,1,0,1,0,2,1,9,2,,,,,,,,,,,,,,,,,,,,,,,,,,,,,s,1,0.317327022552,None,0,0.5,hexagonmagenta.gif,stop,,,,,,,,,,,,,,,,,,,,,,,,0.68,0.514293909073,0.000972032546997,0.317327022552,1,s,578.921529055,,,,,,,,,,,,,,,,,,,,,,,,,,,,,,,,,2015_Jun_25_1141,59.9408923314,LearningTask,1,67,
-200,a,-200,,,,,,,,,,,,,,,,,1,0,1,0,2,2,10,3,,,,,,,,,,,,,,,,,,,,,,,,,,,,,a,1,0.301342010498,None,0,4.0,squareblue.gif,stop,,,,,,,,,,,,,,,,,,,,,,,,3.95,0.513911008835,0.00091290473938,0.301342010498,1,a,581.92480588,,,,,,,,,,,,,,,,,,,,,,,,,,,,,,,,,2015_Jun_25_1141,59.9408923314,LearningTask,1,67,
-200,a,-200,,,,,,,,,,,,,,,,,1,0,1,0,2,3,11,3,,,,,,,,,,,,,,,,,,,,,,,,,,,,,a,1,0.334285020828,None,0,1.0,crosscyan.gif,go,,,,,,,,,,,,,,,,,,,,,,,,1.07,0.514220952988,0.000900983810425,0.334285020828,1,a,584.928132057,,,,,,,,,,,,,,,,,,,,,,,,,,,,,,,,,2015_Jun_25_1141,59.9408923314,LearningTask,1,67,
-200,q,200,,,,,,,,,,,,,,,,,1,0,1,0,3,0,12,1,,,,,,,,,,,,,,,,,,,,,,,,,,,,,q,1,0.284025192261,None,0,0.5,hexagonmagenta.gif,stop,,,,,,,,,,,,,,,,,,,,,,,,0.34,0.514497041702,0.000903129577637,0.284025192261,1,q,587.93159008,,,,,,,,,,,,,,,,,,,,,,,,,,,,,,,,,2015_Jun_25_1141,59.9408923314,LearningTask,1,67,
-200,q,200,,,,,,,,,,,,,,,,,1,0,1,0,3,1,13,1,,,,,,,,,,,,,,,,,,,,,,,,,,,,,q,1,0.334007978439,None,0,4.0,squareblue.gif,stop,,,,,,,,,,,,,,,,,,,,,,,,3.91,0.514488935471,0.000885963439941,0.334007978439,1,q,590.935009956,,,,,,,,,,,,,,,,,,,,,,,,,,,,,,,,,2015_Jun_25_1141,59.9408923314,LearningTask,1,67,
200,w,200,,,,,,,,,,,,,,,,,1,0,1,0,3,2,14,0,,,,,,,,,,,,,,,,,,,,,,,,,,,,,w,1,0.334491968155,None,0,4.0,squareblue.gif,stop,,,,,,,,,,,,,,,,,,,,,,,,3.78,0.514302968979,0.000946044921875,0.334491968155,1,w,593.938459873,,,,,,,,,,,,,,,,,,,,,,,,,,,,,,,,,2015_Jun_25_1141,59.9408923314,LearningTask,1,67,
-200,a,-200,,,,,,,,,,,,,,,,,1,0,1,0,3,3,15,3,,,,,,,,,,,,,,,,,,,,,,,,,,,,,a,1,0.33416891098,None,0,2.0,circlewhite.gif,go,,,,,,,,,,,,,,,,,,,,,,,,1.9,0.514292001724,0.000899076461792,0.33416891098,1,a,596.94196701,,,,,,,,,,,,,,,,,,,,,,,,,,,,,,,,,2015_Jun_25_1141,59.9408923314,LearningTask,1,67,
-200,a,-200,,,,,,,,,,,,,,,,,1,0,1,0,4,0,16,3,,,,,,,,,,,,,,,,,,,,,,,,,,,,,a,1,0.351082086563,None,0,1.0,crosscyan.gif,go,,,,,,,,,,,,,,,,,,,,,,,,0.89,0.514162063599,0.000894069671631,0.351082086563,1,a,599.945034981,,,,,,,,,,,,,,,,,,,,,,,,,,,,,,,,,2015_Jun_25_1141,59.9408923314,LearningTask,1,67,
-200,a,-200,,,,,,,,,,,,,,,,,1,0,1,0,4,1,17,3,,,,,,,,,,,,,,,,,,,,,,,,,,,,,a,1,0.350980997086,None,0,0.5,triangleorange.gif,go,,,,,,,,,,,,,,,,,,,,,,,,0.72,0.514149904251,0.000935077667236,0.350980997086,1,a,602.948518038,,,,,,,,,,,,,,,,,,,,,,,,,,,,,,,,,2015_Jun_25_1141,59.9408923314,LearningTask,1,67,
-200,a,-200,,,,,,,,,,,,,,,,,1,0,1,0,4,2,18,3,,,,,,,,,,,,,,,,,,,,,,,,,,,,,a,1,0.350948810577,None,0,1.0,crosscyan.gif,go,,,,,,,,,,,,,,,,,,,,,,,,0,0.514266967773,0.00087308883667,0.350948810577,1,a,605.951919079,,,,,,,,,,,,,,,,,,,,,,,,,,,,,,,,,2015_Jun_25_1141,59.9408923314,LearningTask,1,67,
-200,a,-200,,,,,,,,,,,,,,,,,1,0,1,0,4,3,19,3,,,,,,,,,,,,,,,,,,,,,,,,,,,,,a,1,0.350705862045,None,0,4.0,diamondyellow.gif,go,,,,,,,,,,,,,,,,,,,,,,,,4.1,0.51446890831,0.00113606452942,0.350705862045,1,a,608.955546856,,,,,,,,,,,,,,,,,,,,,,,,,,,,,,,,,2015_Jun_25_1141,59.9408923314,LearningTask,1,67,
200,w,200,,,,,,,,,,,,,,,,,1,0,1,0,5,0,20,0,,,,,,,,,,,,,,,,,,,,,,,,,,,,,w,1,0.317495107651,None,0,1.0,crosscyan.gif,go,,,,,,,,,,,,,,,,,,,,,,,,0.99,0.513970136642,0.00088095664978,0.317495107651,1,w,611.95864296,,,,,,,,,,,,,,,,,,,,,,,,,,,,,,,,,2015_Jun_25_1141,59.9408923314,LearningTask,1,67,
200,s,-200,,,,,,,,,,,,,,,,,1,0,1,0,5,1,21,2,,,,,,,,,,,,,,,,,,,,,,,,,,,,,s,1,0.31791806221,None,0,1.0,linegreen.gif,stop,,,,,,,,,,,,,,,,,,,,,,,,1.11,0.514346837997,0.000874042510986,0.31791806221,1,s,614.962276936,,,,,,,,,,,,,,,,,,,,,,,,,,,,,,,,,2015_Jun_25_1141,59.9408923314,LearningTask,1,67,
200,w,200,,,,,,,,,,,,,,,,,1,0,1,0,5,2,22,0,,,,,,,,,,,,,,,,,,,,,,,,,,,,,w,1,0.317661046982,None,0,1.0,crosscyan.gif,go,,,,,,,,,,,,,,,,,,,,,,,,0.85,0.514023065567,0.000914096832275,0.317661046982,1,w,617.966042995,,,,,,,,,,,,,,,,,,,,,,,,,,,,,,,,,2015_Jun_25_1141,59.9408923314,LearningTask,1,67,
200,s,-200,,,,,,,,,,,,,,,,,1,0,1,0,5,3,23,2,,,,,,,,,,,,,,,,,,,,,,,,,,,,,s,1,0.317556142807,None,0,2.0,invertedtrianglegray.gif,stop,,,,,,,,,,,,,,,,,,,,,,,,2.01,0.51354598999,0.000895977020264,0.317556142807,1,s,620.96884799,,,,,,,,,,,,,,,,,,,,,,,,,,,,,,,,,2015_Jun_25_1141,59.9408923314,LearningTask,1,67,
-200,a,-200,,,,,,,,,,,,,,,,,1,0,1,0,6,0,24,3,,,,,,,,,,,,,,,,,,,,,,,,,,,,,a,1,0.334112882614,None,0,4.0,squareblue.gif,stop,,,,,,,,,,,,,,,,,,,,,,,,3.93,0.514381170273,0.000981092453003,0.334112882614,1,a,623.972115993,,,,,,,,,,,,,,,,,,,,,,,,,,,,,,,,,2015_Jun_25_1141,59.9408923314,LearningTask,1,67,
-200,a,-200,,,,,,,,,,,,,,,,,1,0,1,0,6,1,25,3,,,,,,,,,,,,,,,,,,,,,,,,,,,,,a,1,0.334102869034,None,0,0.5,triangleorange.gif,go,,,,,,,,,,,,,,,,,,,,,,,,0.27,0.514415979385,0.000874042510986,0.334102869034,1,a,626.975673914,,,,,,,,,,,,,,,,,,,,,,,,,,,,,,,,,2015_Jun_25_1141,59.9408923314,LearningTask,1,67,
200,s,-200,,,,,,,,,,,,,,,,,1,0,1,0,6,2,26,2,,,,,,,,,,,,,,,,,,,,,,,,,,,,,s,1,0.30060505867,None,0,4.0,diamondyellow.gif,go,,,,,,,,,,,,,,,,,,,,,,,,3.88,0.514334201813,0.000880002975464,0.30060505867,1,s,629.978715897,,,,,,,,,,,,,,,,,,,,,,,,,,,,,,,,,2015_Jun_25_1141,59.9408923314,LearningTask,1,67,
-200,q,200,,,,,,,,,,,,,,,,,1,0,1,0,6,3,27,1,,,,,,,,,,,,,,,,,,,,,,,,,,,,,q,1,0.350798130035,None,0,2.0,invertedtrianglegray.gif,stop,,,,,,,,,,,,,,,,,,,,,,,,2.04,0.514531135559,0.000939130783081,0.350798130035,1,q,632.982681036,,,,,,,,,,,,,,,,,,,,,,,,,,,,,,,,,2015_Jun_25_1141,59.9408923314,LearningTask,1,67,
200,w,200,,,,,,,,,,,,,,,,,1,0,1,0,7,0,28,0,,,,,,,,,,,,,,,,,,,,,,,,,,,,,w,1,0.334134101868,None,0,0.5,hexagonmagenta.gif,stop,,,,,,,,,,,,,,,,,,,,,,,,0.59,0.514013051987,0.000885963439941,0.334134101868,1,w,635.985635042,,,,,,,,,,,,,,,,,,,,,,,,,,,,,,,,,2015_Jun_25_1141,59.9408923314,LearningTask,1,67,
200,s,-200,,,,,,,,,,,,,,,,,1,0,1,0,7,1,29,2,,,,,,,,,,,,,,,,,,,,,,,,,,,,,s,1,0.317134857178,None,0,0.5,hexagonmagenta.gif,stop,,,,,,,,,,,,,,,,,,,,,,,,0.61,0.514563083649,0.000882863998413,0.317134857178,1,s,638.98912096,,,,,,,,,,,,,,,,,,,,,,,,,,,,,,,,,2015_Jun_25_1141,59.9408923314,LearningTask,1,67,
-200,q,200,,,,,,,,,,,,,,,,,1,0,1,0,7,2,30,1,,,,,,,,,,,,,,,,,,,,,,,,,,,,,q,1,0.300742864609,None,0,1.0,linegreen.gif,stop,,,,,,,,,,,,,,,,,,,,,,,,0.86,0.514191150665,0.00091814994812,0.300742864609,1,q,641.99274087,,,,,,,,,,,,,,,,,,,,,,,,,,,,,,,,,2015_Jun_25_1141,59.9408923314,LearningTask,1,67,
-200,a,-200,,,,,,,,,,,,,,,,,1,0,1,0,7,3,31,3,,,,,,,,,,,,,,,,,,,,,,,,,,,,,a,1,0.267614126205,None,0,4.0,diamondyellow.gif,go,,,,,,,,,,,,,,,,,,,,,,,,4.07,0.513922929764,0.000900983810425,0.267614126205,1,a,644.995835066,,,,,,,,,,,,,,,,,,,,,,,,,,,,,,,,,2015_Jun_25_1141,59.9408923314,LearningTask,1,67,
-200,a,-200,,,,,,,,,,,,,,,,,1,0,1,0,8,0,32,3,,,,,,,,,,,,,,,,,,,,,,,,,,,,,a,1,0.300565004349,None,0,4.0,squareblue.gif,stop,,,,,,,,,,,,,,,,,,,,,,,,4.0,0.514611005783,0.00112104415894,0.300565004349,1,a,647.999219894,,,,,,,,,,,,,,,,,,,,,,,,,,,,,,,,,2015_Jun_25_1141,59.9408923314,LearningTask,1,67,
200,s,-200,,,,,,,,,,,,,,,,,1,0,1,0,8,1,33,2,,,,,,,,,,,,,,,,,,,,,,,,,,,,,s,1,0.300476074219,None,0,2.0,invertedtrianglegray.gif,stop,,,,,,,,,,,,,,,,,,,,,,,,2.21,0.514404058456,0.000909090042114,0.300476074219,1,s,651.002542973,,,,,,,,,,,,,,,,,,,,,,,,,,,,,,,,,2015_Jun_25_1141,59.9408923314,LearningTask,1,67,
200,w,200,,,,,,,,,,,,,,,,,1,0,1,0,8,2,34,0,,,,,,,,,,,,,,,,,,,,,,,,,,,,,w,1,0.317551136017,None,0,4.0,diamondyellow.gif,go,,,,,,,,,,,,,,,,,,,,,,,,0,0.514223814011,0.000875949859619,0.317551136017,1,w,654.005910873,,,,,,,,,,,,,,,,,,,,,,,,,,,,,,,,,2015_Jun_25_1141,59.9408923314,LearningTask,1,67,
200,s,-200,,,,,,,,,,,,,,,,,1,0,1,0,8,3,35,2,,,,,,,,,,,,,,,,,,,,,,,,,,,,,s,1,0.317805051804,None,0,1.0,crosscyan.gif,go,,,,,,,,,,,,,,,,,,,,,,,,1.07,0.514427900314,0.000874996185303,0.317805051804,1,s,657.009639025,,,,,,,,,,,,,,,,,,,,,,,,,,,,,,,,,2015_Jun_25_1141,59.9408923314,LearningTask,1,67,
-200,a,-200,,,,,,,,,,,,,,,,,1,0,1,0,9,0,36,3,,,,,,,,,,,,,,,,,,,,,,,,,,,,,a,1,0.334042072296,None,0,2.0,invertedtrianglegray.gif,stop,,,,,,,,,,,,,,,,,,,,,,,,1.88,0.51397395134,0.000890970230103,0.334042072296,1,a,660.012667894,,,,,,,,,,,,,,,,,,,,,,,,,,,,,,,,,2015_Jun_25_1141,59.9408923314,LearningTask,1,67,
200,w,200,,,,,,,,,,,,,,,,,1,0,1,0,9,1,37,0,,,,,,,,,,,,,,,,,,,,,,,,,,,,,w,1,0.334666967392,q,0,4.0,diamondyellow.gif,go,,,,,,,,,,,,,,,,,,,,,,,,4.11,0.514342069626,0.000898122787476,0.334666967392,1,w,663.016049862,,,,,,,,,,0.258308172226,,,,,,,,,,,,,,,,,,,,,,,2015_Jun_25_1141,59.9408923314,LearningTask,1,67,
-200,q,200,,,,,,,,,,,,,,,,,1,0,1,0,9,2,38,1,,,,,,,,,,,,,,,,,,,,,,,,,,,,,q,1,0.300556182861,None,0,0.5,hexagonmagenta.gif,stop,,,,,,,,,,,,,,,,,,,,,,,,0.25,0.51444196701,0.000888109207153,0.300556182861,1,q,666.019886017,,,,,,,,,,,,,,,,,,,,,,,,,,,,,,,,,2015_Jun_25_1141,59.9408923314,LearningTask,1,67,
-200,a,-200,,,,,,,,,,,,,,,,,1,0,1,0,9,3,39,3,,,,,,,,,,,,,,,,,,,,,,,,,,,,,a,1,0.284254074097,None,0,1.0,crosscyan.gif,go,,,,,,,,,,,,,,,,,,,,,,,,1.06,0.513842105865,0.000881195068359,0.284254074097,1,a,669.022842884,,,,,,,,,,,,,,,,,,,,,,,,,,,,,,,,,2015_Jun_25_1141,59.9408923314,LearningTask,1,67,
-200,q,200,,,,,,,,,,,,,,,,,1,0,1,0,10,0,40,1,,,,,,,,,,,,,,,,,,,,,,,,,,,,,q,1,0.317183971405,None,0,1.0,linegreen.gif,stop,,,,,,,,,,,,,,,,,,,,,,,,1.12,0.514595031738,0.000869989395142,0.317183971405,1,q,672.02609086,,,,,,,,,,,,,,,,,,,,,,,,,,,,,,,,,2015_Jun_25_1141,59.9408923314,LearningTask,1,67,
-200,a,-200,,,,,,,,,,,,,,,,,1,0,1,0,10,1,41,3,,,,,,,,,,,,,,,,,,,,,,,,,,,,,a,1,0.300788879395,None,0,4.0,diamondyellow.gif,go,,,,,,,,,,,,,,,,,,,,,,,,4.12,0.514499902725,0.000874042510986,0.300788879395,1,a,675.029655933,,,,,,,,,,,,,,,,,,,,,,,,,,,,,,,,,2015_Jun_25_1141,59.9408923314,LearningTask,1,67,
-200,q,200,,,,,,,,,,,,,,,,,1,0,1,0,10,2,42,1,,,,,,,,,,,,,,,,,,,,,,,,,,,,,q,1,0.250988960266,None,0,0.5,triangleorange.gif,go,,,,,,,,,,,,,,,,,,,,,,,,0,0.514246940613,0.000865936279297,0.250988960266,1,q,678.033036947,,,,,,,,,,,,,,,,,,,,,,,,,,,,,,,,,2015_Jun_25_1141,59.9408923314,LearningTask,1,67,
200,w,200,,,,,,,,,,,,,,,,,1,0,1,0,10,3,43,0,,,,,,,,,,,,,,,,,,,,,,,,,,,,,w,1,0.284383058548,None,0,0.5,hexagonmagenta.gif,stop,,,,,,,,,,,,,,,,,,,,,,,,0,0.513967037201,0.00100994110107,0.284383058548,1,w,681.036463976,,,,,,,,,,,,,,,,,,,,,,,,,,,,,,,,,2015_Jun_25_1141,59.9408923314,LearningTask,1,67,
-200,q,200,,,,,,,,,,,,,,,,,1,0,1,0,11,0,44,1,,,,,,,,,,,,,,,,,,,,,,,,,,,,,q,1,0.317806959152,None,0,0.5,hexagonmagenta.gif,stop,,,,,,,,,,,,,,,,,,,,,,,,0.51,0.51425909996,0.000951051712036,0.317806959152,1,q,684.03975296,,,,,,,,,,,,,,,,,,,,,,,,,,,,,,,,,2015_Jun_25_1141,59.9408923314,LearningTask,1,67,
-200,q,200,,,,,,,,,,,,,,,,,1,0,1,0,11,1,45,1,,,,,,,,,,,,,,,,,,,,,,,,,,,,,q,1,0.300416946411,None,0,2.0,circlewhite.gif,go,,,,,,,,,,,,,,,,,,,,,,,,2.06,0.514283895493,0.000885009765625,0.300416946411,1,q,687.043146849,,,,,,,,,,,,,,,,,,,,,,,,,,,,,,,,,2015_Jun_25_1141,59.9408923314,LearningTask,1,67,
200,s,-200,,,,,,,,,,,,,,,,,1,0,1,0,11,2,46,2,,,,,,,,,,,,,,,,,,,,,,,,,,,,,s,1,0.317444086075,None,0,2.0,circlewhite.gif,go,,,,,,,,,,,,,,,,,,,,,,,,1.94,0.514031887054,0.000907897949219,0.317444086075,1,s,690.046509981,,,,,,,,,,,,,,,,,,,,,,,,,,,,,,,,,2015_Jun_25_1141,59.9408923314,LearningTask,1,67,
-200,a,-200,,,,,,,,,,,,,,,,,1,0,1,0,11,3,47,3,,,,,,,,,,,,,,,,,,,,,,,,,,,,,a,1,0.300549983978,None,0,1.0,crosscyan.gif,go,,,,,,,,,,,,,,,,,,,,,,,,1.15,0.514454841614,0.000890970230103,0.300549983978,1,a,693.04990387,,,,,,,,,,,,,,,,,,,,,,,,,,,,,,,,,2015_Jun_25_1141,59.9408923314,LearningTask,1,67,
200,s,-200,,,,,,,,,,,,,,,,,1,0,1,0,12,0,48,2,,,,,,,,,,,,,,,,,,,,,,,,,,,,,s,1,0.334319114685,None,0,1.0,linegreen.gif,stop,,,,,,,,,,,,,,,,,,,,,,,,0.78,0.514312028885,0.000874996185303,0.334319114685,1,s,696.053431988,,,,,,,,,,,,,,,,,,,,,,,,,,,,,,,,,2015_Jun_25_1141,59.9408923314,LearningTask,1,67,
-200,q,200,,,,,,,,,,,,,,,,,1,0,1,0,12,1,49,1,,,,,,,,,,,,,,,,,,,,,,,,,,,,,q,1,0.267510175705,None,0,0.5,hexagonmagenta.gif,stop,,,,,,,,,,,,,,,,,,,,,,,,0,0.513908863068,0.000882863998413,0.267510175705,1,q,699.056843042,,,,,,,,,,,,,,,,,,,,,,,,,,,,,,,,,2015_Jun_25_1141,59.9408923314,LearningTask,1,67,
200,w,200,,,,,,,,,,,,,,,,,1,0,1,0,12,2,50,0,,,,,,,,,,,,,,,,,,,,,,,,,,,,,w,1,0.300945997238,None,0,0.5,hexagonmagenta.gif,stop,,,,,,,,,,,,,,,,,,,,,,,,0.72,0.514183998108,0.000943899154663,0.300945997238,1,w,702.06004405,,,,,,,,,,,,,,,,,,,,,,,,,,,,,,,,,2015_Jun_25_1141,59.9408923314,LearningTask,1,67,
-200,q,200,,,,,,,,,,,,,,,,,1,0,1,0,12,3,51,1,,,,,,,,,,,,,,,,,,,,,,,,,,,,,q,1,0.367722988129,None,0,1.0,linegreen.gif,stop,,,,,,,,,,,,,,,,,,,,,,,,0,0.514514923096,0.000874996185303,0.367722988129,1,q,705.063935995,,,,,,,,,,,,,,,,,,,,,,,,,,,,,,,,,2015_Jun_25_1141,59.9408923314,LearningTask,1,67,
200,w,200,,,,,,,,,,,,,,,,,1,0,1,0,13,0,52,0,,,,,,,,,,,,,,,,,,,,,,,,,,,,,w,1,0.300341129303,None,0,0.5,triangleorange.gif,go,,,,,,,,,,,,,,,,,,,,,,,,0.37,0.513720989227,0.000898122787476,0.300341129303,1,w,708.066796064,,,,,,,,,,,,,,,,,,,,,,,,,,,,,,,,,2015_Jun_25_1141,59.9408923314,LearningTask,1,67,
-200,a,-200,,,,,,,,,,,,,,,,,1,0,1,0,13,1,53,3,,,,,,,,,,,,,,,,,,,,,,,,,,,,,a,1,0.300507068634,None,0,2.0,circlewhite.gif,go,,,,,,,,,,,,,,,,,,,,,,,,1.75,0.514479160309,0.000899076461792,0.300507068634,1,a,711.070327044,,,,,,,,,,,,,,,,,,,,,,,,,,,,,,,,,2015_Jun_25_1141,59.9408923314,LearningTask,1,67,
200,w,200,,,,,,,,,,,,,,,,,1,0,1,0,13,2,54,0,,,,,,,,,,,,,,,,,,,,,,,,,,,,,w,1,0.300976037979,None,0,2.0,invertedtrianglegray.gif,stop,,,,,,,,,,,,,,,,,,,,,,,,2.2,0.514125108719,0.000937938690186,0.300976037979,1,w,714.073718071,,,,,,,,,,,,,,,,,,,,,,,,,,,,,,,,,2015_Jun_25_1141,59.9408923314,LearningTask,1,67,
-200,a,-200,,,,,,,,,,,,,,,,,1,0,1,0,13,3,55,3,,,,,,,,,,,,,,,,,,,,,,,,,,,,,a,1,0.316868066788,None,0,4.0,squareblue.gif,stop,,,,,,,,,,,,,,,,,,,,,,,,4.08,0.514246940613,0.000886917114258,0.316868066788,1,a,717.076915026,,,,,,,,,,,,,,,,,,,,,,,,,,,,,,,,,2015_Jun_25_1141,59.9408923314,LearningTask,1,67,
-200,q,200,,,,,,,,,,,,,,,,,1,0,1,0,14,0,56,1,,,,,,,,,,,,,,,,,,,,,,,,,,,,,q,1,0.267426967621,None,0,4.0,diamondyellow.gif,go,,,,,,,,,,,,,,,,,,,,,,,,3.93,0.514292001724,0.00100088119507,0.267426967621,1,q,720.080543041,,,,,,,,,,,,,,,,,,,,,,,,,,,,,,,,,2015_Jun_25_1141,59.9408923314,LearningTask,1,67,
-200,q,200,,,,,,,,,,,,,,,,,1,0,1,0,14,1,57,1,,,,,,,,,,,,,,,,,,,,,,,,,,,,,q,1,0.283625125885,None,0,1.0,crosscyan.gif,go,,,,,,,,,,,,,,,,,,,,,,,,0.76,0.513994932175,0.00096607208252,0.283625125885,1,q,723.083680868,,,,,,,,,,,,,,,,,,,,,,,,,,,,,,,,,2015_Jun_25_1141,59.9408923314,LearningTask,1,67,
200,s,-200,,,,,,,,,,,,,,,,,1,0,1,0,14,2,58,2,,,,,,,,,,,,,,,,,,,,,,,,,,,,,s,1,0.317500114441,None,0,4.0,diamondyellow.gif,go,,,,,,,,,,,,,,,,,,,,,,,,4.15,0.514353990555,0.000876903533936,0.317500114441,1,s,726.087005854,,,,,,,,,,,,,,,,,,,,,,,,,,,,,,,,,2015_Jun_25_1141,59.9408923314,LearningTask,1,67,
-200,q,200,,,,,,,,,,,,,,,,,1,0,1,0,14,3,59,1,,,,,,,,,,,,,,,,,,,,,,,,,,,,,q,1,0.317486047745,None,0,1.0,crosscyan.gif,go,,,,,,,,,,,,,,,,,,,,,,,,1.12,0.514208078384,0.000921964645386,0.317486047745,1,q,729.090376854,,,,,,,,,,,,,,,,,,,,,,,,,,,,,,,,,2015_Jun_25_1141,59.9408923314,LearningTask,1,67,
200,s,-200,,,,,,,,,,,,,,,,,1,0,1,0,15,0,60,2,,,,,,,,,,,,,,,,,,,,,,,,,,,,,s,1,0.317422866821,None,0,0.5,hexagonmagenta.gif,stop,,,,,,,,,,,,,,,,,,,,,,,,0,0.514563083649,0.000883102416992,0.317422866821,1,s,732.093822956,,,,,,,,,,,,,,,,,,,,,,,,,,,,,,,,,2015_Jun_25_1141,59.9408923314,LearningTask,1,67,
-200,q,200,,,,,,,,,,,,,,,,,1,0,1,0,15,1,61,1,,,,,,,,,,,,,,,,,,,,,,,,,,,,,q,1,0.284521102905,None,0,1.0,linegreen.gif,stop,,,,,,,,,,,,,,,,,,,,,,,,0.88,0.514305114746,0.000868082046509,0.284521102905,1,q,735.0972929,,,,,,,,,,,,,,,,,,,,,,,,,,,,,,,,,2015_Jun_25_1141,59.9408923314,LearningTask,1,67,
-200,a,-200,,,,,,,,,,,,,,,,,1,0,1,0,15,2,62,3,,,,,,,,,,,,,,,,,,,,,,,,,,,,,a,1,0.317265987396,None,0,2.0,invertedtrianglegray.gif,stop,,,,,,,,,,,,,,,,,,,,,,,,1.93,0.514378070831,0.000890016555786,0.317265987396,1,a,738.100574017,,,,,,,,,,,,,,,,,,,,,,,,,,,,,,,,,2015_Jun_25_1141,59.9408923314,LearningTask,1,67,
200,w,200,,,,,,,,,,,,,,,,,1,0,1,0,15,3,63,0,,,,,,,,,,,,,,,,,,,,,,,,,,,,,w,1,0.317142009735,None,0,1.0,linegreen.gif,stop,,,,,,,,,,,,,,,,,,,,,,,,0.84,0.514416217804,0.000876188278198,0.317142009735,1,w,741.103860855,,,,,,,,,,,,,,,,,,,,,,,,,,,,,,,,,2015_Jun_25_1141,59.9408923314,LearningTask,1,67,
-200,a,-200,,,,,,,,,,,,,,,,,1,0,1,0,16,0,64,3,,,,,,,,,,,,,,,,,,,,,,,,,,,,,a,1,0.30086183548,None,0,2.0,circlewhite.gif,go,,,,,,,,,,,,,,,,,,,,,,,,2.05,0.514381885529,0.00131702423096,0.30086183548,1,a,744.107630968,,,,,,,,,,,,,,,,,,,,,,,,,,,,,,,,,2015_Jun_25_1141,59.9408923314,LearningTask,1,67,
200,w,200,,,,,,,,,,,,,,,,,1,0,1,0,16,1,65,0,,,,,,,,,,,,,,,,,,,,,,,,,,,,,w,1,0.300507068634,None,0,1.0,crosscyan.gif,go,,,,,,,,,,,,,,,,,,,,,,,,1.01,0.513864994049,0.000874996185303,0.300507068634,1,w,747.11075592,,,,,,,,,,,,,,,,,,,,,,,,,,,,,,,,,2015_Jun_25_1141,59.9408923314,LearningTask,1,67,
200,w,200,,,,,,,,,,,,,,,,,1,0,1,0,16,2,66,0,,,,,,,,,,,,,,,,,,,,,,,,,,,,,w,1,0.300756216049,None,0,2.0,invertedtrianglegray.gif,stop,,,,,,,,,,,,,,,,,,,,,,,,1.9,0.514346837997,0.000901937484741,0.300756216049,1,w,750.114099026,,,,,,,,,,,,,,,,,,,,,,,,,,,,,,,,,2015_Jun_25_1141,59.9408923314,LearningTask,1,67,
200,w,200,,,,,,,,,,,,,,,,,1,0,1,0,16,3,67,0,,,,,,,,,,,,,,,,,,,,,,,,,,,,,w,1,0.317111968994,None,0,1.0,linegreen.gif,stop,,,,,,,,,,,,,,,,,,,,,,,,1.16,0.514519929886,0.00088095664978,0.317111968994,1,w,753.117914915,,,,,,,,,,,,,,,,,,,,,,,,,,,,,,,,,2015_Jun_25_1141,59.9408923314,LearningTask,1,67,
200,s,-200,,,,,,,,,,,,,,,,,1,0,1,0,17,0,68,2,,,,,,,,,,,,,,,,,,,,,,,,,,,,,s,1,0.267748832703,None,0,2.0,circlewhite.gif,go,,,,,,,,,,,,,,,,,,,,,,,,1.97,0.514106988907,0.000873804092407,0.267748832703,1,s,756.120821953,,,,,,,,,,,,,,,,,,,,,,,,,,,,,,,,,2015_Jun_25_1141,59.9408923314,LearningTask,1,67,
200,s,-200,,,,,,,,,,,,,,,,,1,0,1,0,17,1,69,2,,,,,,,,,,,,,,,,,,,,,,,,,,,,,s,1,0.300965070724,None,0,1.0,crosscyan.gif,go,,,,,,,,,,,,,,,,,,,,,,,,1.1,0.514456033707,0.000874996185303,0.300965070724,1,s,759.124224901,,,,,,,,,,,,,,,,,,,,,,,,,,,,,,,,,2015_Jun_25_1141,59.9408923314,LearningTask,1,67,
200,s,-200,,,,,,,,,,,,,,,,,1,0,1,0,17,2,70,2,,,,,,,,,,,,,,,,,,,,,,,,,,,,,s,1,0.300603151321,None,0,4.0,diamondyellow.gif,go,,,,,,,,,,,,,,,,,,,,,,,,4.17,0.514322042465,0.000885009765625,0.300603151321,1,s,762.127505064,,,,,,,,,,,,,,,,,,,,,,,,,,,,,,,,,2015_Jun_25_1141,59.9408923314,LearningTask,1,67,
200,w,200,,,,,,,,,,,,,,,,,1,0,1,0,17,3,71,0,,,,,,,,,,,,,,,,,,,,,,,,,,,,,w,1,0.300508022308,None,0,2.0,circlewhite.gif,go,,,,,,,,,,,,,,,,,,,,,,,,1.9,0.514379024506,0.000903129577637,0.300508022308,1,w,765.130951881,,,,,,,,,,,,,,,,,,,,,,,,,,,,,,,,,2015_Jun_25_1141,59.9408923314,LearningTask,1,67,
200,w,200,,,,,,,,,,,,,,,,,1,0,1,0,18,0,72,0,,,,,,,,,,,,,,,,,,,,,,,,,,,,,w,1,0.317625045776,None,0,1.0,crosscyan.gif,go,,,,,,,,,,,,,,,,,,,,,,,,0.82,0.514456987381,0.00110483169556,0.317625045776,1,w,768.134422064,,,,,,,,,,,,,,,,,,,,,,,,,,,,,,,,,2015_Jun_25_1141,59.9408923314,LearningTask,1,67,
200,s,-200,,,,,,,,,,,,,,,,,1,0,1,0,18,1,73,2,,,,,,,,,,,,,,,,,,,,,,,,,,,,,s,1,0.317203044891,None,0,4.0,diamondyellow.gif,go,,,,,,,,,,,,,,,,,,,,,,,,3.81,0.51425409317,0.000876188278198,0.317203044891,1,s,771.137768984,,,,,,,,,,,,,,,,,,,,,,,,,,,,,,,,,2015_Jun_25_1141,59.9408923314,LearningTask,1,67,
-200,q,200,,,,,,,,,,,,,,,,,1,0,1,0,18,2,74,1,,,,,,,,,,,,,,,,,,,,,,,,,,,,,q,1,0.284007072449,None,0,1.0,crosscyan.gif,go,,,,,,,,,,,,,,,,,,,,,,,,1.11,0.514294147491,0.000872135162354,0.284007072449,1,q,774.141026974,,,,,,,,,,,,,,,,,,,,,,,,,,,,,,,,,2015_Jun_25_1141,59.9408923314,LearningTask,1,67,
200,s,-200,,,,,,,,,,,,,,,,,1,0,1,0,18,3,75,2,,,,,,,,,,,,,,,,,,,,,,,,,,,,,s,1,0.301170110703,None,0,1.0,linegreen.gif,stop,,,,,,,,,,,,,,,,,,,,,,,,0,0.514143943787,0.000936985015869,0.301170110703,1,s,777.144491911,,,,,,,,,,,,,,,,,,,,,,,,,,,,,,,,,2015_Jun_25_1141,59.9408923314,LearningTask,1,67,
-200,q,200,,,,,,,,,,,,,,,,,1,0,1,0,19,0,76,1,,,,,,,,,,,,,,,,,,,,,,,,,,,,,q,1,0.234257936478,None,0,2.0,invertedtrianglegray.gif,stop,,,,,,,,,,,,,,,,,,,,,,,,0,0.514612913132,0.000875949859619,0.350956916809,0,a,780.148087978,2.0,0.515347957611,0.000946998596191,0.234257936478,1,q,783.151525021,,,,,,,,,,,,,,,,,,,,,,,,,,2015_Jun_25_1141,59.9408923314,LearningTask,1,67,
200,s,-200,,,,,,,,,,,,,,,,,1,0,1,0,19,1,77,2,,,,,,,,,,,,,,,,,,,,,,,,,,,,,s,1,0.334201812744,None,0,0.5,hexagonmagenta.gif,stop,,,,,,,,,,,,,,,,,,,,,,,,0.71,0.513944149017,0.000916004180908,0.334201812744,1,s,786.154674053,,,,,,,,,,,,,,,,,,,,,,,,,,,,,,,,,2015_Jun_25_1141,59.9408923314,LearningTask,1,67,
-200,a,-200,,,,,,,,,,,,,,,,,1,0,1,0,19,2,78,3,,,,,,,,,,,,,,,,,,,,,,,,,,,,,a,1,0.351315021515,None,0,0.5,hexagonmagenta.gif,stop,,,,,,,,,,,,,,,,,,,,,,,,0.72,0.51428103447,0.000874996185303,0.351315021515,1,a,789.158196926,,,,,,,,,,,,,,,,,,,,,,,,,,,,,,,,,2015_Jun_25_1141,59.9408923314,LearningTask,1,67,
200,s,-200,,,,,,,,,,,,,,,,,1,0,1,0,19,3,79,2,,,,,,,,,,,,,,,,,,,,,,,,,,,,,s,1,0.317440032959,None,0,0.5,hexagonmagenta.gif,stop,,,,,,,,,,,,,,,,,,,,,,,,0,0.514068126678,0.000882148742676,0.317440032959,1,s,792.161967039,,,,,,,,,,,,,,,,,,,,,,,,,,,,,,,,,2015_Jun_25_1141,59.9408923314,LearningTask,1,67,
200,w,200,,,,,,,,,,,,,,,,,1,0,1,0,20,0,80,0,,,,,,,,,,,,,,,,,,,,,,,,,,,,,w,1,0.333727121353,None,0,1.0,linegreen.gif,stop,,,,,,,,,,,,,,,,,,,,,,,,0.96,0.51381611824,0.000893115997314,0.333727121353,1,w,795.16483593,,,,,,,,,,,,,,,,,,,,,,,,,,,,,,,,,2015_Jun_25_1141,59.9408923314,LearningTask,1,67,
-200,a,-200,,,,,,,,,,,,,,,,,1,0,1,0,20,1,81,3,,,,,,,,,,,,,,,,,,,,,,,,,,,,,a,1,0.300586938858,None,0,2.0,circlewhite.gif,go,,,,,,,,,,,,,,,,,,,,,,,,1.78,0.514317989349,0.000875949859619,0.300586938858,1,a,798.16812706,,,,,,,,,,,,,,,,,,,,,,,,,,,,,,,,,2015_Jun_25_1141,59.9408923314,LearningTask,1,67,
200,w,200,,,,,,,,,,,,,,,,,1,0,1,0,20,2,82,0,,,,,,,,,,,,,,,,,,,,,,,,,,,,,w,1,0.33446097374,None,0,4.0,diamondyellow.gif,go,,,,,,,,,,,,,,,,,,,,,,,,3.79,0.514575004578,0.000870943069458,0.33446097374,1,w,801.171746969,,,,,,,,,,,,,,,,,,,,,,,,,,,,,,,,,2015_Jun_25_1141,59.9408923314,LearningTask,1,67,
-200,q,200,,,,,,,,,,,,,,,,,1,0,1,0,20,3,83,1,,,,,,,,,,,,,,,,,,,,,,,,,,,,,q,1,0.284245014191,None,0,2.0,invertedtrianglegray.gif,stop,,,,,,,,,,,,,,,,,,,,,,,,0,0.514083147049,0.000872135162354,0.284245014191,1,q,804.174928904,,,,,,,,,,,,,,,,,,,,,,,,,,,,,,,,,2015_Jun_25_1141,59.9408923314,LearningTask,1,67,
200,s,-200,,,,,,,,,,,,,,,,,1,0,1,0,21,0,84,2,,,,,,,,,,,,,,,,,,,,,,,,,,,,,s,1,0.284044981003,None,0,2.0,invertedtrianglegray.gif,stop,,,,,,,,,,,,,,,,,,,,,,,,2.05,0.514161109924,0.000972986221313,0.284044981003,1,s,807.178521872,,,,,,,,,,,,,,,,,,,,,,,,,,,,,,,,,2015_Jun_25_1141,59.9408923314,LearningTask,1,67,
-200,q,200,,,,,,,,,,,,,,,,,1,0,1,0,21,1,85,1,,,,,,,,,,,,,,,,,,,,,,,,,,,,,q,1,0.350724935532,None,0,0.5,triangleorange.gif,go,,,,,,,,,,,,,,,,,,,,,,,,0.25,0.514343976974,0.000876903533936,0.350724935532,1,q,810.181716919,,,,,,,,,,,,,,,,,,,,,,,,,,,,,,,,,2015_Jun_25_1141,59.9408923314,LearningTask,1,67,
-200,q,200,,,,,,,,,,,,,,,,,1,0,1,0,21,2,86,1,,,,,,,,,,,,,,,,,,,,,,,,,,,,,q,1,0.333631038666,None,0,4.0,diamondyellow.gif,go,,,,,,,,,,,,,,,,,,,,,,,,3.79,0.51429605484,0.000874996185303,0.333631038666,1,q,813.18503499,,,,,,,,,,,,,,,,,,,,,,,,,,,,,,,,,2015_Jun_25_1141,59.9408923314,LearningTask,1,67,
200,w,200,,,,,,,,,,,,,,,,,1,0,1,0,21,3,87,0,,,,,,,,,,,,,,,,,,,,,,,,,,,,,w,1,0.334097862244,None,0,0.5,triangleorange.gif,go,,,,,,,,,,,,,,,,,,,,,,,,0,0.514228105545,0.000920057296753,0.334097862244,1,w,816.188389063,,,,,,,,,,,,,,,,,,,,,,,,,,,,,,,,,2015_Jun_25_1141,59.9408923314,LearningTask,1,67,
200,w,200,,,,,,,,,,,,,,,,,1,0,1,0,22,0,88,0,,,,,,,,,,,,,,,,,,,,,,,,,,,,,w,1,0.300511837006,None,0,0.5,hexagonmagenta.gif,stop,,,,,,,,,,,,,,,,,,,,,,,,0.29,0.514477968216,0.000878095626831,0.300511837006,1,w,819.191861868,,,,,,,,,,,,,,,,,,,,,,,,,,,,,,,,,2015_Jun_25_1141,59.9408923314,LearningTask,1,67,
200,s,-200,,,,,,,,,,,,,,,,,1,0,1,0,22,1,89,2,,,,,,,,,,,,,,,,,,,,,,,,,,,,,s,1,0.301174879074,None,0,2.0,invertedtrianglegray.gif,stop,,,,,,,,,,,,,,,,,,,,,,,,1.79,0.514060020447,0.000884056091309,0.301174879074,1,s,822.195569992,,,,,,,,,,,,,,,,,,,,,,,,,,,,,,,,,2015_Jun_25_1141,59.9408923314,LearningTask,1,67,
-200,a,-200,,,,,,,,,,,,,,,,,1,0,1,0,22,2,90,3,,,,,,,,,,,,,,,,,,,,,,,,,,,,,a,1,0.317513942719,None,0,0.5,triangleorange.gif,go,,,,,,,,,,,,,,,,,,,,,,,,0.28,0.513885974884,0.000903844833374,0.317513942719,1,a,825.198725939,,,,,,,,,,,,,,,,,,,,,,,,,,,,,,,,,2015_Jun_25_1141,59.9408923314,LearningTask,1,67,
200,w,200,,,,,,,,,,,,,,,,,1,0,1,0,22,3,91,0,,,,,,,,,,,,,,,,,,,,,,,,,,,,,w,1,0.300804138184,None,0,2.0,circlewhite.gif,go,,,,,,,,,,,,,,,,,,,,,,,,1.86,0.513986110687,0.000900030136108,0.300804138184,1,w,828.202086926,,,,,,,,,,,,,,,,,,,,,,,,,,,,,,,,,2015_Jun_25_1141,59.9408923314,LearningTask,1,67,
200,s,-200,,,,,,,,,,,,,,,,,1,0,1,0,23,0,92,2,,,,,,,,,,,,,,,,,,,,,,,,,,,,,s,1,0.334592103958,None,0,0.5,hexagonmagenta.gif,stop,,,,,,,,,,,,,,,,,,,,,,,,0.53,0.51393699646,0.000961065292358,0.334592103958,1,s,831.20569396,,,,,,,,,,,,,,,,,,,,,,,,,,,,,,,,,2015_Jun_25_1141,59.9408923314,LearningTask,1,67,
-200,q,200,,,,,,,,,,,,,,,,,1,0,1,0,23,1,93,1,,,,,,,,,,,,,,,,,,,,,,,,,,,,,q,1,0.300818920135,None,0,2.0,circlewhite.gif,go,,,,,,,,,,,,,,,,,,,,,,,,1.9,0.513768911362,0.000885009765625,0.300818920135,1,q,834.208786011,,,,,,,,,,,,,,,,,,,,,,,,,,,,,,,,,2015_Jun_25_1141,59.9408923314,LearningTask,1,67,
-200,a,-200,,,,,,,,,,,,,,,,,1,0,1,0,23,2,94,3,,,,,,,,,,,,,,,,,,,,,,,,,,,,,a,1,0.300872087479,None,0,4.0,squareblue.gif,stop,,,,,,,,,,,,,,,,,,,,,,,,3.96,0.514261007309,0.00088906288147,0.300872087479,1,a,837.212184906,,,,,,,,,,,,,,,,,,,,,,,,,,,,,,,,,2015_Jun_25_1141,59.9408923314,LearningTask,1,67,
-200,q,200,,,,,,,,,,,,,,,,,1,0,1,0,23,3,95,1,,,,,,,,,,,,,,,,,,,,,,,,,,,,,q,1,0.300452947617,None,0,2.0,circlewhite.gif,go,,,,,,,,,,,,,,,,,,,,,,,,0,0.514283180237,0.000890016555786,0.300452947617,1,q,840.215750933,,,,,,,,,,,,,,,,,,,,,,,,,,,,,,,,,2015_Jun_25_1141,59.9408923314,LearningTask,1,67,
200,w,200,,,,,,,,,,,,,,,,,1,0,1,0,24,0,96,0,,,,,,,,,,,,,,,,,,,,,,,,,,,,,w,1,0.30166387558,None,0,2.0,circlewhite.gif,go,,,,,,,,,,,,,,,,,,,,,,,,1.88,0.51384305954,0.000879049301147,0.30166387558,1,w,843.218698025,,,,,,,,,,,,,,,,,,,,,,,,,,,,,,,,,2015_Jun_25_1141,59.9408923314,LearningTask,1,67,
-200,a,-200,,,,,,,,,,,,,,,,,1,0,1,0,24,1,97,3,,,,,,,,,,,,,,,,,,,,,,,,,,,,,a,1,0.31716799736,None,0,4.0,squareblue.gif,stop,,,,,,,,,,,,,,,,,,,,,,,,3.83,0.514503955841,0.000878095626831,0.31716799736,1,a,846.222132921,,,,,,,,,,,,,,,,,,,,,,,,,,,,,,,,,2015_Jun_25_1141,59.9408923314,LearningTask,1,67,
200,s,-200,,,,,,,,,,,,,,,,,1,0,1,0,24,2,98,2,,,,,,,,,,,,,,,,,,,,,,,,,,,,,s,1,0.334490060806,None,0,4.0,squareblue.gif,stop,,,,,,,,,,,,,,,,,,,,,,,,3.99,0.514354944229,0.00086784362793,0.334490060806,1,s,849.225874901,,,,,,,,,,,,,,,,,,,,,,,,,,,,,,,,,2015_Jun_25_1141,59.9408923314,LearningTask,1,67,
-200,a,-200,,,,,,,,,,,,,,,,,1,0,1,0,24,3,99,3,,,,,,,,,,,,,,,,,,,,,,,,,,,,,a,1,0.317623138428,None,0,1.0,crosscyan.gif,go,,,,,,,,,,,,,,,,,,,,,,,,0.86,0.514096021652,0.00088095664978,0.317623138428,1,a,852.229201078,,,,,,,,,,,,,,,,,,,,,,,,,,,,,,,,,2015_Jun_25_1141,59.9408923314,LearningTask,1,67,
,,,,,,,,,,,,,,,,,,,1,0,1,0,,,,,,,,,,,,,,,,,,,,,,,,,,,,,,,,,,,,,,,,,,,,,,,,,,,,,,,,,,,,,,,,,,,,,,,,,,,,,,9,11.6687259674,,,,,,,,,,,,,,,,,,,,,,,,2015_Jun_25_1141,59.9408923314,LearningTask,1,67,
200,s,-200,,,,,,,,,,,,,,,,,2,0,2,0,0,0,0,2,,,,,,,,,,,,,,,,,,,,,,,,,,,,,s,1,0.301177978516,None,0,0.5,hexagonmagenta.gif,stop,,,,,,,,,,,,,,,,,,,,,,,,0.63,0.509934186935,0.000869035720825,0.301177978516,1,s,867.59662199,,,,,,,,,,,,,,,,,,,,,,,,,,,,,,,,,2015_Jun_25_1141,59.9408923314,LearningTask,1,67,
-200,a,-200,,,,,,,,,,,,,,,,,2,0,2,0,0,1,1,3,,,,,,,,,,,,,,,,,,,,,,,,,,,,,a,1,0.317569971085,None,0,0.5,triangleorange.gif,go,,,,,,,,,,,,,,,,,,,,,,,,0,0.513554811478,0.0010199546814,0.317569971085,1,a,870.599767923,,,,,,,,,,,,,,,,,,,,,,,,,,,,,,,,,2015_Jun_25_1141,59.9408923314,LearningTask,1,67,
200,s,-200,,,,,,,,,,,,,,,,,2,0,2,0,0,2,2,2,,,,,,,,,,,,,,,,,,,,,,,,,,,,,s,1,0.317270040512,None,0,2.0,circlewhite.gif,go,,,,,,,,,,,,,,,,,,,,,,,,2.14,0.514191150665,0.000900983810425,0.317270040512,1,s,873.602963924,,,,,,,,,,,,,,,,,,,,,,,,,,,,,,,,,2015_Jun_25_1141,59.9408923314,LearningTask,1,67,
200,w,200,,,,,,,,,,,,,,,,,2,0,2,0,0,3,3,0,,,,,,,,,,,,,,,,,,,,,,,,,,,,,w,1,0.267743110657,None,0,1.0,crosscyan.gif,go,,,,,,,,,,,,,,,,,,,,,,,,0,0.514414072037,0.000929117202759,0.267743110657,1,w,876.606543064,,,,,,,,,,,,,,,,,,,,,,,,,,,,,,,,,2015_Jun_25_1141,59.9408923314,LearningTask,1,67,
200,s,-200,,,,,,,,,,,,,,,,,2,0,2,0,1,0,4,2,,,,,,,,,,,,,,,,,,,,,,,,,,,,,s,1,0.284549951553,None,0,1.0,crosscyan.gif,go,,,,,,,,,,,,,,,,,,,,,,,,1.05,0.513817071915,0.000921010971069,0.284549951553,1,s,879.609894991,,,,,,,,,,,,,,,,,,,,,,,,,,,,,,,,,2015_Jun_25_1141,59.9408923314,LearningTask,1,67,
200,w,200,,,,,,,,,,,,,,,,,2,0,2,0,1,1,5,0,,,,,,,,,,,,,,,,,,,,,,,,,,,,,w,1,0.284035921097,None,0,4.0,diamondyellow.gif,go,,,,,,,,,,,,,,,,,,,,,,,,4.02,0.51415514946,0.000872135162354,0.284035921097,1,w,882.613019943,,,,,,,,,,,,,,,,,,,,,,,,,,,,,,,,,2015_Jun_25_1141,59.9408923314,LearningTask,1,67,
-200,q,200,,,,,,,,,,,,,,,,,2,0,2,0,1,2,6,1,,,,,,,,,,,,,,,,,,,,,,,,,,,,,q,1,0.267580032349,None,0,1.0,linegreen.gif,stop,,,,,,,,,,,,,,,,,,,,,,,,0.94,0.513957023621,0.000952005386353,0.267580032349,1,q,885.616793871,,,,,,,,,,,,,,,,,,,,,,,,,,,,,,,,,2015_Jun_25_1141,59.9408923314,LearningTask,1,67,
-200,a,-200,,,,,,,,,,,,,,,,,2,0,2,0,1,3,7,3,,,,,,,,,,,,,,,,,,,,,,,,,,,,,a,1,0.300661087036,None,0,0.5,hexagonmagenta.gif,stop,,,,,,,,,,,,,,,,,,,,,,,,0.32,0.514019012451,0.000879049301147,0.300661087036,1,a,888.619799852,,,,,,,,,,,,,,,,,,,,,,,,,,,,,,,,,2015_Jun_25_1141,59.9408923314,LearningTask,1,67,
200,s,-200,,,,,,,,,,,,,,,,,2,0,2,0,2,0,8,2,,,,,,,,,,,,,,,,,,,,,,,,,,,,,s,1,0.367560863495,None,0,1.0,linegreen.gif,stop,,,,,,,,,,,,,,,,,,,,,,,,0.97,0.514238119125,0.000960111618042,0.367560863495,1,s,891.623681068,,,,,,,,,,,,,,,,,,,,,,,,,,,,,,,,,2015_Jun_25_1141,59.9408923314,LearningTask,1,67,
-200,a,-200,,,,,,,,,,,,,,,,,2,0,2,0,2,1,9,3,,,,,,,,,,,,,,,,,,,,,,,,,,,,,a,1,0.317404031754,None,0,0.5,hexagonmagenta.gif,stop,,,,,,,,,,,,,,,,,,,,,,,,0.64,0.513861894608,0.000881910324097,0.317404031754,1,a,894.627272844,,,,,,,,,,,,,,,,,,,,,,,,,,,,,,,,,2015_Jun_25_1141,59.9408923314,LearningTask,1,67,
200,s,-200,,,,,,,,,,,,,,,,,2,0,2,0,2,2,10,2,,,,,,,,,,,,,,,,,,,,,,,,,,,,,s,1,0.300525903702,None,0,0.5,triangleorange.gif,go,,,,,,,,,,,,,,,,,,,,,,,,0.65,0.513856172562,0.000878095626831,0.300525903702,1,s,897.630032063,,,,,,,,,,,,,,,,,,,,,,,,,,,,,,,,,2015_Jun_25_1141,59.9408923314,LearningTask,1,67,
200,w,200,,,,,,,,,,,,,,,,,2,0,2,0,2,3,11,0,,,,,,,,,,,,,,,,,,,,,,,,,,,,,w,1,0.23422908783,None,0,4.0,squareblue.gif,stop,,,,,,,,,,,,,,,,,,,,,,,,0,0.514278888702,0.000863075256348,0.300849199295,0,s,900.633550882,3.9,0.51535487175,0.000932931900024,0.23422908783,1,w,903.637273073,,,,,,,,,,,,,,,,,,,,,,,,,,2015_Jun_25_1141,59.9408923314,LearningTask,1,67,
200,s,-200,,,,,,,,,,,,,,,,,2,0,2,0,3,0,12,2,,,,,,,,,,,,,,,,,,,,,,,,,,,,,s,1,0.35076713562,None,0,1.0,linegreen.gif,stop,,,,,,,,,,,,,,,,,,,,,,,,1.17,0.51394701004,0.00087308883667,0.35076713562,1,s,906.640187979,,,,,,,,,,,,,,,,,,,,,,,,,,,,,,,,,2015_Jun_25_1141,59.9408923314,LearningTask,1,67,
-200,a,-200,,,,,,,,,,,,,,,,,2,0,2,0,3,1,13,3,,,,,,,,,,,,,,,,,,,,,,,,,,,,,a,1,0.301190853119,None,0,2.0,circlewhite.gif,go,,,,,,,,,,,,,,,,,,,,,,,,0,0.514267206192,0.000967979431152,0.301190853119,1,a,909.643831015,,,,,,,,,,,,,,,,,,,,,,,,,,,,,,,,,2015_Jun_25_1141,59.9408923314,LearningTask,1,67,
-200,q,200,,,,,,,,,,,,,,,,,2,0,2,0,3,2,14,1,,,,,,,,,,,,,,,,,,,,,,,,,,,,,q,1,0.250997066498,None,0,2.0,invertedtrianglegray.gif,stop,,,,,,,,,,,,,,,,,,,,,,,,2.06,0.513959884644,0.000869035720825,0.250997066498,1,q,912.64693594,,,,,,,,,,,,,,,,,,,,,,,,,,,,,,,,,2015_Jun_25_1141,59.9408923314,LearningTask,1,67,
200,s,-200,,,,,,,,,,,,,,,,,2,0,2,0,3,3,15,2,,,,,,,,,,,,,,,,,,,,,,,,,,,,,s,1,0.317116975784,None,0,2.0,circlewhite.gif,go,,,,,,,,,,,,,,,,,,,,,,,,0,0.514183044434,0.000912189483643,0.317116975784,1,s,915.650618076,,,,,,,,,,,,,,,,,,,,,,,,,,,,,,,,,2015_Jun_25_1141,59.9408923314,LearningTask,1,67,
-200,a,-200,,,,,,,,,,,,,,,,,2,0,2,0,4,0,16,3,,,,,,,,,,,,,,,,,,,,,,,,,,,,,a,1,0.284183979034,None,0,2.0,invertedtrianglegray.gif,stop,,,,,,,,,,,,,,,,,,,,,,,,2.05,0.513849020004,0.000952959060669,0.284183979034,1,a,918.653650999,,,,,,,,,,,,,,,,,,,,,,,,,,,,,,,,,2015_Jun_25_1141,59.9408923314,LearningTask,1,67,
200,w,200,,,,,,,,,,,,,,,,,2,0,2,0,4,1,17,0,,,,,,,,,,,,,,,,,,,,,,,,,,,,,w,1,0.317250013351,None,0,0.5,triangleorange.gif,go,,,,,,,,,,,,,,,,,,,,,,,,0.35,0.5144739151,0.000874042510986,0.317250013351,1,w,921.657075882,,,,,,,,,,,,,,,,,,,,,,,,,,,,,,,,,2015_Jun_25_1141,59.9408923314,LearningTask,1,67,
-200,q,200,,,,,,,,,,,,,,,,,2,0,2,0,4,2,18,1,,,,,,,,,,,,,,,,,,,,,,,,,,,,,q,1,0.284091949463,None,0,0.5,hexagonmagenta.gif,stop,,,,,,,,,,,,,,,,,,,,,,,,0.45,0.514263153076,0.000931978225708,0.284091949463,1,q,924.660430908,,,,,,,,,,,,,,,,,,,,,,,,,,,,,,,,,2015_Jun_25_1141,59.9408923314,LearningTask,1,67,
-200,q,200,,,,,,,,,,,,,,,,,2,0,2,0,4,3,19,1,,,,,,,,,,,,,,,,,,,,,,,,,,,,,q,1,0.317286014557,None,0,0.5,triangleorange.gif,go,,,,,,,,,,,,,,,,,,,,,,,,0.61,0.514276981354,0.000878095626831,0.317286014557,1,q,927.663873911,,,,,,,,,,,,,,,,,,,,,,,,,,,,,,,,,2015_Jun_25_1141,59.9408923314,LearningTask,1,67,
200,w,200,,,,,,,,,,,,,,,,,2,0,2,0,5,0,20,0,,,,,,,,,,,,,,,,,,,,,,,,,,,,,w,1,0.250840187073,None,0,2.0,circlewhite.gif,go,,,,,,,,,,,,,,,,,,,,,,,,2.19,0.514354944229,0.000916004180908,0.250840187073,1,w,930.667402983,,,,,,,,,,,,,,,,,,,,,,,,,,,,,,,,,2015_Jun_25_1141,59.9408923314,LearningTask,1,67,
-200,a,-200,,,,,,,,,,,,,,,,,2,0,2,0,5,1,21,3,,,,,,,,,,,,,,,,,,,,,,,,,,,,,a,1,0.28399515152,None,0,0.5,hexagonmagenta.gif,stop,,,,,,,,,,,,,,,,,,,,,,,,0,0.514050960541,0.000878095626831,0.28399515152,1,a,933.670624018,,,,,,,,,,,,,,,,,,,,,,,,,,,,,,,,,2015_Jun_25_1141,59.9408923314,LearningTask,1,67,
200,w,200,,,,,,,,,,,,,,,,,2,0,2,0,5,2,22,0,,,,,,,,,,,,,,,,,,,,,,,,,,,,,w,1,0.284259080887,None,0,2.0,circlewhite.gif,go,,,,,,,,,,,,,,,,,,,,,,,,1.86,0.513909101486,0.000891208648682,0.284259080887,1,w,936.673869848,,,,,,,,,,,,,,,,,,,,,,,,,,,,,,,,,2015_Jun_25_1141,59.9408923314,LearningTask,1,67,
-200,a,-200,,,,,,,,,,,,,,,,,2,0,2,0,5,3,23,3,,,,,,,,,,,,,,,,,,,,,,,,,,,,,a,1,0.334635019302,None,0,4.0,diamondyellow.gif,go,,,,,,,,,,,,,,,,,,,,,,,,4.01,0.514321088791,0.000870227813721,0.334635019302,1,a,939.677731991,,,,,,,,,,,,,,,,,,,,,,,,,,,,,,,,,2015_Jun_25_1141,59.9408923314,LearningTask,1,67,
-200,a,-200,,,,,,,,,,,,,,,,,2,0,2,0,6,0,24,3,,,,,,,,,,,,,,,,,,,,,,,,,,,,,a,1,0.317773103714,None,0,0.5,triangleorange.gif,go,,,,,,,,,,,,,,,,,,,,,,,,0,0.513859033585,0.00088906288147,0.317773103714,1,a,942.680929899,,,,,,,,,,,,,,,,,,,,,,,,,,,,,,,,,2015_Jun_25_1141,59.9408923314,LearningTask,1,67,
200,s,-200,,,,,,,,,,,,,,,,,2,0,2,0,6,1,25,2,,,,,,,,,,,,,,,,,,,,,,,,,,,,,s,1,0.317485809326,None,0,2.0,invertedtrianglegray.gif,stop,,,,,,,,,,,,,,,,,,,,,,,,0,0.51406288147,0.000874996185303,0.317485809326,1,s,945.683986902,,,,,,,,,,,,,,,,,,,,,,,,,,,,,,,,,2015_Jun_25_1141,59.9408923314,LearningTask,1,67,
200,s,-200,,,,,,,,,,,,,,,,,2,0,2,0,6,2,26,2,,,,,,,,,,,,,,,,,,,,,,,,,,,,,s,1,0.333819150925,None,0,2.0,invertedtrianglegray.gif,stop,,,,,,,,,,,,,,,,,,,,,,,,1.83,0.514642953873,0.000874996185303,0.333819150925,1,s,948.687435865,,,,,,,,,,,,,,,,,,,,,,,,,,,,,,,,,2015_Jun_25_1141,59.9408923314,LearningTask,1,67,
-200,a,-200,,,,,,,,,,,,,,,,,2,0,2,0,6,3,27,3,,,,,,,,,,,,,,,,,,,,,,,,,,,,,a,1,0.317505836487,None,0,1.0,crosscyan.gif,go,,,,,,,,,,,,,,,,,,,,,,,,1.14,0.514323949814,0.000879049301147,0.317505836487,1,a,951.690722942,,,,,,,,,,,,,,,,,,,,,,,,,,,,,,,,,2015_Jun_25_1141,59.9408923314,LearningTask,1,67,
-200,a,-200,,,,,,,,,,,,,,,,,2,0,2,0,7,0,28,3,,,,,,,,,,,,,,,,,,,,,,,,,,,,,a,1,0.300821781158,None,0,4.0,diamondyellow.gif,go,,,,,,,,,,,,,,,,,,,,,,,,0,0.514351129532,0.000876188278198,0.300821781158,1,a,954.694045067,,,,,,,,,,,,,,,,,,,,,,,,,,,,,,,,,2015_Jun_25_1141,59.9408923314,LearningTask,1,67,
200,w,200,,,,,,,,,,,,,,,,,2,0,2,0,7,1,29,0,,,,,,,,,,,,,,,,,,,,,,,,,,,,,w,1,0.334192991257,None,0,4.0,diamondyellow.gif,go,,,,,,,,,,,,,,,,,,,,,,,,0,0.514442920685,0.00105905532837,0.334192991257,1,w,957.697700977,,,,,,,,,,,,,,,,,,,,,,,,,,,,,,,,,2015_Jun_25_1141,59.9408923314,LearningTask,1,67,
200,s,-200,,,,,,,,,,,,,,,,,2,0,2,0,7,2,30,2,,,,,,,,,,,,,,,,,,,,,,,,,,,,,s,1,0.334130048752,None,0,1.0,crosscyan.gif,go,,,,,,,,,,,,,,,,,,,,,,,,1.19,0.514042139053,0.000877141952515,0.334130048752,1,s,960.701290846,,,,,,,,,,,,,,,,,,,,,,,,,,,,,,,,,2015_Jun_25_1141,59.9408923314,LearningTask,1,67,
200,s,-200,,,,,,,,,,,,,,,,,2,0,2,0,7,3,31,2,,,,,,,,,,,,,,,,,,,,,,,,,,,,,s,1,0.334501981735,None,0,2.0,invertedtrianglegray.gif,stop,,,,,,,,,,,,,,,,,,,,,,,,2.12,0.513809919357,0.00092601776123,0.334501981735,1,s,963.704397917,,,,,,,,,,,,,,,,,,,,,,,,,,,,,,,,,2015_Jun_25_1141,59.9408923314,LearningTask,1,67,
-200,q,200,,,,,,,,,,,,,,,,,2,0,2,0,8,0,32,1,,,,,,,,,,,,,,,,,,,,,,,,,,,,,q,1,0.31790304184,None,0,4.0,squareblue.gif,stop,,,,,,,,,,,,,,,,,,,,,,,,3.88,0.513717889786,0.00092601776123,0.31790304184,1,q,966.707764864,,,,,,,,,,,,,,,,,,,,,,,,,,,,,,,,,2015_Jun_25_1141,59.9408923314,LearningTask,1,67,
200,s,-200,,,,,,,,,,,,,,,,,2,0,2,0,8,1,33,2,,,,,,,,,,,,,,,,,,,,,,,,,,,,,s,1,0.367964982986,None,0,1.0,linegreen.gif,stop,,,,,,,,,,,,,,,,,,,,,,,,0.94,0.514314889908,0.00087308883667,0.367964982986,1,s,969.711039066,,,,,,,,,,,,,,,,,,,,,,,,,,,,,,,,,2015_Jun_25_1141,59.9408923314,LearningTask,1,67,
-200,q,200,,,,,,,,,,,,,,,,,2,0,2,0,8,2,34,1,,,,,,,,,,,,,,,,,,,,,,,,,,,,,q,1,0.301297903061,None,0,0.5,triangleorange.gif,go,,,,,,,,,,,,,,,,,,,,,,,,0.39,0.514225006104,0.000921964645386,0.301297903061,1,q,972.714838982,,,,,,,,,,,,,,,,,,,,,,,,,,,,,,,,,2015_Jun_25_1141,59.9408923314,LearningTask,1,67,
-200,q,200,,,,,,,,,,,,,,,,,2,0,2,0,8,3,35,1,,,,,,,,,,,,,,,,,,,,,,,,,,,,,q,1,0.301101207733,None,0,4.0,diamondyellow.gif,go,,,,,,,,,,,,,,,,,,,,,,,,3.99,0.513598918915,0.000901937484741,0.301101207733,1,q,975.717797041,,,,,,,,,,,,,,,,,,,,,,,,,,,,,,,,,2015_Jun_25_1141,59.9408923314,LearningTask,1,67,
-200,q,200,,,,,,,,,,,,,,,,,2,0,2,0,9,0,36,1,,,,,,,,,,,,,,,,,,,,,,,,,,,,,q,1,0.317619085312,None,0,4.0,diamondyellow.gif,go,,,,,,,,,,,,,,,,,,,,,,,,3.84,0.514542102814,0.00087308883667,0.317619085312,1,q,978.721448898,,,,,,,,,,,,,,,,,,,,,,,,,,,,,,,,,2015_Jun_25_1141,59.9408923314,LearningTask,1,67,
-200,a,-200,,,,,,,,,,,,,,,,,2,0,2,0,9,1,37,3,,,,,,,,,,,,,,,,,,,,,,,,,,,,,a,1,0.317121982574,None,0,4.0,squareblue.gif,stop,,,,,,,,,,,,,,,,,,,,,,,,0,0.514037132263,0.000874042510986,0.317121982574,1,a,981.725141048,,,,,,,,,,,,,,,,,,,,,,,,,,,,,,,,,2015_Jun_25_1141,59.9408923314,LearningTask,1,67,
-200,a,-200,,,,,,,,,,,,,,,,,2,0,2,0,9,2,38,3,,,,,,,,,,,,,,,,,,,,,,,,,,,,,a,1,0.351233959198,None,0,1.0,crosscyan.gif,go,,,,,,,,,,,,,,,,,,,,,,,,0,0.51350402832,0.000908136367798,0.351233959198,1,a,984.727905989,,,,,,,,,,,,,,,,,,,,,,,,,,,,,,,,,2015_Jun_25_1141,59.9408923314,LearningTask,1,67,
-200,a,-200,,,,,,,,,,,,,,,,,2,0,2,0,9,3,39,3,,,,,,,,,,,,,,,,,,,,,,,,,,,,,a,1,0.317691087723,None,0,4.0,squareblue.gif,stop,,,,,,,,,,,,,,,,,,,,,,,,3.91,0.514294862747,0.000931978225708,0.317691087723,1,a,987.731432915,,,,,,,,,,,,,,,,,,,,,,,,,,,,,,,,,2015_Jun_25_1141,59.9408923314,LearningTask,1,67,
-200,a,-200,,,,,,,,,,,,,,,,,2,0,2,0,10,0,40,3,,,,,,,,,,,,,,,,,,,,,,,,,,,,,a,1,0.317651987076,None,0,2.0,circlewhite.gif,go,,,,,,,,,,,,,,,,,,,,,,,,1.95,0.514195919037,0.000888824462891,0.317651987076,1,a,990.734807014,,,,,,,,,,,,,,,,,,,,,,,,,,,,,,,,,2015_Jun_25_1141,59.9408923314,LearningTask,1,67,
-200,q,200,,,,,,,,,,,,,,,,,2,0,2,0,10,1,41,1,,,,,,,,,,,,,,,,,,,,,,,,,,,,,q,1,0.250720024109,None,0,4.0,squareblue.gif,stop,,,,,,,,,,,,,,,,,,,,,,,,3.92,0.514278888702,0.00087308883667,0.250720024109,1,q,993.738069057,,,,,,,,,,,,,,,,,,,,,,,,,,,,,,,,,2015_Jun_25_1141,59.9408923314,LearningTask,1,67,
200,s,-200,,,,,,,,,,,,,,,,,2,0,2,0,10,2,42,2,,,,,,,,,,,,,,,,,,,,,,,,,,,,,s,1,0.317115068436,None,0,1.0,linegreen.gif,stop,,,,,,,,,,,,,,,,,,,,,,,,1.21,0.514439821243,0.000958919525146,0.317115068436,1,s,996.74208498,,,,,,,,,,,,,,,,,,,,,,,,,,,,,,,,,2015_Jun_25_1141,59.9408923314,LearningTask,1,67,
200,s,-200,,,,,,,,,,,,,,,,,2,0,2,0,10,3,43,2,,,,,,,,,,,,,,,,,,,,,,,,,,,,,s,1,0.350879907608,None,0,1.0,linegreen.gif,stop,,,,,,,,,,,,,,,,,,,,,,,,0.96,0.513749837875,0.000870943069458,0.350879907608,1,s,999.744967937,,,,,,,,,,,,,,,,,,,,,,,,,,,,,,,,,2015_Jun_25_1141,59.9408923314,LearningTask,1,67,
200,w,200,,,,,,,,,,,,,,,,,2,0,2,0,11,0,44,0,,,,,,,,,,,,,,,,,,,,,,,,,,,,,w,1,0.317670106888,None,0,1.0,linegreen.gif,stop,,,,,,,,,,,,,,,,,,,,,,,,1.18,0.514127969742,0.000891923904419,0.317670106888,1,w,1002.7488029,,,,,,,,,,,,,,,,,,,,,,,,,,,,,,,,,2015_Jun_25_1141,59.9408923314,LearningTask,1,67,
-200,q,200,,,,,,,,,,,,,,,,,2,0,2,0,11,1,45,1,,,,,,,,,,,,,,,,,,,,,,,,,,,,,q,1,0.284585952759,None,0,4.0,squareblue.gif,stop,,,,,,,,,,,,,,,,,,,,,,,,4.13,0.513558149338,0.000904083251953,0.284585952759,1,q,1005.75187707,,,,,,,,,,,,,,,,,,,,,,,,,,,,,,,,,2015_Jun_25_1141,59.9408923314,LearningTask,1,67,
200,w,200,,,,,,,,,,,,,,,,,2,0,2,0,11,2,46,0,,,,,,,,,,,,,,,,,,,,,,,,,,,,,w,1,0.284363985062,None,0,4.0,diamondyellow.gif,go,,,,,,,,,,,,,,,,,,,,,,,,4.16,0.514092922211,0.000886917114258,0.284363985062,1,w,1008.75494003,,,,,,,,,,,,,,,,,,,,,,,,,,,,,,,,,2015_Jun_25_1141,59.9408923314,LearningTask,1,67,
-200,q,200,,,,,,,,,,,,,,,,,2,0,2,0,11,3,47,1,,,,,,,,,,,,,,,,,,,,,,,,,,,,,q,1,0.23451089859,None,0,2.0,circlewhite.gif,go,,,,,,,,,,,,,,,,,,,,,,,,0,0.514311075211,0.000941038131714,0.267441034317,0,a,1011.75832486,2.11,0.51526093483,0.00113105773926,0.23451089859,1,q,1014.76195908,,,,,,,,,,,,,,,,,,,,,,,,,,2015_Jun_25_1141,59.9408923314,LearningTask,1,67,
-200,a,-200,,,,,,,,,,,,,,,,,2,0,2,0,12,0,48,3,,,,,,,,,,,,,,,,,,,,,,,,,,,,,a,1,0.267467021942,None,0,0.5,triangleorange.gif,go,,,,,,,,,,,,,,,,,,,,,,,,0,0.514065980911,0.000874996185303,0.23391699791,0,w,1017.76497507,0.3,0.515470981598,0.000944137573242,0.267467021942,1,a,1020.76881003,,,,,,,,,,,,,,,,,,,,,,,,,,2015_Jun_25_1141,59.9408923314,LearningTask,1,67,
-200,q,200,,,,,,,,,,,,,,,,,2,0,2,0,12,1,49,1,,,,,,,,,,,,,,,,,,,,,,,,,,,,,q,1,0.300923109055,None,0,1.0,linegreen.gif,stop,,,,,,,,,,,,,,,,,,,,,,,,0.81,0.513682126999,0.000900983810425,0.300923109055,1,q,1023.77212501,,,,,,,,,,,,,,,,,,,,,,,,,,,,,,,,,2015_Jun_25_1141,59.9408923314,LearningTask,1,67,
200,w,200,,,,,,,,,,,,,,,,,2,0,2,0,12,2,50,0,,,,,,,,,,,,,,,,,,,,,,,,,,,,,w,1,0.26767706871,None,0,4.0,squareblue.gif,stop,,,,,,,,,,,,,,,,,,,,,,,,3.78,0.51417016983,0.00087308883667,0.26767706871,1,w,1026.77546597,,,,,,,,,,,,,,,,,,,,,,,,,,,,,,,,,2015_Jun_25_1141,59.9408923314,LearningTask,1,67,
200,s,-200,,,,,,,,,,,,,,,,,2,0,2,0,12,3,51,2,,,,,,,,,,,,,,,,,,,,,,,,,,,,,s,1,0.317782878876,None,0,4.0,squareblue.gif,stop,,,,,,,,,,,,,,,,,,,,,,,,4.02,0.514196157455,0.000865936279297,0.317782878876,1,s,1029.77938104,,,,,,,,,,,,,,,,,,,,,,,,,,,,,,,,,2015_Jun_25_1141,59.9408923314,LearningTask,1,67,
200,w,200,,,,,,,,,,,,,,,,,2,0,2,0,13,0,52,0,,,,,,,,,,,,,,,,,,,,,,,,,,,,,w,1,0.317462921143,None,0,2.0,invertedtrianglegray.gif,stop,,,,,,,,,,,,,,,,,,,,,,,,2.07,0.513354063034,0.000895023345947,0.317462921143,1,w,1032.78241301,,,,,,,,,,,,,,,,,,,,,,,,,,,,,,,,,2015_Jun_25_1141,59.9408923314,LearningTask,1,67,
200,w,200,,,,,,,,,,,,,,,,,2,0,2,0,13,1,53,0,,,,,,,,,,,,,,,,,,,,,,,,,,,,,w,1,0.334218025208,None,0,1.0,crosscyan.gif,go,,,,,,,,,,,,,,,,,,,,,,,,1.03,0.513761997223,0.00093412399292,0.334218025208,1,w,1035.78557801,,,,,,,,,,,,,,,,,,,,,,,,,,,,,,,,,2015_Jun_25_1141,59.9408923314,LearningTask,1,67,
200,w,200,,,,,,,,,,,,,,,,,2,0,2,0,13,2,54,0,,,,,,,,,,,,,,,,,,,,,,,,,,,,,w,1,0.317565202713,None,0,4.0,squareblue.gif,stop,,,,,,,,,,,,,,,,,,,,,,,,0,0.514091014862,0.00086498260498,0.317565202713,1,w,1038.788831,,,,,,,,,,,,,,,,,,,,,,,,,,,,,,,,,2015_Jun_25_1141,59.9408923314,LearningTask,1,67,
200,s,-200,,,,,,,,,,,,,,,,,2,0,2,0,13,3,55,2,,,,,,,,,,,,,,,,,,,,,,,,,,,,,s,1,0.317739009857,None,0,2.0,circlewhite.gif,go,,,,,,,,,,,,,,,,,,,,,,,,2.1,0.514280080795,0.000893115997314,0.317739009857,1,s,1041.79207897,,,,,,,,,,,,,,,,,,,,,,,,,,,,,,,,,2015_Jun_25_1141,59.9408923314,LearningTask,1,67,
-200,q,200,,,,,,,,,,,,,,,,,2,0,2,0,14,0,56,1,,,,,,,,,,,,,,,,,,,,,,,,,,,,,q,1,0.317271947861,None,0,2.0,invertedtrianglegray.gif,stop,,,,,,,,,,,,,,,,,,,,,,,,1.92,0.514517068863,0.00102996826172,0.317271947861,1,q,1044.79603505,,,,,,,,,,,,,,,,,,,,,,,,,,,,,,,,,2015_Jun_25_1141,59.9408923314,LearningTask,1,67,
-200,q,200,,,,,,,,,,,,,,,,,2,0,2,0,14,1,57,1,,,,,,,,,,,,,,,,,,,,,,,,,,,,,q,1,0.351114034653,None,0,4.0,squareblue.gif,stop,,,,,,,,,,,,,,,,,,,,,,,,3.97,0.513784885406,0.00271797180176,0.351114034653,1,q,1047.79899597,,,,,,,,,,,,,,,,,,,,,,,,,,,,,,,,,2015_Jun_25_1141,59.9408923314,LearningTask,1,67,
-200,q,200,,,,,,,,,,,,,,,,,2,0,2,0,14,2,58,1,,,,,,,,,,,,,,,,,,,,,,,,,,,,,q,1,0.33429479599,None,0,0.5,triangleorange.gif,go,,,,,,,,,,,,,,,,,,,,,,,,0.35,0.514180898666,0.000900983810425,0.33429479599,1,q,1050.802356,,,,,,,,,,,,,,,,,,,,,,,,,,,,,,,,,2015_Jun_25_1141,59.9408923314,LearningTask,1,67,
200,s,-200,,,,,,,,,,,,,,,,,2,0,2,0,14,3,59,2,,,,,,,,,,,,,,,,,,,,,,,,,,,,,s,1,0.317559957504,None,0,0.5,triangleorange.gif,go,,,,,,,,,,,,,,,,,,,,,,,,0,0.514039039612,0.000920057296753,0.317559957504,1,s,1053.80570292,,,,,,,,,,,,,,,,,,,,,,,,,,,,,,,,,2015_Jun_25_1141,59.9408923314,LearningTask,1,67,
200,w,200,,,,,,,,,,,,,,,,,2,0,2,0,15,0,60,0,,,,,,,,,,,,,,,,,,,,,,,,,,,,,w,1,0.317521095276,None,0,2.0,circlewhite.gif,go,,,,,,,,,,,,,,,,,,,,,,,,2.2,0.514258146286,0.000871181488037,0.317521095276,1,w,1056.80907989,,,,,,,,,,,,,,,,,,,,,,,,,,,,,,,,,2015_Jun_25_1141,59.9408923314,LearningTask,1,67,
-200,q,200,,,,,,,,,,,,,,,,,2,0,2,0,15,1,61,1,,,,,,,,,,,,,,,,,,,,,,,,,,,,,q,1,0.267409801483,None,0,4.0,diamondyellow.gif,go,,,,,,,,,,,,,,,,,,,,,,,,3.8,0.514110803604,0.000916004180908,0.267409801483,1,q,1059.81261206,,,,,,,,,,,,,,,,,,,,,,,,,,,,,,,,,2015_Jun_25_1141,59.9408923314,LearningTask,1,67,
-200,q,200,,,,,,,,,,,,,,,,,2,0,2,0,15,2,62,1,,,,,,,,,,,,,,,,,,,,,,,,,,,,,q,1,0.267123937607,None,0,1.0,crosscyan.gif,go,,,,,,,,,,,,,,,,,,,,,,,,1.02,0.514032125473,0.000878095626831,0.267123937607,1,q,1062.81615901,,,,,,,,,,,,,,,,,,,,,,,,,,,,,,,,,2015_Jun_25_1141,59.9408923314,LearningTask,1,67,
200,s,-200,,,,,,,,,,,,,,,,,2,0,2,0,15,3,63,2,,,,,,,,,,,,,,,,,,,,,,,,,,,,,s,1,0.317462921143,None,0,1.0,crosscyan.gif,go,,,,,,,,,,,,,,,,,,,,,,,,1.08,0.514082193375,0.000876188278198,0.317462921143,1,s,1065.81941104,,,,,,,,,,,,,,,,,,,,,,,,,,,,,,,,,2015_Jun_25_1141,59.9408923314,LearningTask,1,67,
-200,a,-200,,,,,,,,,,,,,,,,,2,0,2,0,16,0,64,3,,,,,,,,,,,,,,,,,,,,,,,,,,,,,a,1,0.333976984024,None,0,1.0,crosscyan.gif,go,,,,,,,,,,,,,,,,,,,,,,,,0.89,0.514164924622,0.000870943069458,0.333976984024,1,a,1068.82296801,,,,,,,,,,,,,,,,,,,,,,,,,,,,,,,,,2015_Jun_25_1141,59.9408923314,LearningTask,1,67,
200,s,-200,,,,,,,,,,,,,,,,,2,0,2,0,16,1,65,2,,,,,,,,,,,,,,,,,,,,,,,,,,,,,s,1,0.284108877182,None,0,0.5,triangleorange.gif,go,,,,,,,,,,,,,,,,,,,,,,,,0.31,0.513863801956,0.000886917114258,0.284108877182,1,s,1071.82610798,,,,,,,,,,,,,,,,,,,,,,,,,,,,,,,,,2015_Jun_25_1141,59.9408923314,LearningTask,1,67,
200,w,200,,,,,,,,,,,,,,,,,2,0,2,0,16,2,66,0,,,,,,,,,,,,,,,,,,,,,,,,,,,,,w,1,0.333832025528,None,0,1.0,linegreen.gif,stop,,,,,,,,,,,,,,,,,,,,,,,,0.95,0.514256954193,0.000869035720825,0.333832025528,1,w,1074.82957697,,,,,,,,,,,,,,,,,,,,,,,,,,,,,,,,,2015_Jun_25_1141,59.9408923314,LearningTask,1,67,
200,w,200,,,,,,,,,,,,,,,,,2,0,2,0,16,3,67,0,,,,,,,,,,,,,,,,,,,,,,,,,,,,,w,1,0.334174871445,None,0,1.0,crosscyan.gif,go,,,,,,,,,,,,,,,,,,,,,,,,1.06,0.514009952545,0.00089693069458,0.334174871445,1,w,1077.8328619,,,,,,,,,,,,,,,,,,,,,,,,,,,,,,,,,2015_Jun_25_1141,59.9408923314,LearningTask,1,67,
200,s,-200,,,,,,,,,,,,,,,,,2,0,2,0,17,0,68,2,,,,,,,,,,,,,,,,,,,,,,,,,,,,,s,1,0.317295074463,None,0,0.5,hexagonmagenta.gif,stop,,,,,,,,,,,,,,,,,,,,,,,,0,0.514158010483,0.000888109207153,0.317295074463,1,s,1080.83611107,,,,,,,,,,,,,,,,,,,,,,,,,,,,,,,,,2015_Jun_25_1141,59.9408923314,LearningTask,1,67,
-200,q,200,,,,,,,,,,,,,,,,,2,0,2,0,17,1,69,1,,,,,,,,,,,,,,,,,,,,,,,,,,,,,q,1,0.267278909683,None,0,4.0,diamondyellow.gif,go,,,,,,,,,,,,,,,,,,,,,,,,3.98,0.514294147491,0.000993013381958,0.267278909683,1,q,1083.83946085,,,,,,,,,,,,,,,,,,,,,,,,,,,,,,,,,2015_Jun_25_1141,59.9408923314,LearningTask,1,67,
-200,a,-200,,,,,,,,,,,,,,,,,2,0,2,0,17,2,70,3,,,,,,,,,,,,,,,,,,,,,,,,,,,,,a,1,0.317366123199,None,0,2.0,circlewhite.gif,go,,,,,,,,,,,,,,,,,,,,,,,,1.98,0.514194965363,0.000875949859619,0.317366123199,1,a,1086.84287095,,,,,,,,,,,,,,,,,,,,,,,,,,,,,,,,,2015_Jun_25_1141,59.9408923314,LearningTask,1,67,
200,w,200,,,,,,,,,,,,,,,,,2,0,2,0,17,3,71,0,,,,,,,,,,,,,,,,,,,,,,,,,,,,,w,1,0.317517995834,None,0,0.5,hexagonmagenta.gif,stop,,,,,,,,,,,,,,,,,,,,,,,,0,0.514253139496,0.00093412399292,0.317517995834,1,w,1089.84589505,,,,,,,,,,,,,,,,,,,,,,,,,,,,,,,,,2015_Jun_25_1141,59.9408923314,LearningTask,1,67,
200,w,200,,,,,,,,,,,,,,,,,2,0,2,0,18,0,72,0,,,,,,,,,,,,,,,,,,,,,,,,,,,,,w,1,0.334102153778,None,0,1.0,crosscyan.gif,go,,,,,,,,,,,,,,,,,,,,,,,,0.94,0.514600992203,0.00126004219055,0.334102153778,1,w,1092.84973693,,,,,,,,,,,,,,,,,,,,,,,,,,,,,,,,,2015_Jun_25_1141,59.9408923314,LearningTask,1,67,
-200,a,-200,,,,,,,,,,,,,,,,,2,0,2,0,18,1,73,3,,,,,,,,,,,,,,,,,,,,,,,,,,,,,a,1,0.334130048752,None,0,0.5,hexagonmagenta.gif,stop,,,,,,,,,,,,,,,,,,,,,,,,0.26,0.514122962952,0.000883817672729,0.334130048752,1,a,1095.85301495,,,,,,,,,,,,,,,,,,,,,,,,,,,,,,,,,2015_Jun_25_1141,59.9408923314,LearningTask,1,67,
-200,a,-200,,,,,,,,,,,,,,,,,2,0,2,0,18,2,74,3,,,,,,,,,,,,,,,,,,,,,,,,,,,,,a,1,0.334008932114,None,0,4.0,squareblue.gif,stop,,,,,,,,,,,,,,,,,,,,,,,,3.77,0.514432907104,0.000919103622437,0.334008932114,1,a,1098.85662603,,,,,,,,,,,,,,,,,,,,,,,,,,,,,,,,,2015_Jun_25_1141,59.9408923314,LearningTask,1,67,
-200,a,-200,,,,,,,,,,,,,,,,,2,0,2,0,18,3,75,3,,,,,,,,,,,,,,,,,,,,,,,,,,,,,a,1,0.301129102707,None,0,0.5,triangleorange.gif,go,,,,,,,,,,,,,,,,,,,,,,,,0.49,0.512880802155,0.000902891159058,0.301129102707,1,a,1101.86001301,,,,,,,,,,,,,,,,,,,,,,,,,,,,,,,,,2015_Jun_25_1141,59.9408923314,LearningTask,1,67,
-200,q,200,,,,,,,,,,,,,,,,,2,0,2,0,19,0,76,1,,,,,,,,,,,,,,,,,,,,,,,,,,,,,q,1,0.283689022064,None,0,0.5,hexagonmagenta.gif,stop,,,,,,,,,,,,,,,,,,,,,,,,0.59,0.514036893845,0.00097393989563,0.283689022064,1,q,1104.862988,,,,,,,,,,,,,,,,,,,,,,,,,,,,,,,,,2015_Jun_25_1141,59.9408923314,LearningTask,1,67,
200,s,-200,,,,,,,,,,,,,,,,,2,0,2,0,19,1,77,2,,,,,,,,,,,,,,,,,,,,,,,,,,,,,s,1,0.351110935211,None,0,4.0,diamondyellow.gif,go,,,,,,,,,,,,,,,,,,,,,,,,4.12,0.514175891876,0.000904083251953,0.351110935211,1,s,1107.86675596,,,,,,,,,,,,,,,,,,,,,,,,,,,,,,,,,2015_Jun_25_1141,59.9408923314,LearningTask,1,67,
-200,a,-200,,,,,,,,,,,,,,,,,2,0,2,0,19,2,78,3,,,,,,,,,,,,,,,,,,,,,,,,,,,,,a,1,0.283861875534,None,0,2.0,circlewhite.gif,go,,,,,,,,,,,,,,,,,,,,,,,,1.95,0.514067173004,0.000874996185303,0.283861875534,1,a,1110.8701129,,,,,,,,,,,,,,,,,,,,,,,,,,,,,,,,,2015_Jun_25_1141,59.9408923314,LearningTask,1,67,
-200,a,-200,,,,,,,,,,,,,,,,,2,0,2,0,19,3,79,3,,,,,,,,,,,,,,,,,,,,,,,,,,,,,a,1,0.334301948547,None,0,0.5,triangleorange.gif,go,,,,,,,,,,,,,,,,,,,,,,,,0,0.514067173004,0.000893115997314,0.334301948547,1,a,1113.87315106,,,,,,,,,,,,,,,,,,,,,,,,,,,,,,,,,2015_Jun_25_1141,59.9408923314,LearningTask,1,67,
200,s,-200,,,,,,,,,,,,,,,,,2,0,2,0,20,0,80,2,,,,,,,,,,,,,,,,,,,,,,,,,,,,,s,1,0.317546844482,None,0,2.0,circlewhite.gif,go,,,,,,,,,,,,,,,,,,,,,,,,2.23,0.514541149139,0.000874042510986,0.317546844482,1,s,1116.87686586,,,,,,,,,,,,,,,,,,,,,,,,,,,,,,,,,2015_Jun_25_1141,59.9408923314,LearningTask,1,67,
200,w,200,,,,,,,,,,,,,,,,,2,0,2,0,20,1,81,0,,,,,,,,,,,,,,,,,,,,,,,,,,,,,w,1,0.284321784973,None,0,2.0,circlewhite.gif,go,,,,,,,,,,,,,,,,,,,,,,,,1.93,0.514018058777,0.00105404853821,0.284321784973,1,w,1119.88038492,,,,,,,,,,,,,,,,,,,,,,,,,,,,,,,,,2015_Jun_25_1141,59.9408923314,LearningTask,1,67,
200,s,-200,,,,,,,,,,,,,,,,,2,0,2,0,20,2,82,2,,,,,,,,,,,,,,,,,,,,,,,,,,,,,s,1,0.284524917603,None,0,1.0,linegreen.gif,stop,,,,,,,,,,,,,,,,,,,,,,,,0.84,0.51371383667,0.00101399421692,0.284524917603,1,s,1122.88355494,,,,,,,,,,,,,,,,,,,,,,,,,,,,,,,,,2015_Jun_25_1141,59.9408923314,LearningTask,1,67,
200,s,-200,,,,,,,,,,,,,,,,,2,0,2,0,20,3,83,2,,,,,,,,,,,,,,,,,,,,,,,,,,,,,s,1,0.300795078278,None,0,0.5,triangleorange.gif,go,,,,,,,,,,,,,,,,,,,,,,,,0.59,0.514054059982,0.000879049301147,0.300795078278,1,s,1125.88672185,,,,,,,,,,,,,,,,,,,,,,,,,,,,,,,,,2015_Jun_25_1141,59.9408923314,LearningTask,1,67,
-200,q,200,,,,,,,,,,,,,,,,,2,0,2,0,21,0,84,1,,,,,,,,,,,,,,,,,,,,,,,,,,,,,q,1,0.300894975662,None,0,1.0,linegreen.gif,stop,,,,,,,,,,,,,,,,,,,,,,,,1.23,0.5144739151,0.000872850418091,0.300894975662,1,q,1128.89000988,,,,,,,,,,,,,,,,,,,,,,,,,,,,,,,,,2015_Jun_25_1141,59.9408923314,LearningTask,1,67,
-200,q,200,,,,,,,,,,,,,,,,,2,0,2,0,21,1,85,1,,,,,,,,,,,,,,,,,,,,,,,,,,,,,q,1,0.333678007126,None,0,2.0,circlewhite.gif,go,,,,,,,,,,,,,,,,,,,,,,,,2.18,0.514425992966,0.000956058502197,0.333678007126,1,q,1131.89354801,,,,,,,,,,,,,,,,,,,,,,,,,,,,,,,,,2015_Jun_25_1141,59.9408923314,LearningTask,1,67,
-200,q,200,,,,,,,,,,,,,,,,,2,0,2,0,21,2,86,1,,,,,,,,,,,,,,,,,,,,,,,,,,,,,q,1,0.350755929947,None,0,2.0,invertedtrianglegray.gif,stop,,,,,,,,,,,,,,,,,,,,,,,,2.14,0.514302968979,0.000894069671631,0.350755929947,1,q,1134.89681101,,,,,,,,,,,,,,,,,,,,,,,,,,,,,,,,,2015_Jun_25_1141,59.9408923314,LearningTask,1,67,
-200,a,-200,,,,,,,,,,,,,,,,,2,0,2,0,21,3,87,3,,,,,,,,,,,,,,,,,,,,,,,,,,,,,a,1,0.334847927094,None,0,2.0,circlewhite.gif,go,,,,,,,,,,,,,,,,,,,,,,,,0,0.514045000076,0.000959873199463,0.334847927094,1,a,1137.90042686,,,,,,,,,,,,,,,,,,,,,,,,,,,,,,,,,2015_Jun_25_1141,59.9408923314,LearningTask,1,67,
200,w,200,,,,,,,,,,,,,,,,,2,0,2,0,22,0,88,0,,,,,,,,,,,,,,,,,,,,,,,,,,,,,w,1,0.33425283432,None,0,1.0,linegreen.gif,stop,,,,,,,,,,,,,,,,,,,,,,,,1.09,0.514008998871,0.000910997390747,0.33425283432,1,w,1140.90356803,,,,,,,,,,,,,,,,,,,,,,,,,,,,,,,,,2015_Jun_25_1141,59.9408923314,LearningTask,1,67,
-200,a,-200,,,,,,,,,,,,,,,,,2,0,2,0,22,1,89,3,,,,,,,,,,,,,,,,,,,,,,,,,,,,,a,1,0.334517002106,None,0,0.5,hexagonmagenta.gif,stop,,,,,,,,,,,,,,,,,,,,,,,,0.6,0.514403820038,0.000874996185303,0.334517002106,1,a,1143.9070859,,,,,,,,,,,,,,,,,,,,,,,,,,,,,,,,,2015_Jun_25_1141,59.9408923314,LearningTask,1,67,
200,s,-200,,,,,,,,,,,,,,,,,2,0,2,0,22,2,90,2,,,,,,,,,,,,,,,,,,,,,,,,,,,,,s,1,0.31756901741,None,0,0.5,hexagonmagenta.gif,stop,,,,,,,,,,,,,,,,,,,,,,,,0,0.514117956161,0.000933885574341,0.31756901741,1,s,1146.91045403,,,,,,,,,,,,,,,,,,,,,,,,,,,,,,,,,2015_Jun_25_1141,59.9408923314,LearningTask,1,67,
-200,q,200,,,,,,,,,,,,,,,,,2,0,2,0,22,3,91,1,,,,,,,,,,,,,,,,,,,,,,,,,,,,,q,1,0.300584077835,None,0,2.0,invertedtrianglegray.gif,stop,,,,,,,,,,,,,,,,,,,,,,,,1.75,0.514087915421,0.000873804092407,0.300584077835,1,q,1149.91381097,,,,,,,,,,,,,,,,,,,,,,,,,,,,,,,,,2015_Jun_25_1141,59.9408923314,LearningTask,1,67,
200,w,200,,,,,,,,,,,,,,,,,2,0,2,0,23,0,92,0,,,,,,,,,,,,,,,,,,,,,,,,,,,,,w,1,0.317462921143,None,0,0.5,hexagonmagenta.gif,stop,,,,,,,,,,,,,,,,,,,,,,,,0.53,0.514518976212,0.000962972640991,0.317462921143,1,w,1152.91690588,,,,,,,,,,,,,,,,,,,,,,,,,,,,,,,,,2015_Jun_25_1141,59.9408923314,LearningTask,1,67,
200,w,200,,,,,,,,,,,,,,,,,2,0,2,0,23,1,93,0,,,,,,,,,,,,,,,,,,,,,,,,,,,,,w,1,0.300915002823,None,0,4.0,squareblue.gif,stop,,,,,,,,,,,,,,,,,,,,,,,,3.81,0.514357089996,0.000910997390747,0.300915002823,1,w,1155.92109489,,,,,,,,,,,,,,,,,,,,,,,,,,,,,,,,,2015_Jun_25_1141,59.9408923314,LearningTask,1,67,
200,w,200,,,,,,,,,,,,,,,,,2,0,2,0,23,2,94,0,,,,,,,,,,,,,,,,,,,,,,,,,,,,,w,1,0.300497055054,None,0,1.0,crosscyan.gif,go,,,,,,,,,,,,,,,,,,,,,,,,0,0.513730049133,0.000922918319702,0.300497055054,1,w,1158.92425203,,,,,,,,,,,,,,,,,,,,,,,,,,,,,,,,,2015_Jun_25_1141,59.9408923314,LearningTask,1,67,
-200,q,200,,,,,,,,,,,,,,,,,2,0,2,0,23,3,95,1,,,,,,,,,,,,,,,,,,,,,,,,,,,,,q,1,0.250660896301,None,0,1.0,linegreen.gif,stop,,,,,,,,,,,,,,,,,,,,,,,,0,0.514094114304,0.000871896743774,0.334142923355,0,a,1161.92763805,1.05,0.515139102936,0.000936031341553,0.250660896301,1,q,1164.93074298,,,,,,,,,,,,,,,,,,,,,,,,,,2015_Jun_25_1141,59.9408923314,LearningTask,1,67,
-200,q,200,,,,,,,,,,,,,,,,,2,0,2,0,24,0,96,1,,,,,,,,,,,,,,,,,,,,,,,,,,,,,q,1,0.317230939865,None,0,1.0,crosscyan.gif,go,,,,,,,,,,,,,,,,,,,,,,,,0,0.514243125916,0.00087308883667,0.317230939865,1,q,1167.93401408,,,,,,,,,,,,,,,,,,,,,,,,,,,,,,,,,2015_Jun_25_1141,59.9408923314,LearningTask,1,67,
-200,a,-200,,,,,,,,,,,,,,,,,2,0,2,0,24,1,97,3,,,,,,,,,,,,,,,,,,,,,,,,,,,,,a,1,0.351083993912,None,0,2.0,invertedtrianglegray.gif,stop,,,,,,,,,,,,,,,,,,,,,,,,2.01,0.514409065247,0.00088095664978,0.351083993912,1,a,1170.93747091,,,,,,,,,,,,,,,,,,,,,,,,,,,,,,,,,2015_Jun_25_1141,59.9408923314,LearningTask,1,67,
200,w,200,,,,,,,,,,,,,,,,,2,0,2,0,24,2,98,0,,,,,,,,,,,,,,,,,,,,,,,,,,,,,w,1,0.317493915558,None,0,1.0,linegreen.gif,stop,,,,,,,,,,,,,,,,,,,,,,,,1.21,0.514069080353,0.000885963439941,0.317493915558,1,w,1173.94091702,,,,,,,,,,,,,,,,,,,,,,,,,,,,,,,,,2015_Jun_25_1141,59.9408923314,LearningTask,1,67,
200,w,200,,,,,,,,,,,,,,,,,2,0,2,0,24,3,99,0,,,,,,,,,,,,,,,,,,,,,,,,,,,,,w,1,0.351255893707,None,0,2.0,circlewhite.gif,go,,,,,,,,,,,,,,,,,,,,,,,,2.23,0.5140209198,0.000970840454102,0.351255893707,1,w,1176.94396901,,,,,,,,,,,,,,,,,,,,,,,,,,,,,,,,,2015_Jun_25_1141,59.9408923314,LearningTask,1,67,
,,,,,,,,,,,,,,,,,,,2,0,2,0,,,,,,,,,,,,,,,,,,,,,,,,,,,,,,,,,,,,,,,,,,,,,,,,,,,,,,,,,,,,,,,,,,,,,,,,,,,,,,9,20.2974560261,,,,,,,,,,,,,,,,,,,,,,,,2015_Jun_25_1141,59.9408923314,LearningTask,1,67,
200,w,200,,,,,,,,,,,,,,,,,3,0,3,0,0,0,0,0,,,,,,,,,,,,,,,,,,,,,,,,,,,,,w,1,0.350739955902,None,0,2.0,invertedtrianglegray.gif,stop,,,,,,,,,,,,,,,,,,,,,,,,1.97,0.509418964386,0.000867128372192,0.350739955902,1,w,1201.12175393,,,,,,,,,,,,,,,,,,,,,,,,,,,,,,,,,2015_Jun_25_1141,59.9408923314,LearningTask,1,67,
200,w,200,,,,,,,,,,,,,,,,,3,0,3,0,0,1,1,0,,,,,,,,,,,,,,,,,,,,,,,,,,,,,w,1,0.31826210022,None,0,1.0,linegreen.gif,stop,,,,,,,,,,,,,,,,,,,,,,,,0.98,0.513581991196,0.000874042510986,0.31826210022,1,w,1204.12483597,,,,,,,,,,,,,,,,,,,,,,,,,,,,,,,,,2015_Jun_25_1141,59.9408923314,LearningTask,1,67,
