xPos,corrAns,yPos,corrGoResp,yPosGoStim,xPosGoStim,pracTrials.thisRepN,pracTrials.thisTrialN,pracTrials.thisN,pracTrials.thisIndex,ReDoLoopPrac.thisRepN,ReDoLoopPrac.thisTrialN,ReDoLoopPrac.thisN,ReDoLoopPrac.thisIndex,ReDoLoopPrac.thisTrial,pracStopTrials.thisRepN,pracStopTrials.thisTrialN,pracStopTrials.thisN,pracStopTrials.thisIndex,Blocks.thisRepN,Blocks.thisTrialN,Blocks.thisN,Blocks.thisIndex,trials.thisRepN,trials.thisTrialN,trials.thisN,trials.thisIndex,ReDoLoopMain.thisRepN,ReDoLoopMain.thisTrialN,ReDoLoopMain.thisN,ReDoLoopMain.thisIndex,ReDoLoopMain.thisTrial,StopBlocks.thisRepN,StopBlocks.thisTrialN,StopBlocks.thisN,StopBlocks.thisIndex,StopTrials.thisRepN,StopTrials.thisTrialN,StopTrials.thisN,StopTrials.thisIndex,auctionBlocks.thisRepN,auctionBlocks.thisTrialN,auctionBlocks.thisN,auctionBlocks.thisIndex,auctionTrials.thisRepN,auctionTrials.thisTrialN,auctionTrials.thisN,auctionTrials.thisIndex,learningTrialList,learningPracTrialList,stopTrialList,stopPracTrialList,auctionTrialList,ok1.keys,ok1.rt,resp.keys,resp.corr,resp.rt,feedbackResp.keys,feedbackResp.corr,currentReward,currentStimulus,currentStimType,firstPracComputedRewardOutput,firstPracLearningStimOnset,firstPracLearningFixOnset,firstPracPresentationRT,firstPracPresentationAcc,firstPracPresentationResp,firstPracEndTrialTimeStamp,StartTrialTimeStamp,trialType,goStim,stimType,stopStimValue,goResp.keys,goResp.corr,goResp.rt,key_resp_9.keys,key_resp_9.corr,fixStopOnset,goStimOnset,stopSignalOnset,EndTrialTimeStamp,key_resp_3.keys,key_resp_3.rt,firstComputedRewardOutput,firstLearningStimOnset,firstLearningFixOnset,firstPresentationRT,firstPresentationAcc,firstPresentationResp,firstEndTrialTimeStamp,feedbackResp.rt,secondComputedRewardOutput,secondLearningStimOnset,secondLearningFixOnset,secondPresentationRT,secondPresentationAcc,secondPresentationResp,secondEndTrialTimeStamp,key_resp_7.keys,key_resp_7.rt,thirdComputedRewardOutput,thirdLearningStimOnset,thirdLearningFixOnset,thirdPresentationRT,thirdPresentationAcc,thirdPresentationResp,thirdEndTrialTimeStamp,beginningSSD,EndingSSD,key_resp_9.rt,key_resp_4.keys,key_resp_4.rt,auctionResponse.keys,auctionResponse.rt,auctionStimDuration,auctionStim,auctionAmounts,auctionStimValue,auctionCondition,chosenAuctionAmount,key_resp_5.keys,key_resp_5.rt,shuffledRewardList,chosenReward1,chosenReward2,chosenReward3,chosenReward4,chosenReward5,key_resp_6.keys,key_resp_6.rt,date,frameRate,expName,session,participant,
,,,,,,,,,,,,,,,,,,,,,,,,,,,,,,,,,,,,,,,,,,,,,,,,[],[],[],[],[],9,59.578469038,,,,,,,,,,,,,,,,,,,,,,,,,,,,,,,,,,,,,,,,,,,,,,,,,,,,,,,,,,,,,,,,,,,,,,,,,,,,,,,2015_Jul_07_0953,60.1413233,LearningTask,1,80,
200,s,-200,,,,0,0,0,2,,,,,,,,,,,,,,,,,,,,,,,,,,,,,,,,,,,,,,,,,,,,,,s,1,0.634742975235,None,0,4.0,diamondyellow.gif,stop,3.92,0.514573097229,0.0205430984497,0.634742975235,1,s,96.6077048779,,,,,,,,,,,,,,,,,,,,,,,,,,,,,,,,,,,,,,,,,,,,,,,,,,,,,,,,,,,,,,,,2015_Jul_07_0953,60.1413233,LearningTask,1,80,
-200,q,200,,,,0,1,1,9,,,,,,,,,,,,,,,,,,,,,,,,,,,,,,,,,,,,,,,,,,,,,,q,1,0.451211929321,None,0,1.0,squareblue.gif,stop,0.99,0.514782905579,0.0426018238068,0.451211929321,1,q,99.6105370522,,,,,,,,,,,,,,,,,,,,,,,,,,,,,,,,,,,,,,,,,,,,,,,,,,,,,,,,,,,,,,,,2015_Jul_07_0953,60.1413233,LearningTask,1,80,
-200,q,200,,,,0,2,2,5,,,,,,,,,,,,,,,,,,,,,,,,,,,,,,,,,,,,,,,,,,,,,,q,1,0.451256990433,None,0,1.0,squareblue.gif,stop,1.01,0.51513504982,0.000907897949219,0.451256990433,1,q,102.614161968,,,,,,,,,,,,,,,,,,,,,,,,,,,,,,,,,,,,,,,,,,,,,,,,,,,,,,,,,,,,,,,,2015_Jul_07_0953,60.1413233,LearningTask,1,80,
200,s,-200,,,,0,3,3,6,,,,,,,,,,,,,,,,,,,,,,,,,,,,,,,,,,,,,,,,,,,,,,s,1,0.467441082001,None,0,1.0,squareblue.gif,stop,1.24,0.514661073685,0.000881195068359,0.467441082001,1,s,105.617491961,,,,,,,,,,,,,,,,,,,,,,,,,,,,,,,,,,,,,,,,,,,,,,,,,,,,,,,,,,,,,,,,2015_Jul_07_0953,60.1413233,LearningTask,1,80,
200,w,200,,,,0,4,4,4,,,,,,,,,,,,,,,,,,,,,,,,,,,,,,,,,,,,,,,,,,,,,,w,1,0.468365192413,None,0,1.0,squareblue.gif,stop,0.92,0.515043973923,0.000885009765625,0.468365192413,1,w,108.621075869,,,,,,,,,,,,,,,,,,,,,,,,,,,,,,,,,,,,,,,,,,,,,,,,,,,,,,,,,,,,,,,,2015_Jul_07_0953,60.1413233,LearningTask,1,80,
-200,a,-200,,,,0,5,5,3,,,,,,,,,,,,,,,,,,,,,,,,,,,,,,,,,,,,,,,,,,,,,,a,1,0.450802087784,None,0,4.0,diamondyellow.gif,stop,4.19,0.514857053757,0.000903129577637,0.450802087784,1,a,111.6243999,,,,,,,,,,,,,,,,,,,,,,,,,,,,,,,,,,,,,,,,,,,,,,,,,,,,,,,,,,,,,,,,2015_Jul_07_0953,60.1413233,LearningTask,1,80,
200,w,200,,,,0,6,6,0,,,,,,,,,,,,,,,,,,,,,,,,,,,,,,,,,,,,,,,,,,,,,,w,1,0.450979948044,None,0,0.5,crossgreen.gif,go,0.63,0.514882087708,0.0428760051727,0.450979948044,1,w,114.627644062,,,,,,,,,,,,,,,,,,,,,,,,,,,,,,,,,,,,,,,,,,,,,,,,,,,,,,,,,,,,,,,,2015_Jul_07_0953,60.1413233,LearningTask,1,80,
200,w,200,,,,0,7,7,8,,,,,,,,,,,,,,,,,,,,,,,,,,,,,,,,,,,,,,,,,,,,,,w,1,0.484302043915,None,0,1.0,squareblue.gif,stop,0,0.515021085739,0.00121092796326,0.484302043915,1,w,117.631381989,,,,,,,,,,,,,,,,,,,,,,,,,,,,,,,,,,,,,,,,,,,,,,,,,,,,,,,,,,,,,,,,2015_Jul_07_0953,60.1413233,LearningTask,1,80,
-200,a,-200,,,,0,8,8,7,,,,,,,,,,,,,,,,,,,,,,,,,,,,,,,,,,,,,,,,,,,,,,a,1,0.417586088181,None,0,4.0,diamondyellow.gif,stop,4.23,0.514631986618,0.000895977020264,0.417586088181,1,a,120.634518862,,,,,,,,,,,,,,,,,,,,,,,,,,,,,,,,,,,,,,,,,,,,,,,,,,,,,,,,,,,,,,,,2015_Jul_07_0953,60.1413233,LearningTask,1,80,
-200,q,200,,,,0,9,9,1,,,,,,,,,,,,,,,,,,,,,,,,,,,,,,,,,,,,,,,,,,,,,,q,1,0.618040084839,None,0,2.0,invertedtrianglewhite.gif,go,2.2,0.51515007019,0.06272315979,0.618040084839,1,q,123.637845039,,,,,,,,,,,,,,,,,,,,,,,,,,,,,,,,,,,,,,,,,,,,,,,,,,,,,,,,,,,,,,,,2015_Jul_07_0953,60.1413233,LearningTask,1,80,
,,,m,0,200,,,,,,,,,,0,0,0,1,,,,,,,,,,,,,,,,,,,,,,,,,,,,,,,,,,,,,,,,,,,,,,,,,,,,178.468276024,stop,diamondyellow.gif,stop,4.0,m,1,0.450437068939,None,0,0.00136113166809,0.513436079025,0.76380610466,181.46932292,,,,,,,,,,,,,,,,,,,,,,,,,,,,,,,,,,,,,,,,,,,,,,,,,,2015_Jul_07_0953,60.1413233,LearningTask,1,80,
,,,z,0,-200,,,,,,,,,,0,1,1,0,,,,,,,,,,,,,,,,,,,,,,,,,,,,,,,,,,,,,,,,,,,,,,,,,,,,181.469764948,stop,triangleorange.gif,stop,2.0,z,1,0.350780010223,None,0,0.0013599395752,0.51570892334,0.765789985657,184.472524881,,,,,,,,,,,,,,,,,,,,,,,,,,,,,,,,,,,,,,,,,,,,,,,,,,2015_Jul_07_0953,60.1413233,LearningTask,1,80,
,,,z,0,-200,,,,,,,,,,1,0,2,0,,,,,,,,,,,,,,,,,,,,,,,,,,,,,,,,,,,,,,,,,,,,,,,,,,,,184.472890854,stop,circlegray.gif,stop,0.5,None,0,,None,0,0.0356168746948,0.515798807144,0.765986919403,187.475775957,,,,,,,,,,,,,,,,,,,,,,,,,,,,,,,,,,,,,,,,,,,,,,,,,,2015_Jul_07_0953,60.1413233,LearningTask,1,80,
,,,m,0,200,,,,,,,,,,1,1,3,1,,,,,,,,,,,,,,,,,,,,,,,,,,,,,,,,,,,,,,,,,,,,,,,,,,,,187.476285934,stop,circlegray.gif,stop,0.5,None,0,,None,0,0.00102615356445,0.51555109024,0.76553606987,190.479220867,,,,,,,,,,,,,,,,,,,,,,,,,,,,,,,,,,,,,,,,,,,,,,,,,,2015_Jul_07_0953,60.1413233,LearningTask,1,80,
,,,z,0,-200,,,,,,,,,,2,0,4,0,,,,,,,,,,,,,,,,,,,,,,,,,,,,,,,,,,,,,,,,,,,,,,,,,,,,190.479588032,go,hexagonmagenta.gif,go,4.0,z,1,0.384149074554,None,0,0.00197911262512,0.515779018402,,193.482719898,,,,,,,,,,,,,,,,,,,,,,,,,,,,,,,,,,,,,,,,,,,,,,,,,,2015_Jul_07_0953,60.1413233,LearningTask,1,80,
,,,z,0,-200,,,,,,,,,,2,1,5,0,,,,,,,,,,,,,,,,,,,,,,,,,,,,,,,,,,,,,,,,,,,,,,,,,,,,193.483087063,stop,circlegray.gif,stop,0.5,None,0,,None,0,0.000994920730591,0.515971899033,0.766116857529,196.486091852,,,,,,,,,,,,,,,,,,,,,,,,,,,,,,,,,,,,,,,,,,,,,,,,,,2015_Jul_07_0953,60.1413233,LearningTask,1,80,
,,,z,0,-200,,,,,,,,,,3,0,6,0,,,,,,,,,,,,,,,,,,,,,,,,,,,,,,,,,,,,,,,,,,,,,,,,,,,,196.486500978,go,hexagonmagenta.gif,go,4.0,z,1,0.734428882599,None,0,0.000977039337158,0.515884160995,,199.489235878,,,,,,,,,,,,,,,,,,,,,,,,,,,,,,,,,,,,,,,,,,,,,,,,,,2015_Jul_07_0953,60.1413233,LearningTask,1,80,
,,,m,0,200,,,,,,,,,,3,1,7,1,,,,,,,,,,,,,,,,,,,,,,,,,,,,,,,,,,,,,,,,,,,,,,,,,,,,199.489596844,stop,squareblue.gif,stop,1.0,None,0,,None,0,0.0010039806366,0.515681028366,0.766318798065,202.492541075,,,,,,,,,,,,,,,,,,,,,,,,,,,,,,,,,,,,,,,,,,,,,,,,,,2015_Jul_07_0953,60.1413233,LearningTask,1,80,
,,,m,0,200,,,,,,,,,,4,0,8,1,,,,,,,,,,,,,,,,,,,,,,,,,,,,,,,,,,,,,,,,,,,,,,,,,,,,202.492909908,go,invertedtrianglewhite.gif,go,2.0,m,1,0.484319925308,None,0,0.000967025756836,0.515897035599,,205.496161938,,,,,,,,,,,,,,,,,,,,,,,,,,,,,,,,,,,,,,,,,,,,,,,,,,2015_Jul_07_0953,60.1413233,LearningTask,1,80,
,,,m,0,200,,,,,,,,,,4,1,9,1,,,,,,,,,,,,,,,,,,,,,,,,,,,,,,,,,,,,,,,,,,,,,,,,,,,,205.496530056,stop,triangleorange.gif,stop,2.0,None,0,,None,0,0.000958919525146,0.516202926636,0.766112804413,208.499836922,,,,,,,,,,,,,,,,,,,,,,,,,,,,,,,,,,,,,,,,,,,,,,,,,,2015_Jul_07_0953,60.1413233,LearningTask,1,80,
,,,,,,,,,,,,,,,,,,,,,,,,,,,,,,,,,,,,,,,,,,,,,,,,,,,,,,,,,,,,,,,,,,,,,,,,,,,,,,,,,,,,9,64.2924239635,,,,,,,,,,,,,,,,,,,,,,,,,,,,,,,,,,,,,,,,,,,,,,,,2015_Jul_07_0953,60.1413233,LearningTask,1,80,
,,,,,,,,,,,,,,,,,,,,,,,,,,,,,,,,,,,,,,,,,,,,,,,,,,,,,9,20.1061351299,,,,,,,,,,,,,,,,,,,,,,,,,,,,,,,,,,,,,,,,,,,,,,,,,,,,,,,,,,,,,,,,,,,,,,,,,,,,,,,2015_Jul_07_0953,60.1413233,LearningTask,1,80,
-200,a,-200,,,,,,,,,,,,,,,,,0,0,0,0,0,0,0,3,,,,,,,,,,,,,,,,,,,,,,,,,,,,,a,1,0.434346914291,None,0,4.0,diamondyellow.gif,stop,,,,,,,,,,,,,,,,,,,,,,,,4.21,0.504707098007,0.000911951065063,0.434346914291,1,a,296.115766048,,,,,,,,,,,,,,,,,,,,,,,,,,,,,,,,,,,,,,,,,2015_Jul_07_0953,60.1413233,LearningTask,1,80,
-200,a,-200,,,,,,,,,,,,,,,,,0,0,0,0,0,1,1,3,,,,,,,,,,,,,,,,,,,,,,,,,,,,,a,1,0.401038885117,None,0,2.0,triangleorange.gif,stop,,,,,,,,,,,,,,,,,,,,,,,,0,0.513821840286,0.00113487243652,0.401038885117,1,a,299.118365049,,,,,,,,,,,,,,,,,,,,,,,,,,,,,,,,,,,,,,,,,2015_Jul_07_0953,60.1413233,LearningTask,1,80,
-200,q,200,,,,,,,,,,,,,,,,,0,0,0,0,0,2,2,1,,,,,,,,,,,,,,,,,,,,,,,,,,,,,q,1,0.368327140808,None,0,4.0,hexagonmagenta.gif,go,,,,,,,,,,,,,,,,,,,,,,,,4.04,0.514643907547,0.000897884368896,0.368327140808,1,q,302.122056007,,,,,,,,,,,,,,,,,,,,,,,,,,,,,,,,,,,,,,,,,2015_Jul_07_0953,60.1413233,LearningTask,1,80,
-200,q,200,,,,,,,,,,,,,,,,,0,0,0,0,0,3,3,1,,,,,,,,,,,,,,,,,,,,,,,,,,,,,q,1,0.434117078781,None,0,2.0,invertedtrianglewhite.gif,go,,,,,,,,,,,,,,,,,,,,,,,,1.84,0.514338970184,0.000895977020264,0.434117078781,1,q,305.125485897,,,,,,,,,,,,,,,,,,,,,,,,,,,,,,,,,,,,,,,,,2015_Jul_07_0953,60.1413233,LearningTask,1,80,
-200,a,-200,,,,,,,,,,,,,,,,,0,0,0,0,1,0,4,3,,,,,,,,,,,,,,,,,,,,,,,,,,,,,a,1,0.417466163635,None,0,4.0,diamondyellow.gif,stop,,,,,,,,,,,,,,,,,,,,,,,,0,0.514070987701,0.000953912734985,0.417466163635,1,a,308.128746986,,,,,,,,,,,,,,,,,,,,,,,,,,,,,,,,,,,,,,,,,2015_Jul_07_0953,60.1413233,LearningTask,1,80,
200,w,200,,,,,,,,,,,,,,,,,0,0,0,0,1,1,5,0,,,,,,,,,,,,,,,,,,,,,,,,,,,,,w,1,0.500592947006,None,0,1.0,linecyan.gif,go,,,,,,,,,,,,,,,,,,,,,,,,1.23,0.51434803009,0.00921010971069,0.500592947006,1,w,311.132179022,,,,,,,,,,,,,,,,,,,,,,,,,,,,,,,,,,,,,,,,,2015_Jul_07_0953,60.1413233,LearningTask,1,80,
-200,a,-200,,,,,,,,,,,,,,,,,0,0,0,0,1,2,6,3,,,,,,,,,,,,,,,,,,,,,,,,,,,,,a,1,0.468608140945,None,0,2.0,invertedtrianglewhite.gif,go,,,,,,,,,,,,,,,,,,,,,,,,0,0.514103889465,0.000913858413696,0.468608140945,1,a,314.135314941,,,,,,,,,,,,,,,,,,,,,,,,,,,,,,,,,,,,,,,,,2015_Jul_07_0953,60.1413233,LearningTask,1,80,
200,s,-200,,,,,,,,,,,,,,,,,0,0,0,0,1,3,7,2,,,,,,,,,,,,,,,,,,,,,,,,,,,,,s,1,0.517933130264,None,0,1.0,squareblue.gif,stop,,,,,,,,,,,,,,,,,,,,,,,,0.97,0.514923095703,0.000931978225708,0.517933130264,1,s,317.139095068,,,,,,,,,,,,,,,,,,,,,,,,,,,,,,,,,,,,,,,,,2015_Jul_07_0953,60.1413233,LearningTask,1,80,
200,w,200,,,,,,,,,,,,,,,,,0,0,0,0,2,0,8,0,,,,,,,,,,,,,,,,,,,,,,,,,,,,,w,1,0.434104204178,None,0,2.0,triangleorange.gif,stop,,,,,,,,,,,,,,,,,,,,,,,,1.91,0.514128923416,0.000901937484741,0.434104204178,1,w,320.142467976,,,,,,,,,,,,,,,,,,,,,,,,,,,,,,,,,,,,,,,,,2015_Jul_07_0953,60.1413233,LearningTask,1,80,
-200,a,-200,,,,,,,,,,,,,,,,,0,0,0,0,2,1,9,3,,,,,,,,,,,,,,,,,,,,,,,,,,,,,a,1,0.48432302475,None,0,2.0,triangleorange.gif,stop,,,,,,,,,,,,,,,,,,,,,,,,0,0.514225006104,0.000898838043213,0.48432302475,1,a,323.145900965,,,,,,,,,,,,,,,,,,,,,,,,,,,,,,,,,,,,,,,,,2015_Jul_07_0953,60.1413233,LearningTask,1,80,
200,w,200,,,,,,,,,,,,,,,,,0,0,0,0,2,2,10,0,,,,,,,,,,,,,,,,,,,,,,,,,,,,,w,1,0.401179790497,None,0,1.0,squareblue.gif,stop,,,,,,,,,,,,,,,,,,,,,,,,0.87,0.514069080353,0.000915050506592,0.401179790497,1,w,326.149250984,,,,,,,,,,,,,,,,,,,,,,,,,,,,,,,,,,,,,,,,,2015_Jul_07_0953,60.1413233,LearningTask,1,80,
-200,a,-200,,,,,,,,,,,,,,,,,0,0,0,0,2,3,11,3,,,,,,,,,,,,,,,,,,,,,,,,,,,,,a,1,0.467437028885,None,0,4.0,diamondyellow.gif,stop,,,,,,,,,,,,,,,,,,,,,,,,4.11,0.513991117477,0.00095009803772,0.467437028885,1,a,329.15250206,,,,,,,,,,,,,,,,,,,,,,,,,,,,,,,,,,,,,,,,,2015_Jul_07_0953,60.1413233,LearningTask,1,80,
-200,q,200,,,,,,,,,,,,,,,,,0,0,0,0,3,0,12,1,,,,,,,,,,,,,,,,,,,,,,,,,,,,,q,1,0.400721073151,None,0,0.5,crossgreen.gif,go,,,,,,,,,,,,,,,,,,,,,,,,0.27,0.514518976212,0.000943183898926,0.400721073151,1,q,332.156277895,,,,,,,,,,,,,,,,,,,,,,,,,,,,,,,,,,,,,,,,,2015_Jul_07_0953,60.1413233,LearningTask,1,80,
200,s,-200,,,,,,,,,,,,,,,,,0,0,0,0,3,1,13,2,,,,,,,,,,,,,,,,,,,,,,,,,,,,,s,1,0.450615882874,None,0,1.0,squareblue.gif,stop,,,,,,,,,,,,,,,,,,,,,,,,1.16,0.513967990875,0.000910997390747,0.450615882874,1,s,335.159151077,,,,,,,,,,,,,,,,,,,,,,,,,,,,,,,,,,,,,,,,,2015_Jul_07_0953,60.1413233,LearningTask,1,80,
-200,q,200,,,,,,,,,,,,,,,,,0,0,0,0,3,2,14,1,,,,,,,,,,,,,,,,,,,,,,,,,,,,,q,1,0.500864982605,None,0,4.0,hexagonmagenta.gif,go,,,,,,,,,,,,,,,,,,,,,,,,3.98,0.514322042465,0.000905990600586,0.500864982605,1,q,338.162484884,,,,,,,,,,,,,,,,,,,,,,,,,,,,,,,,,,,,,,,,,2015_Jul_07_0953,60.1413233,LearningTask,1,80,
200,w,200,,,,,,,,,,,,,,,,,0,0,0,0,3,3,15,0,,,,,,,,,,,,,,,,,,,,,,,,,,,,,w,1,0.483771085739,None,0,0.5,circlegray.gif,stop,,,,,,,,,,,,,,,,,,,,,,,,0.35,0.514823913574,0.000922918319702,0.483771085739,1,w,341.165994883,,,,,,,,,,,,,,,,,,,,,,,,,,,,,,,,,,,,,,,,,2015_Jul_07_0953,60.1413233,LearningTask,1,80,
200,s,-200,,,,,,,,,,,,,,,,,0,0,0,0,4,0,16,2,,,,,,,,,,,,,,,,,,,,,,,,,,,,,s,1,0.450626134872,None,0,2.0,invertedtrianglewhite.gif,go,,,,,,,,,,,,,,,,,,,,,,,,2.01,0.514401912689,0.000897884368896,0.450626134872,1,s,344.169177055,,,,,,,,,,,,,,,,,,,,,,,,,,,,,,,,,,,,,,,,,2015_Jul_07_0953,60.1413233,LearningTask,1,80,
200,s,-200,,,,,,,,,,,,,,,,,0,0,0,0,4,1,17,2,,,,,,,,,,,,,,,,,,,,,,,,,,,,,s,1,0.467190980911,None,0,1.0,linecyan.gif,go,,,,,,,,,,,,,,,,,,,,,,,,1.23,0.514715909958,0.000952959060669,0.467190980911,1,s,347.172976017,,,,,,,,,,,,,,,,,,,,,,,,,,,,,,,,,,,,,,,,,2015_Jul_07_0953,60.1413233,LearningTask,1,80,
-200,q,200,,,,,,,,,,,,,,,,,0,0,0,0,4,2,18,1,,,,,,,,,,,,,,,,,,,,,,,,,,,,,q,1,0.417435884476,None,0,0.5,crossgreen.gif,go,,,,,,,,,,,,,,,,,,,,,,,,0,0.51368689537,0.00127196311951,0.417435884476,1,q,350.176362038,,,,,,,,,,,,,,,,,,,,,,,,,,,,,,,,,,,,,,,,,2015_Jul_07_0953,60.1413233,LearningTask,1,80,
-200,q,200,,,,,,,,,,,,,,,,,0,0,0,0,4,3,19,1,,,,,,,,,,,,,,,,,,,,,,,,,,,,,q,1,0.500960826874,None,0,2.0,triangleorange.gif,stop,,,,,,,,,,,,,,,,,,,,,,,,1.98,0.513875007629,0.00096583366394,0.500960826874,1,q,353.17940402,,,,,,,,,,,,,,,,,,,,,,,,,,,,,,,,,,,,,,,,,2015_Jul_07_0953,60.1413233,LearningTask,1,80,
-200,q,200,,,,,,,,,,,,,,,,,0,0,0,0,5,0,20,1,,,,,,,,,,,,,,,,,,,,,,,,,,,,,q,1,0.451088905334,None,0,4.0,hexagonmagenta.gif,go,,,,,,,,,,,,,,,,,,,,,,,,0,0.514080047607,0.000962018966675,0.451088905334,1,q,356.182774067,,,,,,,,,,,,,,,,,,,,,,,,,,,,,,,,,,,,,,,,,2015_Jul_07_0953,60.1413233,LearningTask,1,80,
-200,a,-200,,,,,,,,,,,,,,,,,0,0,0,0,5,1,21,3,,,,,,,,,,,,,,,,,,,,,,,,,,,,,a,1,0.417594909668,None,0,4.0,hexagonmagenta.gif,go,,,,,,,,,,,,,,,,,,,,,,,,4.06,0.51444196701,0.000906944274902,0.417594909668,1,a,359.186183929,,,,,,,,,,,,,,,,,,,,,,,,,,,,,,,,,,,,,,,,,2015_Jul_07_0953,60.1413233,LearningTask,1,80,
200,w,200,,,,,,,,,,,,,,,,,0,0,0,0,5,2,22,0,,,,,,,,,,,,,,,,,,,,,,,,,,,,,w,1,0.417374134064,None,0,1.0,linecyan.gif,go,,,,,,,,,,,,,,,,,,,,,,,,0.81,0.5143699646,0.000908851623535,0.417374134064,1,w,362.18997407,,,,,,,,,,,,,,,,,,,,,,,,,,,,,,,,,,,,,,,,,2015_Jul_07_0953,60.1413233,LearningTask,1,80,
200,w,200,,,,,,,,,,,,,,,,,0,0,0,0,5,3,23,0,,,,,,,,,,,,,,,,,,,,,,,,,,,,,w,1,0.484068155289,None,0,0.5,crossgreen.gif,go,,,,,,,,,,,,,,,,,,,,,,,,0.63,0.513963937759,0.000931024551392,0.484068155289,1,w,365.192934036,,,,,,,,,,,,,,,,,,,,,,,,,,,,,,,,,,,,,,,,,2015_Jul_07_0953,60.1413233,LearningTask,1,80,
-200,a,-200,,,,,,,,,,,,,,,,,0,0,0,0,6,0,24,3,,,,,,,,,,,,,,,,,,,,,,,,,,,,,a,1,0.467887878418,None,0,2.0,invertedtrianglewhite.gif,go,,,,,,,,,,,,,,,,,,,,,,,,1.79,0.51433801651,0.000885963439941,0.467887878418,1,a,368.196161032,,,,,,,,,,,,,,,,,,,,,,,,,,,,,,,,,,,,,,,,,2015_Jul_07_0953,60.1413233,LearningTask,1,80,
200,w,200,,,,,,,,,,,,,,,,,0,0,0,0,6,1,25,0,,,,,,,,,,,,,,,,,,,,,,,,,,,,,w,1,0.368180036545,None,0,2.0,invertedtrianglewhite.gif,go,,,,,,,,,,,,,,,,,,,,,,,,0,0.514250993729,0.000894069671631,0.368180036545,1,w,371.199851036,,,,,,,,,,,,,,,,,,,,,,,,,,,,,,,,,,,,,,,,,2015_Jul_07_0953,60.1413233,LearningTask,1,80,
200,s,-200,,,,,,,,,,,,,,,,,0,0,0,0,6,2,26,2,,,,,,,,,,,,,,,,,,,,,,,,,,,,,s,1,0.350749969482,None,0,1.0,squareblue.gif,stop,,,,,,,,,,,,,,,,,,,,,,,,0.8,0.513920783997,0.000917911529541,0.350749969482,1,s,374.202998877,,,,,,,,,,,,,,,,,,,,,,,,,,,,,,,,,,,,,,,,,2015_Jul_07_0953,60.1413233,LearningTask,1,80,
-200,a,-200,,,,,,,,,,,,,,,,,0,0,0,0,6,3,27,3,,,,,,,,,,,,,,,,,,,,,,,,,,,,,a,1,0.451370000839,None,0,2.0,triangleorange.gif,stop,,,,,,,,,,,,,,,,,,,,,,,,0,0.51441693306,0.00116991996765,0.451370000839,1,a,377.20636487,,,,,,,,,,,,,,,,,,,,,,,,,,,,,,,,,,,,,,,,,2015_Jul_07_0953,60.1413233,LearningTask,1,80,
200,s,-200,,,,,,,,,,,,,,,,,0,0,0,0,7,0,28,2,,,,,,,,,,,,,,,,,,,,,,,,,,,,,s,1,0.500988006592,None,0,0.5,circlegray.gif,stop,,,,,,,,,,,,,,,,,,,,,,,,0.39,0.514590024948,0.000906944274902,0.500988006592,1,s,380.209852934,,,,,,,,,,,,,,,,,,,,,,,,,,,,,,,,,,,,,,,,,2015_Jul_07_0953,60.1413233,LearningTask,1,80,
-200,a,-200,,,,,,,,,,,,,,,,,0,0,0,0,7,1,29,3,,,,,,,,,,,,,,,,,,,,,,,,,,,,,a,1,0.434206962585,None,0,0.5,crossgreen.gif,go,,,,,,,,,,,,,,,,,,,,,,,,0.73,0.514268875122,0.000909805297852,0.434206962585,1,a,383.213062048,,,,,,,,,,,,,,,,,,,,,,,,,,,,,,,,,,,,,,,,,2015_Jul_07_0953,60.1413233,LearningTask,1,80,
200,s,-200,,,,,,,,,,,,,,,,,0,0,0,0,7,2,30,2,,,,,,,,,,,,,,,,,,,,,,,,,,,,,s,1,0.401002883911,None,0,2.0,invertedtrianglewhite.gif,go,,,,,,,,,,,,,,,,,,,,,,,,1.98,0.514407873154,0.000954866409302,0.401002883911,1,s,386.216347933,,,,,,,,,,,,,,,,,,,,,,,,,,,,,,,,,,,,,,,,,2015_Jul_07_0953,60.1413233,LearningTask,1,80,
200,w,200,,,,,,,,,,,,,,,,,0,0,0,0,7,3,31,0,,,,,,,,,,,,,,,,,,,,,,,,,,,,,w,1,0.36748290062,None,0,0.5,circlegray.gif,stop,,,,,,,,,,,,,,,,,,,,,,,,0,0.514631986618,0.000900983810425,0.36748290062,1,w,389.219974995,,,,,,,,,,,,,,,,,,,,,,,,,,,,,,,,,,,,,,,,,2015_Jul_07_0953,60.1413233,LearningTask,1,80,
-200,q,200,,,,,,,,,,,,,,,,,0,0,0,0,8,0,32,1,,,,,,,,,,,,,,,,,,,,,,,,,,,,,q,1,0.467548847198,None,0,2.0,triangleorange.gif,stop,,,,,,,,,,,,,,,,,,,,,,,,1.82,0.514181137085,0.00090503692627,0.467548847198,1,q,392.223294973,,,,,,,,,,,,,,,,,,,,,,,,,,,,,,,,,,,,,,,,,2015_Jul_07_0953,60.1413233,LearningTask,1,80,
-200,q,200,,,,,,,,,,,,,,,,,0,0,0,0,8,1,33,1,,,,,,,,,,,,,,,,,,,,,,,,,,,,,q,1,0.434079170227,None,0,2.0,invertedtrianglewhite.gif,go,,,,,,,,,,,,,,,,,,,,,,,,0,0.514361858368,0.000944852828979,0.434079170227,1,q,395.226522923,,,,,,,,,,,,,,,,,,,,,,,,,,,,,,,,,,,,,,,,,2015_Jul_07_0953,60.1413233,LearningTask,1,80,
-200,a,-200,,,,,,,,,,,,,,,,,0,0,0,0,8,2,34,3,,,,,,,,,,,,,,,,,,,,,,,,,,,,,a,1,0.468219995499,None,0,1.0,linecyan.gif,go,,,,,,,,,,,,,,,,,,,,,,,,1.04,0.514189004898,0.000892877578735,0.468219995499,1,a,398.229980946,,,,,,,,,,,,,,,,,,,,,,,,,,,,,,,,,,,,,,,,,2015_Jul_07_0953,60.1413233,LearningTask,1,80,
-200,a,-200,,,,,,,,,,,,,,,,,0,0,0,0,8,3,35,3,,,,,,,,,,,,,,,,,,,,,,,,,,,,,a,1,0.451216936111,None,0,0.5,circlegray.gif,stop,,,,,,,,,,,,,,,,,,,,,,,,0.57,0.514446973801,0.000913858413696,0.451216936111,1,a,401.233250856,,,,,,,,,,,,,,,,,,,,,,,,,,,,,,,,,,,,,,,,,2015_Jul_07_0953,60.1413233,LearningTask,1,80,
200,w,200,,,,,,,,,,,,,,,,,0,0,0,0,9,0,36,0,,,,,,,,,,,,,,,,,,,,,,,,,,,,,w,1,0.401527881622,None,0,2.0,triangleorange.gif,stop,,,,,,,,,,,,,,,,,,,,,,,,1.92,0.514111995697,0.000947952270508,0.401527881622,1,w,404.236685991,,,,,,,,,,,,,,,,,,,,,,,,,,,,,,,,,,,,,,,,,2015_Jul_07_0953,60.1413233,LearningTask,1,80,
-200,a,-200,,,,,,,,,,,,,,,,,0,0,0,0,9,1,37,3,,,,,,,,,,,,,,,,,,,,,,,,,,,,,a,1,0.50062084198,None,0,0.5,crossgreen.gif,go,,,,,,,,,,,,,,,,,,,,,,,,0,0.514759063721,0.000958919525146,0.50062084198,1,a,407.240164995,,,,,,,,,,,,,,,,,,,,,,,,,,,,,,,,,,,,,,,,,2015_Jul_07_0953,60.1413233,LearningTask,1,80,
200,s,-200,,,,,,,,,,,,,,,,,0,0,0,0,9,2,38,2,,,,,,,,,,,,,,,,,,,,,,,,,,,,,s,1,0.667991161346,None,0,2.0,triangleorange.gif,stop,,,,,,,,,,,,,,,,,,,,,,,,0,0.514355897903,0.000900983810425,0.667991161346,1,s,410.243762016,,,,,,,,,,,,,,,,,,,,,,,,,,,,,,,,,,,,,,,,,2015_Jul_07_0953,60.1413233,LearningTask,1,80,
200,s,-200,,,,,,,,,,,,,,,,,0,0,0,0,9,3,39,2,,,,,,,,,,,,,,,,,,,,,,,,,,,,,s,1,0.500699996948,None,0,4.0,hexagonmagenta.gif,go,,,,,,,,,,,,,,,,,,,,,,,,3.97,0.513854026794,0.000954866409302,0.500699996948,1,s,413.246841908,,,,,,,,,,,,,,,,,,,,,,,,,,,,,,,,,,,,,,,,,2015_Jul_07_0953,60.1413233,LearningTask,1,80,
200,s,-200,,,,,,,,,,,,,,,,,0,0,0,0,10,0,40,2,,,,,,,,,,,,,,,,,,,,,,,,,,,,,s,1,0.417734146118,None,0,0.5,crossgreen.gif,go,,,,,,,,,,,,,,,,,,,,,,,,0.53,0.514330863953,0.000917911529541,0.417734146118,1,s,416.250087976,,,,,,,,,,,,,,,,,,,,,,,,,,,,,,,,,,,,,,,,,2015_Jul_07_0953,60.1413233,LearningTask,1,80,
200,w,200,,,,,,,,,,,,,,,,,0,0,0,0,10,1,41,0,,,,,,,,,,,,,,,,,,,,,,,,,,,,,w,1,0.400818824768,None,0,1.0,squareblue.gif,stop,,,,,,,,,,,,,,,,,,,,,,,,0.9,0.514413833618,0.000908851623535,0.400818824768,1,w,419.253970861,,,,,,,,,,,,,,,,,,,,,,,,,,,,,,,,,,,,,,,,,2015_Jul_07_0953,60.1413233,LearningTask,1,80,
-200,q,200,,,,,,,,,,,,,,,,,0,0,0,0,10,2,42,1,,,,,,,,,,,,,,,,,,,,,,,,,,,,,q,1,0.384118080139,None,0,2.0,triangleorange.gif,stop,,,,,,,,,,,,,,,,,,,,,,,,0,0.513953924179,0.000916004180908,0.384118080139,1,q,422.257009983,,,,,,,,,,,,,,,,,,,,,,,,,,,,,,,,,,,,,,,,,2015_Jul_07_0953,60.1413233,LearningTask,1,80,
200,s,-200,,,,,,,,,,,,,,,,,0,0,0,0,10,3,43,2,,,,,,,,,,,,,,,,,,,,,,,,,,,,,s,1,0.350358009338,None,0,0.5,circlegray.gif,stop,,,,,,,,,,,,,,,,,,,,,,,,0.57,0.514549970627,0.000911951065063,0.350358009338,1,s,425.260411978,,,,,,,,,,,,,,,,,,,,,,,,,,,,,,,,,,,,,,,,,2015_Jul_07_0953,60.1413233,LearningTask,1,80,
-200,a,-200,,,,,,,,,,,,,,,,,0,0,0,0,11,0,44,3,,,,,,,,,,,,,,,,,,,,,,,,,,,,,a,1,0.417286157608,None,0,1.0,squareblue.gif,stop,,,,,,,,,,,,,,,,,,,,,,,,1.07,0.514438867569,0.000902891159058,0.417286157608,1,a,428.263779879,,,,,,,,,,,,,,,,,,,,,,,,,,,,,,,,,,,,,,,,,2015_Jul_07_0953,60.1413233,LearningTask,1,80,
-200,q,200,,,,,,,,,,,,,,,,,0,0,0,0,11,1,45,1,,,,,,,,,,,,,,,,,,,,,,,,,,,,,q,1,0.384170055389,None,0,4.0,hexagonmagenta.gif,go,,,,,,,,,,,,,,,,,,,,,,,,3.89,0.514307022095,0.000931978225708,0.384170055389,1,q,431.267328978,,,,,,,,,,,,,,,,,,,,,,,,,,,,,,,,,,,,,,,,,2015_Jul_07_0953,60.1413233,LearningTask,1,80,
-200,q,200,,,,,,,,,,,,,,,,,0,0,0,0,11,2,46,1,,,,,,,,,,,,,,,,,,,,,,,,,,,,,q,1,0.3841381073,None,0,0.5,crossgreen.gif,go,,,,,,,,,,,,,,,,,,,,,,,,0.59,0.514071941376,0.0010359287262,0.3841381073,1,q,434.27078104,,,,,,,,,,,,,,,,,,,,,,,,,,,,,,,,,,,,,,,,,2015_Jul_07_0953,60.1413233,LearningTask,1,80,
200,w,200,,,,,,,,,,,,,,,,,0,0,0,0,11,3,47,0,,,,,,,,,,,,,,,,,,,,,,,,,,,,,w,1,0.350491046906,None,0,1.0,linecyan.gif,go,,,,,,,,,,,,,,,,,,,,,,,,0,0.514237880707,0.000905990600586,0.350491046906,1,w,437.274092913,,,,,,,,,,,,,,,,,,,,,,,,,,,,,,,,,,,,,,,,,2015_Jul_07_0953,60.1413233,LearningTask,1,80,
200,w,200,,,,,,,,,,,,,,,,,0,0,0,0,12,0,48,0,,,,,,,,,,,,,,,,,,,,,,,,,,,,,w,1,0.367191076279,None,0,2.0,triangleorange.gif,stop,,,,,,,,,,,,,,,,,,,,,,,,0,0.514317989349,0.000905990600586,0.367191076279,1,w,440.277255058,,,,,,,,,,,,,,,,,,,,,,,,,,,,,,,,,,,,,,,,,2015_Jul_07_0953,60.1413233,LearningTask,1,80,
-200,q,200,,,,,,,,,,,,,,,,,0,0,0,0,12,1,49,1,,,,,,,,,,,,,,,,,,,,,,,,,,,,,q,1,0.484853982925,None,0,0.5,circlegray.gif,stop,,,,,,,,,,,,,,,,,,,,,,,,0.57,0.514235019684,0.000945091247559,0.484853982925,1,q,443.280513048,,,,,,,,,,,,,,,,,,,,,,,,,,,,,,,,,,,,,,,,,2015_Jul_07_0953,60.1413233,LearningTask,1,80,
-200,q,200,,,,,,,,,,,,,,,,,0,0,0,0,12,2,50,1,,,,,,,,,,,,,,,,,,,,,,,,,,,,,q,1,0.467285871506,None,0,0.5,circlegray.gif,stop,,,,,,,,,,,,,,,,,,,,,,,,0.42,0.514465093613,0.000984907150269,0.467285871506,1,q,446.28401494,,,,,,,,,,,,,,,,,,,,,,,,,,,,,,,,,,,,,,,,,2015_Jul_07_0953,60.1413233,LearningTask,1,80,
-200,q,200,,,,,,,,,,,,,,,,,0,0,0,0,12,3,51,1,,,,,,,,,,,,,,,,,,,,,,,,,,,,,q,1,0.350954771042,None,0,4.0,diamondyellow.gif,stop,,,,,,,,,,,,,,,,,,,,,,,,4.23,0.514308929443,0.000911951065063,0.350954771042,1,q,449.287576914,,,,,,,,,,,,,,,,,,,,,,,,,,,,,,,,,,,,,,,,,2015_Jul_07_0953,60.1413233,LearningTask,1,80,
200,w,200,,,,,,,,,,,,,,,,,0,0,0,0,13,0,52,0,,,,,,,,,,,,,,,,,,,,,,,,,,,,,w,1,0.317988872528,None,0,4.0,diamondyellow.gif,stop,,,,,,,,,,,,,,,,,,,,,,,,4.04,0.513654947281,0.000947952270508,0.317988872528,1,w,452.290791035,,,,,,,,,,,,,,,,,,,,,,,,,,,,,,,,,,,,,,,,,2015_Jul_07_0953,60.1413233,LearningTask,1,80,
-200,q,200,,,,,,,,,,,,,,,,,0,0,0,0,13,1,53,1,,,,,,,,,,,,,,,,,,,,,,,,,,,,,q,1,0.367942094803,None,0,1.0,linecyan.gif,go,,,,,,,,,,,,,,,,,,,,,,,,0.86,0.514398813248,0.000900983810425,0.367942094803,1,q,455.294211864,,,,,,,,,,,,,,,,,,,,,,,,,,,,,,,,,,,,,,,,,2015_Jul_07_0953,60.1413233,LearningTask,1,80,
-200,q,200,,,,,,,,,,,,,,,,,0,0,0,0,13,2,54,1,,,,,,,,,,,,,,,,,,,,,,,,,,,,,q,1,0.334185838699,None,0,2.0,invertedtrianglewhite.gif,go,,,,,,,,,,,,,,,,,,,,,,,,2.08,0.514269828796,0.000960826873779,0.334185838699,1,q,458.297507048,,,,,,,,,,,,,,,,,,,,,,,,,,,,,,,,,,,,,,,,,2015_Jul_07_0953,60.1413233,LearningTask,1,80,
-200,a,-200,,,,,,,,,,,,,,,,,0,0,0,0,13,3,55,3,,,,,,,,,,,,,,,,,,,,,,,,,,,,,a,1,0.417283058167,None,0,2.0,triangleorange.gif,stop,,,,,,,,,,,,,,,,,,,,,,,,0,0.514037847519,0.000905990600586,0.367870092392,0,q,461.301120043,0.142894983292,0,0.51567196846,0.00096607208252,0.417283058167,1,a,464.304308891,,,,,,,,,,,,,,,,,,,,,,,,,,,,,,,,,2015_Jul_07_0953,60.1413233,LearningTask,1,80,
200,w,200,,,,,,,,,,,,,,,,,0,0,0,0,14,0,56,0,,,,,,,,,,,,,,,,,,,,,,,,,,,,,w,1,0.334125995636,None,0,0.5,circlegray.gif,stop,,,,,,,,,,,,,,,,,,,,,,,,0,0.513845920563,0.000931978225708,0.334125995636,1,w,467.308146,,,,,,,,,,,,,,,,,,,,,,,,,,,,,,,,,,,,,,,,,2015_Jul_07_0953,60.1413233,LearningTask,1,80,
200,w,200,,,,,,,,,,,,,,,,,0,0,0,0,14,1,57,0,,,,,,,,,,,,,,,,,,,,,,,,,,,,,w,1,0.400549888611,None,0,1.0,linecyan.gif,go,,,,,,,,,,,,,,,,,,,,,,,,0,0.513951063156,0.000920057296753,0.400549888611,1,w,470.311001062,,,,,,,,,,,,,,,,,,,,,,,,,,,,,,,,,,,,,,,,,2015_Jul_07_0953,60.1413233,LearningTask,1,80,
-200,a,-200,,,,,,,,,,,,,,,,,0,0,0,0,14,2,58,3,,,,,,,,,,,,,,,,,,,,,,,,,,,,,a,1,0.401502132416,None,0,2.0,triangleorange.gif,stop,,,,,,,,,,,,,,,,,,,,,,,,1.75,0.514568090439,0.00088906288147,0.401502132416,1,a,473.314270973,,,,,,,,,,,,,,,,,,,,,,,,,,,,,,,,,,,,,,,,,2015_Jul_07_0953,60.1413233,LearningTask,1,80,
-200,q,200,,,,,,,,,,,,,,,,,0,0,0,0,14,3,59,1,,,,,,,,,,,,,,,,,,,,,,,,,,,,,q,1,0.384121894836,None,0,0.5,crossgreen.gif,go,,,,,,,,,,,,,,,,,,,,,,,,0,0.514228105545,0.000921010971069,0.384121894836,1,q,476.317759991,,,,,,,,,,,,,,,,,,,,,,,,,,,,,,,,,,,,,,,,,2015_Jul_07_0953,60.1413233,LearningTask,1,80,
-200,a,-200,,,,,,,,,,,,,,,,,0,0,0,0,15,0,60,3,,,,,,,,,,,,,,,,,,,,,,,,,,,,,a,1,0.401578187943,None,0,1.0,linecyan.gif,go,,,,,,,,,,,,,,,,,,,,,,,,1.21,0.514267921448,0.000898122787476,0.401578187943,1,a,479.321155071,,,,,,,,,,,,,,,,,,,,,,,,,,,,,,,,,,,,,,,,,2015_Jul_07_0953,60.1413233,LearningTask,1,80,
-200,a,-200,,,,,,,,,,,,,,,,,0,0,0,0,15,1,61,3,,,,,,,,,,,,,,,,,,,,,,,,,,,,,a,1,0.383975028992,None,0,1.0,linecyan.gif,go,,,,,,,,,,,,,,,,,,,,,,,,1.21,0.514525175095,0.00136804580688,0.383975028992,1,a,482.324583054,,,,,,,,,,,,,,,,,,,,,,,,,,,,,,,,,,,,,,,,,2015_Jul_07_0953,60.1413233,LearningTask,1,80,
-200,q,200,,,,,,,,,,,,,,,,,0,0,0,0,15,2,62,1,,,,,,,,,,,,,,,,,,,,,,,,,,,,,q,1,0.417813062668,None,0,4.0,diamondyellow.gif,stop,,,,,,,,,,,,,,,,,,,,,,,,0,0.514364957809,0.000900030136108,0.417813062668,1,q,485.327836037,,,,,,,,,,,,,,,,,,,,,,,,,,,,,,,,,,,,,,,,,2015_Jul_07_0953,60.1413233,LearningTask,1,80,
200,s,-200,,,,,,,,,,,,,,,,,0,0,0,0,15,3,63,2,,,,,,,,,,,,,,,,,,,,,,,,,,,,,s,1,0.351250886917,None,0,2.0,invertedtrianglewhite.gif,go,,,,,,,,,,,,,,,,,,,,,,,,1.83,0.514289140701,0.00105500221252,0.351250886917,1,s,488.33129406,,,,,,,,,,,,,,,,,,,,,,,,,,,,,,,,,,,,,,,,,2015_Jul_07_0953,60.1413233,LearningTask,1,80,
-200,q,200,,,,,,,,,,,,,,,,,0,0,0,0,16,0,64,1,,,,,,,,,,,,,,,,,,,,,,,,,,,,,q,1,0.351152896881,None,0,0.5,crossgreen.gif,go,,,,,,,,,,,,,,,,,,,,,,,,0.61,0.513909816742,0.000967979431152,0.351152896881,1,q,491.334542036,,,,,,,,,,,,,,,,,,,,,,,,,,,,,,,,,,,,,,,,,2015_Jul_07_0953,60.1413233,LearningTask,1,80,
-200,a,-200,,,,,,,,,,,,,,,,,0,0,0,0,16,1,65,3,,,,,,,,,,,,,,,,,,,,,,,,,,,,,a,1,0.384853124619,None,0,1.0,squareblue.gif,stop,,,,,,,,,,,,,,,,,,,,,,,,1.24,0.514155864716,0.000887870788574,0.384853124619,1,a,494.338052988,,,,,,,,,,,,,,,,,,,,,,,,,,,,,,,,,,,,,,,,,2015_Jul_07_0953,60.1413233,LearningTask,1,80,
-200,a,-200,,,,,,,,,,,,,,,,,0,0,0,0,16,2,66,3,,,,,,,,,,,,,,,,,,,,,,,,,,,,,a,1,0.417119979858,None,0,2.0,invertedtrianglewhite.gif,go,,,,,,,,,,,,,,,,,,,,,,,,1.86,0.514661073685,0.000904083251953,0.417119979858,1,a,497.341431856,,,,,,,,,,,,,,,,,,,,,,,,,,,,,,,,,,,,,,,,,2015_Jul_07_0953,60.1413233,LearningTask,1,80,
200,s,-200,,,,,,,,,,,,,,,,,0,0,0,0,16,3,67,2,,,,,,,,,,,,,,,,,,,,,,,,,,,,,s,1,0.383766174316,None,0,1.0,squareblue.gif,stop,,,,,,,,,,,,,,,,,,,,,,,,1.09,0.514266014099,0.000936985015869,0.383766174316,1,s,500.344734907,,,,,,,,,,,,,,,,,,,,,,,,,,,,,,,,,,,,,,,,,2015_Jul_07_0953,60.1413233,LearningTask,1,80,
200,w,200,,,,,,,,,,,,,,,,,0,0,0,0,17,0,68,0,,,,,,,,,,,,,,,,,,,,,,,,,,,,,w,1,0.350689172745,None,0,2.0,triangleorange.gif,stop,,,,,,,,,,,,,,,,,,,,,,,,1.92,0.514707803726,0.000939846038818,0.350689172745,1,w,503.348093987,,,,,,,,,,,,,,,,,,,,,,,,,,,,,,,,,,,,,,,,,2015_Jul_07_0953,60.1413233,LearningTask,1,80,
200,w,200,,,,,,,,,,,,,,,,,0,0,0,0,17,1,69,0,,,,,,,,,,,,,,,,,,,,,,,,,,,,,w,1,0.384152889252,None,0,2.0,invertedtrianglewhite.gif,go,,,,,,,,,,,,,,,,,,,,,,,,1.76,0.514352798462,0.00090479850769,0.384152889252,1,w,506.351840973,,,,,,,,,,,,,,,,,,,,,,,,,,,,,,,,,,,,,,,,,2015_Jul_07_0953,60.1413233,LearningTask,1,80,
-200,q,200,,,,,,,,,,,,,,,,,0,0,0,0,17,2,70,1,,,,,,,,,,,,,,,,,,,,,,,,,,,,,q,1,0.401082992554,None,0,4.0,hexagonmagenta.gif,go,,,,,,,,,,,,,,,,,,,,,,,,0,0.514043092728,0.000926971435547,0.333834171295,0,a,509.355782986,0.645111083984,4.25,0.514825820923,0.000990867614746,0.401082992554,1,q,512.358320951,,,,,,,,,,,,,,,,,,,,,,,,,,,,,,,,,2015_Jul_07_0953,60.1413233,LearningTask,1,80,
200,s,-200,,,,,,,,,,,,,,,,,0,0,0,0,17,3,71,2,,,,,,,,,,,,,,,,,,,,,,,,,,,,,s,1,0.400592088699,None,0,1.0,linecyan.gif,go,,,,,,,,,,,,,,,,,,,,,,,,1.02,0.514504909515,0.000894784927368,0.400592088699,1,s,515.361710072,,,,,,,,,,,,,,,,,,,,,,,,,,,,,,,,,,,,,,,,,2015_Jul_07_0953,60.1413233,LearningTask,1,80,
-200,a,-200,,,,,,,,,,,,,,,,,0,0,0,0,18,0,72,3,,,,,,,,,,,,,,,,,,,,,,,,,,,,,a,1,0.400942802429,None,0,4.0,hexagonmagenta.gif,go,,,,,,,,,,,,,,,,,,,,,,,,0,0.514158964157,0.00103712081909,0.384099006653,0,q,518.364946842,0.529432058334,3.79,0.515606880188,0.000971078872681,0.400942802429,1,a,521.368932009,,,,,,,,,,,,,,,,,,,,,,,,,,,,,,,,,2015_Jul_07_0953,60.1413233,LearningTask,1,80,
200,w,200,,,,,,,,,,,,,,,,,0,0,0,0,18,1,73,0,,,,,,,,,,,,,,,,,,,,,,,,,,,,,w,1,0.333873987198,None,0,2.0,triangleorange.gif,stop,,,,,,,,,,,,,,,,,,,,,,,,2.18,0.514085054398,0.000899076461792,0.333873987198,1,w,524.371780872,,,,,,,,,,,,,,,,,,,,,,,,,,,,,,,,,,,,,,,,,2015_Jul_07_0953,60.1413233,LearningTask,1,80,
-200,a,-200,,,,,,,,,,,,,,,,,0,0,0,0,18,2,74,3,,,,,,,,,,,,,,,,,,,,,,,,,,,,,a,1,0.350494146347,None,0,0.5,crossgreen.gif,go,,,,,,,,,,,,,,,,,,,,,,,,0.56,0.514405012131,0.000903129577637,0.350494146347,1,a,527.375071049,,,,,,,,,,,,,,,,,,,,,,,,,,,,,,,,,,,,,,,,,2015_Jul_07_0953,60.1413233,LearningTask,1,80,
200,w,200,,,,,,,,,,,,,,,,,0,0,0,0,18,3,75,0,,,,,,,,,,,,,,,,,,,,,,,,,,,,,w,1,0.351133108139,None,0,1.0,squareblue.gif,stop,,,,,,,,,,,,,,,,,,,,,,,,0.95,0.513990879059,0.00097393989563,0.351133108139,1,w,530.378473997,,,,,,,,,,,,,,,,,,,,,,,,,,,,,,,,,,,,,,,,,2015_Jul_07_0953,60.1413233,LearningTask,1,80,
200,s,-200,,,,,,,,,,,,,,,,,0,0,0,0,19,0,76,2,,,,,,,,,,,,,,,,,,,,,,,,,,,,,s,1,0.300790071487,None,0,4.0,hexagonmagenta.gif,go,,,,,,,,,,,,,,,,,,,,,,,,3.81,0.514274120331,0.000904083251953,0.300790071487,1,s,533.381912947,,,,,,,,,,,,,,,,,,,,,,,,,,,,,,,,,,,,,,,,,2015_Jul_07_0953,60.1413233,LearningTask,1,80,
200,s,-200,,,,,,,,,,,,,,,,,0,0,0,0,19,1,77,2,,,,,,,,,,,,,,,,,,,,,,,,,,,,,s,1,0.384004831314,None,0,0.5,circlegray.gif,stop,,,,,,,,,,,,,,,,,,,,,,,,0,0.514266014099,0.000916004180908,0.384525060654,0,w,536.385484934,,0,0.515069007874,0.0010449886322,0.384004831314,1,s,539.388550043,,,,,,,,,,,,,,,,,,,,,,,,,,,,,,,,,2015_Jul_07_0953,60.1413233,LearningTask,1,80,
200,s,-200,,,,,,,,,,,,,,,,,0,0,0,0,19,2,78,2,,,,,,,,,,,,,,,,,,,,,,,,,,,,,s,1,0.350378036499,None,0,1.0,squareblue.gif,stop,,,,,,,,,,,,,,,,,,,,,,,,0.97,0.514814853668,0.000900983810425,0.350378036499,1,s,542.392086983,,,,,,,,,,,,,,,,,,,,,,,,,,,,,,,,,,,,,,,,,2015_Jul_07_0953,60.1413233,LearningTask,1,80,
200,w,200,,,,,,,,,,,,,,,,,0,0,0,0,19,3,79,0,,,,,,,,,,,,,,,,,,,,,,,,,,,,,w,1,0.384037017822,None,0,4.0,hexagonmagenta.gif,go,,,,,,,,,,,,,,,,,,,,,,,,4.14,0.514341115952,0.000905990600586,0.384037017822,1,w,545.395730019,,,,,,,,,,,,,,,,,,,,,,,,,,,,,,,,,,,,,,,,,2015_Jul_07_0953,60.1413233,LearningTask,1,80,
200,s,-200,,,,,,,,,,,,,,,,,0,0,0,0,20,0,80,2,,,,,,,,,,,,,,,,,,,,,,,,,,,,,s,1,0.383848190308,None,0,1.0,squareblue.gif,stop,,,,,,,,,,,,,,,,,,,,,,,,0.94,0.514060020447,0.000914096832275,0.383848190308,1,s,548.398887873,,,,,,,,,,,,,,,,,,,,,,,,,,,,,,,,,,,,,,,,,2015_Jul_07_0953,60.1413233,LearningTask,1,80,
-200,a,-200,,,,,,,,,,,,,,,,,0,0,0,0,20,1,81,3,,,,,,,,,,,,,,,,,,,,,,,,,,,,,a,1,0.367923974991,None,0,4.0,diamondyellow.gif,stop,,,,,,,,,,,,,,,,,,,,,,,,0,0.514036893845,0.00120282173157,0.367923974991,1,a,551.402698994,,,,,,,,,,,,,,,,,,,,,,,,,,,,,,,,,,,,,,,,,2015_Jul_07_0953,60.1413233,LearningTask,1,80,
200,s,-200,,,,,,,,,,,,,,,,,0,0,0,0,20,2,82,2,,,,,,,,,,,,,,,,,,,,,,,,,,,,,s,1,0.434317111969,None,0,2.0,invertedtrianglewhite.gif,go,,,,,,,,,,,,,,,,,,,,,,,,1.87,0.513355016708,0.00134706497192,0.434317111969,1,s,554.405838966,,,,,,,,,,,,,,,,,,,,,,,,,,,,,,,,,,,,,,,,,2015_Jul_07_0953,60.1413233,LearningTask,1,80,
200,s,-200,,,,,,,,,,,,,,,,,0,0,0,0,20,3,83,2,,,,,,,,,,,,,,,,,,,,,,,,,,,,,s,1,0.434615850449,None,0,0.5,crossgreen.gif,go,,,,,,,,,,,,,,,,,,,,,,,,0.38,0.513731002808,0.000923156738281,0.434615850449,1,s,557.408912897,,,,,,,,,,,,,,,,,,,,,,,,,,,,,,,,,,,,,,,,,2015_Jul_07_0953,60.1413233,LearningTask,1,80,
-200,q,200,,,,,,,,,,,,,,,,,0,0,0,0,21,0,84,1,,,,,,,,,,,,,,,,,,,,,,,,,,,,,q,1,0.417546987534,None,0,2.0,invertedtrianglewhite.gif,go,,,,,,,,,,,,,,,,,,,,,,,,1.81,0.514511108398,0.000898122787476,0.417546987534,1,q,560.412333012,,,,,,,,,,,,,,,,,,,,,,,,,,,,,,,,,,,,,,,,,2015_Jul_07_0953,60.1413233,LearningTask,1,80,
200,s,-200,,,,,,,,,,,,,,,,,0,0,0,0,21,1,85,2,,,,,,,,,,,,,,,,,,,,,,,,,,,,,s,1,0.367479085922,None,0,1.0,linecyan.gif,go,,,,,,,,,,,,,,,,,,,,,,,,0,0.514245033264,0.000948905944824,0.38417506218,0,w,563.415812969,,1.09,0.515329837799,0.000979900360107,0.367479085922,1,s,566.418998957,,,,,,,,,,,,,,,,,,,,,,,,,,,,,,,,,2015_Jul_07_0953,60.1413233,LearningTask,1,80,
200,s,-200,,,,,,,,,,,,,,,,,0,0,0,0,21,2,86,2,,,,,,,,,,,,,,,,,,,,,,,,,,,,,s,1,0.367238044739,None,0,1.0,squareblue.gif,stop,,,,,,,,,,,,,,,,,,,,,,,,1.25,0.514199018478,0.00106811523438,0.367238044739,1,s,569.422510862,,,,,,,,,,,,,,,,,,,,,,,,,,,,,,,,,,,,,,,,,2015_Jul_07_0953,60.1413233,LearningTask,1,80,
200,w,200,,,,,,,,,,,,,,,,,0,0,0,0,21,3,87,0,,,,,,,,,,,,,,,,,,,,,,,,,,,,,w,1,0.383917093277,None,0,1.0,linecyan.gif,go,,,,,,,,,,,,,,,,,,,,,,,,0.98,0.514150857925,0.000913858413696,0.383917093277,1,w,572.425719023,,,,,,,,,,,,,,,,,,,,,,,,,,,,,,,,,,,,,,,,,2015_Jul_07_0953,60.1413233,LearningTask,1,80,
200,w,200,,,,,,,,,,,,,,,,,0,0,0,0,22,0,88,0,,,,,,,,,,,,,,,,,,,,,,,,,,,,,w,1,0.400728940964,None,0,0.5,crossgreen.gif,go,,,,,,,,,,,,,,,,,,,,,,,,0,0.514450073242,0.000900030136108,0.400728940964,1,w,575.429051876,,,,,,,,,,,,,,,,,,,,,,,,,,,,,,,,,,,,,,,,,2015_Jul_07_0953,60.1413233,LearningTask,1,80,
200,w,200,,,,,,,,,,,,,,,,,0,0,0,0,22,1,89,0,,,,,,,,,,,,,,,,,,,,,,,,,,,,,w,1,0.450845956802,None,0,4.0,diamondyellow.gif,stop,,,,,,,,,,,,,,,,,,,,,,,,3.89,0.514233112335,0.000954151153564,0.450845956802,1,w,578.432422876,,,,,,,,,,,,,,,,,,,,,,,,,,,,,,,,,,,,,,,,,2015_Jul_07_0953,60.1413233,LearningTask,1,80,
-200,q,200,,,,,,,,,,,,,,,,,0,0,0,0,22,2,90,1,,,,,,,,,,,,,,,,,,,,,,,,,,,,,q,1,0.434154033661,None,0,2.0,triangleorange.gif,stop,,,,,,,,,,,,,,,,,,,,,,,,0,0.514412164688,0.000905990600586,0.434154033661,1,q,581.435865879,,,,,,,,,,,,,,,,,,,,,,,,,,,,,,,,,,,,,,,,,2015_Jul_07_0953,60.1413233,LearningTask,1,80,
200,w,200,,,,,,,,,,,,,,,,,0,0,0,0,22,3,91,0,,,,,,,,,,,,,,,,,,,,,,,,,,,,,w,1,0.401224136353,None,0,4.0,diamondyellow.gif,stop,,,,,,,,,,,,,,,,,,,,,,,,4.22,0.514289855957,0.000907897949219,0.401224136353,1,w,584.439606905,,,,,,,,,,,,,,,,,,,,,,,,,,,,,,,,,,,,,,,,,2015_Jul_07_0953,60.1413233,LearningTask,1,80,
-200,q,200,,,,,,,,,,,,,,,,,0,0,0,0,23,0,92,1,,,,,,,,,,,,,,,,,,,,,,,,,,,,,q,1,0.333736896515,None,0,4.0,diamondyellow.gif,stop,,,,,,,,,,,,,,,,,,,,,,,,4.03,0.514079093933,0.000926971435547,0.333736896515,1,q,587.442529917,,,,,,,,,,,,,,,,,,,,,,,,,,,,,,,,,,,,,,,,,2015_Jul_07_0953,60.1413233,LearningTask,1,80,
-200,a,-200,,,,,,,,,,,,,,,,,0,0,0,0,23,1,93,3,,,,,,,,,,,,,,,,,,,,,,,,,,,,,a,1,0.400814056396,None,0,0.5,circlegray.gif,stop,,,,,,,,,,,,,,,,,,,,,,,,0,0.514574050903,0.00111198425293,0.400814056396,1,a,590.445920944,,,,,,,,,,,,,,,,,,,,,,,,,,,,,,,,,,,,,,,,,2015_Jul_07_0953,60.1413233,LearningTask,1,80,
200,s,-200,,,,,,,,,,,,,,,,,0,0,0,0,23,2,94,2,,,,,,,,,,,,,,,,,,,,,,,,,,,,,s,1,0.483762979507,None,0,4.0,hexagonmagenta.gif,go,,,,,,,,,,,,,,,,,,,,,,,,4.19,0.514405965805,0.000916004180908,0.483762979507,1,s,593.449670076,,,,,,,,,,,,,,,,,,,,,,,,,,,,,,,,,,,,,,,,,2015_Jul_07_0953,60.1413233,LearningTask,1,80,
200,s,-200,,,,,,,,,,,,,,,,,0,0,0,0,23,3,95,2,,,,,,,,,,,,,,,,,,,,,,,,,,,,,s,1,0.400937080383,None,0,1.0,linecyan.gif,go,,,,,,,,,,,,,,,,,,,,,,,,1.1,0.513999938965,0.000914096832275,0.400937080383,1,s,596.452745914,,,,,,,,,,,,,,,,,,,,,,,,,,,,,,,,,,,,,,,,,2015_Jul_07_0953,60.1413233,LearningTask,1,80,
200,s,-200,,,,,,,,,,,,,,,,,0,0,0,0,24,0,96,2,,,,,,,,,,,,,,,,,,,,,,,,,,,,,s,1,0.383901834488,None,0,4.0,hexagonmagenta.gif,go,,,,,,,,,,,,,,,,,,,,,,,,4.07,0.514189958572,0.000906944274902,0.383901834488,1,s,599.456156969,,,,,,,,,,,,,,,,,,,,,,,,,,,,,,,,,,,,,,,,,2015_Jul_07_0953,60.1413233,LearningTask,1,80,
200,w,200,,,,,,,,,,,,,,,,,0,0,0,0,24,1,97,0,,,,,,,,,,,,,,,,,,,,,,,,,,,,,w,1,0.35037612915,None,0,2.0,triangleorange.gif,stop,,,,,,,,,,,,,,,,,,,,,,,,2.22,0.514592885971,0.000943899154663,0.35037612915,1,w,602.45955801,,,,,,,,,,,,,,,,,,,,,,,,,,,,,,,,,,,,,,,,,2015_Jul_07_0953,60.1413233,LearningTask,1,80,
-200,a,-200,,,,,,,,,,,,,,,,,0,0,0,0,24,2,98,3,,,,,,,,,,,,,,,,,,,,,,,,,,,,,a,1,0.350676059723,None,0,1.0,linecyan.gif,go,,,,,,,,,,,,,,,,,,,,,,,,0,0.514046192169,0.00108599662781,0.350676059723,1,a,605.462852001,,,,,,,,,,,,,,,,,,,,,,,,,,,,,,,,,,,,,,,,,2015_Jul_07_0953,60.1413233,LearningTask,1,80,
-200,q,200,,,,,,,,,,,,,,,,,0,0,0,0,24,3,99,1,,,,,,,,,,,,,,,,,,,,,,,,,,,,,q,1,0.450690031052,None,0,1.0,linecyan.gif,go,,,,,,,,,,,,,,,,,,,,,,,,0,0.514633178711,0.000951051712036,0.450690031052,1,q,608.466019869,,,,,,,,,,,,,,,,,,,,,,,,,,,,,,,,,,,,,,,,,2015_Jul_07_0953,60.1413233,LearningTask,1,80,
,,,,,,,,,,,,,,,,,,,0,0,0,0,,,,,,,,,,,,,,,,,,,,,,,,,,,,,,,,,,,,,,,,,,,,,,,,,,,,,,,,,,,,,,,,,,,,,,,,,,,,,,,9,11.3482189178,,,,,,,,,,,,,,,,,,,,,,,,,,,,,,,2015_Jul_07_0953,60.1413233,LearningTask,1,80,
-200,a,-200,,,,,,,,,,,,,,,,,1,0,1,0,0,0,0,3,,,,,,,,,,,,,,,,,,,,,,,,,,,,,a,1,0.567862987518,None,0,1.0,squareblue.gif,stop,,,,,,,,,,,,,,,,,,,,,,,,1.0,0.50958609581,0.000888109207153,0.567862987518,1,a,623.250016928,,,,,,,,,,,,,,,,,,,,,,,,,,,,,,,,,,,,,,,,,2015_Jul_07_0953,60.1413233,LearningTask,1,80,
200,s,-200,,,,,,,,,,,,,,,,,1,0,1,0,0,1,1,2,,,,,,,,,,,,,,,,,,,,,,,,,,,,,s,1,0.351109981537,None,0,1.0,squareblue.gif,stop,,,,,,,,,,,,,,,,,,,,,,,,1.0,0.513593912125,0.000976085662842,0.351109981537,1,s,626.252820969,,,,,,,,,,,,,,,,,,,,,,,,,,,,,,,,,,,,,,,,,2015_Jul_07_0953,60.1413233,LearningTask,1,80,
-200,q,200,,,,,,,,,,,,,,,,,1,0,1,0,0,2,2,1,,,,,,,,,,,,,,,,,,,,,,,,,,,,,q,1,0.350569009781,None,0,2.0,triangleorange.gif,stop,,,,,,,,,,,,,,,,,,,,,,,,0,0.5147960186,0.000901937484741,0.350569009781,1,q,629.256254911,,,,,,,,,,,,,,,,,,,,,,,,,,,,,,,,,,,,,,,,,2015_Jul_07_0953,60.1413233,LearningTask,1,80,
200,s,-200,,,,,,,,,,,,,,,,,1,0,1,0,0,3,3,2,,,,,,,,,,,,,,,,,,,,,,,,,,,,,s,1,0.350795984268,None,0,2.0,triangleorange.gif,stop,,,,,,,,,,,,,,,,,,,,,,,,2.19,0.514501094818,0.000900983810425,0.350795984268,1,s,632.259660006,,,,,,,,,,,,,,,,,,,,,,,,,,,,,,,,,,,,,,,,,2015_Jul_07_0953,60.1413233,LearningTask,1,80,
-200,a,-200,,,,,,,,,,,,,,,,,1,0,1,0,1,0,4,3,,,,,,,,,,,,,,,,,,,,,,,,,,,,,a,1,0.417751073837,None,0,2.0,triangleorange.gif,stop,,,,,,,,,,,,,,,,,,,,,,,,0,0.514266967773,0.000952005386353,0.417751073837,1,a,635.263226986,,,,,,,,,,,,,,,,,,,,,,,,,,,,,,,,,,,,,,,,,2015_Jul_07_0953,60.1413233,LearningTask,1,80,
-200,a,-200,,,,,,,,,,,,,,,,,1,0,1,0,1,1,5,3,,,,,,,,,,,,,,,,,,,,,,,,,,,,,a,1,0.384725809097,None,0,4.0,diamondyellow.gif,stop,,,,,,,,,,,,,,,,,,,,,,,,3.91,0.514259815216,0.00090503692627,0.384725809097,1,a,638.266352892,,,,,,,,,,,,,,,,,,,,,,,,,,,,,,,,,,,,,,,,,2015_Jul_07_0953,60.1413233,LearningTask,1,80,
-200,q,200,,,,,,,,,,,,,,,,,1,0,1,0,1,2,6,1,,,,,,,,,,,,,,,,,,,,,,,,,,,,,q,1,0.36718082428,None,0,2.0,invertedtrianglewhite.gif,go,,,,,,,,,,,,,,,,,,,,,,,,1.87,0.514525175095,0.000905990600586,0.36718082428,1,q,641.269659996,,,,,,,,,,,,,,,,,,,,,,,,,,,,,,,,,,,,,,,,,2015_Jul_07_0953,60.1413233,LearningTask,1,80,
200,w,200,,,,,,,,,,,,,,,,,1,0,1,0,1,3,7,0,,,,,,,,,,,,,,,,,,,,,,,,,,,,,w,1,0.400789022446,None,0,1.0,linecyan.gif,go,,,,,,,,,,,,,,,,,,,,,,,,1.13,0.514004945755,0.00094199180603,0.400789022446,1,w,644.273701906,,,,,,,,,,,,,,,,,,,,,,,,,,,,,,,,,,,,,,,,,2015_Jul_07_0953,60.1413233,LearningTask,1,80,
-200,q,200,,,,,,,,,,,,,,,,,1,0,1,0,2,0,8,1,,,,,,,,,,,,,,,,,,,,,,,,,,,,,q,1,0.384386062622,None,0,1.0,linecyan.gif,go,,,,,,,,,,,,,,,,,,,,,,,,1.04,0.513211011887,0.000967025756836,0.384386062622,1,q,647.276504993,,,,,,,,,,,,,,,,,,,,,,,,,,,,,,,,,,,,,,,,,2015_Jul_07_0953,60.1413233,LearningTask,1,80,
200,w,200,,,,,,,,,,,,,,,,,1,0,1,0,2,1,9,0,,,,,,,,,,,,,,,,,,,,,,,,,,,,,w,1,0.417621850967,None,0,4.0,diamondyellow.gif,stop,,,,,,,,,,,,,,,,,,,,,,,,4.13,0.514479160309,0.000900983810425,0.417621850967,1,w,650.280140877,,,,,,,,,,,,,,,,,,,,,,,,,,,,,,,,,,,,,,,,,2015_Jul_07_0953,60.1413233,LearningTask,1,80,
-200,a,-200,,,,,,,,,,,,,,,,,1,0,1,0,2,2,10,3,,,,,,,,,,,,,,,,,,,,,,,,,,,,,a,1,0.317803144455,None,0,4.0,hexagonmagenta.gif,go,,,,,,,,,,,,,,,,,,,,,,,,0,0.513849020004,0.000928163528442,0.317803144455,1,a,653.283340931,,,,,,,,,,,,,,,,,,,,,,,,,,,,,,,,,,,,,,,,,2015_Jul_07_0953,60.1413233,LearningTask,1,80,
200,s,-200,,,,,,,,,,,,,,,,,1,0,1,0,2,3,11,2,,,,,,,,,,,,,,,,,,,,,,,,,,,,,s,1,0.267066955566,None,0,0.5,crossgreen.gif,go,,,,,,,,,,,,,,,,,,,,,,,,0.39,0.514451026917,0.000935077667236,0.267066955566,1,s,656.286723852,,,,,,,,,,,,,,,,,,,,,,,,,,,,,,,,,,,,,,,,,2015_Jul_07_0953,60.1413233,LearningTask,1,80,
200,s,-200,,,,,,,,,,,,,,,,,1,0,1,0,3,0,12,2,,,,,,,,,,,,,,,,,,,,,,,,,,,,,s,1,0.384320020676,None,0,0.5,circlegray.gif,stop,,,,,,,,,,,,,,,,,,,,,,,,0,0.514065980911,0.000912189483643,0.384320020676,1,s,659.290338039,,,,,,,,,,,,,,,,,,,,,,,,,,,,,,,,,,,,,,,,,2015_Jul_07_0953,60.1413233,LearningTask,1,80,
-200,a,-200,,,,,,,,,,,,,,,,,1,0,1,0,3,1,13,3,,,,,,,,,,,,,,,,,,,,,,,,,,,,,a,1,0.333962202072,None,0,2.0,invertedtrianglewhite.gif,go,,,,,,,,,,,,,,,,,,,,,,,,2.16,0.514060974121,0.000967025756836,0.333962202072,1,a,662.293385029,,,,,,,,,,,,,,,,,,,,,,,,,,,,,,,,,,,,,,,,,2015_Jul_07_0953,60.1413233,LearningTask,1,80,
-200,a,-200,,,,,,,,,,,,,,,,,1,0,1,0,3,2,14,3,,,,,,,,,,,,,,,,,,,,,,,,,,,,,a,1,0.451200008392,None,0,4.0,diamondyellow.gif,stop,,,,,,,,,,,,,,,,,,,,,,,,0,0.514488935471,0.000898122787476,0.451200008392,1,a,665.296691895,,,,,,,,,,,,,,,,,,,,,,,,,,,,,,,,,,,,,,,,,2015_Jul_07_0953,60.1413233,LearningTask,1,80,
-200,a,-200,,,,,,,,,,,,,,,,,1,0,1,0,3,3,15,3,,,,,,,,,,,,,,,,,,,,,,,,,,,,,a,1,0.400540113449,None,0,2.0,invertedtrianglewhite.gif,go,,,,,,,,,,,,,,,,,,,,,,,,2.16,0.514618873596,0.000894069671631,0.400540113449,1,a,668.300616026,,,,,,,,,,,,,,,,,,,,,,,,,,,,,,,,,,,,,,,,,2015_Jul_07_0953,60.1413233,LearningTask,1,80,
-200,q,200,,,,,,,,,,,,,,,,,1,0,1,0,4,0,16,1,,,,,,,,,,,,,,,,,,,,,,,,,,,,,q,1,0.334069013596,None,0,4.0,diamondyellow.gif,stop,,,,,,,,,,,,,,,,,,,,,,,,0,0.513870954514,0.000882863998413,0.334069013596,1,q,671.303685904,,,,,,,,,,,,,,,,,,,,,,,,,,,,,,,,,,,,,,,,,2015_Jul_07_0953,60.1413233,LearningTask,1,80,
200,w,200,,,,,,,,,,,,,,,,,1,0,1,0,4,1,17,0,,,,,,,,,,,,,,,,,,,,,,,,,,,,,w,1,0.36761713028,None,0,0.5,crossgreen.gif,go,,,,,,,,,,,,,,,,,,,,,,,,0,0.514142990112,0.000988960266113,0.36761713028,1,w,674.307175875,,,,,,,,,,,,,,,,,,,,,,,,,,,,,,,,,,,,,,,,,2015_Jul_07_0953,60.1413233,LearningTask,1,80,
200,w,200,,,,,,,,,,,,,,,,,1,0,1,0,4,2,18,0,,,,,,,,,,,,,,,,,,,,,,,,,,,,,w,1,0.383750915527,None,0,4.0,hexagonmagenta.gif,go,,,,,,,,,,,,,,,,,,,,,,,,0,0.514370203018,0.000876188278198,0.383750915527,1,w,677.310245037,,,,,,,,,,,,,,,,,,,,,,,,,,,,,,,,,,,,,,,,,2015_Jul_07_0953,60.1413233,LearningTask,1,80,
-200,q,200,,,,,,,,,,,,,,,,,1,0,1,0,4,3,19,1,,,,,,,,,,,,,,,,,,,,,,,,,,,,,q,1,0.333737850189,None,0,2.0,invertedtrianglewhite.gif,go,,,,,,,,,,,,,,,,,,,,,,,,1.99,0.514536142349,0.000882148742676,0.333737850189,1,q,680.31359005,,,,,,,,,,,,,,,,,,,,,,,,,,,,,,,,,,,,,,,,,2015_Jul_07_0953,60.1413233,LearningTask,1,80,
200,w,200,,,,,,,,,,,,,,,,,1,0,1,0,5,0,20,0,,,,,,,,,,,,,,,,,,,,,,,,,,,,,w,1,0.417669057846,None,0,2.0,invertedtrianglewhite.gif,go,,,,,,,,,,,,,,,,,,,,,,,,2.04,0.514137029648,0.000971078872681,0.417669057846,1,w,683.317075968,,,,,,,,,,,,,,,,,,,,,,,,,,,,,,,,,,,,,,,,,2015_Jul_07_0953,60.1413233,LearningTask,1,80,
-200,a,-200,,,,,,,,,,,,,,,,,1,0,1,0,5,1,21,3,,,,,,,,,,,,,,,,,,,,,,,,,,,,,a,1,0.384302854538,None,0,1.0,linecyan.gif,go,,,,,,,,,,,,,,,,,,,,,,,,1.19,0.514282941818,0.00088095664978,0.384302854538,1,a,686.320544958,,,,,,,,,,,,,,,,,,,,,,,,,,,,,,,,,,,,,,,,,2015_Jul_07_0953,60.1413233,LearningTask,1,80,
-200,a,-200,,,,,,,,,,,,,,,,,1,0,1,0,5,2,22,3,,,,,,,,,,,,,,,,,,,,,,,,,,,,,a,1,0.417523145676,None,0,4.0,hexagonmagenta.gif,go,,,,,,,,,,,,,,,,,,,,,,,,4.09,0.514169216156,0.000877141952515,0.417523145676,1,a,689.323966026,,,,,,,,,,,,,,,,,,,,,,,,,,,,,,,,,,,,,,,,,2015_Jul_07_0953,60.1413233,LearningTask,1,80,
-200,a,-200,,,,,,,,,,,,,,,,,1,0,1,0,5,3,23,3,,,,,,,,,,,,,,,,,,,,,,,,,,,,,a,1,0.533684968948,None,0,2.0,triangleorange.gif,stop,,,,,,,,,,,,,,,,,,,,,,,,0,0.514103889465,0.00109481811523,0.401012182236,0,q,692.327199936,,2.05,0.515598058701,0.000953912734985,0.533684968948,1,a,695.330749989,,,,,,,,,,,,,,,,,,,,,,,,,,,,,,,,,2015_Jul_07_0953,60.1413233,LearningTask,1,80,
200,w,200,,,,,,,,,,,,,,,,,1,0,1,0,6,0,24,0,,,,,,,,,,,,,,,,,,,,,,,,,,,,,w,1,0.500375032425,None,0,0.5,circlegray.gif,stop,,,,,,,,,,,,,,,,,,,,,,,,0.25,0.514165878296,0.000882863998413,0.500375032425,1,w,698.334522009,,,,,,,,,,,,,,,,,,,,,,,,,,,,,,,,,,,,,,,,,2015_Jul_07_0953,60.1413233,LearningTask,1,80,
-200,a,-200,,,,,,,,,,,,,,,,,1,0,1,0,6,1,25,3,,,,,,,,,,,,,,,,,,,,,,,,,,,,,a,1,0.367294073105,None,0,4.0,diamondyellow.gif,stop,,,,,,,,,,,,,,,,,,,,,,,,4.19,0.513383150101,0.000892162322998,0.367294073105,1,a,701.33729887,,,,,,,,,,,,,,,,,,,,,,,,,,,,,,,,,,,,,,,,,2015_Jul_07_0953,60.1413233,LearningTask,1,80,
-200,a,-200,,,,,,,,,,,,,,,,,1,0,1,0,6,2,26,3,,,,,,,,,,,,,,,,,,,,,,,,,,,,,a,1,0.40109205246,None,0,0.5,crossgreen.gif,go,,,,,,,,,,,,,,,,,,,,,,,,0.69,0.514204025269,0.000901937484741,0.40109205246,1,a,704.340863943,,,,,,,,,,,,,,,,,,,,,,,,,,,,,,,,,,,,,,,,,2015_Jul_07_0953,60.1413233,LearningTask,1,80,
200,w,200,,,,,,,,,,,,,,,,,1,0,1,0,6,3,27,0,,,,,,,,,,,,,,,,,,,,,,,,,,,,,w,1,0.367491006851,None,0,4.0,hexagonmagenta.gif,go,,,,,,,,,,,,,,,,,,,,,,,,3.81,0.514427900314,0.000881910324097,0.367491006851,1,w,707.344096899,,,,,,,,,,,,,,,,,,,,,,,,,,,,,,,,,,,,,,,,,2015_Jul_07_0953,60.1413233,LearningTask,1,80,
200,w,200,,,,,,,,,,,,,,,,,1,0,1,0,7,0,28,0,,,,,,,,,,,,,,,,,,,,,,,,,,,,,w,1,0.367124080658,None,0,1.0,linecyan.gif,go,,,,,,,,,,,,,,,,,,,,,,,,0.9,0.514489889145,0.000891923904419,0.367124080658,1,w,710.347363949,,,,,,,,,,,,,,,,,,,,,,,,,,,,,,,,,,,,,,,,,2015_Jul_07_0953,60.1413233,LearningTask,1,80,
-200,q,200,,,,,,,,,,,,,,,,,1,0,1,0,7,1,29,1,,,,,,,,,,,,,,,,,,,,,,,,,,,,,q,1,0.417442083359,None,0,0.5,circlegray.gif,stop,,,,,,,,,,,,,,,,,,,,,,,,0,0.514460086823,0.000907182693481,0.417442083359,1,q,713.350682974,,,,,,,,,,,,,,,,,,,,,,,,,,,,,,,,,,,,,,,,,2015_Jul_07_0953,60.1413233,LearningTask,1,80,
200,w,200,,,,,,,,,,,,,,,,,1,0,1,0,7,2,30,0,,,,,,,,,,,,,,,,,,,,,,,,,,,,,w,1,0.367506980896,None,0,2.0,triangleorange.gif,stop,,,,,,,,,,,,,,,,,,,,,,,,1.77,0.51441693306,0.000881910324097,0.367506980896,1,w,716.354255915,,,,,,,,,,,,,,,,,,,,,,,,,,,,,,,,,,,,,,,,,2015_Jul_07_0953,60.1413233,LearningTask,1,80,
200,w,200,,,,,,,,,,,,,,,,,1,0,1,0,7,3,31,0,,,,,,,,,,,,,,,,,,,,,,,,,,,,,w,1,0.383815050125,None,0,1.0,squareblue.gif,stop,,,,,,,,,,,,,,,,,,,,,,,,0.95,0.514435052872,0.000895023345947,0.383815050125,1,w,719.357730865,,,,,,,,,,,,,,,,,,,,,,,,,,,,,,,,,,,,,,,,,2015_Jul_07_0953,60.1413233,LearningTask,1,80,
-200,a,-200,,,,,,,,,,,,,,,,,1,0,1,0,8,0,32,3,,,,,,,,,,,,,,,,,,,,,,,,,,,,,a,1,0.367942094803,None,0,4.0,hexagonmagenta.gif,go,,,,,,,,,,,,,,,,,,,,,,,,4.06,0.513994932175,0.000932931900024,0.367942094803,1,a,722.360929012,,,,,,,,,,,,,,,,,,,,,,,,,,,,,,,,,,,,,,,,,2015_Jul_07_0953,60.1413233,LearningTask,1,80,
-200,q,200,,,,,,,,,,,,,,,,,1,0,1,0,8,1,33,1,,,,,,,,,,,,,,,,,,,,,,,,,,,,,q,1,0.400853157043,None,0,1.0,linecyan.gif,go,,,,,,,,,,,,,,,,,,,,,,,,0.75,0.514225959778,0.000876903533936,0.400853157043,1,q,725.364408016,,,,,,,,,,,,,,,,,,,,,,,,,,,,,,,,,,,,,,,,,2015_Jul_07_0953,60.1413233,LearningTask,1,80,
-200,a,-200,,,,,,,,,,,,,,,,,1,0,1,0,8,2,34,3,,,,,,,,,,,,,,,,,,,,,,,,,,,,,a,1,0.384063005447,None,0,1.0,squareblue.gif,stop,,,,,,,,,,,,,,,,,,,,,,,,0.95,0.514312028885,0.000871181488037,0.384063005447,1,a,728.367768049,,,,,,,,,,,,,,,,,,,,,,,,,,,,,,,,,,,,,,,,,2015_Jul_07_0953,60.1413233,LearningTask,1,80,
200,w,200,,,,,,,,,,,,,,,,,1,0,1,0,8,3,35,0,,,,,,,,,,,,,,,,,,,,,,,,,,,,,w,1,0.417641162872,None,0,2.0,triangleorange.gif,stop,,,,,,,,,,,,,,,,,,,,,,,,0,0.513830900192,0.000938892364502,0.417641162872,1,w,731.370998859,,,,,,,,,,,,,,,,,,,,,,,,,,,,,,,,,,,,,,,,,2015_Jul_07_0953,60.1413233,LearningTask,1,80,
200,s,-200,,,,,,,,,,,,,,,,,1,0,1,0,9,0,36,2,,,,,,,,,,,,,,,,,,,,,,,,,,,,,s,1,0.300938844681,None,0,4.0,hexagonmagenta.gif,go,,,,,,,,,,,,,,,,,,,,,,,,3.96,0.514091014862,0.000885009765625,0.300938844681,1,s,734.374418974,,,,,,,,,,,,,,,,,,,,,,,,,,,,,,,,,,,,,,,,,2015_Jul_07_0953,60.1413233,LearningTask,1,80,
-200,q,200,,,,,,,,,,,,,,,,,1,0,1,0,9,1,37,1,,,,,,,,,,,,,,,,,,,,,,,,,,,,,q,1,0.417237043381,None,0,1.0,linecyan.gif,go,,,,,,,,,,,,,,,,,,,,,,,,1.08,0.51443696022,0.000917911529541,0.417237043381,1,q,737.377830029,,,,,,,,,,,,,,,,,,,,,,,,,,,,,,,,,,,,,,,,,2015_Jul_07_0953,60.1413233,LearningTask,1,80,
-200,q,200,,,,,,,,,,,,,,,,,1,0,1,0,9,2,38,1,,,,,,,,,,,,,,,,,,,,,,,,,,,,,q,1,0.450880050659,None,0,1.0,squareblue.gif,stop,,,,,,,,,,,,,,,,,,,,,,,,0,0.514069080353,0.000885963439941,0.367448091507,0,a,740.380918026,,0.83,0.515892982483,0.000951051712036,0.450880050659,1,q,743.384716988,,,,,,,,,,,,,,,,,,,,,,,,,,,,,,,,,2015_Jul_07_0953,60.1413233,LearningTask,1,80,
200,s,-200,,,,,,,,,,,,,,,,,1,0,1,0,9,3,39,2,,,,,,,,,,,,,,,,,,,,,,,,,,,,,s,1,0.417340040207,None,0,1.0,linecyan.gif,go,,,,,,,,,,,,,,,,,,,,,,,,0,0.51403594017,0.000878095626831,0.38427901268,0,w,746.38835001,,0.99,0.515163898468,0.000976800918579,0.417340040207,1,s,749.391363859,,,,,,,,,,,,,,,,,,,,,,,,,,,,,,,,,2015_Jul_07_0953,60.1413233,LearningTask,1,80,
-200,a,-200,,,,,,,,,,,,,,,,,1,0,1,0,10,0,40,3,,,,,,,,,,,,,,,,,,,,,,,,,,,,,a,1,0.700469970703,None,0,4.0,hexagonmagenta.gif,go,,,,,,,,,,,,,,,,,,,,,,,,0,0.514849901199,0.000877857208252,0.700469970703,1,a,752.394659042,,,,,,,,,,,,,,,,,,,,,,,,,,,,,,,,,,,,,,,,,2015_Jul_07_0953,60.1413233,LearningTask,1,80,
200,w,200,,,,,,,,,,,,,,,,,1,0,1,0,10,1,41,0,,,,,,,,,,,,,,,,,,,,,,,,,,,,,w,1,0.384083986282,None,0,0.5,circlegray.gif,stop,,,,,,,,,,,,,,,,,,,,,,,,0.41,0.514281988144,0.000923871994019,0.384083986282,1,w,755.398030043,,,,,,,,,,,,,,,,,,,,,,,,,,,,,,,,,,,,,,,,,2015_Jul_07_0953,60.1413233,LearningTask,1,80,
200,s,-200,,,,,,,,,,,,,,,,,1,0,1,0,10,2,42,2,,,,,,,,,,,,,,,,,,,,,,,,,,,,,s,1,0.35103392601,None,0,4.0,diamondyellow.gif,stop,,,,,,,,,,,,,,,,,,,,,,,,0,0.513959169388,0.000887155532837,0.435089826584,0,w,758.401376963,,3.94,0.515512943268,0.000949144363403,0.35103392601,1,s,761.405171871,,,,,,,,,,,,,,,,,,,,,,,,,,,,,,,,,2015_Jul_07_0953,60.1413233,LearningTask,1,80,
200,s,-200,,,,,,,,,,,,,,,,,1,0,1,0,10,3,43,2,,,,,,,,,,,,,,,,,,,,,,,,,,,,,s,1,0.467649936676,None,0,1.0,squareblue.gif,stop,,,,,,,,,,,,,,,,,,,,,,,,0.87,0.513942956924,0.000890970230103,0.467649936676,1,s,764.408302069,,,,,,,,,,,,,,,,,,,,,,,,,,,,,,,,,,,,,,,,,2015_Jul_07_0953,60.1413233,LearningTask,1,80,
-200,a,-200,,,,,,,,,,,,,,,,,1,0,1,0,11,0,44,3,,,,,,,,,,,,,,,,,,,,,,,,,,,,,a,1,0.400779008865,None,0,1.0,squareblue.gif,stop,,,,,,,,,,,,,,,,,,,,,,,,1.21,0.514156103134,0.000888109207153,0.400779008865,1,a,767.411303043,,,,,,,,,,,,,,,,,,,,,,,,,,,,,,,,,,,,,,,,,2015_Jul_07_0953,60.1413233,LearningTask,1,80,
-200,q,200,,,,,,,,,,,,,,,,,1,0,1,0,11,1,45,1,,,,,,,,,,,,,,,,,,,,,,,,,,,,,q,1,0.400825977325,None,0,0.5,circlegray.gif,stop,,,,,,,,,,,,,,,,,,,,,,,,0.39,0.514380931854,0.00101804733276,0.400825977325,1,q,770.414921999,,,,,,,,,,,,,,,,,,,,,,,,,,,,,,,,,,,,,,,,,2015_Jul_07_0953,60.1413233,LearningTask,1,80,
200,w,200,,,,,,,,,,,,,,,,,1,0,1,0,11,2,46,0,,,,,,,,,,,,,,,,,,,,,,,,,,,,,w,1,0.367602825165,None,0,1.0,linecyan.gif,go,,,,,,,,,,,,,,,,,,,,,,,,0.81,0.514091968536,0.00087308883667,0.367602825165,1,w,773.418550968,,,,,,,,,,,,,,,,,,,,,,,,,,,,,,,,,,,,,,,,,2015_Jul_07_0953,60.1413233,LearningTask,1,80,
-200,a,-200,,,,,,,,,,,,,,,,,1,0,1,0,11,3,47,3,,,,,,,,,,,,,,,,,,,,,,,,,,,,,a,1,0.467844009399,None,0,0.5,crossgreen.gif,go,,,,,,,,,,,,,,,,,,,,,,,,0,0.514356851578,0.000887870788574,0.467844009399,1,a,776.422111034,,,,,,,,,,,,,,,,,,,,,,,,,,,,,,,,,,,,,,,,,2015_Jul_07_0953,60.1413233,LearningTask,1,80,
-200,q,200,,,,,,,,,,,,,,,,,1,0,1,0,12,0,48,1,,,,,,,,,,,,,,,,,,,,,,,,,,,,,q,1,0.467164039612,None,0,0.5,crossgreen.gif,go,,,,,,,,,,,,,,,,,,,,,,,,0.75,0.514111995697,0.000908851623535,0.467164039612,1,q,779.425195932,,,,,,,,,,,,,,,,,,,,,,,,,,,,,,,,,,,,,,,,,2015_Jul_07_0953,60.1413233,LearningTask,1,80,
200,w,200,,,,,,,,,,,,,,,,,1,0,1,0,12,1,49,0,,,,,,,,,,,,,,,,,,,,,,,,,,,,,w,1,0.417497873306,None,0,0.5,circlegray.gif,stop,,,,,,,,,,,,,,,,,,,,,,,,0.53,0.514350175858,0.000874996185303,0.417497873306,1,w,782.4285779,,,,,,,,,,,,,,,,,,,,,,,,,,,,,,,,,,,,,,,,,2015_Jul_07_0953,60.1413233,LearningTask,1,80,
-200,q,200,,,,,,,,,,,,,,,,,1,0,1,0,12,2,50,1,,,,,,,,,,,,,,,,,,,,,,,,,,,,,q,1,0.418480873108,None,0,0.5,circlegray.gif,stop,,,,,,,,,,,,,,,,,,,,,,,,0.56,0.513882160187,0.000898122787476,0.418480873108,1,q,785.432136059,,,,,,,,,,,,,,,,,,,,,,,,,,,,,,,,,,,,,,,,,2015_Jul_07_0953,60.1413233,LearningTask,1,80,
200,s,-200,,,,,,,,,,,,,,,,,1,0,1,0,12,3,51,2,,,,,,,,,,,,,,,,,,,,,,,,,,,,,s,1,0.33407998085,None,0,0.5,crossgreen.gif,go,,,,,,,,,,,,,,,,,,,,,,,,0,0.514074087143,0.000900030136108,0.33407998085,1,s,788.435266972,,,,,,,,,,,,,,,,,,,,,,,,,,,,,,,,,,,,,,,,,2015_Jul_07_0953,60.1413233,LearningTask,1,80,
200,w,200,,,,,,,,,,,,,,,,,1,0,1,0,13,0,52,0,,,,,,,,,,,,,,,,,,,,,,,,,,,,,w,1,0.517468929291,None,0,1.0,linecyan.gif,go,,,,,,,,,,,,,,,,,,,,,,,,0.84,0.514063835144,0.000874996185303,0.517468929291,1,w,791.438649893,,,,,,,,,,,,,,,,,,,,,,,,,,,,,,,,,,,,,,,,,2015_Jul_07_0953,60.1413233,LearningTask,1,80,
200,s,-200,,,,,,,,,,,,,,,,,1,0,1,0,13,1,53,2,,,,,,,,,,,,,,,,,,,,,,,,,,,,,s,1,0.367079019547,None,0,2.0,triangleorange.gif,stop,,,,,,,,,,,,,,,,,,,,,,,,1.89,0.514618873596,0.00088095664978,0.367079019547,1,s,794.442354918,,,,,,,,,,,,,,,,,,,,,,,,,,,,,,,,,,,,,,,,,2015_Jul_07_0953,60.1413233,LearningTask,1,80,
200,w,200,,,,,,,,,,,,,,,,,1,0,1,0,13,2,54,0,,,,,,,,,,,,,,,,,,,,,,,,,,,,,w,1,0.41804599762,None,0,0.5,crossgreen.gif,go,,,,,,,,,,,,,,,,,,,,,,,,0.71,0.513516187668,0.00123310089111,0.41804599762,1,w,797.44520998,,,,,,,,,,,,,,,,,,,,,,,,,,,,,,,,,,,,,,,,,2015_Jul_07_0953,60.1413233,LearningTask,1,80,
200,w,200,,,,,,,,,,,,,,,,,1,0,1,0,13,3,55,0,,,,,,,,,,,,,,,,,,,,,,,,,,,,,w,1,0.383946180344,None,0,0.5,circlegray.gif,stop,,,,,,,,,,,,,,,,,,,,,,,,0,0.514583826065,0.000890016555786,0.383946180344,1,w,800.448462009,,,,,,,,,,,,,,,,,,,,,,,,,,,,,,,,,,,,,,,,,2015_Jul_07_0953,60.1413233,LearningTask,1,80,
-200,a,-200,,,,,,,,,,,,,,,,,1,0,1,0,14,0,56,3,,,,,,,,,,,,,,,,,,,,,,,,,,,,,a,1,0.383959054947,None,0,2.0,invertedtrianglewhite.gif,go,,,,,,,,,,,,,,,,,,,,,,,,1.83,0.514655828476,0.000890016555786,0.383959054947,1,a,803.452334881,,,,,,,,,,,,,,,,,,,,,,,,,,,,,,,,,,,,,,,,,2015_Jul_07_0953,60.1413233,LearningTask,1,80,
200,s,-200,,,,,,,,,,,,,,,,,1,0,1,0,14,1,57,2,,,,,,,,,,,,,,,,,,,,,,,,,,,,,s,1,0.368278026581,None,0,4.0,hexagonmagenta.gif,go,,,,,,,,,,,,,,,,,,,,,,,,3.81,0.513731002808,0.0010130405426,0.368278026581,1,s,806.455667973,,,,,,,,,,,,,,,,,,,,,,,,,,,,,,,,,,,,,,,,,2015_Jul_07_0953,60.1413233,LearningTask,1,80,
-200,a,-200,,,,,,,,,,,,,,,,,1,0,1,0,14,2,58,3,,,,,,,,,,,,,,,,,,,,,,,,,,,,,a,1,0.467371940613,None,0,4.0,diamondyellow.gif,stop,,,,,,,,,,,,,,,,,,,,,,,,3.81,0.514219045639,0.000930070877075,0.467371940613,1,a,809.45897007,,,,,,,,,,,,,,,,,,,,,,,,,,,,,,,,,,,,,,,,,2015_Jul_07_0953,60.1413233,LearningTask,1,80,
200,w,200,,,,,,,,,,,,,,,,,1,0,1,0,14,3,59,0,,,,,,,,,,,,,,,,,,,,,,,,,,,,,w,1,0.384402036667,None,0,0.5,circlegray.gif,stop,,,,,,,,,,,,,,,,,,,,,,,,0,0.514228105545,0.00088906288147,0.384402036667,1,w,812.462210894,,,,,,,,,,,,,,,,,,,,,,,,,,,,,,,,,,,,,,,,,2015_Jul_07_0953,60.1413233,LearningTask,1,80,
-200,q,200,,,,,,,,,,,,,,,,,1,0,1,0,15,0,60,1,,,,,,,,,,,,,,,,,,,,,,,,,,,,,q,1,0.418167829514,None,0,4.0,diamondyellow.gif,stop,,,,,,,,,,,,,,,,,,,,,,,,3.93,0.514115095139,0.000879049301147,0.418167829514,1,q,815.465399981,,,,,,,,,,,,,,,,,,,,,,,,,,,,,,,,,,,,,,,,,2015_Jul_07_0953,60.1413233,LearningTask,1,80,
-200,a,-200,,,,,,,,,,,,,,,,,1,0,1,0,15,1,61,3,,,,,,,,,,,,,,,,,,,,,,,,,,,,,a,1,0.41769695282,None,0,1.0,linecyan.gif,go,,,,,,,,,,,,,,,,,,,,,,,,1.17,0.51424407959,0.000964879989624,0.41769695282,1,a,818.468920946,,,,,,,,,,,,,,,,,,,,,,,,,,,,,,,,,,,,,,,,,2015_Jul_07_0953,60.1413233,LearningTask,1,80,
-200,q,200,,,,,,,,,,,,,,,,,1,0,1,0,15,2,62,1,,,,,,,,,,,,,,,,,,,,,,,,,,,,,q,1,0.384402036667,None,0,1.0,linecyan.gif,go,,,,,,,,,,,,,,,,,,,,,,,,0,0.514058828354,0.000876903533936,0.384402036667,1,q,821.472532034,,,,,,,,,,,,,,,,,,,,,,,,,,,,,,,,,,,,,,,,,2015_Jul_07_0953,60.1413233,LearningTask,1,80,
200,s,-200,,,,,,,,,,,,,,,,,1,0,1,0,15,3,63,2,,,,,,,,,,,,,,,,,,,,,,,,,,,,,s,1,0.350682020187,None,0,0.5,circlegray.gif,stop,,,,,,,,,,,,,,,,,,,,,,,,0.6,0.513914108276,0.00113415718079,0.350682020187,1,s,824.475697994,,,,,,,,,,,,,,,,,,,,,,,,,,,,,,,,,,,,,,,,,2015_Jul_07_0953,60.1413233,LearningTask,1,80,
-200,a,-200,,,,,,,,,,,,,,,,,1,0,1,0,16,0,64,3,,,,,,,,,,,,,,,,,,,,,,,,,,,,,a,1,0.350966930389,None,0,0.5,circlegray.gif,stop,,,,,,,,,,,,,,,,,,,,,,,,0.49,0.513891935349,0.000933885574341,0.350966930389,1,a,827.478769064,,,,,,,,,,,,,,,,,,,,,,,,,,,,,,,,,,,,,,,,,2015_Jul_07_0953,60.1413233,LearningTask,1,80,
-200,q,200,,,,,,,,,,,,,,,,,1,0,1,0,16,1,65,1,,,,,,,,,,,,,,,,,,,,,,,,,,,,,q,1,0.35089302063,None,0,4.0,diamondyellow.gif,stop,,,,,,,,,,,,,,,,,,,,,,,,3.89,0.514577865601,0.000900030136108,0.35089302063,1,q,830.482954979,,,,,,,,,,,,,,,,,,,,,,,,,,,,,,,,,,,,,,,,,2015_Jul_07_0953,60.1413233,LearningTask,1,80,
-200,q,200,,,,,,,,,,,,,,,,,1,0,1,0,16,2,66,1,,,,,,,,,,,,,,,,,,,,,,,,,,,,,q,1,0.384366989136,None,0,4.0,hexagonmagenta.gif,go,,,,,,,,,,,,,,,,,,,,,,,,4.25,0.513760089874,0.000919103622437,0.384366989136,1,q,833.486371994,,,,,,,,,,,,,,,,,,,,,,,,,,,,,,,,,,,,,,,,,2015_Jul_07_0953,60.1413233,LearningTask,1,80,
-200,q,200,,,,,,,,,,,,,,,,,1,0,1,0,16,3,67,1,,,,,,,,,,,,,,,,,,,,,,,,,,,,,q,1,0.367233037949,None,0,4.0,hexagonmagenta.gif,go,,,,,,,,,,,,,,,,,,,,,,,,3.9,0.513714075089,0.000901937484741,0.367233037949,1,q,836.48930788,,,,,,,,,,,,,,,,,,,,,,,,,,,,,,,,,,,,,,,,,2015_Jul_07_0953,60.1413233,LearningTask,1,80,
200,w,200,,,,,,,,,,,,,,,,,1,0,1,0,17,0,68,0,,,,,,,,,,,,,,,,,,,,,,,,,,,,,w,1,0.367123842239,None,0,1.0,squareblue.gif,stop,,,,,,,,,,,,,,,,,,,,,,,,1.01,0.514616966248,0.00088906288147,0.367123842239,1,w,839.492651939,,,,,,,,,,,,,,,,,,,,,,,,,,,,,,,,,,,,,,,,,2015_Jul_07_0953,60.1413233,LearningTask,1,80,
200,w,200,,,,,,,,,,,,,,,,,1,0,1,0,17,1,69,0,,,,,,,,,,,,,,,,,,,,,,,,,,,,,w,1,0.36717414856,None,0,0.5,circlegray.gif,stop,,,,,,,,,,,,,,,,,,,,,,,,0.5,0.514605045319,0.000892162322998,0.36717414856,1,w,842.495976925,,,,,,,,,,,,,,,,,,,,,,,,,,,,,,,,,,,,,,,,,2015_Jul_07_0953,60.1413233,LearningTask,1,80,
-200,q,200,,,,,,,,,,,,,,,,,1,0,1,0,17,2,70,1,,,,,,,,,,,,,,,,,,,,,,,,,,,,,q,1,0.367123126984,None,0,0.5,circlegray.gif,stop,,,,,,,,,,,,,,,,,,,,,,,,0,0.514449834824,0.000909805297852,0.367123126984,1,q,845.499213934,,,,,,,,,,,,,,,,,,,,,,,,,,,,,,,,,,,,,,,,,2015_Jul_07_0953,60.1413233,LearningTask,1,80,
200,s,-200,,,,,,,,,,,,,,,,,1,0,1,0,17,3,71,2,,,,,,,,,,,,,,,,,,,,,,,,,,,,,s,1,0.384401082993,None,0,1.0,squareblue.gif,stop,,,,,,,,,,,,,,,,,,,,,,,,0.97,0.514361143112,0.00104904174805,0.384401082993,1,s,848.502361059,,,,,,,,,,,,,,,,,,,,,,,,,,,,,,,,,,,,,,,,,2015_Jul_07_0953,60.1413233,LearningTask,1,80,
200,w,200,,,,,,,,,,,,,,,,,1,0,1,0,18,0,72,0,,,,,,,,,,,,,,,,,,,,,,,,,,,,,w,1,0.417480945587,None,0,4.0,diamondyellow.gif,stop,,,,,,,,,,,,,,,,,,,,,,,,4.21,0.514846086502,0.00087308883667,0.417480945587,1,w,851.506196976,,,,,,,,,,,,,,,,,,,,,,,,,,,,,,,,,,,,,,,,,2015_Jul_07_0953,60.1413233,LearningTask,1,80,
200,s,-200,,,,,,,,,,,,,,,,,1,0,1,0,18,1,73,2,,,,,,,,,,,,,,,,,,,,,,,,,,,,,s,1,0.333659887314,None,0,0.5,circlegray.gif,stop,,,,,,,,,,,,,,,,,,,,,,,,0.73,0.514353990555,0.000899076461792,0.333659887314,1,s,854.50957799,,,,,,,,,,,,,,,,,,,,,,,,,,,,,,,,,,,,,,,,,2015_Jul_07_0953,60.1413233,LearningTask,1,80,
200,s,-200,,,,,,,,,,,,,,,,,1,0,1,0,18,2,74,2,,,,,,,,,,,,,,,,,,,,,,,,,,,,,s,1,0.400959968567,None,0,0.5,circlegray.gif,stop,,,,,,,,,,,,,,,,,,,,,,,,0.71,0.5139939785,0.000994920730591,0.400959968567,1,s,857.512726068,,,,,,,,,,,,,,,,,,,,,,,,,,,,,,,,,,,,,,,,,2015_Jul_07_0953,60.1413233,LearningTask,1,80,
200,s,-200,,,,,,,,,,,,,,,,,1,0,1,0,18,3,75,2,,,,,,,,,,,,,,,,,,,,,,,,,,,,,s,1,0.334084033966,None,0,2.0,triangleorange.gif,stop,,,,,,,,,,,,,,,,,,,,,,,,2.13,0.514400959015,0.000887870788574,0.334084033966,1,s,860.516238928,,,,,,,,,,,,,,,,,,,,,,,,,,,,,,,,,,,,,,,,,2015_Jul_07_0953,60.1413233,LearningTask,1,80,
-200,q,200,,,,,,,,,,,,,,,,,1,0,1,0,19,0,76,1,,,,,,,,,,,,,,,,,,,,,,,,,,,,,q,1,0.350660800934,None,0,2.0,triangleorange.gif,stop,,,,,,,,,,,,,,,,,,,,,,,,2.1,0.514362812042,0.000876903533936,0.350660800934,1,q,863.519922972,,,,,,,,,,,,,,,,,,,,,,,,,,,,,,,,,,,,,,,,,2015_Jul_07_0953,60.1413233,LearningTask,1,80,
-200,q,200,,,,,,,,,,,,,,,,,1,0,1,0,19,1,77,1,,,,,,,,,,,,,,,,,,,,,,,,,,,,,q,1,0.384614944458,None,0,2.0,invertedtrianglewhite.gif,go,,,,,,,,,,,,,,,,,,,,,,,,1.97,0.513489961624,0.000900983810425,0.384614944458,1,q,866.522871971,,,,,,,,,,,,,,,,,,,,,,,,,,,,,,,,,,,,,,,,,2015_Jul_07_0953,60.1413233,LearningTask,1,80,
200,s,-200,,,,,,,,,,,,,,,,,1,0,1,0,19,2,78,2,,,,,,,,,,,,,,,,,,,,,,,,,,,,,s,1,0.384054899216,None,0,1.0,linecyan.gif,go,,,,,,,,,,,,,,,,,,,,,,,,1.13,0.514425039291,0.00088095664978,0.384054899216,1,s,869.526332855,,,,,,,,,,,,,,,,,,,,,,,,,,,,,,,,,,,,,,,,,2015_Jul_07_0953,60.1413233,LearningTask,1,80,
200,s,-200,,,,,,,,,,,,,,,,,1,0,1,0,19,3,79,2,,,,,,,,,,,,,,,,,,,,,,,,,,,,,s,1,0.384468078613,None,0,4.0,diamondyellow.gif,stop,,,,,,,,,,,,,,,,,,,,,,,,3.75,0.514250993729,0.00088095664978,0.384468078613,1,s,872.529819012,,,,,,,,,,,,,,,,,,,,,,,,,,,,,,,,,,,,,,,,,2015_Jul_07_0953,60.1413233,LearningTask,1,80,
200,w,200,,,,,,,,,,,,,,,,,1,0,1,0,20,0,80,0,,,,,,,,,,,,,,,,,,,,,,,,,,,,,w,1,0.451376914978,None,0,2.0,invertedtrianglewhite.gif,go,,,,,,,,,,,,,,,,,,,,,,,,0,0.5139939785,0.000915050506592,0.451376914978,1,w,875.533155918,,,,,,,,,,,,,,,,,,,,,,,,,,,,,,,,,,,,,,,,,2015_Jul_07_0953,60.1413233,LearningTask,1,80,
200,s,-200,,,,,,,,,,,,,,,,,1,0,1,0,20,1,81,2,,,,,,,,,,,,,,,,,,,,,,,,,,,,,s,1,0.367326021194,None,0,2.0,invertedtrianglewhite.gif,go,,,,,,,,,,,,,,,,,,,,,,,,1.86,0.514338970184,0.000880002975464,0.367326021194,1,s,878.536328077,,,,,,,,,,,,,,,,,,,,,,,,,,,,,,,,,,,,,,,,,2015_Jul_07_0953,60.1413233,LearningTask,1,80,
200,w,200,,,,,,,,,,,,,,,,,1,0,1,0,20,2,82,0,,,,,,,,,,,,,,,,,,,,,,,,,,,,,w,1,0.367444038391,None,0,4.0,hexagonmagenta.gif,go,,,,,,,,,,,,,,,,,,,,,,,,3.99,0.514267921448,0.000883817672729,0.367444038391,1,w,881.540166855,,,,,,,,,,,,,,,,,,,,,,,,,,,,,,,,,,,,,,,,,2015_Jul_07_0953,60.1413233,LearningTask,1,80,
200,s,-200,,,,,,,,,,,,,,,,,1,0,1,0,20,3,83,2,,,,,,,,,,,,,,,,,,,,,,,,,,,,,s,1,0.350821018219,None,0,2.0,invertedtrianglewhite.gif,go,,,,,,,,,,,,,,,,,,,,,,,,0,0.513927936554,0.000884056091309,0.350821018219,1,s,884.543097019,,,,,,,,,,,,,,,,,,,,,,,,,,,,,,,,,,,,,,,,,2015_Jul_07_0953,60.1413233,LearningTask,1,80,
-200,a,-200,,,,,,,,,,,,,,,,,1,0,1,0,21,0,84,3,,,,,,,,,,,,,,,,,,,,,,,,,,,,,a,1,0.467716932297,None,0,0.5,crossgreen.gif,go,,,,,,,,,,,,,,,,,,,,,,,,0.59,0.514574050903,0.00091814994812,0.467716932297,1,a,887.546512842,,,,,,,,,,,,,,,,,,,,,,,,,,,,,,,,,,,,,,,,,2015_Jul_07_0953,60.1413233,LearningTask,1,80,
-200,a,-200,,,,,,,,,,,,,,,,,1,0,1,0,21,1,85,3,,,,,,,,,,,,,,,,,,,,,,,,,,,,,a,1,0.35097694397,None,0,0.5,crossgreen.gif,go,,,,,,,,,,,,,,,,,,,,,,,,0.71,0.514514923096,0.000875949859619,0.35097694397,1,a,890.550482988,,,,,,,,,,,,,,,,,,,,,,,,,,,,,,,,,,,,,,,,,2015_Jul_07_0953,60.1413233,LearningTask,1,80,
200,s,-200,,,,,,,,,,,,,,,,,1,0,1,0,21,2,86,2,,,,,,,,,,,,,,,,,,,,,,,,,,,,,s,1,0.351256132126,None,0,2.0,invertedtrianglewhite.gif,go,,,,,,,,,,,,,,,,,,,,,,,,1.95,0.513865947723,0.000870943069458,0.351256132126,1,s,893.553628922,,,,,,,,,,,,,,,,,,,,,,,,,,,,,,,,,,,,,,,,,2015_Jul_07_0953,60.1413233,LearningTask,1,80,
-200,a,-200,,,,,,,,,,,,,,,,,1,0,1,0,21,3,87,3,,,,,,,,,,,,,,,,,,,,,,,,,,,,,a,1,0.401023864746,None,0,2.0,triangleorange.gif,stop,,,,,,,,,,,,,,,,,,,,,,,,2.11,0.513903856277,0.00121593475342,0.401023864746,1,a,896.556985855,,,,,,,,,,,,,,,,,,,,,,,,,,,,,,,,,,,,,,,,,2015_Jul_07_0953,60.1413233,LearningTask,1,80,
-200,q,200,,,,,,,,,,,,,,,,,1,0,1,0,22,0,88,1,,,,,,,,,,,,,,,,,,,,,,,,,,,,,q,1,0.367520093918,None,0,1.0,linecyan.gif,go,,,,,,,,,,,,,,,,,,,,,,,,0,0.513933897018,0.000952959060669,0.383916854858,0,a,899.559845924,,0,0.51571393013,0.000967979431152,0.350677013397,0,a,902.563416004,,,0,0.515449047089,0.000963926315308,0.367520093918,1,q,905.567102909,,,,,,,,,,,,,,,,,,,,,,,,2015_Jul_07_0953,60.1413233,LearningTask,1,80,
-200,q,200,,,,,,,,,,,,,,,,,1,0,1,0,22,1,89,1,,,,,,,,,,,,,,,,,,,,,,,,,,,,,q,1,0.418052911758,None,0,2.0,invertedtrianglewhite.gif,go,,,,,,,,,,,,,,,,,,,,,,,,1.97,0.513921976089,0.00087308883667,0.418052911758,1,q,908.570150852,,,,,,,,,,,,,,,,,,,,,,,,,,,,,,,,,,,,,,,,,2015_Jul_07_0953,60.1413233,LearningTask,1,80,
200,s,-200,,,,,,,,,,,,,,,,,1,0,1,0,22,2,90,2,,,,,,,,,,,,,,,,,,,,,,,,,,,,,s,1,0.367839813232,None,0,4.0,diamondyellow.gif,stop,,,,,,,,,,,,,,,,,,,,,,,,4.19,0.514271974564,0.00087308883667,0.367839813232,1,s,911.573628902,,,,,,,,,,,,,,,,,,,,,,,,,,,,,,,,,,,,,,,,,2015_Jul_07_0953,60.1413233,LearningTask,1,80,
200,s,-200,,,,,,,,,,,,,,,,,1,0,1,0,22,3,91,2,,,,,,,,,,,,,,,,,,,,,,,,,,,,,s,1,0.368209123611,None,0,1.0,squareblue.gif,stop,,,,,,,,,,,,,,,,,,,,,,,,1.08,0.513647079468,0.000910043716431,0.368209123611,1,s,914.576691866,,,,,,,,,,,,,,,,,,,,,,,,,,,,,,,,,,,,,,,,,2015_Jul_07_0953,60.1413233,LearningTask,1,80,
-200,q,200,,,,,,,,,,,,,,,,,1,0,1,0,23,0,92,1,,,,,,,,,,,,,,,,,,,,,,,,,,,,,q,1,0.400722026825,None,0,1.0,squareblue.gif,stop,,,,,,,,,,,,,,,,,,,,,,,,0.88,0.514641046524,0.000894069671631,0.400722026825,1,q,917.580322027,,,,,,,,,,,,,,,,,,,,,,,,,,,,,,,,,,,,,,,,,2015_Jul_07_0953,60.1413233,LearningTask,1,80,
-200,q,200,,,,,,,,,,,,,,,,,1,0,1,0,23,1,93,1,,,,,,,,,,,,,,,,,,,,,,,,,,,,,q,1,0.350382089615,None,0,2.0,triangleorange.gif,stop,,,,,,,,,,,,,,,,,,,,,,,,1.8,0.514719963074,0.00088095664978,0.350382089615,1,q,920.583791971,,,,,,,,,,,,,,,,,,,,,,,,,,,,,,,,,,,,,,,,,2015_Jul_07_0953,60.1413233,LearningTask,1,80,
200,s,-200,,,,,,,,,,,,,,,,,1,0,1,0,23,2,94,2,,,,,,,,,,,,,,,,,,,,,,,,,,,,,s,1,0.400809049606,None,0,0.5,circlegray.gif,stop,,,,,,,,,,,,,,,,,,,,,,,,0.52,0.514061927795,0.000909090042114,0.400809049606,1,s,923.587106943,,,,,,,,,,,,,,,,,,,,,,,,,,,,,,,,,,,,,,,,,2015_Jul_07_0953,60.1413233,LearningTask,1,80,
200,w,200,,,,,,,,,,,,,,,,,1,0,1,0,23,3,95,0,,,,,,,,,,,,,,,,,,,,,,,,,,,,,w,1,0.33452296257,None,0,0.5,crossgreen.gif,go,,,,,,,,,,,,,,,,,,,,,,,,0.49,0.514309883118,0.000906944274902,0.33452296257,1,w,926.590285063,,,,,,,,,,,,,,,,,,,,,,,,,,,,,,,,,,,,,,,,,2015_Jul_07_0953,60.1413233,LearningTask,1,80,
200,s,-200,,,,,,,,,,,,,,,,,1,0,1,0,24,0,96,2,,,,,,,,,,,,,,,,,,,,,,,,,,,,,s,1,0.350382089615,None,0,4.0,hexagonmagenta.gif,go,,,,,,,,,,,,,,,,,,,,,,,,3.96,0.514791965485,0.000885009765625,0.350382089615,1,s,929.593869925,,,,,,,,,,,,,,,,,,,,,,,,,,,,,,,,,,,,,,,,,2015_Jul_07_0953,60.1413233,LearningTask,1,80,
-200,a,-200,,,,,,,,,,,,,,,,,1,0,1,0,24,1,97,3,,,,,,,,,,,,,,,,,,,,,,,,,,,,,a,1,0.484229803085,None,0,2.0,invertedtrianglewhite.gif,go,,,,,,,,,,,,,,,,,,,,,,,,0,0.514451980591,0.000880002975464,0.384278059006,0,q,932.597159863,,2.11,0.51559305191,0.000949144363403,0.484229803085,1,a,935.60036993,,,,,,,,,,,,,,,,,,,,,,,,,,,,,,,,,2015_Jul_07_0953,60.1413233,LearningTask,1,80,
-200,q,200,,,,,,,,,,,,,,,,,1,0,1,0,24,2,98,1,,,,,,,,,,,,,,,,,,,,,,,,,,,,,q,1,0.450736999512,None,0,2.0,invertedtrianglewhite.gif,go,,,,,,,,,,,,,,,,,,,,,,,,2.13,0.514590978622,0.000880002975464,0.450736999512,1,q,938.603950024,,,,,,,,,,,,,,,,,,,,,,,,,,,,,,,,,,,,,,,,,2015_Jul_07_0953,60.1413233,LearningTask,1,80,
200,w,200,,,,,,,,,,,,,,,,,1,0,1,0,24,3,99,0,,,,,,,,,,,,,,,,,,,,,,,,,,,,,w,1,0.451335906982,None,0,2.0,invertedtrianglewhite.gif,go,,,,,,,,,,,,,,,,,,,,,,,,1.81,0.514265060425,0.000879049301147,0.451335906982,1,w,941.60730195,,,,,,,,,,,,,,,,,,,,,,,,,,,,,,,,,,,,,,,,,2015_Jul_07_0953,60.1413233,LearningTask,1,80,
,,,,,,,,,,,,,,,,,,,1,0,1,0,,,,,,,,,,,,,,,,,,,,,,,,,,,,,,,,,,,,,,,,,,,,,,,,,,,,,,,,,,,,,,,,,,,,,,,,,,,,,,,9,2.01789093018,,,,,,,,,,,,,,,,,,,,,,,,,,,,,,,2015_Jul_07_0953,60.1413233,LearningTask,1,80,
200,s,-200,,,,,,,,,,,,,,,,,2,0,2,0,0,0,0,2,,,,,,,,,,,,,,,,,,,,,,,,,,,,,s,1,0.701326847076,None,0,0.5,crossgreen.gif,go,,,,,,,,,,,,,,,,,,,,,,,,0.37,0.50939822197,0.00091814994812,0.701326847076,1,s,947.447701931,,,,,,,,,,,,,,,,,,,,,,,,,,,,,,,,,,,,,,,,,2015_Jul_07_0953,60.1413233,LearningTask,1,80,
200,w,200,,,,,,,,,,,,,,,,,2,0,2,0,0,1,1,0,,,,,,,,,,,,,,,,,,,,,,,,,,,,,w,1,0.383829116821,None,0,0.5,circlegray.gif,stop,,,,,,,,,,,,,,,,,,,,,,,,0.42,0.514011859894,0.000907897949219,0.383829116821,1,w,950.450839043,,,,,,,,,,,,,,,,,,,,,,,,,,,,,,,,,,,,,,,,,2015_Jul_07_0953,60.1413233,LearningTask,1,80,
200,s,-200,,,,,,,,,,,,,,,,,2,0,2,0,0,2,2,2,,,,,,,,,,,,,,,,,,,,,,,,,,,,,s,1,0.383675813675,None,0,4.0,diamondyellow.gif,stop,,,,,,,,,,,,,,,,,,,,,,,,4.06,0.513951063156,0.000904083251953,0.383675813675,1,s,953.454210997,,,,,,,,,,,,,,,,,,,,,,,,,,,,,,,,,,,,,,,,,2015_Jul_07_0953,60.1413233,LearningTask,1,80,
-200,a,-200,,,,,,,,,,,,,,,,,2,0,2,0,0,3,3,3,,,,,,,,,,,,,,,,,,,,,,,,,,,,,a,1,0.367218971252,None,0,0.5,crossgreen.gif,go,,,,,,,,,,,,,,,,,,,,,,,,0.51,0.514182090759,0.000895023345947,0.367218971252,1,a,956.457236052,,,,,,,,,,,,,,,,,,,,,,,,,,,,,,,,,,,,,,,,,2015_Jul_07_0953,60.1413233,LearningTask,1,80,
200,w,200,,,,,,,,,,,,,,,,,2,0,2,0,1,0,4,0,,,,,,,,,,,,,,,,,,,,,,,,,,,,,w,1,0.35112285614,None,0,1.0,squareblue.gif,stop,,,,,,,,,,,,,,,,,,,,,,,,0.95,0.514132022858,0.000877857208252,0.35112285614,1,w,959.461287022,,,,,,,,,,,,,,,,,,,,,,,,,,,,,,,,,,,,,,,,,2015_Jul_07_0953,60.1413233,LearningTask,1,80,
200,w,200,,,,,,,,,,,,,,,,,2,0,2,0,1,1,5,0,,,,,,,,,,,,,,,,,,,,,,,,,,,,,w,1,0.367376089096,None,0,1.0,linecyan.gif,go,,,,,,,,,,,,,,,,,,,,,,,,0.92,0.513689994812,0.000884056091309,0.367376089096,1,w,962.464092016,,,,,,,,,,,,,,,,,,,,,,,,,,,,,,,,,,,,,,,,,2015_Jul_07_0953,60.1413233,LearningTask,1,80,
-200,q,200,,,,,,,,,,,,,,,,,2,0,2,0,1,2,6,1,,,,,,,,,,,,,,,,,,,,,,,,,,,,,q,1,0.400814056396,None,0,4.0,diamondyellow.gif,stop,,,,,,,,,,,,,,,,,,,,,,,,4.07,0.514123916626,0.000897884368896,0.400814056396,1,q,965.467519999,,,,,,,,,,,,,,,,,,,,,,,,,,,,,,,,,,,,,,,,,2015_Jul_07_0953,60.1413233,LearningTask,1,80,
-200,q,200,,,,,,,,,,,,,,,,,2,0,2,0,1,3,7,1,,,,,,,,,,,,,,,,,,,,,,,,,,,,,q,1,0.35095000267,None,0,2.0,triangleorange.gif,stop,,,,,,,,,,,,,,,,,,,,,,,,1.92,0.51416015625,0.000881195068359,0.35095000267,1,q,968.471013069,,,,,,,,,,,,,,,,,,,,,,,,,,,,,,,,,,,,,,,,,2015_Jul_07_0953,60.1413233,LearningTask,1,80,
-200,a,-200,,,,,,,,,,,,,,,,,2,0,2,0,2,0,8,3,,,,,,,,,,,,,,,,,,,,,,,,,,,,,a,1,0.367996931076,None,0,0.5,circlegray.gif,stop,,,,,,,,,,,,,,,,,,,,,,,,0.67,0.513851881027,0.000900983810425,0.367996931076,1,a,971.474215984,,,,,,,,,,,,,,,,,,,,,,,,,,,,,,,,,,,,,,,,,2015_Jul_07_0953,60.1413233,LearningTask,1,80,
-200,q,200,,,,,,,,,,,,,,,,,2,0,2,0,2,1,9,1,,,,,,,,,,,,,,,,,,,,,,,,,,,,,q,1,0.3341319561,None,0,2.0,invertedtrianglewhite.gif,go,,,,,,,,,,,,,,,,,,,,,,,,2.06,0.514174938202,0.00108909606934,0.3341319561,1,q,974.478103876,,,,,,,,,,,,,,,,,,,,,,,,,,,,,,,,,,,,,,,,,2015_Jul_07_0953,60.1413233,LearningTask,1,80,
-200,a,-200,,,,,,,,,,,,,,,,,2,0,2,0,2,2,10,3,,,,,,,,,,,,,,,,,,,,,,,,,,,,,a,1,0.367327928543,None,0,2.0,triangleorange.gif,stop,,,,,,,,,,,,,,,,,,,,,,,,0,0.514063119888,0.00116610527039,0.367327928543,1,a,977.481025934,,,,,,,,,,,,,,,,,,,,,,,,,,,,,,,,,,,,,,,,,2015_Jul_07_0953,60.1413233,LearningTask,1,80,
-200,q,200,,,,,,,,,,,,,,,,,2,0,2,0,2,3,11,1,,,,,,,,,,,,,,,,,,,,,,,,,,,,,q,1,0.367313146591,None,0,1.0,squareblue.gif,stop,,,,,,,,,,,,,,,,,,,,,,,,0.75,0.514355897903,0.000913858413696,0.367313146591,1,q,980.484331846,,,,,,,,,,,,,,,,,,,,,,,,,,,,,,,,,,,,,,,,,2015_Jul_07_0953,60.1413233,LearningTask,1,80,
-200,q,200,,,,,,,,,,,,,,,,,2,0,2,0,3,0,12,1,,,,,,,,,,,,,,,,,,,,,,,,,,,,,q,1,0.384722948074,None,0,0.5,crossgreen.gif,go,,,,,,,,,,,,,,,,,,,,,,,,0,0.51393699646,0.0010199546814,0.384722948074,1,q,983.487815857,,,,,,,,,,,,,,,,,,,,,,,,,,,,,,,,,,,,,,,,,2015_Jul_07_0953,60.1413233,LearningTask,1,80,
200,w,200,,,,,,,,,,,,,,,,,2,0,2,0,3,1,13,0,,,,,,,,,,,,,,,,,,,,,,,,,,,,,w,1,0.367444992065,None,0,0.5,crossgreen.gif,go,,,,,,,,,,,,,,,,,,,,,,,,0,0.514271974564,0.000868797302246,0.367444992065,1,w,986.491133928,,,,,,,,,,,,,,,,,,,,,,,,,,,,,,,,,,,,,,,,,2015_Jul_07_0953,60.1413233,LearningTask,1,80,
200,s,-200,,,,,,,,,,,,,,,,,2,0,2,0,3,2,14,2,,,,,,,,,,,,,,,,,,,,,,,,,,,,,s,1,0.334115982056,None,0,1.0,linecyan.gif,go,,,,,,,,,,,,,,,,,,,,,,,,0.79,0.514311075211,0.000949859619141,0.334115982056,1,s,989.494193077,,,,,,,,,,,,,,,,,,,,,,,,,,,,,,,,,,,,,,,,,2015_Jul_07_0953,60.1413233,LearningTask,1,80,
200,w,200,,,,,,,,,,,,,,,,,2,0,2,0,3,3,15,0,,,,,,,,,,,,,,,,,,,,,,,,,,,,,w,1,0.334656000137,None,0,4.0,hexagonmagenta.gif,go,,,,,,,,,,,,,,,,,,,,,,,,0,0.514037847519,0.000934839248657,0.334656000137,1,w,992.497845888,,,,,,,,,,,,,,,,,,,,,,,,,,,,,,,,,,,,,,,,,2015_Jul_07_0953,60.1413233,LearningTask,1,80,
200,s,-200,,,,,,,,,,,,,,,,,2,0,2,0,4,0,16,2,,,,,,,,,,,,,,,,,,,,,,,,,,,,,s,1,0.351250886917,None,0,0.5,crossgreen.gif,go,,,,,,,,,,,,,,,,,,,,,,,,0,0.514642953873,0.000872135162354,0.367346763611,0,w,995.501293898,,0.53,0.515264987946,0.00104188919067,0.351250886917,1,s,998.505332947,,,,,,,,,,,,,,,,,,,,,,,,,,,,,,,,,2015_Jul_07_0953,60.1413233,LearningTask,1,80,
-200,q,200,,,,,,,,,,,,,,,,,2,0,2,0,4,1,17,1,,,,,,,,,,,,,,,,,,,,,,,,,,,,,q,1,0.35059094429,None,0,1.0,squareblue.gif,stop,,,,,,,,,,,,,,,,,,,,,,,,1.1,0.513519048691,0.000885963439941,0.35059094429,1,q,1001.50834394,,,,,,,,,,,,,,,,,,,,,,,,,,,,,,,,,,,,,,,,,2015_Jul_07_0953,60.1413233,LearningTask,1,80,
-200,a,-200,,,,,,,,,,,,,,,,,2,0,2,0,4,2,18,3,,,,,,,,,,,,,,,,,,,,,,,,,,,,,a,1,0.383986949921,None,0,0.5,crossgreen.gif,go,,,,,,,,,,,,,,,,,,,,,,,,0,0.514299154282,0.000898122787476,0.417234897614,0,s,1004.51184988,,0.32,0.515165805817,0.000974893569946,0.383986949921,1,a,1007.51498604,,,,,,,,,,,,,,,,,,,,,,,,,,,,,,,,,2015_Jul_07_0953,60.1413233,LearningTask,1,80,
200,w,200,,,,,,,,,,,,,,,,,2,0,2,0,4,3,19,0,,,,,,,,,,,,,,,,,,,,,,,,,,,,,w,1,0.350956916809,None,0,0.5,crossgreen.gif,go,,,,,,,,,,,,,,,,,,,,,,,,0.54,0.51416516304,0.000880002975464,0.350956916809,1,w,1010.51792502,,,,,,,,,,,,,,,,,,,,,,,,,,,,,,,,,,,,,,,,,2015_Jul_07_0953,60.1413233,LearningTask,1,80,
-200,q,200,,,,,,,,,,,,,,,,,2,0,2,0,5,0,20,1,,,,,,,,,,,,,,,,,,,,,,,,,,,,,q,1,0.351360082626,None,0,4.0,hexagonmagenta.gif,go,,,,,,,,,,,,,,,,,,,,,,,,4.23,0.514397859573,0.000887870788574,0.351360082626,1,q,1013.52169204,,,,,,,,,,,,,,,,,,,,,,,,,,,,,,,,,,,,,,,,,2015_Jul_07_0953,60.1413233,LearningTask,1,80,
200,w,200,,,,,,,,,,,,,,,,,2,0,2,0,5,1,21,0,,,,,,,,,,,,,,,,,,,,,,,,,,,,,w,1,0.384462118149,None,0,0.5,crossgreen.gif,go,,,,,,,,,,,,,,,,,,,,,,,,0.43,0.514226913452,0.000893831253052,0.384462118149,1,w,1016.52477098,,,,,,,,,,,,,,,,,,,,,,,,,,,,,,,,,,,,,,,,,2015_Jul_07_0953,60.1413233,LearningTask,1,80,
200,w,200,,,,,,,,,,,,,,,,,2,0,2,0,5,2,22,0,,,,,,,,,,,,,,,,,,,,,,,,,,,,,w,1,0.38453578949,None,0,0.5,crossgreen.gif,go,,,,,,,,,,,,,,,,,,,,,,,,0,0.51397895813,0.000906944274902,0.38453578949,1,w,1019.52814889,,,,,,,,,,,,,,,,,,,,,,,,,,,,,,,,,,,,,,,,,2015_Jul_07_0953,60.1413233,LearningTask,1,80,
200,s,-200,,,,,,,,,,,,,,,,,2,0,2,0,5,3,23,2,,,,,,,,,,,,,,,,,,,,,,,,,,,,,s,1,0.350625038147,None,0,1.0,squareblue.gif,stop,,,,,,,,,,,,,,,,,,,,,,,,1.21,0.514672040939,0.00120615959167,0.350625038147,1,s,1022.53175688,,,,,,,,,,,,,,,,,,,,,,,,,,,,,,,,,,,,,,,,,2015_Jul_07_0953,60.1413233,LearningTask,1,80,
-200,q,200,,,,,,,,,,,,,,,,,2,0,2,0,6,0,24,1,,,,,,,,,,,,,,,,,,,,,,,,,,,,,q,1,0.451078891754,None,0,2.0,triangleorange.gif,stop,,,,,,,,,,,,,,,,,,,,,,,,2.19,0.51411485672,0.000875949859619,0.451078891754,1,q,1025.53513288,,,,,,,,,,,,,,,,,,,,,,,,,,,,,,,,,,,,,,,,,2015_Jul_07_0953,60.1413233,LearningTask,1,80,
-200,q,200,,,,,,,,,,,,,,,,,2,0,2,0,6,1,25,1,,,,,,,,,,,,,,,,,,,,,,,,,,,,,q,1,0.434005022049,None,0,4.0,diamondyellow.gif,stop,,,,,,,,,,,,,,,,,,,,,,,,4.13,0.514314889908,0.000921964645386,0.434005022049,1,q,1028.53825092,,,,,,,,,,,,,,,,,,,,,,,,,,,,,,,,,,,,,,,,,2015_Jul_07_0953,60.1413233,LearningTask,1,80,
-200,q,200,,,,,,,,,,,,,,,,,2,0,2,0,6,2,26,1,,,,,,,,,,,,,,,,,,,,,,,,,,,,,q,1,0.384616136551,None,0,2.0,invertedtrianglewhite.gif,go,,,,,,,,,,,,,,,,,,,,,,,,2.14,0.51410484314,0.000924825668335,0.384616136551,1,q,1031.54179502,,,,,,,,,,,,,,,,,,,,,,,,,,,,,,,,,,,,,,,,,2015_Jul_07_0953,60.1413233,LearningTask,1,80,
200,w,200,,,,,,,,,,,,,,,,,2,0,2,0,6,3,27,0,,,,,,,,,,,,,,,,,,,,,,,,,,,,,w,1,0.367383956909,None,0,4.0,diamondyellow.gif,stop,,,,,,,,,,,,,,,,,,,,,,,,4.05,0.5142121315,0.000879049301147,0.367383956909,1,w,1034.54529405,,,,,,,,,,,,,,,,,,,,,,,,,,,,,,,,,,,,,,,,,2015_Jul_07_0953,60.1413233,LearningTask,1,80,
200,s,-200,,,,,,,,,,,,,,,,,2,0,2,0,7,0,28,2,,,,,,,,,,,,,,,,,,,,,,,,,,,,,s,1,0.334319114685,None,0,0.5,circlegray.gif,stop,,,,,,,,,,,,,,,,,,,,,,,,0,0.514226913452,0.00092887878418,0.334319114685,1,s,1037.54847097,,,,,,,,,,,,,,,,,,,,,,,,,,,,,,,,,,,,,,,,,2015_Jul_07_0953,60.1413233,LearningTask,1,80,
-200,q,200,,,,,,,,,,,,,,,,,2,0,2,0,7,1,29,1,,,,,,,,,,,,,,,,,,,,,,,,,,,,,q,1,0.367428064346,None,0,4.0,diamondyellow.gif,stop,,,,,,,,,,,,,,,,,,,,,,,,3.91,0.5141518116,0.000953912734985,0.367428064346,1,q,1040.55178595,,,,,,,,,,,,,,,,,,,,,,,,,,,,,,,,,,,,,,,,,2015_Jul_07_0953,60.1413233,LearningTask,1,80,
200,w,200,,,,,,,,,,,,,,,,,2,0,2,0,7,2,30,0,,,,,,,,,,,,,,,,,,,,,,,,,,,,,w,1,0.317821025848,None,0,4.0,hexagonmagenta.gif,go,,,,,,,,,,,,,,,,,,,,,,,,4.07,0.514433145523,0.000897169113159,0.317821025848,1,w,1043.55519199,,,,,,,,,,,,,,,,,,,,,,,,,,,,,,,,,,,,,,,,,2015_Jul_07_0953,60.1413233,LearningTask,1,80,
-200,q,200,,,,,,,,,,,,,,,,,2,0,2,0,7,3,31,1,,,,,,,,,,,,,,,,,,,,,,,,,,,,,q,1,0.334475040436,None,0,4.0,hexagonmagenta.gif,go,,,,,,,,,,,,,,,,,,,,,,,,4.1,0.514120101929,0.00091290473938,0.334475040436,1,q,1046.55862403,,,,,,,,,,,,,,,,,,,,,,,,,,,,,,,,,,,,,,,,,2015_Jul_07_0953,60.1413233,LearningTask,1,80,
200,s,-200,,,,,,,,,,,,,,,,,2,0,2,0,8,0,32,2,,,,,,,,,,,,,,,,,,,,,,,,,,,,,s,1,0.400911808014,None,0,0.5,circlegray.gif,stop,,,,,,,,,,,,,,,,,,,,,,,,0.5,0.514276981354,0.00090217590332,0.400911808014,1,s,1049.56188393,,,,,,,,,,,,,,,,,,,,,,,,,,,,,,,,,,,,,,,,,2015_Jul_07_0953,60.1413233,LearningTask,1,80,
-200,a,-200,,,,,,,,,,,,,,,,,2,0,2,0,8,1,33,3,,,,,,,,,,,,,,,,,,,,,,,,,,,,,a,1,0.350938081741,None,0,4.0,hexagonmagenta.gif,go,,,,,,,,,,,,,,,,,,,,,,,,0,0.514642953873,0.000883102416992,0.350938081741,1,a,1052.56546593,,,,,,,,,,,,,,,,,,,,,,,,,,,,,,,,,,,,,,,,,2015_Jul_07_0953,60.1413233,LearningTask,1,80,
200,s,-200,,,,,,,,,,,,,,,,,2,0,2,0,8,2,34,2,,,,,,,,,,,,,,,,,,,,,,,,,,,,,s,1,0.450840950012,None,0,4.0,diamondyellow.gif,stop,,,,,,,,,,,,,,,,,,,,,,,,4.07,0.513808965683,0.000878095626831,0.450840950012,1,s,1055.56887984,,,,,,,,,,,,,,,,,,,,,,,,,,,,,,,,,,,,,,,,,2015_Jul_07_0953,60.1413233,LearningTask,1,80,
200,w,200,,,,,,,,,,,,,,,,,2,0,2,0,8,3,35,0,,,,,,,,,,,,,,,,,,,,,,,,,,,,,w,1,0.351088047028,None,0,1.0,squareblue.gif,stop,,,,,,,,,,,,,,,,,,,,,,,,1.1,0.513922929764,0.000863075256348,0.351088047028,1,w,1058.57208991,,,,,,,,,,,,,,,,,,,,,,,,,,,,,,,,,,,,,,,,,2015_Jul_07_0953,60.1413233,LearningTask,1,80,
200,w,200,,,,,,,,,,,,,,,,,2,0,2,0,9,0,36,0,,,,,,,,,,,,,,,,,,,,,,,,,,,,,w,1,0.351053953171,None,0,0.5,circlegray.gif,stop,,,,,,,,,,,,,,,,,,,,,,,,0,0.514230012894,0.00111699104309,0.351053953171,1,w,1061.57624507,,,,,,,,,,,,,,,,,,,,,,,,,,,,,,,,,,,,,,,,,2015_Jul_07_0953,60.1413233,LearningTask,1,80,
200,w,200,,,,,,,,,,,,,,,,,2,0,2,0,9,1,37,0,,,,,,,,,,,,,,,,,,,,,,,,,,,,,w,1,0.350437879562,None,0,1.0,squareblue.gif,stop,,,,,,,,,,,,,,,,,,,,,,,,1.12,0.513829231262,0.000870227813721,0.350437879562,1,w,1064.57886291,,,,,,,,,,,,,,,,,,,,,,,,,,,,,,,,,,,,,,,,,2015_Jul_07_0953,60.1413233,LearningTask,1,80,
-200,q,200,,,,,,,,,,,,,,,,,2,0,2,0,9,2,38,1,,,,,,,,,,,,,,,,,,,,,,,,,,,,,q,1,0.334614992142,None,0,2.0,triangleorange.gif,stop,,,,,,,,,,,,,,,,,,,,,,,,2.21,0.514312982559,0.000874996185303,0.334614992142,1,q,1067.582268,,,,,,,,,,,,,,,,,,,,,,,,,,,,,,,,,,,,,,,,,2015_Jul_07_0953,60.1413233,LearningTask,1,80,
-200,q,200,,,,,,,,,,,,,,,,,2,0,2,0,9,3,39,1,,,,,,,,,,,,,,,,,,,,,,,,,,,,,q,1,0.384266138077,None,0,2.0,triangleorange.gif,stop,,,,,,,,,,,,,,,,,,,,,,,,2.23,0.51410484314,0.000943899154663,0.384266138077,1,q,1070.58576703,,,,,,,,,,,,,,,,,,,,,,,,,,,,,,,,,,,,,,,,,2015_Jul_07_0953,60.1413233,LearningTask,1,80,
200,s,-200,,,,,,,,,,,,,,,,,2,0,2,0,10,0,40,2,,,,,,,,,,,,,,,,,,,,,,,,,,,,,s,1,0.367515087128,None,0,0.5,crossgreen.gif,go,,,,,,,,,,,,,,,,,,,,,,,,0.45,0.514073133469,0.000877141952515,0.367515087128,1,s,1073.58917999,,,,,,,,,,,,,,,,,,,,,,,,,,,,,,,,,,,,,,,,,2015_Jul_07_0953,60.1413233,LearningTask,1,80,
-200,q,200,,,,,,,,,,,,,,,,,2,0,2,0,10,1,41,1,,,,,,,,,,,,,,,,,,,,,,,,,,,,,q,1,0.334105014801,None,0,2.0,invertedtrianglewhite.gif,go,,,,,,,,,,,,,,,,,,,,,,,,1.89,0.514085054398,0.00108098983765,0.334105014801,1,q,1076.59230304,,,,,,,,,,,,,,,,,,,,,,,,,,,,,,,,,,,,,,,,,2015_Jul_07_0953,60.1413233,LearningTask,1,80,
200,s,-200,,,,,,,,,,,,,,,,,2,0,2,0,10,2,42,2,,,,,,,,,,,,,,,,,,,,,,,,,,,,,s,1,0.35157585144,None,0,4.0,diamondyellow.gif,stop,,,,,,,,,,,,,,,,,,,,,,,,4.07,0.513857126236,0.00092601776123,0.35157585144,1,s,1079.59598589,,,,,,,,,,,,,,,,,,,,,,,,,,,,,,,,,,,,,,,,,2015_Jul_07_0953,60.1413233,LearningTask,1,80,
-200,q,200,,,,,,,,,,,,,,,,,2,0,2,0,10,3,43,1,,,,,,,,,,,,,,,,,,,,,,,,,,,,,q,1,0.351027965546,None,0,0.5,crossgreen.gif,go,,,,,,,,,,,,,,,,,,,,,,,,0.52,0.514023065567,0.000892877578735,0.351027965546,1,q,1082.5991869,,,,,,,,,,,,,,,,,,,,,,,,,,,,,,,,,,,,,,,,,2015_Jul_07_0953,60.1413233,LearningTask,1,80,
-200,a,-200,,,,,,,,,,,,,,,,,2,0,2,0,11,0,44,3,,,,,,,,,,,,,,,,,,,,,,,,,,,,,a,1,0.400249004364,None,0,2.0,triangleorange.gif,stop,,,,,,,,,,,,,,,,,,,,,,,,1.89,0.514148950577,0.00093412399292,0.400249004364,1,a,1085.6027019,,,,,,,,,,,,,,,,,,,,,,,,,,,,,,,,,,,,,,,,,2015_Jul_07_0953,60.1413233,LearningTask,1,80,
200,s,-200,,,,,,,,,,,,,,,,,2,0,2,0,11,1,45,2,,,,,,,,,,,,,,,,,,,,,,,,,,,,,s,1,0.350999116898,None,0,4.0,diamondyellow.gif,stop,,,,,,,,,,,,,,,,,,,,,,,,0,0.513670921326,0.000936985015869,0.350999116898,1,s,1088.60567784,,,,,,,,,,,,,,,,,,,,,,,,,,,,,,,,,,,,,,,,,2015_Jul_07_0953,60.1413233,LearningTask,1,80,
-200,a,-200,,,,,,,,,,,,,,,,,2,0,2,0,11,2,46,3,,,,,,,,,,,,,,,,,,,,,,,,,,,,,a,1,0.400913000107,None,0,4.0,diamondyellow.gif,stop,,,,,,,,,,,,,,,,,,,,,,,,3.79,0.514282941818,0.00102996826172,0.400913000107,1,a,1091.60928893,,,,,,,,,,,,,,,,,,,,,,,,,,,,,,,,,,,,,,,,,2015_Jul_07_0953,60.1413233,LearningTask,1,80,
200,s,-200,,,,,,,,,,,,,,,,,2,0,2,0,11,3,47,2,,,,,,,,,,,,,,,,,,,,,,,,,,,,,s,1,0.433881998062,None,0,1.0,linecyan.gif,go,,,,,,,,,,,,,,,,,,,,,,,,0.92,0.514377117157,0.00091814994812,0.433881998062,1,s,1094.61328697,,,,,,,,,,,,,,,,,,,,,,,,,,,,,,,,,,,,,,,,,2015_Jul_07_0953,60.1413233,LearningTask,1,80,
200,s,-200,,,,,,,,,,,,,,,,,2,0,2,0,12,0,48,2,,,,,,,,,,,,,,,,,,,,,,,,,,,,,s,1,0.334409952164,None,0,0.5,circlegray.gif,stop,,,,,,,,,,,,,,,,,,,,,,,,0.52,0.513187885284,0.00100898742676,0.334409952164,1,s,1097.61609006,,,,,,,,,,,,,,,,,,,,,,,,,,,,,,,,,,,,,,,,,2015_Jul_07_0953,60.1413233,LearningTask,1,80,
200,s,-200,,,,,,,,,,,,,,,,,2,0,2,0,12,1,49,2,,,,,,,,,,,,,,,,,,,,,,,,,,,,,s,1,0.334434986115,None,0,1.0,linecyan.gif,go,,,,,,,,,,,,,,,,,,,,,,,,1.15,0.514314174652,0.000923156738281,0.334434986115,1,s,1100.61950994,,,,,,,,,,,,,,,,,,,,,,,,,,,,,,,,,,,,,,,,,2015_Jul_07_0953,60.1413233,LearningTask,1,80,
200,w,200,,,,,,,,,,,,,,,,,2,0,2,0,12,2,50,0,,,,,,,,,,,,,,,,,,,,,,,,,,,,,w,1,0.368020057678,None,0,0.5,circlegray.gif,stop,,,,,,,,,,,,,,,,,,,,,,,,0.66,0.513906955719,0.000848054885864,0.368020057678,1,w,1103.62286091,,,,,,,,,,,,,,,,,,,,,,,,,,,,,,,,,,,,,,,,,2015_Jul_07_0953,60.1413233,LearningTask,1,80,
-200,q,200,,,,,,,,,,,,,,,,,2,0,2,0,12,3,51,1,,,,,,,,,,,,,,,,,,,,,,,,,,,,,q,1,0.451236963272,None,0,2.0,triangleorange.gif,stop,,,,,,,,,,,,,,,,,,,,,,,,0,0.51417183876,0.000866889953613,0.334079027176,0,a,1106.62631106,,2.16,0.515232086182,0.000972986221313,0.451236963272,1,q,1109.62974906,,,,,,,,,,,,,,,,,,,,,,,,,,,,,,,,,2015_Jul_07_0953,60.1413233,LearningTask,1,80,
-200,q,200,,,,,,,,,,,,,,,,,2,0,2,0,13,0,52,1,,,,,,,,,,,,,,,,,,,,,,,,,,,,,q,1,0.401224136353,None,0,0.5,crossgreen.gif,go,,,,,,,,,,,,,,,,,,,,,,,,0.69,0.513345956802,0.00115990638733,0.401224136353,1,q,1112.63292289,,,,,,,,,,,,,,,,,,,,,,,,,,,,,,,,,,,,,,,,,2015_Jul_07_0953,60.1413233,LearningTask,1,80,
200,w,200,,,,,,,,,,,,,,,,,2,0,2,0,13,1,53,0,,,,,,,,,,,,,,,,,,,,,,,,,,,,,w,1,0.334223985672,None,0,1.0,squareblue.gif,stop,,,,,,,,,,,,,,,,,,,,,,,,0.76,0.514406204224,0.00129699707031,0.334223985672,1,w,1115.63621306,,,,,,,,,,,,,,,,,,,,,,,,,,,,,,,,,,,,,,,,,2015_Jul_07_0953,60.1413233,LearningTask,1,80,
200,s,-200,,,,,,,,,,,,,,,,,2,0,2,0,13,2,54,2,,,,,,,,,,,,,,,,,,,,,,,,,,,,,s,1,0.334183931351,None,0,2.0,invertedtrianglewhite.gif,go,,,,,,,,,,,,,,,,,,,,,,,,2.21,0.51394701004,0.00137901306152,0.334183931351,1,s,1118.63969088,,,,,,,,,,,,,,,,,,,,,,,,,,,,,,,,,,,,,,,,,2015_Jul_07_0953,60.1413233,LearningTask,1,80,
200,s,-200,,,,,,,,,,,,,,,,,2,0,2,0,13,3,55,2,,,,,,,,,,,,,,,,,,,,,,,,,,,,,s,1,0.350800037384,None,0,4.0,diamondyellow.gif,stop,,,,,,,,,,,,,,,,,,,,,,,,3.94,0.514492988586,0.00126791000366,0.350800037384,1,s,1121.64280605,,,,,,,,,,,,,,,,,,,,,,,,,,,,,,,,,,,,,,,,,2015_Jul_07_0953,60.1413233,LearningTask,1,80,
200,s,-200,,,,,,,,,,,,,,,,,2,0,2,0,14,0,56,2,,,,,,,,,,,,,,,,,,,,,,,,,,,,,s,1,0.35054898262,None,0,1.0,linecyan.gif,go,,,,,,,,,,,,,,,,,,,,,,,,1.16,0.514720916748,0.00129294395447,0.35054898262,1,s,1124.64681101,,,,,,,,,,,,,,,,,,,,,,,,,,,,,,,,,,,,,,,,,2015_Jul_07_0953,60.1413233,LearningTask,1,80,
200,w,200,,,,,,,,,,,,,,,,,2,0,2,0,14,1,57,0,,,,,,,,,,,,,,,,,,,,,,,,,,,,,w,1,0.384124040604,None,0,0.5,crossgreen.gif,go,,,,,,,,,,,,,,,,,,,,,,,,0.64,0.513763904572,0.00122690200806,0.384124040604,1,w,1127.64999604,,,,,,,,,,,,,,,,,,,,,,,,,,,,,,,,,,,,,,,,,2015_Jul_07_0953,60.1413233,LearningTask,1,80,
-200,q,200,,,,,,,,,,,,,,,,,2,0,2,0,14,2,58,1,,,,,,,,,,,,,,,,,,,,,,,,,,,,,q,1,0.350954055786,None,0,1.0,squareblue.gif,stop,,,,,,,,,,,,,,,,,,,,,,,,1.25,0.514292001724,0.000910043716431,0.350954055786,1,q,1130.65321302,,,,,,,,,,,,,,,,,,,,,,,,,,,,,,,,,,,,,,,,,2015_Jul_07_0953,60.1413233,LearningTask,1,80,
-200,a,-200,,,,,,,,,,,,,,,,,2,0,2,0,14,3,59,3,,,,,,,,,,,,,,,,,,,,,,,,,,,,,a,1,0.334295034409,None,0,2.0,triangleorange.gif,stop,,,,,,,,,,,,,,,,,,,,,,,,1.76,0.513903141022,0.00131011009216,0.334295034409,1,a,1133.65710187,,,,,,,,,,,,,,,,,,,,,,,,,,,,,,,,,,,,,,,,,2015_Jul_07_0953,60.1413233,LearningTask,1,80,
200,s,-200,,,,,,,,,,,,,,,,,2,0,2,0,15,0,60,2,,,,,,,,,,,,,,,,,,,,,,,,,,,,,s,1,0.300840854645,None,0,2.0,invertedtrianglewhite.gif,go,,,,,,,,,,,,,,,,,,,,,,,,0,0.513795852661,0.000888824462891,0.300840854645,1,s,1136.65989184,,,,,,,,,,,,,,,,,,,,,,,,,,,,,,,,,,,,,,,,,2015_Jul_07_0953,60.1413233,LearningTask,1,80,
-200,q,200,,,,,,,,,,,,,,,,,2,0,2,0,15,1,61,1,,,,,,,,,,,,,,,,,,,,,,,,,,,,,q,1,0.33399605751,None,0,4.0,hexagonmagenta.gif,go,,,,,,,,,,,,,,,,,,,,,,,,0,0.514537096024,0.00129199028015,0.33399605751,1,q,1139.66300988,,,,,,,,,,,,,,,,,,,,,,,,,,,,,,,,,,,,,,,,,2015_Jul_07_0953,60.1413233,LearningTask,1,80,
200,s,-200,,,,,,,,,,,,,,,,,2,0,2,0,15,2,62,2,,,,,,,,,,,,,,,,,,,,,,,,,,,,,s,1,0.351125001907,None,0,1.0,linecyan.gif,go,,,,,,,,,,,,,,,,,,,,,,,,0,0.51486492157,0.000877857208252,0.350666046143,0,w,1142.66673994,,0,0.515230178833,0.000938177108765,[],0,None,1145.67009902,,,0.98,0.515397071838,0.000943183898926,0.351125001907,1,s,1148.67357492,,,,,,,,,,,,,,,,,,,,,,,,2015_Jul_07_0953,60.1413233,LearningTask,1,80,
200,s,-200,,,,,,,,,,,,,,,,,2,0,2,0,15,3,63,2,,,,,,,,,,,,,,,,,,,,,,,,,,,,,s,1,0.317506074905,None,0,1.0,squareblue.gif,stop,,,,,,,,,,,,,,,,,,,,,,,,0,0.513995885849,0.000865936279297,0.317506074905,1,s,1151.67691493,,,,,,,,,,,,,,,,,,,,,,,,,,,,,,,,,,,,,,,,,2015_Jul_07_0953,60.1413233,LearningTask,1,80,
-200,a,-200,,,,,,,,,,,,,,,,,2,0,2,0,16,0,64,3,,,,,,,,,,,,,,,,,,,,,,,,,,,,,a,1,0.367798089981,None,0,1.0,squareblue.gif,stop,,,,,,,,,,,,,,,,,,,,,,,,0,0.513951063156,0.000879049301147,0.367798089981,1,a,1154.6804409,,,,,,,,,,,,,,,,,,,,,,,,,,,,,,,,,,,,,,,,,2015_Jul_07_0953,60.1413233,LearningTask,1,80,
-200,a,-200,,,,,,,,,,,,,,,,,2,0,2,0,16,1,65,3,,,,,,,,,,,,,,,,,,,,,,,,,,,,,a,1,0.350845098495,None,0,0.5,crossgreen.gif,go,,,,,,,,,,,,,,,,,,,,,,,,0.61,0.513797044754,0.00093412399292,0.350845098495,1,a,1157.68400693,,,,,,,,,,,,,,,,,,,,,,,,,,,,,,,,,,,,,,,,,2015_Jul_07_0953,60.1413233,LearningTask,1,80,
200,w,200,,,,,,,,,,,,,,,,,2,0,2,0,16,2,66,0,,,,,,,,,,,,,,,,,,,,,,,,,,,,,w,1,0.334327936172,None,0,4.0,diamondyellow.gif,stop,,,,,,,,,,,,,,,,,,,,,,,,3.93,0.51350903511,0.000878095626831,0.334327936172,1,w,1160.68682289,,,,,,,,,,,,,,,,,,,,,,,,,,,,,,,,,,,,,,,,,2015_Jul_07_0953,60.1413233,LearningTask,1,80,
-200,q,200,,,,,,,,,,,,,,,,,2,0,2,0,16,3,67,1,,,,,,,,,,,,,,,,,,,,,,,,,,,,,q,1,0.434267997742,None,0,2.0,triangleorange.gif,stop,,,,,,,,,,,,,,,,,,,,,,,,1.8,0.514343976974,0.000884771347046,0.434267997742,1,q,1163.69001389,,,,,,,,,,,,,,,,,,,,,,,,,,,,,,,,,,,,,,,,,2015_Jul_07_0953,60.1413233,LearningTask,1,80,
200,s,-200,,,,,,,,,,,,,,,,,2,0,2,0,17,0,68,2,,,,,,,,,,,,,,,,,,,,,,,,,,,,,s,1,0.350927114487,None,0,4.0,hexagonmagenta.gif,go,,,,,,,,,,,,,,,,,,,,,,,,4.21,0.514205932617,0.00092887878418,0.350927114487,1,s,1166.69374394,,,,,,,,,,,,,,,,,,,,,,,,,,,,,,,,,,,,,,,,,2015_Jul_07_0953,60.1413233,LearningTask,1,80,
-200,a,-200,,,,,,,,,,,,,,,,,2,0,2,0,17,1,69,3,,,,,,,,,,,,,,,,,,,,,,,,,,,,,a,1,0.317290067673,None,0,2.0,triangleorange.gif,stop,,,,,,,,,,,,,,,,,,,,,,,,1.86,0.514156103134,0.000879049301147,0.317290067673,1,a,1169.69708896,,,,,,,,,,,,,,,,,,,,,,,,,,,,,,,,,,,,,,,,,2015_Jul_07_0953,60.1413233,LearningTask,1,80,
200,s,-200,,,,,,,,,,,,,,,,,2,0,2,0,17,2,70,2,,,,,,,,,,,,,,,,,,,,,,,,,,,,,s,1,0.367251873016,None,0,2.0,triangleorange.gif,stop,,,,,,,,,,,,,,,,,,,,,,,,1.99,0.514240026474,0.000993967056274,0.367251873016,1,s,1172.7005229,,,,,,,,,,,,,,,,,,,,,,,,,,,,,,,,,,,,,,,,,2015_Jul_07_0953,60.1413233,LearningTask,1,80,
200,w,200,,,,,,,,,,,,,,,,,2,0,2,0,17,3,71,0,,,,,,,,,,,,,,,,,,,,,,,,,,,,,w,1,0.434359073639,None,0,1.0,linecyan.gif,go,,,,,,,,,,,,,,,,,,,,,,,,1.03,0.513906955719,0.00088906288147,0.434359073639,1,w,1175.70363903,,,,,,,,,,,,,,,,,,,,,,,,,,,,,,,,,,,,,,,,,2015_Jul_07_0953,60.1413233,LearningTask,1,80,
-200,a,-200,,,,,,,,,,,,,,,,,2,0,2,0,18,0,72,3,,,,,,,,,,,,,,,,,,,,,,,,,,,,,a,1,0.36740398407,None,0,0.5,crossgreen.gif,go,,,,,,,,,,,,,,,,,,,,,,,,0.36,0.514706134796,0.000931024551392,0.36740398407,1,a,1178.70715284,,,,,,,,,,,,,,,,,,,,,,,,,,,,,,,,,,,,,,,,,2015_Jul_07_0953,60.1413233,LearningTask,1,80,
-200,a,-200,,,,,,,,,,,,,,,,,2,0,2,0,18,1,73,3,,,,,,,,,,,,,,,,,,,,,,,,,,,,,a,1,0.400965929031,None,0,2.0,invertedtrianglewhite.gif,go,,,,,,,,,,,,,,,,,,,,,,,,1.92,0.513952970505,0.000884056091309,0.400965929031,1,a,1181.711236,,,,,,,,,,,,,,,,,,,,,,,,,,,,,,,,,,,,,,,,,2015_Jul_07_0953,60.1413233,LearningTask,1,80,
200,w,200,,,,,,,,,,,,,,,,,2,0,2,0,18,2,74,0,,,,,,,,,,,,,,,,,,,,,,,,,,,,,w,1,0.400904893875,None,0,4.0,diamondyellow.gif,stop,,,,,,,,,,,,,,,,,,,,,,,,4.18,0.513535022736,0.000902891159058,0.400904893875,1,w,1184.71397495,,,,,,,,,,,,,,,,,,,,,,,,,,,,,,,,,,,,,,,,,2015_Jul_07_0953,60.1413233,LearningTask,1,80,
-200,a,-200,,,,,,,,,,,,,,,,,2,0,2,0,18,3,75,3,,,,,,,,,,,,,,,,,,,,,,,,,,,,,a,1,0.384249925613,None,0,1.0,squareblue.gif,stop,,,,,,,,,,,,,,,,,,,,,,,,1.04,0.514290809631,0.00086784362793,0.384249925613,1,a,1187.71743298,,,,,,,,,,,,,,,,,,,,,,,,,,,,,,,,,,,,,,,,,2015_Jul_07_0953,60.1413233,LearningTask,1,80,
200,s,-200,,,,,,,,,,,,,,,,,2,0,2,0,19,0,76,2,,,,,,,,,,,,,,,,,,,,,,,,,,,,,s,1,0.334585905075,None,0,1.0,squareblue.gif,stop,,,,,,,,,,,,,,,,,,,,,,,,0.93,0.514071941376,0.000870943069458,0.334585905075,1,s,1190.72091293,,,,,,,,,,,,,,,,,,,,,,,,,,,,,,,,,,,,,,,,,2015_Jul_07_0953,60.1413233,LearningTask,1,80,
-200,q,200,,,,,,,,,,,,,,,,,2,0,2,0,19,1,77,1,,,,,,,,,,,,,,,,,,,,,,,,,,,,,q,1,0.384413003922,None,0,2.0,invertedtrianglewhite.gif,go,,,,,,,,,,,,,,,,,,,,,,,,1.9,0.514042139053,0.000879049301147,0.384413003922,1,q,1193.72405505,,,,,,,,,,,,,,,,,,,,,,,,,,,,,,,,,,,,,,,,,2015_Jul_07_0953,60.1413233,LearningTask,1,80,
-200,a,-200,,,,,,,,,,,,,,,,,2,0,2,0,19,2,78,3,,,,,,,,,,,,,,,,,,,,,,,,,,,,,a,1,0.384168863297,None,0,1.0,squareblue.gif,stop,,,,,,,,,,,,,,,,,,,,,,,,1.16,0.513786792755,0.000999927520752,0.384168863297,1,a,1196.72765589,,,,,,,,,,,,,,,,,,,,,,,,,,,,,,,,,,,,,,,,,2015_Jul_07_0953,60.1413233,LearningTask,1,80,
-200,a,-200,,,,,,,,,,,,,,,,,2,0,2,0,19,3,79,3,,,,,,,,,,,,,,,,,,,,,,,,,,,,,a,1,0.38432097435,None,0,4.0,hexagonmagenta.gif,go,,,,,,,,,,,,,,,,,,,,,,,,4.06,0.514065027237,0.00095796585083,0.38432097435,1,a,1199.73084903,,,,,,,,,,,,,,,,,,,,,,,,,,,,,,,,,,,,,,,,,2015_Jul_07_0953,60.1413233,LearningTask,1,80,
200,w,200,,,,,,,,,,,,,,,,,2,0,2,0,20,0,80,0,,,,,,,,,,,,,,,,,,,,,,,,,,,,,w,1,0.368415117264,None,0,0.5,crossgreen.gif,go,,,,,,,,,,,,,,,,,,,,,,,,0.74,0.513948917389,0.000903844833374,0.368415117264,1,w,1202.73409486,,,,,,,,,,,,,,,,,,,,,,,,,,,,,,,,,,,,,,,,,2015_Jul_07_0953,60.1413233,LearningTask,1,80,
-200,q,200,,,,,,,,,,,,,,,,,2,0,2,0,20,1,81,1,,,,,,,,,,,,,,,,,,,,,,,,,,,,,q,1,0.401238203049,None,0,1.0,linecyan.gif,go,,,,,,,,,,,,,,,,,,,,,,,,0,0.514051914215,0.000930070877075,0.401238203049,1,q,1205.73809385,,,,,,,,,,,,,,,,,,,,,,,,,,,,,,,,,,,,,,,,,2015_Jul_07_0953,60.1413233,LearningTask,1,80,
-200,a,-200,,,,,,,,,,,,,,,,,2,0,2,0,20,2,82,3,,,,,,,,,,,,,,,,,,,,,,,,,,,,,a,1,0.317911148071,None,0,1.0,linecyan.gif,go,,,,,,,,,,,,,,,,,,,,,,,,1.02,0.513511896133,0.000875949859619,0.317911148071,1,a,1208.74102497,,,,,,,,,,,,,,,,,,,,,,,,,,,,,,,,,,,,,,,,,2015_Jul_07_0953,60.1413233,LearningTask,1,80,
-200,q,200,,,,,,,,,,,,,,,,,2,0,2,0,20,3,83,1,,,,,,,,,,,,,,,,,,,,,,,,,,,,,q,1,0.351144075394,None,0,1.0,linecyan.gif,go,,,,,,,,,,,,,,,,,,,,,,,,1.1,0.514157056808,0.000931024551392,0.351144075394,1,q,1211.74488401,,,,,,,,,,,,,,,,,,,,,,,,,,,,,,,,,,,,,,,,,2015_Jul_07_0953,60.1413233,LearningTask,1,80,
-200,a,-200,,,,,,,,,,,,,,,,,2,0,2,0,21,0,84,3,,,,,,,,,,,,,,,,,,,,,,,,,,,,,a,1,0.317487001419,None,0,4.0,hexagonmagenta.gif,go,,,,,,,,,,,,,,,,,,,,,,,,3.95,0.51347899437,0.000907182693481,0.317487001419,1,a,1214.74763203,,,,,,,,,,,,,,,,,,,,,,,,,,,,,,,,,,,,,,,,,2015_Jul_07_0953,60.1413233,LearningTask,1,80,
-200,a,-200,,,,,,,,,,,,,,,,,2,0,2,0,21,1,85,3,,,,,,,,,,,,,,,,,,,,,,,,,,,,,a,1,0.400911092758,None,0,1.0,squareblue.gif,stop,,,,,,,,,,,,,,,,,,,,,,,,0,0.514394044876,0.00087308883667,0.400911092758,1,a,1217.75143886,,,,,,,,,,,,,,,,,,,,,,,,,,,,,,,,,,,,,,,,,2015_Jul_07_0953,60.1413233,LearningTask,1,80,
200,s,-200,,,,,,,,,,,,,,,,,2,0,2,0,21,2,86,2,,,,,,,,,,,,,,,,,,,,,,,,,,,,,s,1,0.300659894943,None,0,2.0,triangleorange.gif,stop,,,,,,,,,,,,,,,,,,,,,,,,0,0.51358294487,0.000929832458496,0.300659894943,1,s,1220.754987,,,,,,,,,,,,,,,,,,,,,,,,,,,,,,,,,,,,,,,,,2015_Jul_07_0953,60.1413233,LearningTask,1,80,
200,s,-200,,,,,,,,,,,,,,,,,2,0,2,0,21,3,87,2,,,,,,,,,,,,,,,,,,,,,,,,,,,,,s,1,0.367400884628,None,0,0.5,crossgreen.gif,go,,,,,,,,,,,,,,,,,,,,,,,,0.3,0.513337135315,0.000916004180908,0.367400884628,1,s,1223.7584579,,,,,,,,,,,,,,,,,,,,,,,,,,,,,,,,,,,,,,,,,2015_Jul_07_0953,60.1413233,LearningTask,1,80,
200,w,200,,,,,,,,,,,,,,,,,2,0,2,0,22,0,88,0,,,,,,,,,,,,,,,,,,,,,,,,,,,,,w,1,0.434653043747,None,0,0.5,crossgreen.gif,go,,,,,,,,,,,,,,,,,,,,,,,,0.65,0.51362490654,0.000876903533936,0.434653043747,1,w,1226.76147604,,,,,,,,,,,,,,,,,,,,,,,,,,,,,,,,,,,,,,,,,2015_Jul_07_0953,60.1413233,LearningTask,1,80,
-200,q,200,,,,,,,,,,,,,,,,,2,0,2,0,22,1,89,1,,,,,,,,,,,,,,,,,,,,,,,,,,,,,q,1,0.53494310379,None,0,4.0,hexagonmagenta.gif,go,,,,,,,,,,,,,,,,,,,,,,,,3.82,0.514011859894,0.000890016555786,0.53494310379,1,q,1229.76489687,,,,,,,,,,,,,,,,,,,,,,,,,,,,,,,,,,,,,,,,,2015_Jul_07_0953,60.1413233,LearningTask,1,80,
-200,a,-200,,,,,,,,,,,,,,,,,2,0,2,0,22,2,90,3,,,,,,,,,,,,,,,,,,,,,,,,,,,,,a,1,0.300785064697,None,0,1.0,linecyan.gif,go,,,,,,,,,,,,,,,,,,,,,,,,1.1,0.514045953751,0.000892877578735,0.300785064697,1,a,1232.76798201,,,,,,,,,,,,,,,,,,,,,,,,,,,,,,,,,,,,,,,,,2015_Jul_07_0953,60.1413233,LearningTask,1,80,
-200,a,-200,,,,,,,,,,,,,,,,,2,0,2,0,22,3,91,3,,,,,,,,,,,,,,,,,,,,,,,,,,,,,a,1,0.367427825928,None,0,0.5,circlegray.gif,stop,,,,,,,,,,,,,,,,,,,,,,,,0.5,0.514231920242,0.00133609771729,0.367427825928,1,a,1235.77130604,,,,,,,,,,,,,,,,,,,,,,,,,,,,,,,,,,,,,,,,,2015_Jul_07_0953,60.1413233,LearningTask,1,80,
200,w,200,,,,,,,,,,,,,,,,,2,0,2,0,23,0,92,0,,,,,,,,,,,,,,,,,,,,,,,,,,,,,w,1,0.384479045868,None,0,0.5,circlegray.gif,stop,,,,,,,,,,,,,,,,,,,,,,,,0.53,0.514499902725,0.000883817672729,0.384479045868,1,w,1238.77493787,,,,,,,,,,,,,,,,,,,,,,,,,,,,,,,,,,,,,,,,,2015_Jul_07_0953,60.1413233,LearningTask,1,80,
200,w,200,,,,,,,,,,,,,,,,,2,0,2,0,23,1,93,0,,,,,,,,,,,,,,,,,,,,,,,,,,,,,w,1,0.350713014603,None,0,2.0,invertedtrianglewhite.gif,go,,,,,,,,,,,,,,,,,,,,,,,,0,0.51398396492,0.000878810882568,0.350713014603,1,w,1241.77834487,,,,,,,,,,,,,,,,,,,,,,,,,,,,,,,,,,,,,,,,,2015_Jul_07_0953,60.1413233,LearningTask,1,80,
-200,a,-200,,,,,,,,,,,,,,,,,2,0,2,0,23,2,94,3,,,,,,,,,,,,,,,,,,,,,,,,,,,,,a,1,0.383247852325,None,0,2.0,triangleorange.gif,stop,,,,,,,,,,,,,,,,,,,,,,,,2.0,0.514124155045,0.000931978225708,0.383247852325,1,a,1244.7817409,,,,,,,,,,,,,,,,,,,,,,,,,,,,,,,,,,,,,,,,,2015_Jul_07_0953,60.1413233,LearningTask,1,80,
