xPos,corrAns,yPos,corrGoResp,yPosGoStim,xPosGoStim,pracTrials.thisRepN,pracTrials.thisTrialN,pracTrials.thisN,pracTrials.thisIndex,ReDoLoopPrac.thisRepN,ReDoLoopPrac.thisTrialN,ReDoLoopPrac.thisN,ReDoLoopPrac.thisIndex,ReDoLoopPrac.thisTrial,pracStopTrials.thisRepN,pracStopTrials.thisTrialN,pracStopTrials.thisN,pracStopTrials.thisIndex,Blocks.thisRepN,Blocks.thisTrialN,Blocks.thisN,Blocks.thisIndex,trials.thisRepN,trials.thisTrialN,trials.thisN,trials.thisIndex,ReDoLoopMain.thisRepN,ReDoLoopMain.thisTrialN,ReDoLoopMain.thisN,ReDoLoopMain.thisIndex,ReDoLoopMain.thisTrial,StopBlocks.thisRepN,StopBlocks.thisTrialN,StopBlocks.thisN,StopBlocks.thisIndex,StopTrials.thisRepN,StopTrials.thisTrialN,StopTrials.thisN,StopTrials.thisIndex,auctionBlocks.thisRepN,auctionBlocks.thisTrialN,auctionBlocks.thisN,auctionBlocks.thisIndex,auctionTrials.thisRepN,auctionTrials.thisTrialN,auctionTrials.thisN,auctionTrials.thisIndex,learningTrialList,learningPracTrialList,stopTrialList,stopPracTrialList,auctionTrialList,ok1.keys,ok1.rt,resp.keys,resp.corr,resp.rt,feedbackResp.keys,feedbackResp.corr,currentReward,currentStimulus,currentStimType,firstPracComputedRewardOutput,firstPracLearningStimOnset,firstPracLearningFixOnset,firstPracPresentationRT,firstPracPresentationAcc,firstPracPresentationResp,firstPracEndTrialTimeStamp,StartTrialTimeStamp,trialType,goStim,stimType,stopStimValue,goResp.keys,goResp.corr,goResp.rt,key_resp_9.keys,key_resp_9.corr,fixStopOnset,goStimOnset,stopSignalOnset,EndTrialTimeStamp,key_resp_3.keys,key_resp_3.rt,firstComputedRewardOutput,firstLearningStimOnset,firstLearningFixOnset,firstPresentationRT,firstPresentationAcc,firstPresentationResp,firstEndTrialTimeStamp,secondComputedRewardOutput,secondLearningStimOnset,secondLearningFixOnset,secondPresentationRT,secondPresentationAcc,secondPresentationResp,secondEndTrialTimeStamp,feedbackResp.rt,key_resp_7.keys,key_resp_7.rt,beginningSSD,EndingSSD,key_resp_9.rt,key_resp_4.keys,key_resp_4.rt,auctionResponse.keys,auctionResponse.rt,auctionStimDuration,auctionStim,auctionAmounts,auctionStimValue,auctionCondition,chosenAuctionAmount,key_resp_5.keys,key_resp_5.rt,shuffledRewardList,chosenReward1,chosenReward2,chosenReward3,chosenReward4,chosenReward5,key_resp_6.keys,key_resp_6.rt,date,frameRate,expName,session,participant,
,,,,,,,,,,,,,,,,,,,,,,,,,,,,,,,,,,,,,,,,,,,,,,,,[],[],[],[],[],9,39.0962469578,,,,,,,,,,,,,,,,,,,,,,,,,,,,,,,,,,,,,,,,,,,,,,,,,,,,,,,,,,,,,,,,,,,,,,,,2015_Jul_07_1048,59.9269327321,LearningTask,1,81,
-200,a,-200,,,,0,0,0,7,,,,,,,,,,,,,,,,,,,,,,,,,,,,,,,,,,,,,,,,,,,,,,a,1,0.618109941483,None,0,4.0,diamondgreen.gif,stop,4.01,0.500530958176,0.0280690193176,0.618109941483,1,a,109.138362169,,,,,,,,,,,,,,,,,,,,,,,,,,,,,,,,,,,,,,,,,,,,,,,,,,,,,,,,,2015_Jul_07_1048,59.9269327321,LearningTask,1,81,
200,w,200,,,,0,1,1,0,,,,,,,,,,,,,,,,,,,,,,,,,,,,,,,,,,,,,,,,,,,,,,w,1,0.384361982346,None,0,4.0,diamondgreen.gif,stop,4.17,0.51438498497,0.00110816955566,0.384361982346,1,w,112.141339064,,,,,,,,,,,,,,,,,,,,,,,,,,,,,,,,,,,,,,,,,,,,,,,,,,,,,,,,,2015_Jul_07_1048,59.9269327321,LearningTask,1,81,
-200,a,-200,,,,0,2,2,3,,,,,,,,,,,,,,,,,,,,,,,,,,,,,,,,,,,,,,,,,,,,,,a,1,0.434506893158,None,0,4.0,diamondgreen.gif,stop,0,0.514672040939,0.00103187561035,0.434506893158,1,a,115.14428401,,,,,,,,,,,,,,,,,,,,,,,,,,,,,,,,,,,,,,,,,,,,,,,,,,,,,,,,,2015_Jul_07_1048,59.9269327321,LearningTask,1,81,
-200,q,200,,,,0,3,3,9,,,,,,,,,,,,,,,,,,,,,,,,,,,,,,,,,,,,,,,,,,,,,,q,1,0.467535972595,None,0,4.0,invertedtrianglemagenta.gif,go,0,0.515161991119,0.01038813591,0.467535972595,1,q,118.147844076,,,,,,,,,,,,,,,,,,,,,,,,,,,,,,,,,,,,,,,,,,,,,,,,,,,,,,,,,2015_Jul_07_1048,59.9269327321,LearningTask,1,81,
200,s,-200,,,,0,4,4,2,,,,,,,,,,,,,,,,,,,,,,,,,,,,,,,,,,,,,,,,,,,,,,s,1,0.40106511116,None,0,4.0,invertedtrianglemagenta.gif,go,3.82,0.514876842499,0.000901937484741,0.40106511116,1,s,121.15133214,,,,,,,,,,,,,,,,,,,,,,,,,,,,,,,,,,,,,,,,,,,,,,,,,,,,,,,,,2015_Jul_07_1048,59.9269327321,LearningTask,1,81,
200,w,200,,,,0,5,5,8,,,,,,,,,,,,,,,,,,,,,,,,,,,,,,,,,,,,,,,,,,,,,,w,1,0.417562007904,None,0,0.5,trianglegray.gif,go,0.42,0.514947891235,0.0151908397675,0.417562007904,1,w,124.154484034,,,,,,,,,,,,,,,,,,,,,,,,,,,,,,,,,,,,,,,,,,,,,,,,,,,,,,,,,2015_Jul_07_1048,59.9269327321,LearningTask,1,81,
-200,q,200,,,,0,6,6,5,,,,,,,,,,,,,,,,,,,,,,,,,,,,,,,,,,,,,,,,,,,,,,q,1,0.417933940887,None,0,0.5,lineblue.gif,stop,0.37,0.515386104584,0.0301930904388,0.417933940887,1,q,127.157645226,,,,,,,,,,,,,,,,,,,,,,,,,,,,,,,,,,,,,,,,,,,,,,,,,,,,,,,,,2015_Jul_07_1048,59.9269327321,LearningTask,1,81,
200,w,200,,,,0,7,7,4,,,,,,,,,,,,,,,,,,,,,,,,,,,,,,,,,,,,,,,,,,,,,,w,1,0.434087991714,None,0,1.0,squarecyan.gif,stop,0.86,0.515331029892,0.0203528404236,0.434087991714,1,w,130.161155224,,,,,,,,,,,,,,,,,,,,,,,,,,,,,,,,,,,,,,,,,,,,,,,,,,,,,,,,,2015_Jul_07_1048,59.9269327321,LearningTask,1,81,
200,s,-200,,,,0,8,8,6,,,,,,,,,,,,,,,,,,,,,,,,,,,,,,,,,,,,,,,,,,,,,,s,1,0.450841188431,None,0,0.5,trianglegray.gif,go,0.61,0.515216827393,0.000914812088013,0.450841188431,1,s,133.164797068,,,,,,,,,,,,,,,,,,,,,,,,,,,,,,,,,,,,,,,,,,,,,,,,,,,,,,,,,2015_Jul_07_1048,59.9269327321,LearningTask,1,81,
-200,q,200,,,,0,9,9,1,,,,,,,,,,,,,,,,,,,,,,,,,,,,,,,,,,,,,,,,,,,,,,q,1,0.417461872101,None,0,1.0,squarecyan.gif,stop,1.25,0.514943122864,0.000897169113159,0.417461872101,1,q,136.167745113,,,,,,,,,,,,,,,,,,,,,,,,,,,,,,,,,,,,,,,,,,,,,,,,,,,,,,,,,2015_Jul_07_1048,59.9269327321,LearningTask,1,81,
,,,z,0,-200,,,,,,,,,,0,0,0,0,,,,,,,,,,,,,,,,,,,,,,,,,,,,,,,,,,,,,,,,,,,,,,,,,,,,177.6507411,stop,diamondgreen.gif,stop,4.0,z,1,0.300889015198,None,0,0.00128507614136,0.512083053589,0.762707948685,180.650892019,,,,,,,,,,,,,,,,,,,,,,,,,,,,,,,,,,,,,,,,,,,2015_Jul_07_1048,59.9269327321,LearningTask,1,81,
,,,z,0,-200,,,,,,,,,,0,1,1,0,,,,,,,,,,,,,,,,,,,,,,,,,,,,,,,,,,,,,,,,,,,,,,,,,,,,180.651307106,go,hexagonwhite.gif,go,1.0,z,1,0.651522159576,None,0,0.126726150513,0.515387058258,,183.65400219,,,,,,,,,,,,,,,,,,,,,,,,,,,,,,,,,,,,,,,,,,,2015_Jul_07_1048,59.9269327321,LearningTask,1,81,
,,,z,0,-200,,,,,,,,,,1,0,2,0,,,,,,,,,,,,,,,,,,,,,,,,,,,,,,,,,,,,,,,,,,,,,,,,,,,,183.654360056,go,invertedtrianglemagenta.gif,go,4.0,z,1,0.517640829086,None,0,0.000957012176514,0.515934944153,,186.657466173,,,,,,,,,,,,,,,,,,,,,,,,,,,,,,,,,,,,,,,,,,,2015_Jul_07_1048,59.9269327321,LearningTask,1,81,
,,,m,0,200,,,,,,,,,,1,1,3,1,,,,,,,,,,,,,,,,,,,,,,,,,,,,,,,,,,,,,,,,,,,,,,,,,,,,186.658093214,stop,diamondgreen.gif,stop,4.0,m,1,0.684545993805,None,0,0.000978231430054,0.515188217163,0.765728235245,189.66082716,,,,,,,,,,,,,,,,,,,,,,,,,,,,,,,,,,,,,,,,,,,2015_Jul_07_1048,59.9269327321,LearningTask,1,81,
,,,z,0,-200,,,,,,,,,,2,0,4,0,,,,,,,,,,,,,,,,,,,,,,,,,,,,,,,,,,,,,,,,,,,,,,,,,,,,189.661231041,go,invertedtrianglemagenta.gif,go,4.0,z,1,0.550821065903,None,0,0.00112104415894,0.515826940536,,192.664077044,,,,,,,,,,,,,,,,,,,,,,,,,,,,,,,,,,,,,,,,,,,2015_Jul_07_1048,59.9269327321,LearningTask,1,81,
,,,m,0,200,,,,,,,,,,2,1,5,1,,,,,,,,,,,,,,,,,,,,,,,,,,,,,,,,,,,,,,,,,,,,,,,,,,,,192.664455175,go,circleyellow.gif,go,2.0,m,1,0.584452152252,None,0,0.0175158977509,0.515977859497,,195.667729139,,,,,,,,,,,,,,,,,,,,,,,,,,,,,,,,,,,,,,,,,,,2015_Jul_07_1048,59.9269327321,LearningTask,1,81,
,,,m,0,200,,,,,,,,,,3,0,6,1,,,,,,,,,,,,,,,,,,,,,,,,,,,,,,,,,,,,,,,,,,,,,,,,,,,,195.668169022,go,circleyellow.gif,go,2.0,m,1,0.617587089539,None,0,0.000982046127319,0.515403985977,,198.670805216,,,,,,,,,,,,,,,,,,,,,,,,,,,,,,,,,,,,,,,,,,,2015_Jul_07_1048,59.9269327321,LearningTask,1,81,
,,,z,0,-200,,,,,,,,,,3,1,7,0,,,,,,,,,,,,,,,,,,,,,,,,,,,,,,,,,,,,,,,,,,,,,,,,,,,,198.671210051,go,invertedtrianglemagenta.gif,go,4.0,z,1,0.601542949677,None,0,0.00101804733276,0.515717029572,,201.674021006,,,,,,,,,,,,,,,,,,,,,,,,,,,,,,,,,,,,,,,,,,,2015_Jul_07_1048,59.9269327321,LearningTask,1,81,
,,,m,0,200,,,,,,,,,,4,0,8,1,,,,,,,,,,,,,,,,,,,,,,,,,,,,,,,,,,,,,,,,,,,,,,,,,,,,201.674403191,go,trianglegray.gif,go,0.5,m,1,0.867990016937,None,0,0.000982046127319,0.516009092331,,204.677485228,,,,,,,,,,,,,,,,,,,,,,,,,,,,,,,,,,,,,,,,,,,2015_Jul_07_1048,59.9269327321,LearningTask,1,81,
,,,m,0,200,,,,,,,,,,4,1,9,1,,,,,,,,,,,,,,,,,,,,,,,,,,,,,,,,,,,,,,,,,,,,,,,,,,,,204.678066015,go,circleyellow.gif,go,2.0,m,1,0.651170015335,None,0,0.00101709365845,0.515676021576,,207.68101716,,,,,,,,,,,,,,,,,,,,,,,,,,,,,,,,,,,,,,,,,,,2015_Jul_07_1048,59.9269327321,LearningTask,1,81,
,,,,,,,,,,,,,,,,,,,,,,,,,,,,,,,,,,,,,,,,,,,,,,,,,,,,,,,,,,,,,,,,,,,,,,,,,,,,,,,,,,,,9,60.5225379467,,,,,,,,,,,,,,,,,,,,,,,,,,,,,,,,,,,,,,,,,2015_Jul_07_1048,59.9269327321,LearningTask,1,81,
,,,,,,,,,,,,,,,,,,,,,,,,,,,,,,,,,,,,,,,,,,,,,,,,,,,,,9,7.8249771595,,,,,,,,,,,,,,,,,,,,,,,,,,,,,,,,,,,,,,,,,,,,,,,,,,,,,,,,,,,,,,,,,,,,,,,,2015_Jul_07_1048,59.9269327321,LearningTask,1,81,
-200,q,200,,,,,,,,,,,,,,,,,0,0,0,0,0,0,0,1,,,,,,,,,,,,,,,,,,,,,,,,,,,,,q,1,0.534265995026,None,0,2.0,crossorange.gif,stop,,,,,,,,,,,,,,,,,,,,,,,,2.19,0.515185117722,0.0112390518188,0.534265995026,1,q,279.212112188,,,,,,,,,,,,,,,,,,,,,,,,,,,,,,,,,,2015_Jul_07_1048,59.9269327321,LearningTask,1,81,
200,w,200,,,,,,,,,,,,,,,,,0,0,0,0,0,1,1,0,,,,,,,,,,,,,,,,,,,,,,,,,,,,,w,1,0.433953046799,None,0,1.0,squarecyan.gif,stop,,,,,,,,,,,,,,,,,,,,,,,,0,0.51398396492,0.000914812088013,0.433953046799,1,w,282.215001106,,,,,,,,,,,,,,,,,,,,,,,,,,,,,,,,,,2015_Jul_07_1048,59.9269327321,LearningTask,1,81,
-200,a,-200,,,,,,,,,,,,,,,,,0,0,0,0,0,2,2,3,,,,,,,,,,,,,,,,,,,,,,,,,,,,,a,1,0.350927829742,None,0,2.0,circleyellow.gif,go,,,,,,,,,,,,,,,,,,,,,,,,2.16,0.514339923859,0.000962018966675,0.350927829742,1,a,285.218069077,,,,,,,,,,,,,,,,,,,,,,,,,,,,,,,,,,2015_Jul_07_1048,59.9269327321,LearningTask,1,81,
200,s,-200,,,,,,,,,,,,,,,,,0,0,0,0,0,3,3,2,,,,,,,,,,,,,,,,,,,,,,,,,,,,,s,1,0.383917093277,None,0,4.0,invertedtrianglemagenta.gif,go,,,,,,,,,,,,,,,,,,,,,,,,3.92,0.514706134796,0.000907182693481,0.383917093277,1,s,288.22163105,,,,,,,,,,,,,,,,,,,,,,,,,,,,,,,,,,2015_Jul_07_1048,59.9269327321,LearningTask,1,81,
-200,q,200,,,,,,,,,,,,,,,,,0,0,0,0,1,0,4,1,,,,,,,,,,,,,,,,,,,,,,,,,,,,,q,1,0.417652130127,None,0,0.5,lineblue.gif,stop,,,,,,,,,,,,,,,,,,,,,,,,0.25,0.51441693306,0.000904083251953,0.417652130127,1,q,291.225455999,,,,,,,,,,,,,,,,,,,,,,,,,,,,,,,,,,2015_Jul_07_1048,59.9269327321,LearningTask,1,81,
200,s,-200,,,,,,,,,,,,,,,,,0,0,0,0,1,1,5,2,,,,,,,,,,,,,,,,,,,,,,,,,,,,,s,1,0.350223064423,None,0,4.0,invertedtrianglemagenta.gif,go,,,,,,,,,,,,,,,,,,,,,,,,3.91,0.51437997818,0.00137591362,0.350223064423,1,s,294.228907108,,,,,,,,,,,,,,,,,,,,,,,,,,,,,,,,,,2015_Jul_07_1048,59.9269327321,LearningTask,1,81,
200,w,200,,,,,,,,,,,,,,,,,0,0,0,0,1,2,6,0,,,,,,,,,,,,,,,,,,,,,,,,,,,,,w,1,0.417762994766,None,0,4.0,invertedtrianglemagenta.gif,go,,,,,,,,,,,,,,,,,,,,,,,,0,0.513611078262,0.000925064086914,0.417762994766,1,w,297.231666088,,,,,,,,,,,,,,,,,,,,,,,,,,,,,,,,,,2015_Jul_07_1048,59.9269327321,LearningTask,1,81,
-200,q,200,,,,,,,,,,,,,,,,,0,0,0,0,1,3,7,1,,,,,,,,,,,,,,,,,,,,,,,,,,,,,q,1,0.501075983047,None,0,4.0,invertedtrianglemagenta.gif,go,,,,,,,,,,,,,,,,,,,,,,,,3.96,0.514437913895,0.000886917114258,0.501075983047,1,q,300.235239029,,,,,,,,,,,,,,,,,,,,,,,,,,,,,,,,,,2015_Jul_07_1048,59.9269327321,LearningTask,1,81,
200,s,-200,,,,,,,,,,,,,,,,,0,0,0,0,2,0,8,2,,,,,,,,,,,,,,,,,,,,,,,,,,,,,s,1,0.384315013885,None,0,4.0,invertedtrianglemagenta.gif,go,,,,,,,,,,,,,,,,,,,,,,,,4.21,0.514074087143,0.000906944274902,0.384315013885,1,s,303.239019156,,,,,,,,,,,,,,,,,,,,,,,,,,,,,,,,,,2015_Jul_07_1048,59.9269327321,LearningTask,1,81,
-200,a,-200,,,,,,,,,,,,,,,,,0,0,0,0,2,1,9,3,,,,,,,,,,,,,,,,,,,,,,,,,,,,,a,1,0.417553901672,None,0,0.5,trianglegray.gif,go,,,,,,,,,,,,,,,,,,,,,,,,0.71,0.513761043549,0.000921010971069,0.417553901672,1,a,306.241697073,,,,,,,,,,,,,,,,,,,,,,,,,,,,,,,,,,2015_Jul_07_1048,59.9269327321,LearningTask,1,81,
200,s,-200,,,,,,,,,,,,,,,,,0,0,0,0,2,2,10,2,,,,,,,,,,,,,,,,,,,,,,,,,,,,,s,1,0.367557048798,None,0,4.0,invertedtrianglemagenta.gif,go,,,,,,,,,,,,,,,,,,,,,,,,3.94,0.514393091202,0.00088906288147,0.367557048798,1,s,309.245252132,,,,,,,,,,,,,,,,,,,,,,,,,,,,,,,,,,2015_Jul_07_1048,59.9269327321,LearningTask,1,81,
200,w,200,,,,,,,,,,,,,,,,,0,0,0,0,2,3,11,0,,,,,,,,,,,,,,,,,,,,,,,,,,,,,w,1,0.38377904892,None,0,2.0,circleyellow.gif,go,,,,,,,,,,,,,,,,,,,,,,,,2.14,0.514471054077,0.000910043716431,0.38377904892,1,w,312.249013186,,,,,,,,,,,,,,,,,,,,,,,,,,,,,,,,,,2015_Jul_07_1048,59.9269327321,LearningTask,1,81,
200,w,200,,,,,,,,,,,,,,,,,0,0,0,0,3,0,12,0,,,,,,,,,,,,,,,,,,,,,,,,,,,,,w,1,0.417137861252,None,0,2.0,circleyellow.gif,go,,,,,,,,,,,,,,,,,,,,,,,,0,0.51380109787,0.000930070877075,0.317255973816,0,s,315.25178504,0,0.515910148621,0.000991106033325,0.417137861252,1,w,318.255595207,,,,,,,,,,,,,,,,,,,,,,,,,,,2015_Jul_07_1048,59.9269327321,LearningTask,1,81,
-200,a,-200,,,,,,,,,,,,,,,,,0,0,0,0,3,1,13,3,,,,,,,,,,,,,,,,,,,,,,,,,,,,,a,1,0.467790126801,None,0,0.5,trianglegray.gif,go,,,,,,,,,,,,,,,,,,,,,,,,0.51,0.514122009277,0.000921010971069,0.467790126801,1,a,321.258517027,,,,,,,,,,,,,,,,,,,,,,,,,,,,,,,,,,2015_Jul_07_1048,59.9269327321,LearningTask,1,81,
200,w,200,,,,,,,,,,,,,,,,,0,0,0,0,3,2,14,0,,,,,,,,,,,,,,,,,,,,,,,,,,,,,w,1,0.400529146194,None,0,4.0,invertedtrianglemagenta.gif,go,,,,,,,,,,,,,,,,,,,,,,,,0,0.515048027039,0.000923871994019,0.400529146194,1,w,324.26227212,,,,,,,,,,,,,,,,,,,,,,,,,,,,,,,,,,2015_Jul_07_1048,59.9269327321,LearningTask,1,81,
200,s,-200,,,,,,,,,,,,,,,,,0,0,0,0,3,3,15,2,,,,,,,,,,,,,,,,,,,,,,,,,,,,,s,1,0.533923864365,None,0,1.0,hexagonwhite.gif,go,,,,,,,,,,,,,,,,,,,,,,,,0.83,0.514295101166,0.000945091247559,0.533923864365,1,s,327.265082121,,,,,,,,,,,,,,,,,,,,,,,,,,,,,,,,,,2015_Jul_07_1048,59.9269327321,LearningTask,1,81,
-200,a,-200,,,,,,,,,,,,,,,,,0,0,0,0,4,0,16,3,,,,,,,,,,,,,,,,,,,,,,,,,,,,,a,1,0.417851924896,None,0,1.0,squarecyan.gif,stop,,,,,,,,,,,,,,,,,,,,,,,,0.78,0.514480113983,0.00103211402893,0.417851924896,1,a,330.268592119,,,,,,,,,,,,,,,,,,,,,,,,,,,,,,,,,,2015_Jul_07_1048,59.9269327321,LearningTask,1,81,
-200,q,200,,,,,,,,,,,,,,,,,0,0,0,0,4,1,17,1,,,,,,,,,,,,,,,,,,,,,,,,,,,,,q,1,0.451102018356,None,0,4.0,diamondgreen.gif,stop,,,,,,,,,,,,,,,,,,,,,,,,0,0.514209985733,0.000962972640991,0.451102018356,1,q,333.272014141,,,,,,,,,,,,,,,,,,,,,,,,,,,,,,,,,,2015_Jul_07_1048,59.9269327321,LearningTask,1,81,
200,w,200,,,,,,,,,,,,,,,,,0,0,0,0,4,2,18,0,,,,,,,,,,,,,,,,,,,,,,,,,,,,,w,1,0.400688886642,None,0,0.5,lineblue.gif,stop,,,,,,,,,,,,,,,,,,,,,,,,0.72,0.514261007309,0.00093412399292,0.400688886642,1,w,336.275387049,,,,,,,,,,,,,,,,,,,,,,,,,,,,,,,,,,2015_Jul_07_1048,59.9269327321,LearningTask,1,81,
-200,q,200,,,,,,,,,,,,,,,,,0,0,0,0,4,3,19,1,,,,,,,,,,,,,,,,,,,,,,,,,,,,,q,1,0.401762008667,None,0,0.5,trianglegray.gif,go,,,,,,,,,,,,,,,,,,,,,,,,0.75,0.514107942581,0.000895977020264,0.401762008667,1,q,339.278836012,,,,,,,,,,,,,,,,,,,,,,,,,,,,,,,,,,2015_Jul_07_1048,59.9269327321,LearningTask,1,81,
200,w,200,,,,,,,,,,,,,,,,,0,0,0,0,5,0,20,0,,,,,,,,,,,,,,,,,,,,,,,,,,,,,w,1,0.450466871262,None,0,4.0,diamondgreen.gif,stop,,,,,,,,,,,,,,,,,,,,,,,,4.12,0.514512062073,0.00097393989563,0.450466871262,1,w,342.282209158,,,,,,,,,,,,,,,,,,,,,,,,,,,,,,,,,,2015_Jul_07_1048,59.9269327321,LearningTask,1,81,
200,w,200,,,,,,,,,,,,,,,,,0,0,0,0,5,1,21,0,,,,,,,,,,,,,,,,,,,,,,,,,,,,,w,1,0.367453098297,None,0,2.0,circleyellow.gif,go,,,,,,,,,,,,,,,,,,,,,,,,1.81,0.513993024826,0.000929117202759,0.367453098297,1,w,345.285150051,,,,,,,,,,,,,,,,,,,,,,,,,,,,,,,,,,2015_Jul_07_1048,59.9269327321,LearningTask,1,81,
-200,q,200,,,,,,,,,,,,,,,,,0,0,0,0,5,2,22,1,,,,,,,,,,,,,,,,,,,,,,,,,,,,,q,1,0.434237003326,None,0,2.0,circleyellow.gif,go,,,,,,,,,,,,,,,,,,,,,,,,2.15,0.514468193054,0.000922203063965,0.434237003326,1,q,348.288787127,,,,,,,,,,,,,,,,,,,,,,,,,,,,,,,,,,2015_Jul_07_1048,59.9269327321,LearningTask,1,81,
200,w,200,,,,,,,,,,,,,,,,,0,0,0,0,5,3,23,0,,,,,,,,,,,,,,,,,,,,,,,,,,,,,w,1,0.383975982666,None,0,0.5,lineblue.gif,stop,,,,,,,,,,,,,,,,,,,,,,,,0,0.514348983765,0.000970125198364,0.383975982666,1,w,351.29263711,,,,,,,,,,,,,,,,,,,,,,,,,,,,,,,,,,2015_Jul_07_1048,59.9269327321,LearningTask,1,81,
-200,a,-200,,,,,,,,,,,,,,,,,0,0,0,0,6,0,24,3,,,,,,,,,,,,,,,,,,,,,,,,,,,,,a,1,0.46807217598,None,0,1.0,squarecyan.gif,stop,,,,,,,,,,,,,,,,,,,,,,,,0.83,0.513630867004,0.00088906288147,0.46807217598,1,a,354.295451164,,,,,,,,,,,,,,,,,,,,,,,,,,,,,,,,,,2015_Jul_07_1048,59.9269327321,LearningTask,1,81,
200,s,-200,,,,,,,,,,,,,,,,,0,0,0,0,6,1,25,2,,,,,,,,,,,,,,,,,,,,,,,,,,,,,s,1,0.400950908661,None,0,2.0,crossorange.gif,stop,,,,,,,,,,,,,,,,,,,,,,,,1.9,0.51375412941,0.00103402137756,0.400950908661,1,s,357.298991203,,,,,,,,,,,,,,,,,,,,,,,,,,,,,,,,,,2015_Jul_07_1048,59.9269327321,LearningTask,1,81,
200,w,200,,,,,,,,,,,,,,,,,0,0,0,0,6,2,26,0,,,,,,,,,,,,,,,,,,,,,,,,,,,,,w,1,0.383898973465,None,0,2.0,circleyellow.gif,go,,,,,,,,,,,,,,,,,,,,,,,,2.12,0.514039039612,0.000923871994019,0.383898973465,1,w,360.302324057,,,,,,,,,,,,,,,,,,,,,,,,,,,,,,,,,,2015_Jul_07_1048,59.9269327321,LearningTask,1,81,
-200,q,200,,,,,,,,,,,,,,,,,0,0,0,0,6,3,27,1,,,,,,,,,,,,,,,,,,,,,,,,,,,,,q,1,0.434175014496,None,0,4.0,diamondgreen.gif,stop,,,,,,,,,,,,,,,,,,,,,,,,4.15,0.514180183411,0.00103712081909,0.434175014496,1,q,363.305397034,,,,,,,,,,,,,,,,,,,,,,,,,,,,,,,,,,2015_Jul_07_1048,59.9269327321,LearningTask,1,81,
-200,a,-200,,,,,,,,,,,,,,,,,0,0,0,0,7,0,28,3,,,,,,,,,,,,,,,,,,,,,,,,,,,,,a,1,0.417497873306,None,0,1.0,hexagonwhite.gif,go,,,,,,,,,,,,,,,,,,,,,,,,1.15,0.514671802521,0.000995874404907,0.417497873306,1,a,366.309394121,,,,,,,,,,,,,,,,,,,,,,,,,,,,,,,,,,2015_Jul_07_1048,59.9269327321,LearningTask,1,81,
200,w,200,,,,,,,,,,,,,,,,,0,0,0,0,7,1,29,0,,,,,,,,,,,,,,,,,,,,,,,,,,,,,w,1,0.317879915237,None,0,1.0,squarecyan.gif,stop,,,,,,,,,,,,,,,,,,,,,,,,1.24,0.513669967651,0.000954151153564,0.317879915237,1,w,369.312110186,,,,,,,,,,,,,,,,,,,,,,,,,,,,,,,,,,2015_Jul_07_1048,59.9269327321,LearningTask,1,81,
200,s,-200,,,,,,,,,,,,,,,,,0,0,0,0,7,2,30,2,,,,,,,,,,,,,,,,,,,,,,,,,,,,,s,1,0.300656080246,None,0,1.0,squarecyan.gif,stop,,,,,,,,,,,,,,,,,,,,,,,,1.04,0.514003992081,0.00103712081909,0.300656080246,1,s,372.315862179,,,,,,,,,,,,,,,,,,,,,,,,,,,,,,,,,,2015_Jul_07_1048,59.9269327321,LearningTask,1,81,
-200,a,-200,,,,,,,,,,,,,,,,,0,0,0,0,7,3,31,3,,,,,,,,,,,,,,,,,,,,,,,,,,,,,a,1,0.434678077698,None,0,1.0,squarecyan.gif,stop,,,,,,,,,,,,,,,,,,,,,,,,0.83,0.513369083405,0.000929117202759,0.434678077698,1,a,375.318984032,,,,,,,,,,,,,,,,,,,,,,,,,,,,,,,,,,2015_Jul_07_1048,59.9269327321,LearningTask,1,81,
200,s,-200,,,,,,,,,,,,,,,,,0,0,0,0,8,0,32,2,,,,,,,,,,,,,,,,,,,,,,,,,,,,,s,1,0.350816965103,None,0,1.0,hexagonwhite.gif,go,,,,,,,,,,,,,,,,,,,,,,,,0.87,0.514477014542,0.00090217590332,0.350816965103,1,s,378.322434187,,,,,,,,,,,,,,,,,,,,,,,,,,,,,,,,,,2015_Jul_07_1048,59.9269327321,LearningTask,1,81,
-200,a,-200,,,,,,,,,,,,,,,,,0,0,0,0,8,1,33,3,,,,,,,,,,,,,,,,,,,,,,,,,,,,,a,1,0.417057991028,None,0,2.0,crossorange.gif,stop,,,,,,,,,,,,,,,,,,,,,,,,2.04,0.514116048813,0.000969886779785,0.417057991028,1,a,381.325603008,,,,,,,,,,,,,,,,,,,,,,,,,,,,,,,,,,2015_Jul_07_1048,59.9269327321,LearningTask,1,81,
200,s,-200,,,,,,,,,,,,,,,,,0,0,0,0,8,2,34,2,,,,,,,,,,,,,,,,,,,,,,,,,,,,,s,1,0.417150020599,None,0,0.5,lineblue.gif,stop,,,,,,,,,,,,,,,,,,,,,,,,0.4,0.514500141144,0.000967025756836,0.417150020599,1,s,384.328943014,,,,,,,,,,,,,,,,,,,,,,,,,,,,,,,,,,2015_Jul_07_1048,59.9269327321,LearningTask,1,81,
-200,a,-200,,,,,,,,,,,,,,,,,0,0,0,0,8,3,35,3,,,,,,,,,,,,,,,,,,,,,,,,,,,,,a,1,0.384593963623,None,0,2.0,crossorange.gif,stop,,,,,,,,,,,,,,,,,,,,,,,,1.9,0.514308929443,0.000939846038818,0.384593963623,1,a,387.332568169,,,,,,,,,,,,,,,,,,,,,,,,,,,,,,,,,,2015_Jul_07_1048,59.9269327321,LearningTask,1,81,
-200,a,-200,,,,,,,,,,,,,,,,,0,0,0,0,9,0,36,3,,,,,,,,,,,,,,,,,,,,,,,,,,,,,a,1,0.367603063583,None,0,2.0,crossorange.gif,stop,,,,,,,,,,,,,,,,,,,,,,,,1.82,0.513588905334,0.000902891159058,0.367603063583,1,a,390.335907221,,,,,,,,,,,,,,,,,,,,,,,,,,,,,,,,,,2015_Jul_07_1048,59.9269327321,LearningTask,1,81,
200,s,-200,,,,,,,,,,,,,,,,,0,0,0,0,9,1,37,2,,,,,,,,,,,,,,,,,,,,,,,,,,,,,s,1,0.367341995239,None,0,4.0,invertedtrianglemagenta.gif,go,,,,,,,,,,,,,,,,,,,,,,,,3.99,0.513325929642,0.00117993354797,0.367341995239,1,s,393.339060068,,,,,,,,,,,,,,,,,,,,,,,,,,,,,,,,,,2015_Jul_07_1048,59.9269327321,LearningTask,1,81,
-200,q,200,,,,,,,,,,,,,,,,,0,0,0,0,9,2,38,1,,,,,,,,,,,,,,,,,,,,,,,,,,,,,q,1,0.334203958511,None,0,1.0,squarecyan.gif,stop,,,,,,,,,,,,,,,,,,,,,,,,0.83,0.514250040054,0.000916004180908,0.334203958511,1,q,396.342325211,,,,,,,,,,,,,,,,,,,,,,,,,,,,,,,,,,2015_Jul_07_1048,59.9269327321,LearningTask,1,81,
200,s,-200,,,,,,,,,,,,,,,,,0,0,0,0,9,3,39,2,,,,,,,,,,,,,,,,,,,,,,,,,,,,,s,1,0.31715798378,None,0,0.5,trianglegray.gif,go,,,,,,,,,,,,,,,,,,,,,,,,0.54,0.514569044113,0.000935077667236,0.31715798378,1,s,399.346066236,,,,,,,,,,,,,,,,,,,,,,,,,,,,,,,,,,2015_Jul_07_1048,59.9269327321,LearningTask,1,81,
200,s,-200,,,,,,,,,,,,,,,,,0,0,0,0,10,0,40,2,,,,,,,,,,,,,,,,,,,,,,,,,,,,,s,1,0.367598056793,None,0,0.5,trianglegray.gif,go,,,,,,,,,,,,,,,,,,,,,,,,0.63,0.513835906982,0.000919818878174,0.367598056793,1,s,402.349257231,,,,,,,,,,,,,,,,,,,,,,,,,,,,,,,,,,2015_Jul_07_1048,59.9269327321,LearningTask,1,81,
-200,q,200,,,,,,,,,,,,,,,,,0,0,0,0,10,1,41,1,,,,,,,,,,,,,,,,,,,,,,,,,,,,,q,1,0.400875091553,None,0,1.0,squarecyan.gif,stop,,,,,,,,,,,,,,,,,,,,,,,,0.88,0.513741970062,0.00116515159607,0.400875091553,1,q,405.352737188,,,,,,,,,,,,,,,,,,,,,,,,,,,,,,,,,,2015_Jul_07_1048,59.9269327321,LearningTask,1,81,
-200,a,-200,,,,,,,,,,,,,,,,,0,0,0,0,10,2,42,3,,,,,,,,,,,,,,,,,,,,,,,,,,,,,a,1,0.350650072098,None,0,0.5,lineblue.gif,stop,,,,,,,,,,,,,,,,,,,,,,,,0.39,0.514029026031,0.000902891159058,0.350650072098,1,a,408.355869055,,,,,,,,,,,,,,,,,,,,,,,,,,,,,,,,,,2015_Jul_07_1048,59.9269327321,LearningTask,1,81,
-200,q,200,,,,,,,,,,,,,,,,,0,0,0,0,10,3,43,1,,,,,,,,,,,,,,,,,,,,,,,,,,,,,q,1,0.400687932968,None,0,0.5,lineblue.gif,stop,,,,,,,,,,,,,,,,,,,,,,,,0,0.514659166336,0.000907182693481,0.400687932968,1,q,411.359424114,,,,,,,,,,,,,,,,,,,,,,,,,,,,,,,,,,2015_Jul_07_1048,59.9269327321,LearningTask,1,81,
200,s,-200,,,,,,,,,,,,,,,,,0,0,0,0,11,0,44,2,,,,,,,,,,,,,,,,,,,,,,,,,,,,,s,1,0.317528009415,None,0,2.0,circleyellow.gif,go,,,,,,,,,,,,,,,,,,,,,,,,1.75,0.514014005661,0.00109219551086,0.317528009415,1,s,414.362662077,,,,,,,,,,,,,,,,,,,,,,,,,,,,,,,,,,2015_Jul_07_1048,59.9269327321,LearningTask,1,81,
-200,a,-200,,,,,,,,,,,,,,,,,0,0,0,0,11,1,45,3,,,,,,,,,,,,,,,,,,,,,,,,,,,,,a,1,0.417457103729,None,0,1.0,squarecyan.gif,stop,,,,,,,,,,,,,,,,,,,,,,,,1.14,0.513899087906,0.0011510848999,0.417457103729,1,a,417.365903139,,,,,,,,,,,,,,,,,,,,,,,,,,,,,,,,,,2015_Jul_07_1048,59.9269327321,LearningTask,1,81,
200,s,-200,,,,,,,,,,,,,,,,,0,0,0,0,11,2,46,2,,,,,,,,,,,,,,,,,,,,,,,,,,,,,s,1,0.351131916046,None,0,0.5,trianglegray.gif,go,,,,,,,,,,,,,,,,,,,,,,,,0,0.514326095581,0.00103807449341,0.351131916046,1,s,420.369869232,,,,,,,,,,,,,,,,,,,,,,,,,,,,,,,,,,2015_Jul_07_1048,59.9269327321,LearningTask,1,81,
200,w,200,,,,,,,,,,,,,,,,,0,0,0,0,11,3,47,0,,,,,,,,,,,,,,,,,,,,,,,,,,,,,w,1,0.384365797043,None,0,0.5,lineblue.gif,stop,,,,,,,,,,,,,,,,,,,,,,,,0.64,0.513310909271,0.000938892364502,0.384365797043,1,w,423.372690201,,,,,,,,,,,,,,,,,,,,,,,,,,,,,,,,,,2015_Jul_07_1048,59.9269327321,LearningTask,1,81,
-200,q,200,,,,,,,,,,,,,,,,,0,0,0,0,12,0,48,1,,,,,,,,,,,,,,,,,,,,,,,,,,,,,q,1,0.384154081345,None,0,0.5,trianglegray.gif,go,,,,,,,,,,,,,,,,,,,,,,,,0,0.514256000519,0.000920057296753,0.384154081345,1,q,426.376035213,,,,,,,,,,,,,,,,,,,,,,,,,,,,,,,,,,2015_Jul_07_1048,59.9269327321,LearningTask,1,81,
-200,a,-200,,,,,,,,,,,,,,,,,0,0,0,0,12,1,49,3,,,,,,,,,,,,,,,,,,,,,,,,,,,,,a,1,0.351090192795,None,0,1.0,hexagonwhite.gif,go,,,,,,,,,,,,,,,,,,,,,,,,0.75,0.51406288147,0.000956058502197,0.351090192795,1,a,429.379253149,,,,,,,,,,,,,,,,,,,,,,,,,,,,,,,,,,2015_Jul_07_1048,59.9269327321,LearningTask,1,81,
200,s,-200,,,,,,,,,,,,,,,,,0,0,0,0,12,2,50,2,,,,,,,,,,,,,,,,,,,,,,,,,,,,,s,1,0.350407838821,None,0,0.5,lineblue.gif,stop,,,,,,,,,,,,,,,,,,,,,,,,0,0.514200925827,0.00108098983765,0.350407838821,1,s,432.382592201,,,,,,,,,,,,,,,,,,,,,,,,,,,,,,,,,,2015_Jul_07_1048,59.9269327321,LearningTask,1,81,
200,w,200,,,,,,,,,,,,,,,,,0,0,0,0,12,3,51,0,,,,,,,,,,,,,,,,,,,,,,,,,,,,,w,1,0.401318073273,None,0,2.0,crossorange.gif,stop,,,,,,,,,,,,,,,,,,,,,,,,0,0.514273166656,0.000895023345947,0.401318073273,1,w,435.386253119,,,,,,,,,,,,,,,,,,,,,,,,,,,,,,,,,,2015_Jul_07_1048,59.9269327321,LearningTask,1,81,
200,w,200,,,,,,,,,,,,,,,,,0,0,0,0,13,0,52,0,,,,,,,,,,,,,,,,,,,,,,,,,,,,,w,1,0.417573928833,None,0,4.0,diamondgreen.gif,stop,,,,,,,,,,,,,,,,,,,,,,,,3.8,0.513926029205,0.000908851623535,0.417573928833,1,w,438.389510155,,,,,,,,,,,,,,,,,,,,,,,,,,,,,,,,,,2015_Jul_07_1048,59.9269327321,LearningTask,1,81,
200,s,-200,,,,,,,,,,,,,,,,,0,0,0,0,13,1,53,2,,,,,,,,,,,,,,,,,,,,,,,,,,,,,s,1,0.284546136856,None,0,4.0,invertedtrianglemagenta.gif,go,,,,,,,,,,,,,,,,,,,,,,,,0,0.514154911041,0.000960826873779,0.400454998016,0,a,441.392777205,0,0.515523910522,0.000962018966675,0.284546136856,1,s,444.396170139,,,,,,,,,,,,,,,,,,,,,,,,,,,2015_Jul_07_1048,59.9269327321,LearningTask,1,81,
-200,a,-200,,,,,,,,,,,,,,,,,0,0,0,0,13,2,54,3,,,,,,,,,,,,,,,,,,,,,,,,,,,,,a,1,0.38380408287,None,0,4.0,diamondgreen.gif,stop,,,,,,,,,,,,,,,,,,,,,,,,3.94,0.514466047287,0.000885963439941,0.38380408287,1,a,447.399814129,,,,,,,,,,,,,,,,,,,,,,,,,,,,,,,,,,2015_Jul_07_1048,59.9269327321,LearningTask,1,81,
200,w,200,,,,,,,,,,,,,,,,,0,0,0,0,13,3,55,0,,,,,,,,,,,,,,,,,,,,,,,,,,,,,w,1,0.367557048798,None,0,4.0,diamondgreen.gif,stop,,,,,,,,,,,,,,,,,,,,,,,,0,0.513780832291,0.000910997390747,0.367557048798,1,w,450.402856112,,,,,,,,,,,,,,,,,,,,,,,,,,,,,,,,,,2015_Jul_07_1048,59.9269327321,LearningTask,1,81,
-200,q,200,,,,,,,,,,,,,,,,,0,0,0,0,14,0,56,1,,,,,,,,,,,,,,,,,,,,,,,,,,,,,q,1,0.351094961166,None,0,0.5,trianglegray.gif,go,,,,,,,,,,,,,,,,,,,,,,,,0.73,0.513947963715,0.000931024551392,0.351094961166,1,q,453.406273127,,,,,,,,,,,,,,,,,,,,,,,,,,,,,,,,,,2015_Jul_07_1048,59.9269327321,LearningTask,1,81,
-200,a,-200,,,,,,,,,,,,,,,,,0,0,0,0,14,1,57,3,,,,,,,,,,,,,,,,,,,,,,,,,,,,,a,1,0.417660951614,None,0,4.0,diamondgreen.gif,stop,,,,,,,,,,,,,,,,,,,,,,,,0,0.514006137848,0.00115418434143,0.417660951614,1,a,456.409546137,,,,,,,,,,,,,,,,,,,,,,,,,,,,,,,,,,2015_Jul_07_1048,59.9269327321,LearningTask,1,81,
200,s,-200,,,,,,,,,,,,,,,,,0,0,0,0,14,2,58,2,,,,,,,,,,,,,,,,,,,,,,,,,,,,,s,1,0.400871992111,None,0,4.0,invertedtrianglemagenta.gif,go,,,,,,,,,,,,,,,,,,,,,,,,3.84,0.514295816422,0.00116395950317,0.400871992111,1,s,459.412935019,,,,,,,,,,,,,,,,,,,,,,,,,,,,,,,,,,2015_Jul_07_1048,59.9269327321,LearningTask,1,81,
-200,q,200,,,,,,,,,,,,,,,,,0,0,0,0,14,3,59,1,,,,,,,,,,,,,,,,,,,,,,,,,,,,,q,1,0.367792129517,None,0,2.0,circleyellow.gif,go,,,,,,,,,,,,,,,,,,,,,,,,2.22,0.514173030853,0.00102114677429,0.367792129517,1,q,462.416649103,,,,,,,,,,,,,,,,,,,,,,,,,,,,,,,,,,2015_Jul_07_1048,59.9269327321,LearningTask,1,81,
200,w,200,,,,,,,,,,,,,,,,,0,0,0,0,15,0,60,0,,,,,,,,,,,,,,,,,,,,,,,,,,,,,w,1,0.384433984756,None,0,0.5,lineblue.gif,stop,,,,,,,,,,,,,,,,,,,,,,,,0.31,0.513705015182,0.000904083251953,0.384433984756,1,w,465.419547081,,,,,,,,,,,,,,,,,,,,,,,,,,,,,,,,,,2015_Jul_07_1048,59.9269327321,LearningTask,1,81,
-200,q,200,,,,,,,,,,,,,,,,,0,0,0,0,15,1,61,1,,,,,,,,,,,,,,,,,,,,,,,,,,,,,q,1,0.417747020721,None,0,1.0,squarecyan.gif,stop,,,,,,,,,,,,,,,,,,,,,,,,0,0.514319181442,0.00104308128357,0.417747020721,1,q,468.42268014,,,,,,,,,,,,,,,,,,,,,,,,,,,,,,,,,,2015_Jul_07_1048,59.9269327321,LearningTask,1,81,
200,w,200,,,,,,,,,,,,,,,,,0,0,0,0,15,2,62,0,,,,,,,,,,,,,,,,,,,,,,,,,,,,,w,1,0.417620897293,None,0,4.0,invertedtrianglemagenta.gif,go,,,,,,,,,,,,,,,,,,,,,,,,3.84,0.514548778534,0.00108885765076,0.417620897293,1,w,471.426242113,,,,,,,,,,,,,,,,,,,,,,,,,,,,,,,,,,2015_Jul_07_1048,59.9269327321,LearningTask,1,81,
-200,q,200,,,,,,,,,,,,,,,,,0,0,0,0,15,3,63,1,,,,,,,,,,,,,,,,,,,,,,,,,,,,,q,1,0.351037979126,None,0,2.0,circleyellow.gif,go,,,,,,,,,,,,,,,,,,,,,,,,1.82,0.514400005341,0.000886917114258,0.351037979126,1,q,474.429560184,,,,,,,,,,,,,,,,,,,,,,,,,,,,,,,,,,2015_Jul_07_1048,59.9269327321,LearningTask,1,81,
-200,a,-200,,,,,,,,,,,,,,,,,0,0,0,0,16,0,64,3,,,,,,,,,,,,,,,,,,,,,,,,,,,,,a,1,0.333956956863,None,0,1.0,hexagonwhite.gif,go,,,,,,,,,,,,,,,,,,,,,,,,1.25,0.514482021332,0.00125408172607,0.333956956863,1,a,477.432981014,,,,,,,,,,,,,,,,,,,,,,,,,,,,,,,,,,2015_Jul_07_1048,59.9269327321,LearningTask,1,81,
-200,q,200,,,,,,,,,,,,,,,,,0,0,0,0,16,1,65,1,,,,,,,,,,,,,,,,,,,,,,,,,,,,,q,1,0.367338895798,None,0,1.0,squarecyan.gif,stop,,,,,,,,,,,,,,,,,,,,,,,,1.09,0.514194965363,0.000918865203857,0.367338895798,1,q,480.436178207,,,,,,,,,,,,,,,,,,,,,,,,,,,,,,,,,,2015_Jul_07_1048,59.9269327321,LearningTask,1,81,
-200,a,-200,,,,,,,,,,,,,,,,,0,0,0,0,16,2,66,3,,,,,,,,,,,,,,,,,,,,,,,,,,,,,a,1,0.367356061935,None,0,1.0,squarecyan.gif,stop,,,,,,,,,,,,,,,,,,,,,,,,0.75,0.514743089676,0.00090217590332,0.367356061935,1,a,483.439536095,,,,,,,,,,,,,,,,,,,,,,,,,,,,,,,,,,2015_Jul_07_1048,59.9269327321,LearningTask,1,81,
200,s,-200,,,,,,,,,,,,,,,,,0,0,0,0,16,3,67,2,,,,,,,,,,,,,,,,,,,,,,,,,,,,,s,1,0.48419213295,None,0,0.5,trianglegray.gif,go,,,,,,,,,,,,,,,,,,,,,,,,0,0.514971017838,0.00115704536438,0.48419213295,1,s,486.443240166,,,,,,,,,,,,,,,,,,,,,,,,,,,,,,,,,,2015_Jul_07_1048,59.9269327321,LearningTask,1,81,
-200,a,-200,,,,,,,,,,,,,,,,,0,0,0,0,17,0,68,3,,,,,,,,,,,,,,,,,,,,,,,,,,,,,a,1,0.500827074051,None,0,0.5,trianglegray.gif,go,,,,,,,,,,,,,,,,,,,,,,,,0.73,0.513640880585,0.000901937484741,0.500827074051,1,a,489.446444035,,,,,,,,,,,,,,,,,,,,,,,,,,,,,,,,,,2015_Jul_07_1048,59.9269327321,LearningTask,1,81,
200,s,-200,,,,,,,,,,,,,,,,,0,0,0,0,17,1,69,2,,,,,,,,,,,,,,,,,,,,,,,,,,,,,s,1,0.350969076157,None,0,2.0,circleyellow.gif,go,,,,,,,,,,,,,,,,,,,,,,,,1.81,0.51435303688,0.000894069671631,0.350969076157,1,s,492.450107098,,,,,,,,,,,,,,,,,,,,,,,,,,,,,,,,,,2015_Jul_07_1048,59.9269327321,LearningTask,1,81,
-200,q,200,,,,,,,,,,,,,,,,,0,0,0,0,17,2,70,1,,,,,,,,,,,,,,,,,,,,,,,,,,,,,q,1,0.333844900131,None,0,1.0,squarecyan.gif,stop,,,,,,,,,,,,,,,,,,,,,,,,1.09,0.51425409317,0.000895023345947,0.333844900131,1,q,495.453482151,,,,,,,,,,,,,,,,,,,,,,,,,,,,,,,,,,2015_Jul_07_1048,59.9269327321,LearningTask,1,81,
200,s,-200,,,,,,,,,,,,,,,,,0,0,0,0,17,3,71,2,,,,,,,,,,,,,,,,,,,,,,,,,,,,,s,1,0.400984048843,None,0,2.0,crossorange.gif,stop,,,,,,,,,,,,,,,,,,,,,,,,0,0.513846874237,0.00117993354797,0.400984048843,1,s,498.456675053,,,,,,,,,,,,,,,,,,,,,,,,,,,,,,,,,,2015_Jul_07_1048,59.9269327321,LearningTask,1,81,
-200,q,200,,,,,,,,,,,,,,,,,0,0,0,0,18,0,72,1,,,,,,,,,,,,,,,,,,,,,,,,,,,,,q,1,0.350736856461,None,0,1.0,squarecyan.gif,stop,,,,,,,,,,,,,,,,,,,,,,,,1.14,0.514104127884,0.000886917114258,0.350736856461,1,q,501.45989418,,,,,,,,,,,,,,,,,,,,,,,,,,,,,,,,,,2015_Jul_07_1048,59.9269327321,LearningTask,1,81,
200,w,200,,,,,,,,,,,,,,,,,0,0,0,0,18,1,73,0,,,,,,,,,,,,,,,,,,,,,,,,,,,,,w,1,0.38445687294,None,0,1.0,squarecyan.gif,stop,,,,,,,,,,,,,,,,,,,,,,,,1.14,0.514386892319,0.000891923904419,0.38445687294,1,w,504.463261127,,,,,,,,,,,,,,,,,,,,,,,,,,,,,,,,,,2015_Jul_07_1048,59.9269327321,LearningTask,1,81,
-200,q,200,,,,,,,,,,,,,,,,,0,0,0,0,18,2,74,1,,,,,,,,,,,,,,,,,,,,,,,,,,,,,q,1,0.350489854813,None,0,0.5,lineblue.gif,stop,,,,,,,,,,,,,,,,,,,,,,,,0.6,0.51452088356,0.000894069671631,0.350489854813,1,q,507.466546059,,,,,,,,,,,,,,,,,,,,,,,,,,,,,,,,,,2015_Jul_07_1048,59.9269327321,LearningTask,1,81,
200,w,200,,,,,,,,,,,,,,,,,0,0,0,0,18,3,75,0,,,,,,,,,,,,,,,,,,,,,,,,,,,,,w,1,0.366858005524,None,0,0.5,trianglegray.gif,go,,,,,,,,,,,,,,,,,,,,,,,,0.51,0.514711141586,0.00100898742676,0.366858005524,1,w,510.470181227,,,,,,,,,,,,,,,,,,,,,,,,,,,,,,,,,,2015_Jul_07_1048,59.9269327321,LearningTask,1,81,
-200,a,-200,,,,,,,,,,,,,,,,,0,0,0,0,19,0,76,3,,,,,,,,,,,,,,,,,,,,,,,,,,,,,a,1,0.40061211586,None,0,0.5,lineblue.gif,stop,,,,,,,,,,,,,,,,,,,,,,,,0,0.514327049255,0.000898122787476,0.40061211586,1,a,513.473171234,,,,,,,,,,,,,,,,,,,,,,,,,,,,,,,,,,2015_Jul_07_1048,59.9269327321,LearningTask,1,81,
200,s,-200,,,,,,,,,,,,,,,,,0,0,0,0,19,1,77,2,,,,,,,,,,,,,,,,,,,,,,,,,,,,,s,1,0.334212064743,None,0,0.5,lineblue.gif,stop,,,,,,,,,,,,,,,,,,,,,,,,0,0.514354944229,0.000927925109863,0.334212064743,1,s,516.476627111,,,,,,,,,,,,,,,,,,,,,,,,,,,,,,,,,,2015_Jul_07_1048,59.9269327321,LearningTask,1,81,
200,w,200,,,,,,,,,,,,,,,,,0,0,0,0,19,2,78,0,,,,,,,,,,,,,,,,,,,,,,,,,,,,,w,1,0.367834091187,None,0,4.0,invertedtrianglemagenta.gif,go,,,,,,,,,,,,,,,,,,,,,,,,0,0.513889789581,0.000995874404907,0.367834091187,1,w,519.479930162,,,,,,,,,,,,,,,,,,,,,,,,,,,,,,,,,,2015_Jul_07_1048,59.9269327321,LearningTask,1,81,
200,w,200,,,,,,,,,,,,,,,,,0,0,0,0,19,3,79,0,,,,,,,,,,,,,,,,,,,,,,,,,,,,,w,1,0.301124811172,None,0,0.5,lineblue.gif,stop,,,,,,,,,,,,,,,,,,,,,,,,0,0.514362096786,0.00107717514038,0.334095001221,0,s,522.483286142,0.44,0.515244960785,0.000965118408203,0.301124811172,1,w,525.486646175,0.443280220032,,,,,,,,,,,,,,,,,,,,,,,,,,2015_Jul_07_1048,59.9269327321,LearningTask,1,81,
-200,a,-200,,,,,,,,,,,,,,,,,0,0,0,0,20,0,80,3,,,,,,,,,,,,,,,,,,,,,,,,,,,,,a,1,0.383937835693,None,0,2.0,circleyellow.gif,go,,,,,,,,,,,,,,,,,,,,,,,,1.86,0.514419078827,0.000953912734985,0.383937835693,1,a,528.48995018,,,,,,,,,,,,,,,,,,,,,,,,,,,,,,,,,,2015_Jul_07_1048,59.9269327321,LearningTask,1,81,
200,w,200,,,,,,,,,,,,,,,,,0,0,0,0,20,1,81,0,,,,,,,,,,,,,,,,,,,,,,,,,,,,,w,1,0.367729902267,None,0,1.0,hexagonwhite.gif,go,,,,,,,,,,,,,,,,,,,,,,,,1.24,0.514117002487,0.000923871994019,0.367729902267,1,w,531.493991137,,,,,,,,,,,,,,,,,,,,,,,,,,,,,,,,,,2015_Jul_07_1048,59.9269327321,LearningTask,1,81,
-200,q,200,,,,,,,,,,,,,,,,,0,0,0,0,20,2,82,1,,,,,,,,,,,,,,,,,,,,,,,,,,,,,q,1,0.334511995316,None,0,1.0,hexagonwhite.gif,go,,,,,,,,,,,,,,,,,,,,,,,,0.94,0.513506889343,0.00089693069458,0.334511995316,1,q,534.496968031,,,,,,,,,,,,,,,,,,,,,,,,,,,,,,,,,,2015_Jul_07_1048,59.9269327321,LearningTask,1,81,
-200,a,-200,,,,,,,,,,,,,,,,,0,0,0,0,20,3,83,3,,,,,,,,,,,,,,,,,,,,,,,,,,,,,a,1,0.417675018311,None,0,2.0,crossorange.gif,stop,,,,,,,,,,,,,,,,,,,,,,,,1.75,0.514117956161,0.000983953475952,0.417675018311,1,a,537.500435114,,,,,,,,,,,,,,,,,,,,,,,,,,,,,,,,,,2015_Jul_07_1048,59.9269327321,LearningTask,1,81,
200,w,200,,,,,,,,,,,,,,,,,0,0,0,0,21,0,84,0,,,,,,,,,,,,,,,,,,,,,,,,,,,,,w,1,0.334244966507,None,0,4.0,diamondgreen.gif,stop,,,,,,,,,,,,,,,,,,,,,,,,3.95,0.514203071594,0.00089693069458,0.334244966507,1,w,540.503875017,,,,,,,,,,,,,,,,,,,,,,,,,,,,,,,,,,2015_Jul_07_1048,59.9269327321,LearningTask,1,81,
-200,q,200,,,,,,,,,,,,,,,,,0,0,0,0,21,1,85,1,,,,,,,,,,,,,,,,,,,,,,,,,,,,,q,1,0.334203004837,None,0,1.0,squarecyan.gif,stop,,,,,,,,,,,,,,,,,,,,,,,,0,0.51346206665,0.00116515159607,0.334203004837,1,q,543.507642031,,,,,,,,,,,,,,,,,,,,,,,,,,,,,,,,,,2015_Jul_07_1048,59.9269327321,LearningTask,1,81,
-200,a,-200,,,,,,,,,,,,,,,,,0,0,0,0,21,2,86,3,,,,,,,,,,,,,,,,,,,,,,,,,,,,,a,1,0.384346008301,None,0,0.5,lineblue.gif,stop,,,,,,,,,,,,,,,,,,,,,,,,0.35,0.513423919678,0.000926971435547,0.384346008301,1,a,546.510057211,,,,,,,,,,,,,,,,,,,,,,,,,,,,,,,,,,2015_Jul_07_1048,59.9269327321,LearningTask,1,81,
200,s,-200,,,,,,,,,,,,,,,,,0,0,0,0,21,3,87,2,,,,,,,,,,,,,,,,,,,,,,,,,,,,,s,1,0.384142875671,None,0,1.0,hexagonwhite.gif,go,,,,,,,,,,,,,,,,,,,,,,,,1.12,0.514404058456,0.000905990600586,0.384142875671,1,s,549.513792038,,,,,,,,,,,,,,,,,,,,,,,,,,,,,,,,,,2015_Jul_07_1048,59.9269327321,LearningTask,1,81,
200,s,-200,,,,,,,,,,,,,,,,,0,0,0,0,22,0,88,2,,,,,,,,,,,,,,,,,,,,,,,,,,,,,s,1,0.484018087387,None,0,0.5,lineblue.gif,stop,,,,,,,,,,,,,,,,,,,,,,,,0.35,0.514247894287,0.000979900360107,0.484018087387,1,s,552.517019033,,,,,,,,,,,,,,,,,,,,,,,,,,,,,,,,,,2015_Jul_07_1048,59.9269327321,LearningTask,1,81,
-200,q,200,,,,,,,,,,,,,,,,,0,0,0,0,22,1,89,1,,,,,,,,,,,,,,,,,,,,,,,,,,,,,q,1,0.333992004395,None,0,1.0,squarecyan.gif,stop,,,,,,,,,,,,,,,,,,,,,,,,1.16,0.514235973358,0.000883817672729,0.333992004395,1,q,555.520123005,,,,,,,,,,,,,,,,,,,,,,,,,,,,,,,,,,2015_Jul_07_1048,59.9269327321,LearningTask,1,81,
200,s,-200,,,,,,,,,,,,,,,,,0,0,0,0,22,2,90,2,,,,,,,,,,,,,,,,,,,,,,,,,,,,,s,1,0.450821876526,None,0,2.0,crossorange.gif,stop,,,,,,,,,,,,,,,,,,,,,,,,2.22,0.514750003815,0.00105786323547,0.450821876526,1,s,558.523940086,,,,,,,,,,,,,,,,,,,,,,,,,,,,,,,,,,2015_Jul_07_1048,59.9269327321,LearningTask,1,81,
-200,q,200,,,,,,,,,,,,,,,,,0,0,0,0,22,3,91,1,,,,,,,,,,,,,,,,,,,,,,,,,,,,,q,1,0.350807189941,None,0,0.5,trianglegray.gif,go,,,,,,,,,,,,,,,,,,,,,,,,0.46,0.513907909393,0.000895023345947,0.350807189941,1,q,561.526925087,,,,,,,,,,,,,,,,,,,,,,,,,,,,,,,,,,2015_Jul_07_1048,59.9269327321,LearningTask,1,81,
-200,a,-200,,,,,,,,,,,,,,,,,0,0,0,0,23,0,92,3,,,,,,,,,,,,,,,,,,,,,,,,,,,,,a,1,0.367658138275,None,0,1.0,hexagonwhite.gif,go,,,,,,,,,,,,,,,,,,,,,,,,1.25,0.514456987381,0.00127291679382,0.367658138275,1,a,564.530225039,,,,,,,,,,,,,,,,,,,,,,,,,,,,,,,,,,2015_Jul_07_1048,59.9269327321,LearningTask,1,81,
200,s,-200,,,,,,,,,,,,,,,,,0,0,0,0,23,1,93,2,,,,,,,,,,,,,,,,,,,,,,,,,,,,,s,1,0.333955049515,None,0,0.5,trianglegray.gif,go,,,,,,,,,,,,,,,,,,,,,,,,0.4,0.514243125916,0.000977039337158,0.333955049515,1,s,567.533696175,,,,,,,,,,,,,,,,,,,,,,,,,,,,,,,,,,2015_Jul_07_1048,59.9269327321,LearningTask,1,81,
200,w,200,,,,,,,,,,,,,,,,,0,0,0,0,23,2,94,0,,,,,,,,,,,,,,,,,,,,,,,,,,,,,w,1,0.351212024689,None,0,2.0,circleyellow.gif,go,,,,,,,,,,,,,,,,,,,,,,,,2.05,0.514383077621,0.00115704536438,0.351212024689,1,w,570.536861181,,,,,,,,,,,,,,,,,,,,,,,,,,,,,,,,,,2015_Jul_07_1048,59.9269327321,LearningTask,1,81,
-200,q,200,,,,,,,,,,,,,,,,,0,0,0,0,23,3,95,1,,,,,,,,,,,,,,,,,,,,,,,,,,,,,q,1,0.350871086121,None,0,0.5,lineblue.gif,stop,,,,,,,,,,,,,,,,,,,,,,,,0.66,0.51433801651,0.000931024551392,0.350871086121,1,q,573.540344,,,,,,,,,,,,,,,,,,,,,,,,,,,,,,,,,,2015_Jul_07_1048,59.9269327321,LearningTask,1,81,
-200,q,200,,,,,,,,,,,,,,,,,0,0,0,0,24,0,96,1,,,,,,,,,,,,,,,,,,,,,,,,,,,,,q,1,0.333712100983,None,0,0.5,lineblue.gif,stop,,,,,,,,,,,,,,,,,,,,,,,,0.68,0.514616012573,0.000923871994019,0.333712100983,1,q,576.543880224,,,,,,,,,,,,,,,,,,,,,,,,,,,,,,,,,,2015_Jul_07_1048,59.9269327321,LearningTask,1,81,
-200,a,-200,,,,,,,,,,,,,,,,,0,0,0,0,24,1,97,3,,,,,,,,,,,,,,,,,,,,,,,,,,,,,a,1,0.400640964508,None,0,2.0,crossorange.gif,stop,,,,,,,,,,,,,,,,,,,,,,,,0,0.514235973358,0.000895023345947,0.400640964508,1,a,579.547045231,,,,,,,,,,,,,,,,,,,,,,,,,,,,,,,,,,2015_Jul_07_1048,59.9269327321,LearningTask,1,81,
-200,a,-200,,,,,,,,,,,,,,,,,0,0,0,0,24,2,98,3,,,,,,,,,,,,,,,,,,,,,,,,,,,,,a,1,0.435034990311,None,0,4.0,invertedtrianglemagenta.gif,go,,,,,,,,,,,,,,,,,,,,,,,,4.07,0.513954162598,0.000924110412598,0.435034990311,1,a,582.55062604,,,,,,,,,,,,,,,,,,,,,,,,,,,,,,,,,,2015_Jul_07_1048,59.9269327321,LearningTask,1,81,
200,w,200,,,,,,,,,,,,,,,,,0,0,0,0,24,3,99,0,,,,,,,,,,,,,,,,,,,,,,,,,,,,,w,1,0.333818912506,None,0,4.0,diamondgreen.gif,stop,,,,,,,,,,,,,,,,,,,,,,,,0,0.514029979706,0.000911951065063,0.333818912506,1,w,585.553787231,,,,,,,,,,,,,,,,,,,,,,,,,,,,,,,,,,2015_Jul_07_1048,59.9269327321,LearningTask,1,81,
,,,,,,,,,,,,,,,,,,,0,0,0,0,,,,,,,,,,,,,,,,,,,,,,,,,,,,,,,,,,,,,,,,,,,,,,,,,,,,,,,,,,,,,,,,,,,,,,,,,,,,,,,9,46.7231068611,,,,,,,,,,,,,,,,,,,,,,,,2015_Jul_07_1048,59.9269327321,LearningTask,1,81,
200,w,200,,,,,,,,,,,,,,,,,1,0,1,0,0,0,0,0,,,,,,,,,,,,,,,,,,,,,,,,,,,,,w,1,0.350528001785,None,0,0.5,lineblue.gif,stop,,,,,,,,,,,,,,,,,,,,,,,,0,0.510149002075,0.00105690956116,[],0,None,635.727466106,0.68,0.514526128769,0.00102615356445,0.350528001785,1,w,638.730379105,0.25797700882,,,,,,,,,,,,,,,,,,,,,,,,,,2015_Jul_07_1048,59.9269327321,LearningTask,1,81,
-200,a,-200,,,,,,,,,,,,,,,,,1,0,1,0,0,1,1,3,,,,,,,,,,,,,,,,,,,,,,,,,,,,,a,1,0.367658853531,None,0,1.0,hexagonwhite.gif,go,,,,,,,,,,,,,,,,,,,,,,,,0.85,0.514100074768,0.000977039337158,0.367658853531,1,a,641.733516216,,,,,,,,,,,,,,,,,,,,,,,,,,,,,,,,,,2015_Jul_07_1048,59.9269327321,LearningTask,1,81,
-200,a,-200,,,,,,,,,,,,,,,,,1,0,1,0,0,2,2,3,,,,,,,,,,,,,,,,,,,,,,,,,,,,,a,1,0.334048986435,None,0,2.0,crossorange.gif,stop,,,,,,,,,,,,,,,,,,,,,,,,0,0.513845920563,0.0014009475708,0.367913007736,0,q,644.736608028,0,0.515463113785,0.00104808807373,0.334048986435,1,a,647.7399261,,,,,,,,,,,,,,,,,,,,,,,,,,,2015_Jul_07_1048,59.9269327321,LearningTask,1,81,
-200,q,200,,,,,,,,,,,,,,,,,1,0,1,0,0,3,3,1,,,,,,,,,,,,,,,,,,,,,,,,,,,,,q,1,0.400882005692,None,0,0.5,trianglegray.gif,go,,,,,,,,,,,,,,,,,,,,,,,,0,0.5139939785,0.00100803375244,0.400882005692,1,q,650.743153095,,,,,,,,,,,,,,,,,,,,,,,,,,,,,,,,,,2015_Jul_07_1048,59.9269327321,LearningTask,1,81,
-200,a,-200,,,,,,,,,,,,,,,,,1,0,1,0,1,0,4,3,,,,,,,,,,,,,,,,,,,,,,,,,,,,,a,1,0.38390994072,None,0,4.0,diamondgreen.gif,stop,,,,,,,,,,,,,,,,,,,,,,,,3.94,0.514683961868,0.000903844833374,0.38390994072,1,a,653.746632099,,,,,,,,,,,,,,,,,,,,,,,,,,,,,,,,,,2015_Jul_07_1048,59.9269327321,LearningTask,1,81,
-200,q,200,,,,,,,,,,,,,,,,,1,0,1,0,1,1,5,1,,,,,,,,,,,,,,,,,,,,,,,,,,,,,q,1,0.368141889572,None,0,2.0,crossorange.gif,stop,,,,,,,,,,,,,,,,,,,,,,,,1.91,0.514032125473,0.00090217590332,0.368141889572,1,q,656.749980211,,,,,,,,,,,,,,,,,,,,,,,,,,,,,,,,,,2015_Jul_07_1048,59.9269327321,LearningTask,1,81,
-200,q,200,,,,,,,,,,,,,,,,,1,0,1,0,1,2,6,1,,,,,,,,,,,,,,,,,,,,,,,,,,,,,q,1,0.350970983505,None,0,4.0,invertedtrianglemagenta.gif,go,,,,,,,,,,,,,,,,,,,,,,,,0,0.513835906982,0.000915050506592,0.350970983505,1,q,659.753486156,,,,,,,,,,,,,,,,,,,,,,,,,,,,,,,,,,2015_Jul_07_1048,59.9269327321,LearningTask,1,81,
-200,q,200,,,,,,,,,,,,,,,,,1,0,1,0,1,3,7,1,,,,,,,,,,,,,,,,,,,,,,,,,,,,,q,1,0.350478172302,None,0,1.0,squarecyan.gif,stop,,,,,,,,,,,,,,,,,,,,,,,,1.15,0.514447927475,0.000891923904419,0.350478172302,1,q,662.756677151,,,,,,,,,,,,,,,,,,,,,,,,,,,,,,,,,,2015_Jul_07_1048,59.9269327321,LearningTask,1,81,
200,s,-200,,,,,,,,,,,,,,,,,1,0,1,0,2,0,8,2,,,,,,,,,,,,,,,,,,,,,,,,,,,,,s,1,0.434448957443,None,0,0.5,lineblue.gif,stop,,,,,,,,,,,,,,,,,,,,,,,,0.56,0.514353990555,0.000899076461792,0.434448957443,1,s,665.760334015,,,,,,,,,,,,,,,,,,,,,,,,,,,,,,,,,,2015_Jul_07_1048,59.9269327321,LearningTask,1,81,
-200,a,-200,,,,,,,,,,,,,,,,,1,0,1,0,2,1,9,3,,,,,,,,,,,,,,,,,,,,,,,,,,,,,a,1,0.334300994873,None,0,1.0,hexagonwhite.gif,go,,,,,,,,,,,,,,,,,,,,,,,,1.1,0.513691902161,0.00099778175354,0.334300994873,1,a,668.763567209,,,,,,,,,,,,,,,,,,,,,,,,,,,,,,,,,,2015_Jul_07_1048,59.9269327321,LearningTask,1,81,
-200,q,200,,,,,,,,,,,,,,,,,1,0,1,0,2,2,10,1,,,,,,,,,,,,,,,,,,,,,,,,,,,,,q,1,0.384000062943,None,0,1.0,squarecyan.gif,stop,,,,,,,,,,,,,,,,,,,,,,,,0,0.514454126358,0.000887155532837,0.384000062943,1,q,671.766740084,,,,,,,,,,,,,,,,,,,,,,,,,,,,,,,,,,2015_Jul_07_1048,59.9269327321,LearningTask,1,81,
-200,a,-200,,,,,,,,,,,,,,,,,1,0,1,0,2,3,11,3,,,,,,,,,,,,,,,,,,,,,,,,,,,,,a,1,0.317394971848,None,0,2.0,crossorange.gif,stop,,,,,,,,,,,,,,,,,,,,,,,,1.98,0.514451026917,0.00096607208252,0.317394971848,1,a,674.770517111,,,,,,,,,,,,,,,,,,,,,,,,,,,,,,,,,,2015_Jul_07_1048,59.9269327321,LearningTask,1,81,
-200,a,-200,,,,,,,,,,,,,,,,,1,0,1,0,3,0,12,3,,,,,,,,,,,,,,,,,,,,,,,,,,,,,a,1,0.334259986877,None,0,1.0,squarecyan.gif,stop,,,,,,,,,,,,,,,,,,,,,,,,1.16,0.514178991318,0.000914096832275,0.334259986877,1,a,677.773431063,,,,,,,,,,,,,,,,,,,,,,,,,,,,,,,,,,2015_Jul_07_1048,59.9269327321,LearningTask,1,81,
200,w,200,,,,,,,,,,,,,,,,,1,0,1,0,3,1,13,0,,,,,,,,,,,,,,,,,,,,,,,,,,,,,w,1,0.384082078934,None,0,0.5,trianglegray.gif,go,,,,,,,,,,,,,,,,,,,,,,,,0.35,0.514425039291,0.000900983810425,0.384082078934,1,w,680.776828051,,,,,,,,,,,,,,,,,,,,,,,,,,,,,,,,,,2015_Jul_07_1048,59.9269327321,LearningTask,1,81,
-200,a,-200,,,,,,,,,,,,,,,,,1,0,1,0,3,2,14,3,,,,,,,,,,,,,,,,,,,,,,,,,,,,,a,1,0.334447145462,None,0,2.0,crossorange.gif,stop,,,,,,,,,,,,,,,,,,,,,,,,1.98,0.514260053635,0.00095796585083,0.334447145462,1,a,683.780363083,,,,,,,,,,,,,,,,,,,,,,,,,,,,,,,,,,2015_Jul_07_1048,59.9269327321,LearningTask,1,81,
200,s,-200,,,,,,,,,,,,,,,,,1,0,1,0,3,3,15,2,,,,,,,,,,,,,,,,,,,,,,,,,,,,,s,1,0.31706404686,None,0,2.0,circleyellow.gif,go,,,,,,,,,,,,,,,,,,,,,,,,2.09,0.514409065247,0.00100612640381,0.31706404686,1,s,686.783588171,,,,,,,,,,,,,,,,,,,,,,,,,,,,,,,,,,2015_Jul_07_1048,59.9269327321,LearningTask,1,81,
-200,q,200,,,,,,,,,,,,,,,,,1,0,1,0,4,0,16,1,,,,,,,,,,,,,,,,,,,,,,,,,,,,,q,1,0.400845050812,None,0,2.0,crossorange.gif,stop,,,,,,,,,,,,,,,,,,,,,,,,1.85,0.514150857925,0.00112390518188,0.400845050812,1,q,689.787149191,,,,,,,,,,,,,,,,,,,,,,,,,,,,,,,,,,2015_Jul_07_1048,59.9269327321,LearningTask,1,81,
200,s,-200,,,,,,,,,,,,,,,,,1,0,1,0,4,1,17,2,,,,,,,,,,,,,,,,,,,,,,,,,,,,,s,1,0.317577123642,None,0,4.0,invertedtrianglemagenta.gif,go,,,,,,,,,,,,,,,,,,,,,,,,3.75,0.513950824738,0.000916957855225,0.317577123642,1,s,692.790307999,,,,,,,,,,,,,,,,,,,,,,,,,,,,,,,,,,2015_Jul_07_1048,59.9269327321,LearningTask,1,81,
-200,q,200,,,,,,,,,,,,,,,,,1,0,1,0,4,2,18,1,,,,,,,,,,,,,,,,,,,,,,,,,,,,,q,1,0.317808151245,None,0,0.5,lineblue.gif,stop,,,,,,,,,,,,,,,,,,,,,,,,0,0.514100790024,0.000925779342651,0.317808151245,1,q,695.79332304,,,,,,,,,,,,,,,,,,,,,,,,,,,,,,,,,,2015_Jul_07_1048,59.9269327321,LearningTask,1,81,
-200,q,200,,,,,,,,,,,,,,,,,1,0,1,0,4,3,19,1,,,,,,,,,,,,,,,,,,,,,,,,,,,,,q,1,0.400543212891,None,0,2.0,crossorange.gif,stop,,,,,,,,,,,,,,,,,,,,,,,,1.81,0.513954877853,0.00120997428894,0.400543212891,1,q,698.796776056,,,,,,,,,,,,,,,,,,,,,,,,,,,,,,,,,,2015_Jul_07_1048,59.9269327321,LearningTask,1,81,
-200,a,-200,,,,,,,,,,,,,,,,,1,0,1,0,5,0,20,3,,,,,,,,,,,,,,,,,,,,,,,,,,,,,a,1,0.400508880615,None,0,1.0,squarecyan.gif,stop,,,,,,,,,,,,,,,,,,,,,,,,0.95,0.515081167221,0.00154209136963,0.400508880615,1,a,701.800307035,,,,,,,,,,,,,,,,,,,,,,,,,,,,,,,,,,2015_Jul_07_1048,59.9269327321,LearningTask,1,81,
-200,a,-200,,,,,,,,,,,,,,,,,1,0,1,0,5,1,21,3,,,,,,,,,,,,,,,,,,,,,,,,,,,,,a,1,0.417700052261,None,0,0.5,trianglegray.gif,go,,,,,,,,,,,,,,,,,,,,,,,,0.63,0.514689922333,0.00127291679382,0.417700052261,1,a,704.803818226,,,,,,,,,,,,,,,,,,,,,,,,,,,,,,,,,,2015_Jul_07_1048,59.9269327321,LearningTask,1,81,
-200,a,-200,,,,,,,,,,,,,,,,,1,0,1,0,5,2,22,3,,,,,,,,,,,,,,,,,,,,,,,,,,,,,a,1,0.350945949554,None,0,2.0,circleyellow.gif,go,,,,,,,,,,,,,,,,,,,,,,,,1.9,0.514225959778,0.00130796432495,0.350945949554,1,a,707.807201147,,,,,,,,,,,,,,,,,,,,,,,,,,,,,,,,,,2015_Jul_07_1048,59.9269327321,LearningTask,1,81,
200,s,-200,,,,,,,,,,,,,,,,,1,0,1,0,5,3,23,2,,,,,,,,,,,,,,,,,,,,,,,,,,,,,s,1,0.367676973343,None,0,0.5,lineblue.gif,stop,,,,,,,,,,,,,,,,,,,,,,,,0.46,0.514109134674,0.00126600265503,0.367676973343,1,s,710.810270071,,,,,,,,,,,,,,,,,,,,,,,,,,,,,,,,,,2015_Jul_07_1048,59.9269327321,LearningTask,1,81,
200,w,200,,,,,,,,,,,,,,,,,1,0,1,0,6,0,24,0,,,,,,,,,,,,,,,,,,,,,,,,,,,,,w,1,0.383996009827,None,0,4.0,diamondgreen.gif,stop,,,,,,,,,,,,,,,,,,,,,,,,4.24,0.514472007751,0.00127291679382,0.383996009827,1,w,713.813880205,,,,,,,,,,,,,,,,,,,,,,,,,,,,,,,,,,2015_Jul_07_1048,59.9269327321,LearningTask,1,81,
-200,a,-200,,,,,,,,,,,,,,,,,1,0,1,0,6,1,25,3,,,,,,,,,,,,,,,,,,,,,,,,,,,,,a,1,0.367776870728,None,0,2.0,crossorange.gif,stop,,,,,,,,,,,,,,,,,,,,,,,,0,0.513867855072,0.000897884368896,0.367776870728,1,a,716.817137003,,,,,,,,,,,,,,,,,,,,,,,,,,,,,,,,,,2015_Jul_07_1048,59.9269327321,LearningTask,1,81,
200,s,-200,,,,,,,,,,,,,,,,,1,0,1,0,6,2,26,2,,,,,,,,,,,,,,,,,,,,,,,,,,,,,s,1,0.350737094879,None,0,0.5,trianglegray.gif,go,,,,,,,,,,,,,,,,,,,,,,,,0,0.514616012573,0.000878095626831,0.350737094879,1,s,719.821280003,,,,,,,,,,,,,,,,,,,,,,,,,,,,,,,,,,2015_Jul_07_1048,59.9269327321,LearningTask,1,81,
-200,a,-200,,,,,,,,,,,,,,,,,1,0,1,0,6,3,27,3,,,,,,,,,,,,,,,,,,,,,,,,,,,,,a,1,0.367762088776,None,0,1.0,hexagonwhite.gif,go,,,,,,,,,,,,,,,,,,,,,,,,0.8,0.513215065002,0.00159597396851,0.367762088776,1,a,722.824305058,,,,,,,,,,,,,,,,,,,,,,,,,,,,,,,,,,2015_Jul_07_1048,59.9269327321,LearningTask,1,81,
200,w,200,,,,,,,,,,,,,,,,,1,0,1,0,7,0,28,0,,,,,,,,,,,,,,,,,,,,,,,,,,,,,w,1,0.367924928665,None,0,2.0,circleyellow.gif,go,,,,,,,,,,,,,,,,,,,,,,,,2.25,0.513715028763,0.000888109207153,0.367924928665,1,w,725.827150106,,,,,,,,,,,,,,,,,,,,,,,,,,,,,,,,,,2015_Jul_07_1048,59.9269327321,LearningTask,1,81,
200,s,-200,,,,,,,,,,,,,,,,,1,0,1,0,7,1,29,2,,,,,,,,,,,,,,,,,,,,,,,,,,,,,s,1,0.384027957916,None,0,0.5,lineblue.gif,stop,,,,,,,,,,,,,,,,,,,,,,,,0.72,0.514415025711,0.000875949859619,0.384027957916,1,s,728.831029177,,,,,,,,,,,,,,,,,,,,,,,,,,,,,,,,,,2015_Jul_07_1048,59.9269327321,LearningTask,1,81,
-200,a,-200,,,,,,,,,,,,,,,,,1,0,1,0,7,2,30,3,,,,,,,,,,,,,,,,,,,,,,,,,,,,,a,1,0.351064920425,None,0,0.5,lineblue.gif,stop,,,,,,,,,,,,,,,,,,,,,,,,0.43,0.513833999634,0.00088095664978,0.351064920425,1,a,731.83386302,,,,,,,,,,,,,,,,,,,,,,,,,,,,,,,,,,2015_Jul_07_1048,59.9269327321,LearningTask,1,81,
200,w,200,,,,,,,,,,,,,,,,,1,0,1,0,7,3,31,0,,,,,,,,,,,,,,,,,,,,,,,,,,,,,w,1,0.334247112274,None,0,4.0,diamondgreen.gif,stop,,,,,,,,,,,,,,,,,,,,,,,,3.79,0.51437497139,0.0010130405426,0.334247112274,1,w,734.837456226,,,,,,,,,,,,,,,,,,,,,,,,,,,,,,,,,,2015_Jul_07_1048,59.9269327321,LearningTask,1,81,
200,s,-200,,,,,,,,,,,,,,,,,1,0,1,0,8,0,32,2,,,,,,,,,,,,,,,,,,,,,,,,,,,,,s,1,0.334259986877,None,0,4.0,diamondgreen.gif,stop,,,,,,,,,,,,,,,,,,,,,,,,4.09,0.514194965363,0.00103092193604,0.334259986877,1,s,737.84113121,,,,,,,,,,,,,,,,,,,,,,,,,,,,,,,,,,2015_Jul_07_1048,59.9269327321,LearningTask,1,81,
200,w,200,,,,,,,,,,,,,,,,,1,0,1,0,8,1,33,0,,,,,,,,,,,,,,,,,,,,,,,,,,,,,w,1,0.434174060822,None,0,0.5,lineblue.gif,stop,,,,,,,,,,,,,,,,,,,,,,,,0,0.513695955276,0.000903844833374,0.334506034851,0,s,740.843946218,0.37,0.515419960022,0.00100588798523,0.434174060822,1,w,743.847577095,,,,,,,,,,,,,,,,,,,,,,,,,,,2015_Jul_07_1048,59.9269327321,LearningTask,1,81,
200,w,200,,,,,,,,,,,,,,,,,1,0,1,0,8,2,34,0,,,,,,,,,,,,,,,,,,,,,,,,,,,,,w,1,0.418022871017,None,0,4.0,diamondgreen.gif,stop,,,,,,,,,,,,,,,,,,,,,,,,3.87,0.514034032822,0.000923871994019,0.418022871017,1,w,746.850912094,,,,,,,,,,,,,,,,,,,,,,,,,,,,,,,,,,2015_Jul_07_1048,59.9269327321,LearningTask,1,81,
200,s,-200,,,,,,,,,,,,,,,,,1,0,1,0,8,3,35,2,,,,,,,,,,,,,,,,,,,,,,,,,,,,,s,1,0.401110887527,None,0,0.5,trianglegray.gif,go,,,,,,,,,,,,,,,,,,,,,,,,0,0.514024019241,0.000885963439941,0.401110887527,1,s,749.853798151,,,,,,,,,,,,,,,,,,,,,,,,,,,,,,,,,,2015_Jul_07_1048,59.9269327321,LearningTask,1,81,
200,w,200,,,,,,,,,,,,,,,,,1,0,1,0,9,0,36,0,,,,,,,,,,,,,,,,,,,,,,,,,,,,,w,1,0.317483901978,None,0,0.5,lineblue.gif,stop,,,,,,,,,,,,,,,,,,,,,,,,0,0.514638900757,0.000875949859619,0.317483901978,1,w,752.857477188,,,,,,,,,,,,,,,,,,,,,,,,,,,,,,,,,,2015_Jul_07_1048,59.9269327321,LearningTask,1,81,
200,s,-200,,,,,,,,,,,,,,,,,1,0,1,0,9,1,37,2,,,,,,,,,,,,,,,,,,,,,,,,,,,,,s,1,0.38441491127,None,0,2.0,crossorange.gif,stop,,,,,,,,,,,,,,,,,,,,,,,,2.05,0.514252901077,0.00091290473938,0.38441491127,1,s,755.860699177,,,,,,,,,,,,,,,,,,,,,,,,,,,,,,,,,,2015_Jul_07_1048,59.9269327321,LearningTask,1,81,
-200,q,200,,,,,,,,,,,,,,,,,1,0,1,0,9,2,38,1,,,,,,,,,,,,,,,,,,,,,,,,,,,,,q,1,0.350811004639,None,0,4.0,invertedtrianglemagenta.gif,go,,,,,,,,,,,,,,,,,,,,,,,,4.15,0.514322042465,0.00127601623535,0.350811004639,1,q,758.864106178,,,,,,,,,,,,,,,,,,,,,,,,,,,,,,,,,,2015_Jul_07_1048,59.9269327321,LearningTask,1,81,
200,s,-200,,,,,,,,,,,,,,,,,1,0,1,0,9,3,39,2,,,,,,,,,,,,,,,,,,,,,,,,,,,,,s,1,0.384191989899,None,0,2.0,circleyellow.gif,go,,,,,,,,,,,,,,,,,,,,,,,,2.03,0.514189958572,0.000874996185303,0.384191989899,1,s,761.868467093,,,,,,,,,,,,,,,,,,,,,,,,,,,,,,,,,,2015_Jul_07_1048,59.9269327321,LearningTask,1,81,
-200,a,-200,,,,,,,,,,,,,,,,,1,0,1,0,10,0,40,3,,,,,,,,,,,,,,,,,,,,,,,,,,,,,a,1,0.417526960373,None,0,4.0,invertedtrianglemagenta.gif,go,,,,,,,,,,,,,,,,,,,,,,,,0,0.513190031052,0.000914096832275,0.417526960373,1,a,764.870713234,,,,,,,,,,,,,,,,,,,,,,,,,,,,,,,,,,2015_Jul_07_1048,59.9269327321,LearningTask,1,81,
-200,q,200,,,,,,,,,,,,,,,,,1,0,1,0,10,1,41,1,,,,,,,,,,,,,,,,,,,,,,,,,,,,,q,1,0.384846925735,None,0,4.0,diamondgreen.gif,stop,,,,,,,,,,,,,,,,,,,,,,,,3.84,0.514228820801,0.000874042510986,0.384846925735,1,q,767.874171019,,,,,,,,,,,,,,,,,,,,,,,,,,,,,,,,,,2015_Jul_07_1048,59.9269327321,LearningTask,1,81,
-200,q,200,,,,,,,,,,,,,,,,,1,0,1,0,10,2,42,1,,,,,,,,,,,,,,,,,,,,,,,,,,,,,q,1,0.38473200798,None,0,2.0,crossorange.gif,stop,,,,,,,,,,,,,,,,,,,,,,,,1.8,0.513763904572,0.000927925109863,0.38473200798,1,q,770.877766132,,,,,,,,,,,,,,,,,,,,,,,,,,,,,,,,,,2015_Jul_07_1048,59.9269327321,LearningTask,1,81,
200,w,200,,,,,,,,,,,,,,,,,1,0,1,0,10,3,43,0,,,,,,,,,,,,,,,,,,,,,,,,,,,,,w,1,0.367854118347,None,0,4.0,diamondgreen.gif,stop,,,,,,,,,,,,,,,,,,,,,,,,4.07,0.513916015625,0.000930070877075,0.367854118347,1,w,773.880870104,,,,,,,,,,,,,,,,,,,,,,,,,,,,,,,,,,2015_Jul_07_1048,59.9269327321,LearningTask,1,81,
200,w,200,,,,,,,,,,,,,,,,,1,0,1,0,11,0,44,0,,,,,,,,,,,,,,,,,,,,,,,,,,,,,w,1,0.333927869797,None,0,2.0,circleyellow.gif,go,,,,,,,,,,,,,,,,,,,,,,,,1.87,0.514406919479,0.000874996185303,0.333927869797,1,w,776.884309053,,,,,,,,,,,,,,,,,,,,,,,,,,,,,,,,,,2015_Jul_07_1048,59.9269327321,LearningTask,1,81,
-200,q,200,,,,,,,,,,,,,,,,,1,0,1,0,11,1,45,1,,,,,,,,,,,,,,,,,,,,,,,,,,,,,q,1,0.31739783287,None,0,1.0,hexagonwhite.gif,go,,,,,,,,,,,,,,,,,,,,,,,,0.82,0.514193058014,0.000906944274902,0.31739783287,1,q,779.887757063,,,,,,,,,,,,,,,,,,,,,,,,,,,,,,,,,,2015_Jul_07_1048,59.9269327321,LearningTask,1,81,
200,s,-200,,,,,,,,,,,,,,,,,1,0,1,0,11,2,46,2,,,,,,,,,,,,,,,,,,,,,,,,,,,,,s,1,0.334175825119,None,0,1.0,hexagonwhite.gif,go,,,,,,,,,,,,,,,,,,,,,,,,0,0.514089107513,0.00141000747681,0.334175825119,1,s,782.8912251,,,,,,,,,,,,,,,,,,,,,,,,,,,,,,,,,,2015_Jul_07_1048,59.9269327321,LearningTask,1,81,
200,s,-200,,,,,,,,,,,,,,,,,1,0,1,0,11,3,47,2,,,,,,,,,,,,,,,,,,,,,,,,,,,,,s,1,0.334397792816,None,0,2.0,crossorange.gif,stop,,,,,,,,,,,,,,,,,,,,,,,,1.96,0.513674974442,0.00099515914917,0.334397792816,1,s,785.894657135,,,,,,,,,,,,,,,,,,,,,,,,,,,,,,,,,,2015_Jul_07_1048,59.9269327321,LearningTask,1,81,
-200,q,200,,,,,,,,,,,,,,,,,1,0,1,0,12,0,48,1,,,,,,,,,,,,,,,,,,,,,,,,,,,,,q,1,0.350887060165,None,0,1.0,squarecyan.gif,stop,,,,,,,,,,,,,,,,,,,,,,,,1.07,0.514059066772,0.000879049301147,0.350887060165,1,q,788.897783041,,,,,,,,,,,,,,,,,,,,,,,,,,,,,,,,,,2015_Jul_07_1048,59.9269327321,LearningTask,1,81,
200,w,200,,,,,,,,,,,,,,,,,1,0,1,0,12,1,49,0,,,,,,,,,,,,,,,,,,,,,,,,,,,,,w,1,0.301237106323,None,0,2.0,crossorange.gif,stop,,,,,,,,,,,,,,,,,,,,,,,,0,0.513980865479,0.000941038131714,0.301237106323,1,w,791.900873184,,,,,,,,,,,,,,,,,,,,,,,,,,,,,,,,,,2015_Jul_07_1048,59.9269327321,LearningTask,1,81,
-200,a,-200,,,,,,,,,,,,,,,,,1,0,1,0,12,2,50,3,,,,,,,,,,,,,,,,,,,,,,,,,,,,,a,1,0.334609031677,None,0,2.0,crossorange.gif,stop,,,,,,,,,,,,,,,,,,,,,,,,1.78,0.514173030853,0.000923156738281,0.334609031677,1,a,794.90440917,,,,,,,,,,,,,,,,,,,,,,,,,,,,,,,,,,2015_Jul_07_1048,59.9269327321,LearningTask,1,81,
200,s,-200,,,,,,,,,,,,,,,,,1,0,1,0,12,3,51,2,,,,,,,,,,,,,,,,,,,,,,,,,,,,,s,1,0.351469993591,None,0,0.5,lineblue.gif,stop,,,,,,,,,,,,,,,,,,,,,,,,0.32,0.514358043671,0.000871896743774,0.351469993591,1,s,797.908239126,,,,,,,,,,,,,,,,,,,,,,,,,,,,,,,,,,2015_Jul_07_1048,59.9269327321,LearningTask,1,81,
200,s,-200,,,,,,,,,,,,,,,,,1,0,1,0,13,0,52,2,,,,,,,,,,,,,,,,,,,,,,,,,,,,,s,1,0.350732088089,None,0,4.0,diamondgreen.gif,stop,,,,,,,,,,,,,,,,,,,,,,,,4.16,0.514024019241,0.000895977020264,0.350732088089,1,s,800.911375999,,,,,,,,,,,,,,,,,,,,,,,,,,,,,,,,,,2015_Jul_07_1048,59.9269327321,LearningTask,1,81,
-200,q,200,,,,,,,,,,,,,,,,,1,0,1,0,13,1,53,1,,,,,,,,,,,,,,,,,,,,,,,,,,,,,q,1,0.350136995316,None,0,0.5,trianglegray.gif,go,,,,,,,,,,,,,,,,,,,,,,,,0.51,0.514265060425,0.000931978225708,0.350136995316,1,q,803.914367199,,,,,,,,,,,,,,,,,,,,,,,,,,,,,,,,,,2015_Jul_07_1048,59.9269327321,LearningTask,1,81,
-200,a,-200,,,,,,,,,,,,,,,,,1,0,1,0,13,2,54,3,,,,,,,,,,,,,,,,,,,,,,,,,,,,,a,1,0.38432097435,None,0,1.0,squarecyan.gif,stop,,,,,,,,,,,,,,,,,,,,,,,,0,0.514348983765,0.000944137573242,0.38432097435,1,a,806.917915106,,,,,,,,,,,,,,,,,,,,,,,,,,,,,,,,,,2015_Jul_07_1048,59.9269327321,LearningTask,1,81,
-200,q,200,,,,,,,,,,,,,,,,,1,0,1,0,13,3,55,1,,,,,,,,,,,,,,,,,,,,,,,,,,,,,q,1,0.36806511879,None,0,2.0,crossorange.gif,stop,,,,,,,,,,,,,,,,,,,,,,,,1.86,0.514098882675,0.000874996185303,0.36806511879,1,q,809.92133522,,,,,,,,,,,,,,,,,,,,,,,,,,,,,,,,,,2015_Jul_07_1048,59.9269327321,LearningTask,1,81,
-200,q,200,,,,,,,,,,,,,,,,,1,0,1,0,14,0,56,1,,,,,,,,,,,,,,,,,,,,,,,,,,,,,q,1,0.367941141129,None,0,4.0,invertedtrianglemagenta.gif,go,,,,,,,,,,,,,,,,,,,,,,,,4.23,0.513792037964,0.000874996185303,0.367941141129,1,q,812.924427032,,,,,,,,,,,,,,,,,,,,,,,,,,,,,,,,,,2015_Jul_07_1048,59.9269327321,LearningTask,1,81,
-200,q,200,,,,,,,,,,,,,,,,,1,0,1,0,14,1,57,1,,,,,,,,,,,,,,,,,,,,,,,,,,,,,q,1,0.367474079132,None,0,4.0,diamondgreen.gif,stop,,,,,,,,,,,,,,,,,,,,,,,,3.81,0.514348983765,0.000872850418091,0.367474079132,1,q,815.928055048,,,,,,,,,,,,,,,,,,,,,,,,,,,,,,,,,,2015_Jul_07_1048,59.9269327321,LearningTask,1,81,
-200,a,-200,,,,,,,,,,,,,,,,,1,0,1,0,14,2,58,3,,,,,,,,,,,,,,,,,,,,,,,,,,,,,a,1,0.384195804596,None,0,2.0,circleyellow.gif,go,,,,,,,,,,,,,,,,,,,,,,,,1.93,0.513514041901,0.000951051712036,0.384195804596,1,a,818.931678057,,,,,,,,,,,,,,,,,,,,,,,,,,,,,,,,,,2015_Jul_07_1048,59.9269327321,LearningTask,1,81,
200,s,-200,,,,,,,,,,,,,,,,,1,0,1,0,14,3,59,2,,,,,,,,,,,,,,,,,,,,,,,,,,,,,s,1,0.333655118942,None,0,1.0,squarecyan.gif,stop,,,,,,,,,,,,,,,,,,,,,,,,1.12,0.514090061188,0.000890016555786,0.333655118942,1,s,821.934640169,,,,,,,,,,,,,,,,,,,,,,,,,,,,,,,,,,2015_Jul_07_1048,59.9269327321,LearningTask,1,81,
-200,q,200,,,,,,,,,,,,,,,,,1,0,1,0,15,0,60,1,,,,,,,,,,,,,,,,,,,,,,,,,,,,,q,1,0.367694854736,None,0,4.0,diamondgreen.gif,stop,,,,,,,,,,,,,,,,,,,,,,,,4.07,0.514282941818,0.000877141952515,0.367694854736,1,q,824.938012123,,,,,,,,,,,,,,,,,,,,,,,,,,,,,,,,,,2015_Jul_07_1048,59.9269327321,LearningTask,1,81,
-200,a,-200,,,,,,,,,,,,,,,,,1,0,1,0,15,1,61,3,,,,,,,,,,,,,,,,,,,,,,,,,,,,,a,1,0.384157180786,None,0,0.5,trianglegray.gif,go,,,,,,,,,,,,,,,,,,,,,,,,0.66,0.513930082321,0.000916004180908,0.384157180786,1,a,827.941317081,,,,,,,,,,,,,,,,,,,,,,,,,,,,,,,,,,2015_Jul_07_1048,59.9269327321,LearningTask,1,81,
-200,a,-200,,,,,,,,,,,,,,,,,1,0,1,0,15,2,62,3,,,,,,,,,,,,,,,,,,,,,,,,,,,,,a,1,0.367621898651,None,0,4.0,diamondgreen.gif,stop,,,,,,,,,,,,,,,,,,,,,,,,4.17,0.514305114746,0.000925064086914,0.367621898651,1,a,830.944913149,,,,,,,,,,,,,,,,,,,,,,,,,,,,,,,,,,2015_Jul_07_1048,59.9269327321,LearningTask,1,81,
-200,q,200,,,,,,,,,,,,,,,,,1,0,1,0,15,3,63,1,,,,,,,,,,,,,,,,,,,,,,,,,,,,,q,1,0.367843866348,None,0,0.5,trianglegray.gif,go,,,,,,,,,,,,,,,,,,,,,,,,0.65,0.513880968094,0.00110602378845,0.367843866348,1,q,833.948526144,,,,,,,,,,,,,,,,,,,,,,,,,,,,,,,,,,2015_Jul_07_1048,59.9269327321,LearningTask,1,81,
200,w,200,,,,,,,,,,,,,,,,,1,0,1,0,16,0,64,0,,,,,,,,,,,,,,,,,,,,,,,,,,,,,w,1,0.367538928986,None,0,1.0,squarecyan.gif,stop,,,,,,,,,,,,,,,,,,,,,,,,1.18,0.513859987259,0.000925064086914,0.367538928986,1,w,836.951405048,,,,,,,,,,,,,,,,,,,,,,,,,,,,,,,,,,2015_Jul_07_1048,59.9269327321,LearningTask,1,81,
-200,a,-200,,,,,,,,,,,,,,,,,1,0,1,0,16,1,65,3,,,,,,,,,,,,,,,,,,,,,,,,,,,,,a,1,0.38408613205,None,0,2.0,crossorange.gif,stop,,,,,,,,,,,,,,,,,,,,,,,,0,0.514147043228,0.000929117202759,0.38408613205,1,a,839.954726219,,,,,,,,,,,,,,,,,,,,,,,,,,,,,,,,,,2015_Jul_07_1048,59.9269327321,LearningTask,1,81,
200,w,200,,,,,,,,,,,,,,,,,1,0,1,0,16,2,66,0,,,,,,,,,,,,,,,,,,,,,,,,,,,,,w,1,0.317752122879,None,0,4.0,diamondgreen.gif,stop,,,,,,,,,,,,,,,,,,,,,,,,4.1,0.513923883438,0.00091290473938,0.317752122879,1,w,842.958022118,,,,,,,,,,,,,,,,,,,,,,,,,,,,,,,,,,2015_Jul_07_1048,59.9269327321,LearningTask,1,81,
200,w,200,,,,,,,,,,,,,,,,,1,0,1,0,16,3,67,0,,,,,,,,,,,,,,,,,,,,,,,,,,,,,w,1,0.451076984406,None,0,4.0,invertedtrianglemagenta.gif,go,,,,,,,,,,,,,,,,,,,,,,,,3.84,0.514351844788,0.000893831253052,0.451076984406,1,w,845.961379051,,,,,,,,,,,,,,,,,,,,,,,,,,,,,,,,,,2015_Jul_07_1048,59.9269327321,LearningTask,1,81,
200,w,200,,,,,,,,,,,,,,,,,1,0,1,0,17,0,68,0,,,,,,,,,,,,,,,,,,,,,,,,,,,,,w,1,0.350791931152,None,0,1.0,squarecyan.gif,stop,,,,,,,,,,,,,,,,,,,,,,,,0.97,0.514523029327,0.000953912734985,0.350791931152,1,w,848.96491909,,,,,,,,,,,,,,,,,,,,,,,,,,,,,,,,,,2015_Jul_07_1048,59.9269327321,LearningTask,1,81,
200,w,200,,,,,,,,,,,,,,,,,1,0,1,0,17,1,69,0,,,,,,,,,,,,,,,,,,,,,,,,,,,,,w,1,0.350428104401,None,0,2.0,crossorange.gif,stop,,,,,,,,,,,,,,,,,,,,,,,,2.2,0.514086008072,0.0011579990387,0.350428104401,1,w,851.968237162,,,,,,,,,,,,,,,,,,,,,,,,,,,,,,,,,,2015_Jul_07_1048,59.9269327321,LearningTask,1,81,
-200,q,200,,,,,,,,,,,,,,,,,1,0,1,0,17,2,70,1,,,,,,,,,,,,,,,,,,,,,,,,,,,,,q,1,0.467853069305,None,0,1.0,squarecyan.gif,stop,,,,,,,,,,,,,,,,,,,,,,,,0.77,0.513998985291,0.00086498260498,0.467853069305,1,q,854.971586227,,,,,,,,,,,,,,,,,,,,,,,,,,,,,,,,,,2015_Jul_07_1048,59.9269327321,LearningTask,1,81,
200,s,-200,,,,,,,,,,,,,,,,,1,0,1,0,17,3,71,2,,,,,,,,,,,,,,,,,,,,,,,,,,,,,s,1,0.383853197098,None,0,4.0,invertedtrianglemagenta.gif,go,,,,,,,,,,,,,,,,,,,,,,,,4.02,0.514305114746,0.000890970230103,0.383853197098,1,s,857.975071192,,,,,,,,,,,,,,,,,,,,,,,,,,,,,,,,,,2015_Jul_07_1048,59.9269327321,LearningTask,1,81,
200,s,-200,,,,,,,,,,,,,,,,,1,0,1,0,18,0,72,2,,,,,,,,,,,,,,,,,,,,,,,,,,,,,s,1,0.484488010406,None,0,0.5,trianglegray.gif,go,,,,,,,,,,,,,,,,,,,,,,,,0.56,0.513454914093,0.000909090042114,0.484488010406,1,s,860.978312016,,,,,,,,,,,,,,,,,,,,,,,,,,,,,,,,,,2015_Jul_07_1048,59.9269327321,LearningTask,1,81,
200,w,200,,,,,,,,,,,,,,,,,1,0,1,0,18,1,73,0,,,,,,,,,,,,,,,,,,,,,,,,,,,,,w,1,0.317656993866,None,0,4.0,diamondgreen.gif,stop,,,,,,,,,,,,,,,,,,,,,,,,0,0.514060020447,0.00088095664978,0.317656993866,1,w,863.981564999,,,,,,,,,,,,,,,,,,,,,,,,,,,,,,,,,,2015_Jul_07_1048,59.9269327321,LearningTask,1,81,
200,s,-200,,,,,,,,,,,,,,,,,1,0,1,0,18,2,74,2,,,,,,,,,,,,,,,,,,,,,,,,,,,,,s,1,0.383913993835,None,0,0.5,lineblue.gif,stop,,,,,,,,,,,,,,,,,,,,,,,,0.25,0.514373779297,0.000888824462891,0.383913993835,1,s,866.985503197,,,,,,,,,,,,,,,,,,,,,,,,,,,,,,,,,,2015_Jul_07_1048,59.9269327321,LearningTask,1,81,
-200,q,200,,,,,,,,,,,,,,,,,1,0,1,0,18,3,75,1,,,,,,,,,,,,,,,,,,,,,,,,,,,,,q,1,0.334742069244,None,0,2.0,circleyellow.gif,go,,,,,,,,,,,,,,,,,,,,,,,,1.98,0.513650894165,0.00100493431091,0.334742069244,1,q,869.988442183,,,,,,,,,,,,,,,,,,,,,,,,,,,,,,,,,,2015_Jul_07_1048,59.9269327321,LearningTask,1,81,
200,w,200,,,,,,,,,,,,,,,,,1,0,1,0,19,0,76,0,,,,,,,,,,,,,,,,,,,,,,,,,,,,,w,1,0.300729036331,None,0,1.0,squarecyan.gif,stop,,,,,,,,,,,,,,,,,,,,,,,,0,0.514174938202,0.000874996185303,0.300729036331,1,w,872.991611004,,,,,,,,,,,,,,,,,,,,,,,,,,,,,,,,,,2015_Jul_07_1048,59.9269327321,LearningTask,1,81,
-200,q,200,,,,,,,,,,,,,,,,,1,0,1,0,19,1,77,1,,,,,,,,,,,,,,,,,,,,,,,,,,,,,q,1,0.333739995956,None,0,2.0,crossorange.gif,stop,,,,,,,,,,,,,,,,,,,,,,,,0,0.514613866806,0.000876903533936,0.333739995956,1,q,875.995135069,,,,,,,,,,,,,,,,,,,,,,,,,,,,,,,,,,2015_Jul_07_1048,59.9269327321,LearningTask,1,81,
200,s,-200,,,,,,,,,,,,,,,,,1,0,1,0,19,2,78,2,,,,,,,,,,,,,,,,,,,,,,,,,,,,,s,1,0.383590936661,None,0,0.5,trianglegray.gif,go,,,,,,,,,,,,,,,,,,,,,,,,0,0.514369010925,0.000972986221313,0.383590936661,1,s,878.998471022,,,,,,,,,,,,,,,,,,,,,,,,,,,,,,,,,,2015_Jul_07_1048,59.9269327321,LearningTask,1,81,
-200,q,200,,,,,,,,,,,,,,,,,1,0,1,0,19,3,79,1,,,,,,,,,,,,,,,,,,,,,,,,,,,,,q,1,0.368343830109,None,0,0.5,lineblue.gif,stop,,,,,,,,,,,,,,,,,,,,,,,,0.62,0.514021873474,0.00102210044861,0.368343830109,1,q,882.001939058,,,,,,,,,,,,,,,,,,,,,,,,,,,,,,,,,,2015_Jul_07_1048,59.9269327321,LearningTask,1,81,
200,w,200,,,,,,,,,,,,,,,,,1,0,1,0,20,0,80,0,,,,,,,,,,,,,,,,,,,,,,,,,,,,,w,1,0.334760904312,None,0,2.0,crossorange.gif,stop,,,,,,,,,,,,,,,,,,,,,,,,2.15,0.514070034027,0.000901937484741,0.334760904312,1,w,885.004885197,,,,,,,,,,,,,,,,,,,,,,,,,,,,,,,,,,2015_Jul_07_1048,59.9269327321,LearningTask,1,81,
200,s,-200,,,,,,,,,,,,,,,,,1,0,1,0,20,1,81,2,,,,,,,,,,,,,,,,,,,,,,,,,,,,,s,1,0.384829044342,None,0,4.0,diamondgreen.gif,stop,,,,,,,,,,,,,,,,,,,,,,,,4.17,0.514415979385,0.00092887878418,0.384829044342,1,s,888.008293152,,,,,,,,,,,,,,,,,,,,,,,,,,,,,,,,,,2015_Jul_07_1048,59.9269327321,LearningTask,1,81,
200,s,-200,,,,,,,,,,,,,,,,,1,0,1,0,20,2,82,2,,,,,,,,,,,,,,,,,,,,,,,,,,,,,s,1,0.351183891296,None,0,0.5,lineblue.gif,stop,,,,,,,,,,,,,,,,,,,,,,,,0.41,0.514142036438,0.000956058502197,0.351183891296,1,s,891.011671066,,,,,,,,,,,,,,,,,,,,,,,,,,,,,,,,,,2015_Jul_07_1048,59.9269327321,LearningTask,1,81,
200,w,200,,,,,,,,,,,,,,,,,1,0,1,0,20,3,83,0,,,,,,,,,,,,,,,,,,,,,,,,,,,,,w,1,0.317543029785,None,0,4.0,diamondgreen.gif,stop,,,,,,,,,,,,,,,,,,,,,,,,4.18,0.514365196228,0.000897169113159,0.317543029785,1,w,894.015383005,,,,,,,,,,,,,,,,,,,,,,,,,,,,,,,,,,2015_Jul_07_1048,59.9269327321,LearningTask,1,81,
200,w,200,,,,,,,,,,,,,,,,,1,0,1,0,21,0,84,0,,,,,,,,,,,,,,,,,,,,,,,,,,,,,w,1,0.33372592926,None,0,0.5,lineblue.gif,stop,,,,,,,,,,,,,,,,,,,,,,,,0.48,0.514330863953,0.000870943069458,0.33372592926,1,w,897.018549204,,,,,,,,,,,,,,,,,,,,,,,,,,,,,,,,,,2015_Jul_07_1048,59.9269327321,LearningTask,1,81,
200,s,-200,,,,,,,,,,,,,,,,,1,0,1,0,21,1,85,2,,,,,,,,,,,,,,,,,,,,,,,,,,,,,s,1,0.35005903244,None,0,2.0,crossorange.gif,stop,,,,,,,,,,,,,,,,,,,,,,,,0,0.514243125916,0.00104308128357,0.35005903244,1,s,900.022162199,,,,,,,,,,,,,,,,,,,,,,,,,,,,,,,,,,2015_Jul_07_1048,59.9269327321,LearningTask,1,81,
-200,a,-200,,,,,,,,,,,,,,,,,1,0,1,0,21,2,86,3,,,,,,,,,,,,,,,,,,,,,,,,,,,,,a,1,0.350919961929,None,0,2.0,circleyellow.gif,go,,,,,,,,,,,,,,,,,,,,,,,,1.85,0.51394200325,0.000879049301147,0.350919961929,1,a,903.025215149,,,,,,,,,,,,,,,,,,,,,,,,,,,,,,,,,,2015_Jul_07_1048,59.9269327321,LearningTask,1,81,
-200,q,200,,,,,,,,,,,,,,,,,1,0,1,0,21,3,87,1,,,,,,,,,,,,,,,,,,,,,,,,,,,,,q,1,0.400340080261,None,0,4.0,diamondgreen.gif,stop,,,,,,,,,,,,,,,,,,,,,,,,3.8,0.514764070511,0.00087308883667,0.400340080261,1,q,906.028697014,,,,,,,,,,,,,,,,,,,,,,,,,,,,,,,,,,2015_Jul_07_1048,59.9269327321,LearningTask,1,81,
200,s,-200,,,,,,,,,,,,,,,,,1,0,1,0,22,0,88,2,,,,,,,,,,,,,,,,,,,,,,,,,,,,,s,1,0.317794799805,None,0,1.0,squarecyan.gif,stop,,,,,,,,,,,,,,,,,,,,,,,,1.0,0.5134370327,0.000929117202759,0.317794799805,1,s,909.032131195,,,,,,,,,,,,,,,,,,,,,,,,,,,,,,,,,,2015_Jul_07_1048,59.9269327321,LearningTask,1,81,
-200,q,200,,,,,,,,,,,,,,,,,1,0,1,0,22,1,89,1,,,,,,,,,,,,,,,,,,,,,,,,,,,,,q,1,0.334032058716,None,0,0.5,trianglegray.gif,go,,,,,,,,,,,,,,,,,,,,,,,,0.58,0.514093875885,0.000881910324097,0.334032058716,1,q,912.035451174,,,,,,,,,,,,,,,,,,,,,,,,,,,,,,,,,,2015_Jul_07_1048,59.9269327321,LearningTask,1,81,
-200,a,-200,,,,,,,,,,,,,,,,,1,0,1,0,22,2,90,3,,,,,,,,,,,,,,,,,,,,,,,,,,,,,a,1,0.35061788559,None,0,1.0,squarecyan.gif,stop,,,,,,,,,,,,,,,,,,,,,,,,0.82,0.514276027679,0.000874042510986,0.35061788559,1,a,915.038853168,,,,,,,,,,,,,,,,,,,,,,,,,,,,,,,,,,2015_Jul_07_1048,59.9269327321,LearningTask,1,81,
-200,a,-200,,,,,,,,,,,,,,,,,1,0,1,0,22,3,91,3,,,,,,,,,,,,,,,,,,,,,,,,,,,,,a,1,0.367390871048,None,0,1.0,squarecyan.gif,stop,,,,,,,,,,,,,,,,,,,,,,,,0,0.514053106308,0.000919103622437,0.367390871048,1,a,918.042063236,,,,,,,,,,,,,,,,,,,,,,,,,,,,,,,,,,2015_Jul_07_1048,59.9269327321,LearningTask,1,81,
200,w,200,,,,,,,,,,,,,,,,,1,0,1,0,23,0,92,0,,,,,,,,,,,,,,,,,,,,,,,,,,,,,w,1,0.318181037903,None,0,4.0,diamondgreen.gif,stop,,,,,,,,,,,,,,,,,,,,,,,,4.03,0.514100790024,0.000885963439941,0.318181037903,1,w,921.045246124,,,,,,,,,,,,,,,,,,,,,,,,,,,,,,,,,,2015_Jul_07_1048,59.9269327321,LearningTask,1,81,
-200,a,-200,,,,,,,,,,,,,,,,,1,0,1,0,23,1,93,3,,,,,,,,,,,,,,,,,,,,,,,,,,,,,a,1,0.334769964218,None,0,2.0,crossorange.gif,stop,,,,,,,,,,,,,,,,,,,,,,,,2.19,0.513980865479,0.00105786323547,0.334769964218,1,a,924.048607111,,,,,,,,,,,,,,,,,,,,,,,,,,,,,,,,,,2015_Jul_07_1048,59.9269327321,LearningTask,1,81,
200,w,200,,,,,,,,,,,,,,,,,1,0,1,0,23,2,94,0,,,,,,,,,,,,,,,,,,,,,,,,,,,,,w,1,0.317498922348,None,0,2.0,crossorange.gif,stop,,,,,,,,,,,,,,,,,,,,,,,,1.98,0.514216184616,0.00103211402893,0.317498922348,1,w,927.052160025,,,,,,,,,,,,,,,,,,,,,,,,,,,,,,,,,,2015_Jul_07_1048,59.9269327321,LearningTask,1,81,
200,w,200,,,,,,,,,,,,,,,,,1,0,1,0,23,3,95,0,,,,,,,,,,,,,,,,,,,,,,,,,,,,,w,1,0.30116891861,None,0,0.5,lineblue.gif,stop,,,,,,,,,,,,,,,,,,,,,,,,0.36,0.514004945755,0.00114488601685,0.30116891861,1,w,930.055632114,,,,,,,,,,,,,,,,,,,,,,,,,,,,,,,,,,2015_Jul_07_1048,59.9269327321,LearningTask,1,81,
200,w,200,,,,,,,,,,,,,,,,,1,0,1,0,24,0,96,0,,,,,,,,,,,,,,,,,,,,,,,,,,,,,w,1,0.317348003387,None,0,4.0,invertedtrianglemagenta.gif,go,,,,,,,,,,,,,,,,,,,,,,,,4.12,0.514194011688,0.000880002975464,0.317348003387,1,w,933.058988094,,,,,,,,,,,,,,,,,,,,,,,,,,,,,,,,,,2015_Jul_07_1048,59.9269327321,LearningTask,1,81,
200,s,-200,,,,,,,,,,,,,,,,,1,0,1,0,24,1,97,2,,,,,,,,,,,,,,,,,,,,,,,,,,,,,s,1,0.367513895035,None,0,2.0,crossorange.gif,stop,,,,,,,,,,,,,,,,,,,,,,,,0,0.513864994049,0.000907182693481,0.367513895035,1,s,936.062155008,,,,,,,,,,,,,,,,,,,,,,,,,,,,,,,,,,2015_Jul_07_1048,59.9269327321,LearningTask,1,81,
-200,a,-200,,,,,,,,,,,,,,,,,1,0,1,0,24,2,98,3,,,,,,,,,,,,,,,,,,,,,,,,,,,,,a,1,0.317625045776,None,0,4.0,diamondgreen.gif,stop,,,,,,,,,,,,,,,,,,,,,,,,4.01,0.513869047165,0.00107407569885,0.317625045776,1,a,939.065542221,,,,,,,,,,,,,,,,,,,,,,,,,,,,,,,,,,2015_Jul_07_1048,59.9269327321,LearningTask,1,81,
200,s,-200,,,,,,,,,,,,,,,,,1,0,1,0,24,3,99,2,,,,,,,,,,,,,,,,,,,,,,,,,,,,,s,1,0.351326942444,None,0,4.0,invertedtrianglemagenta.gif,go,,,,,,,,,,,,,,,,,,,,,,,,4.19,0.514223098755,0.000900983810425,0.351326942444,1,s,942.068926096,,,,,,,,,,,,,,,,,,,,,,,,,,,,,,,,,,2015_Jul_07_1048,59.9269327321,LearningTask,1,81,
,,,,,,,,,,,,,,,,,,,1,0,1,0,,,,,,,,,,,,,,,,,,,,,,,,,,,,,,,,,,,,,,,,,,,,,,,,,,,,,,,,,,,,,,,,,,,,,,,,,,,,,,,9,18.0664899349,,,,,,,,,,,,,,,,,,,,,,,,2015_Jul_07_1048,59.9269327321,LearningTask,1,81,
200,s,-200,,,,,,,,,,,,,,,,,2,0,2,0,0,0,0,2,,,,,,,,,,,,,,,,,,,,,,,,,,,,,s,1,0.451523780823,None,0,1.0,squarecyan.gif,stop,,,,,,,,,,,,,,,,,,,,,,,,0.77,0.507844924927,0.000952005386353,0.451523780823,1,s,963.827744007,,,,,,,,,,,,,,,,,,,,,,,,,,,,,,,,,,2015_Jul_07_1048,59.9269327321,LearningTask,1,81,
-200,q,200,,,,,,,,,,,,,,,,,2,0,2,0,0,1,1,1,,,,,,,,,,,,,,,,,,,,,,,,,,,,,q,1,0.317029953003,None,0,1.0,squarecyan.gif,stop,,,,,,,,,,,,,,,,,,,,,,,,0.83,0.513011932373,0.000900983810425,0.317029953003,1,q,966.82982707,,,,,,,,,,,,,,,,,,,,,,,,,,,,,,,,,,2015_Jul_07_1048,59.9269327321,LearningTask,1,81,
200,w,200,,,,,,,,,,,,,,,,,2,0,2,0,0,2,2,0,,,,,,,,,,,,,,,,,,,,,,,,,,,,,w,1,0.300820112228,None,0,4.0,invertedtrianglemagenta.gif,go,,,,,,,,,,,,,,,,,,,,,,,,4.16,0.514194965363,0.000881910324097,0.300820112228,1,w,969.8329072,,,,,,,,,,,,,,,,,,,,,,,,,,,,,,,,,,2015_Jul_07_1048,59.9269327321,LearningTask,1,81,
200,w,200,,,,,,,,,,,,,,,,,2,0,2,0,0,3,3,0,,,,,,,,,,,,,,,,,,,,,,,,,,,,,w,1,0.318073034286,None,0,4.0,diamondgreen.gif,stop,,,,,,,,,,,,,,,,,,,,,,,,4.23,0.514514923096,0.000874042510986,0.318073034286,1,w,972.836798191,,,,,,,,,,,,,,,,,,,,,,,,,,,,,,,,,,2015_Jul_07_1048,59.9269327321,LearningTask,1,81,
200,s,-200,,,,,,,,,,,,,,,,,2,0,2,0,1,0,4,2,,,,,,,,,,,,,,,,,,,,,,,,,,,,,s,1,0.334733009338,None,0,2.0,crossorange.gif,stop,,,,,,,,,,,,,,,,,,,,,,,,1.92,0.513571023941,0.000878095626831,0.334733009338,1,s,975.840224028,,,,,,,,,,,,,,,,,,,,,,,,,,,,,,,,,,2015_Jul_07_1048,59.9269327321,LearningTask,1,81,
-200,q,200,,,,,,,,,,,,,,,,,2,0,2,0,1,1,5,1,,,,,,,,,,,,,,,,,,,,,,,,,,,,,q,1,0.317390918732,None,0,2.0,circleyellow.gif,go,,,,,,,,,,,,,,,,,,,,,,,,0,0.514049053192,0.000880002975464,0.317390918732,1,q,978.843305111,,,,,,,,,,,,,,,,,,,,,,,,,,,,,,,,,,2015_Jul_07_1048,59.9269327321,LearningTask,1,81,
-200,q,200,,,,,,,,,,,,,,,,,2,0,2,0,1,2,6,1,,,,,,,,,,,,,,,,,,,,,,,,,,,,,q,1,0.351401090622,None,0,4.0,diamondgreen.gif,stop,,,,,,,,,,,,,,,,,,,,,,,,4.18,0.514075040817,0.000874042510986,0.351401090622,1,q,981.84691906,,,,,,,,,,,,,,,,,,,,,,,,,,,,,,,,,,2015_Jul_07_1048,59.9269327321,LearningTask,1,81,
-200,q,200,,,,,,,,,,,,,,,,,2,0,2,0,1,3,7,1,,,,,,,,,,,,,,,,,,,,,,,,,,,,,q,1,0.334361076355,None,0,2.0,crossorange.gif,stop,,,,,,,,,,,,,,,,,,,,,,,,2.2,0.514048814774,0.000906944274902,0.334361076355,1,q,984.849849224,,,,,,,,,,,,,,,,,,,,,,,,,,,,,,,,,,2015_Jul_07_1048,59.9269327321,LearningTask,1,81,
200,w,200,,,,,,,,,,,,,,,,,2,0,2,0,2,0,8,0,,,,,,,,,,,,,,,,,,,,,,,,,,,,,w,1,0.317368984222,None,0,0.5,trianglegray.gif,go,,,,,,,,,,,,,,,,,,,,,,,,0.37,0.514404058456,0.00134801864624,0.317368984222,1,w,987.853141069,,,,,,,,,,,,,,,,,,,,,,,,,,,,,,,,,,2015_Jul_07_1048,59.9269327321,LearningTask,1,81,
-200,q,200,,,,,,,,,,,,,,,,,2,0,2,0,2,1,9,1,,,,,,,,,,,,,,,,,,,,,,,,,,,,,q,1,0.367593050003,None,0,1.0,squarecyan.gif,stop,,,,,,,,,,,,,,,,,,,,,,,,0,0.514833927155,0.000866889953613,0.367593050003,1,q,990.856972218,,,,,,,,,,,,,,,,,,,,,,,,,,,,,,,,,,2015_Jul_07_1048,59.9269327321,LearningTask,1,81,
200,w,200,,,,,,,,,,,,,,,,,2,0,2,0,2,2,10,0,,,,,,,,,,,,,,,,,,,,,,,,,,,,,w,1,0.284470796585,None,0,4.0,invertedtrianglemagenta.gif,go,,,,,,,,,,,,,,,,,,,,,,,,3.84,0.513569116592,0.000976085662842,0.284470796585,1,w,993.860074043,,,,,,,,,,,,,,,,,,,,,,,,,,,,,,,,,,2015_Jul_07_1048,59.9269327321,LearningTask,1,81,
-200,a,-200,,,,,,,,,,,,,,,,,2,0,2,0,2,3,11,3,,,,,,,,,,,,,,,,,,,,,,,,,,,,,a,1,0.435122013092,None,0,2.0,circleyellow.gif,go,,,,,,,,,,,,,,,,,,,,,,,,2.16,0.513839006424,0.000978946685791,0.435122013092,1,a,996.863267183,,,,,,,,,,,,,,,,,,,,,,,,,,,,,,,,,,2015_Jul_07_1048,59.9269327321,LearningTask,1,81,
200,w,200,,,,,,,,,,,,,,,,,2,0,2,0,3,0,12,0,,,,,,,,,,,,,,,,,,,,,,,,,,,,,w,1,0.30030798912,None,0,1.0,squarecyan.gif,stop,,,,,,,,,,,,,,,,,,,,,,,,0,0.514751911163,0.000866889953613,0.30030798912,1,w,999.866681099,,,,,,,,,,,,,,,,,,,,,,,,,,,,,,,,,,2015_Jul_07_1048,59.9269327321,LearningTask,1,81,
-200,q,200,,,,,,,,,,,,,,,,,2,0,2,0,3,1,13,1,,,,,,,,,,,,,,,,,,,,,,,,,,,,,q,1,0.334481954575,None,0,2.0,circleyellow.gif,go,,,,,,,,,,,,,,,,,,,,,,,,1.84,0.514512062073,0.00088906288147,0.334481954575,1,q,1002.87007022,,,,,,,,,,,,,,,,,,,,,,,,,,,,,,,,,,2015_Jul_07_1048,59.9269327321,LearningTask,1,81,
200,w,200,,,,,,,,,,,,,,,,,2,0,2,0,3,2,14,0,,,,,,,,,,,,,,,,,,,,,,,,,,,,,w,1,0.33459186554,None,0,1.0,hexagonwhite.gif,go,,,,,,,,,,,,,,,,,,,,,,,,1.14,0.514034986496,0.000957012176514,0.33459186554,1,w,1005.87350607,,,,,,,,,,,,,,,,,,,,,,,,,,,,,,,,,,2015_Jul_07_1048,59.9269327321,LearningTask,1,81,
200,s,-200,,,,,,,,,,,,,,,,,2,0,2,0,3,3,15,2,,,,,,,,,,,,,,,,,,,,,,,,,,,,,s,1,0.334238052368,None,0,2.0,circleyellow.gif,go,,,,,,,,,,,,,,,,,,,,,,,,1.79,0.514477968216,0.000879049301147,0.334238052368,1,s,1008.87727022,,,,,,,,,,,,,,,,,,,,,,,,,,,,,,,,,,2015_Jul_07_1048,59.9269327321,LearningTask,1,81,
-200,q,200,,,,,,,,,,,,,,,,,2,0,2,0,4,0,16,1,,,,,,,,,,,,,,,,,,,,,,,,,,,,,q,1,0.283565044403,None,0,2.0,circleyellow.gif,go,,,,,,,,,,,,,,,,,,,,,,,,2.01,0.513849973679,0.00088906288147,0.283565044403,1,q,1011.88031816,,,,,,,,,,,,,,,,,,,,,,,,,,,,,,,,,,2015_Jul_07_1048,59.9269327321,LearningTask,1,81,
-200,q,200,,,,,,,,,,,,,,,,,2,0,2,0,4,1,17,1,,,,,,,,,,,,,,,,,,,,,,,,,,,,,q,1,0.33430981636,None,0,1.0,hexagonwhite.gif,go,,,,,,,,,,,,,,,,,,,,,,,,0.96,0.513900995255,0.000911951065063,0.33430981636,1,q,1014.88353205,,,,,,,,,,,,,,,,,,,,,,,,,,,,,,,,,,2015_Jul_07_1048,59.9269327321,LearningTask,1,81,
200,s,-200,,,,,,,,,,,,,,,,,2,0,2,0,4,2,18,2,,,,,,,,,,,,,,,,,,,,,,,,,,,,,s,1,0.368234872818,None,0,2.0,crossorange.gif,stop,,,,,,,,,,,,,,,,,,,,,,,,0,0.514101982117,0.000905990600586,0.368234872818,1,s,1017.88704109,,,,,,,,,,,,,,,,,,,,,,,,,,,,,,,,,,2015_Jul_07_1048,59.9269327321,LearningTask,1,81,
-200,a,-200,,,,,,,,,,,,,,,,,2,0,2,0,4,3,19,3,,,,,,,,,,,,,,,,,,,,,,,,,,,,,a,1,0.584863901138,None,0,1.0,hexagonwhite.gif,go,,,,,,,,,,,,,,,,,,,,,,,,1.17,0.514053106308,0.00088095664978,0.584863901138,1,a,1020.89032817,,,,,,,,,,,,,,,,,,,,,,,,,,,,,,,,,,2015_Jul_07_1048,59.9269327321,LearningTask,1,81,
-200,a,-200,,,,,,,,,,,,,,,,,2,0,2,0,5,0,20,3,,,,,,,,,,,,,,,,,,,,,,,,,,,,,a,1,0.36737203598,None,0,4.0,invertedtrianglemagenta.gif,go,,,,,,,,,,,,,,,,,,,,,,,,3.88,0.513786077499,0.00089693069458,0.36737203598,1,a,1023.893646,,,,,,,,,,,,,,,,,,,,,,,,,,,,,,,,,,2015_Jul_07_1048,59.9269327321,LearningTask,1,81,
-200,q,200,,,,,,,,,,,,,,,,,2,0,2,0,5,1,21,1,,,,,,,,,,,,,,,,,,,,,,,,,,,,,q,1,0.317243099213,None,0,2.0,crossorange.gif,stop,,,,,,,,,,,,,,,,,,,,,,,,0,0.51443195343,0.000979900360107,0.317243099213,1,q,1026.89704013,,,,,,,,,,,,,,,,,,,,,,,,,,,,,,,,,,2015_Jul_07_1048,59.9269327321,LearningTask,1,81,
200,s,-200,,,,,,,,,,,,,,,,,2,0,2,0,5,2,22,2,,,,,,,,,,,,,,,,,,,,,,,,,,,,,s,1,0.350842952728,None,0,0.5,trianglegray.gif,go,,,,,,,,,,,,,,,,,,,,,,,,0.7,0.514419078827,0.000900983810425,0.350842952728,1,s,1029.90068722,,,,,,,,,,,,,,,,,,,,,,,,,,,,,,,,,,2015_Jul_07_1048,59.9269327321,LearningTask,1,81,
200,s,-200,,,,,,,,,,,,,,,,,2,0,2,0,5,3,23,2,,,,,,,,,,,,,,,,,,,,,,,,,,,,,s,1,0.384178876877,None,0,2.0,crossorange.gif,stop,,,,,,,,,,,,,,,,,,,,,,,,2.16,0.513972997665,0.00102400779724,0.384178876877,1,s,1032.90404606,,,,,,,,,,,,,,,,,,,,,,,,,,,,,,,,,,2015_Jul_07_1048,59.9269327321,LearningTask,1,81,
-200,a,-200,,,,,,,,,,,,,,,,,2,0,2,0,6,0,24,3,,,,,,,,,,,,,,,,,,,,,,,,,,,,,a,1,0.367628097534,None,0,2.0,circleyellow.gif,go,,,,,,,,,,,,,,,,,,,,,,,,0,0.514162063599,0.00105714797974,0.367628097534,1,a,1035.90700221,,,,,,,,,,,,,,,,,,,,,,,,,,,,,,,,,,2015_Jul_07_1048,59.9269327321,LearningTask,1,81,
200,w,200,,,,,,,,,,,,,,,,,2,0,2,0,6,1,25,0,,,,,,,,,,,,,,,,,,,,,,,,,,,,,w,1,0.334082841873,None,0,0.5,lineblue.gif,stop,,,,,,,,,,,,,,,,,,,,,,,,0.67,0.514045000076,0.000904083251953,0.334082841873,1,w,1038.91051602,,,,,,,,,,,,,,,,,,,,,,,,,,,,,,,,,,2015_Jul_07_1048,59.9269327321,LearningTask,1,81,
200,w,200,,,,,,,,,,,,,,,,,2,0,2,0,6,2,26,0,,,,,,,,,,,,,,,,,,,,,,,,,,,,,w,1,0.400625944138,None,0,4.0,diamondgreen.gif,stop,,,,,,,,,,,,,,,,,,,,,,,,3.97,0.514388084412,0.000881910324097,0.400625944138,1,w,1041.91364717,,,,,,,,,,,,,,,,,,,,,,,,,,,,,,,,,,2015_Jul_07_1048,59.9269327321,LearningTask,1,81,
-200,a,-200,,,,,,,,,,,,,,,,,2,0,2,0,6,3,27,3,,,,,,,,,,,,,,,,,,,,,,,,,,,,,a,1,0.384233951569,None,0,0.5,trianglegray.gif,go,,,,,,,,,,,,,,,,,,,,,,,,0.75,0.514135122299,0.000965118408203,0.384233951569,1,a,1044.9172771,,,,,,,,,,,,,,,,,,,,,,,,,,,,,,,,,,2015_Jul_07_1048,59.9269327321,LearningTask,1,81,
-200,a,-200,,,,,,,,,,,,,,,,,2,0,2,0,7,0,28,3,,,,,,,,,,,,,,,,,,,,,,,,,,,,,a,1,0.367630958557,None,0,4.0,invertedtrianglemagenta.gif,go,,,,,,,,,,,,,,,,,,,,,,,,4.01,0.51415681839,0.000880002975464,0.367630958557,1,a,1047.92081618,,,,,,,,,,,,,,,,,,,,,,,,,,,,,,,,,,2015_Jul_07_1048,59.9269327321,LearningTask,1,81,
200,s,-200,,,,,,,,,,,,,,,,,2,0,2,0,7,1,29,2,,,,,,,,,,,,,,,,,,,,,,,,,,,,,s,1,0.333940982819,None,0,0.5,trianglegray.gif,go,,,,,,,,,,,,,,,,,,,,,,,,0.73,0.513955116272,0.000890970230103,0.333940982819,1,s,1050.92383218,,,,,,,,,,,,,,,,,,,,,,,,,,,,,,,,,,2015_Jul_07_1048,59.9269327321,LearningTask,1,81,
200,s,-200,,,,,,,,,,,,,,,,,2,0,2,0,7,2,30,2,,,,,,,,,,,,,,,,,,,,,,,,,,,,,s,1,0.317885875702,None,0,2.0,crossorange.gif,stop,,,,,,,,,,,,,,,,,,,,,,,,0,0.514124155045,0.000997066497803,0.317885875702,1,s,1053.92701602,,,,,,,,,,,,,,,,,,,,,,,,,,,,,,,,,,2015_Jul_07_1048,59.9269327321,LearningTask,1,81,
-200,q,200,,,,,,,,,,,,,,,,,2,0,2,0,7,3,31,1,,,,,,,,,,,,,,,,,,,,,,,,,,,,,q,1,0.384150981903,None,0,2.0,crossorange.gif,stop,,,,,,,,,,,,,,,,,,,,,,,,1.93,0.514380931854,0.000875949859619,0.384150981903,1,q,1056.9305892,,,,,,,,,,,,,,,,,,,,,,,,,,,,,,,,,,2015_Jul_07_1048,59.9269327321,LearningTask,1,81,
-200,a,-200,,,,,,,,,,,,,,,,,2,0,2,0,8,0,32,3,,,,,,,,,,,,,,,,,,,,,,,,,,,,,a,1,0.350697994232,None,0,4.0,invertedtrianglemagenta.gif,go,,,,,,,,,,,,,,,,,,,,,,,,0,0.514404058456,0.000881195068359,0.350697994232,1,a,1059.93447614,,,,,,,,,,,,,,,,,,,,,,,,,,,,,,,,,,2015_Jul_07_1048,59.9269327321,LearningTask,1,81,
200,w,200,,,,,,,,,,,,,,,,,2,0,2,0,8,1,33,0,,,,,,,,,,,,,,,,,,,,,,,,,,,,,w,1,0.31754899025,None,0,4.0,diamondgreen.gif,stop,,,,,,,,,,,,,,,,,,,,,,,,3.83,0.513418912888,0.000910997390747,0.31754899025,1,w,1062.93710113,,,,,,,,,,,,,,,,,,,,,,,,,,,,,,,,,,2015_Jul_07_1048,59.9269327321,LearningTask,1,81,
-200,a,-200,,,,,,,,,,,,,,,,,2,0,2,0,8,2,34,3,,,,,,,,,,,,,,,,,,,,,,,,,,,,,a,1,0.317467927933,None,0,0.5,trianglegray.gif,go,,,,,,,,,,,,,,,,,,,,,,,,0.41,0.514487028122,0.000869989395142,0.317467927933,1,a,1065.9407742,,,,,,,,,,,,,,,,,,,,,,,,,,,,,,,,,,2015_Jul_07_1048,59.9269327321,LearningTask,1,81,
-200,q,200,,,,,,,,,,,,,,,,,2,0,2,0,8,3,35,1,,,,,,,,,,,,,,,,,,,,,,,,,,,,,q,1,0.334436178207,None,0,0.5,trianglegray.gif,go,,,,,,,,,,,,,,,,,,,,,,,,0.43,0.514125823975,0.000890970230103,0.334436178207,1,q,1068.94428301,,,,,,,,,,,,,,,,,,,,,,,,,,,,,,,,,,2015_Jul_07_1048,59.9269327321,LearningTask,1,81,
-200,a,-200,,,,,,,,,,,,,,,,,2,0,2,0,9,0,36,3,,,,,,,,,,,,,,,,,,,,,,,,,,,,,a,1,0.367662906647,None,0,4.0,invertedtrianglemagenta.gif,go,,,,,,,,,,,,,,,,,,,,,,,,4.25,0.513494968414,0.000906944274902,0.367662906647,1,a,1071.94728804,,,,,,,,,,,,,,,,,,,,,,,,,,,,,,,,,,2015_Jul_07_1048,59.9269327321,LearningTask,1,81,
-200,a,-200,,,,,,,,,,,,,,,,,2,0,2,0,9,1,37,3,,,,,,,,,,,,,,,,,,,,,,,,,,,,,a,1,0.367558956146,None,0,1.0,squarecyan.gif,stop,,,,,,,,,,,,,,,,,,,,,,,,1.09,0.514186859131,0.000876903533936,0.367558956146,1,a,1074.95060706,,,,,,,,,,,,,,,,,,,,,,,,,,,,,,,,,,2015_Jul_07_1048,59.9269327321,LearningTask,1,81,
200,w,200,,,,,,,,,,,,,,,,,2,0,2,0,9,2,38,0,,,,,,,,,,,,,,,,,,,,,,,,,,,,,w,1,0.300936937332,None,0,1.0,hexagonwhite.gif,go,,,,,,,,,,,,,,,,,,,,,,,,1.24,0.514596939087,0.000882148742676,0.300936937332,1,w,1077.95435214,,,,,,,,,,,,,,,,,,,,,,,,,,,,,,,,,,2015_Jul_07_1048,59.9269327321,LearningTask,1,81,
-200,a,-200,,,,,,,,,,,,,,,,,2,0,2,0,9,3,39,3,,,,,,,,,,,,,,,,,,,,,,,,,,,,,a,1,0.317384958267,None,0,1.0,hexagonwhite.gif,go,,,,,,,,,,,,,,,,,,,,,,,,0.81,0.513731002808,0.000895977020264,0.317384958267,1,a,1080.95744419,,,,,,,,,,,,,,,,,,,,,,,,,,,,,,,,,,2015_Jul_07_1048,59.9269327321,LearningTask,1,81,
-200,q,200,,,,,,,,,,,,,,,,,2,0,2,0,10,0,40,1,,,,,,,,,,,,,,,,,,,,,,,,,,,,,q,1,0.300579071045,None,0,2.0,circleyellow.gif,go,,,,,,,,,,,,,,,,,,,,,,,,2.05,0.514070034027,0.0010290145874,0.300579071045,1,q,1083.96073508,,,,,,,,,,,,,,,,,,,,,,,,,,,,,,,,,,2015_Jul_07_1048,59.9269327321,LearningTask,1,81,
200,w,200,,,,,,,,,,,,,,,,,2,0,2,0,10,1,41,0,,,,,,,,,,,,,,,,,,,,,,,,,,,,,w,1,0.400578975677,None,0,0.5,trianglegray.gif,go,,,,,,,,,,,,,,,,,,,,,,,,0.73,0.514334917068,0.000886917114258,0.400578975677,1,w,1086.96389818,,,,,,,,,,,,,,,,,,,,,,,,,,,,,,,,,,2015_Jul_07_1048,59.9269327321,LearningTask,1,81,
200,w,200,,,,,,,,,,,,,,,,,2,0,2,0,10,2,42,0,,,,,,,,,,,,,,,,,,,,,,,,,,,,,w,1,0.350727081299,None,0,0.5,lineblue.gif,stop,,,,,,,,,,,,,,,,,,,,,,,,0.38,0.514446020126,0.000887155532837,0.350727081299,1,w,1089.96784019,,,,,,,,,,,,,,,,,,,,,,,,,,,,,,,,,,2015_Jul_07_1048,59.9269327321,LearningTask,1,81,
-200,a,-200,,,,,,,,,,,,,,,,,2,0,2,0,10,3,43,3,,,,,,,,,,,,,,,,,,,,,,,,,,,,,a,1,0.367418050766,None,0,0.5,trianglegray.gif,go,,,,,,,,,,,,,,,,,,,,,,,,0.27,0.513776063919,0.000967025756836,0.367418050766,1,a,1092.97094011,,,,,,,,,,,,,,,,,,,,,,,,,,,,,,,,,,2015_Jul_07_1048,59.9269327321,LearningTask,1,81,
-200,a,-200,,,,,,,,,,,,,,,,,2,0,2,0,11,0,44,3,,,,,,,,,,,,,,,,,,,,,,,,,,,,,a,1,0.317144155502,None,0,2.0,circleyellow.gif,go,,,,,,,,,,,,,,,,,,,,,,,,2.13,0.514325857162,0.000921964645386,0.317144155502,1,a,1095.97418714,,,,,,,,,,,,,,,,,,,,,,,,,,,,,,,,,,2015_Jul_07_1048,59.9269327321,LearningTask,1,81,
200,s,-200,,,,,,,,,,,,,,,,,2,0,2,0,11,1,45,2,,,,,,,,,,,,,,,,,,,,,,,,,,,,,s,1,0.4175760746,None,0,0.5,trianglegray.gif,go,,,,,,,,,,,,,,,,,,,,,,,,0.67,0.514311075211,0.000879049301147,0.4175760746,1,s,1098.97733402,,,,,,,,,,,,,,,,,,,,,,,,,,,,,,,,,,2015_Jul_07_1048,59.9269327321,LearningTask,1,81,
200,s,-200,,,,,,,,,,,,,,,,,2,0,2,0,11,2,46,2,,,,,,,,,,,,,,,,,,,,,,,,,,,,,s,1,0.350255012512,None,0,2.0,crossorange.gif,stop,,,,,,,,,,,,,,,,,,,,,,,,0,0.51445889473,0.000936985015869,0.350255012512,1,s,1101.9808352,,,,,,,,,,,,,,,,,,,,,,,,,,,,,,,,,,2015_Jul_07_1048,59.9269327321,LearningTask,1,81,
-200,q,200,,,,,,,,,,,,,,,,,2,0,2,0,11,3,47,1,,,,,,,,,,,,,,,,,,,,,,,,,,,,,q,1,0.334082841873,None,0,0.5,trianglegray.gif,go,,,,,,,,,,,,,,,,,,,,,,,,0,0.514660835266,0.00136494636536,0.334082841873,1,q,1104.984447,,,,,,,,,,,,,,,,,,,,,,,,,,,,,,,,,,2015_Jul_07_1048,59.9269327321,LearningTask,1,81,
-200,q,200,,,,,,,,,,,,,,,,,2,0,2,0,12,0,48,1,,,,,,,,,,,,,,,,,,,,,,,,,,,,,q,1,0.334018945694,None,0,4.0,invertedtrianglemagenta.gif,go,,,,,,,,,,,,,,,,,,,,,,,,4.1,0.514157056808,0.000874042510986,0.334018945694,1,q,1107.98766422,,,,,,,,,,,,,,,,,,,,,,,,,,,,,,,,,,2015_Jul_07_1048,59.9269327321,LearningTask,1,81,
200,w,200,,,,,,,,,,,,,,,,,2,0,2,0,12,1,49,0,,,,,,,,,,,,,,,,,,,,,,,,,,,,,w,1,0.367288827896,None,0,1.0,hexagonwhite.gif,go,,,,,,,,,,,,,,,,,,,,,,,,0,0.514312028885,0.000925064086914,0.367288827896,1,w,1110.99074721,,,,,,,,,,,,,,,,,,,,,,,,,,,,,,,,,,2015_Jul_07_1048,59.9269327321,LearningTask,1,81,
-200,q,200,,,,,,,,,,,,,,,,,2,0,2,0,12,2,50,1,,,,,,,,,,,,,,,,,,,,,,,,,,,,,q,1,0.300739049911,None,0,1.0,hexagonwhite.gif,go,,,,,,,,,,,,,,,,,,,,,,,,0.85,0.514322042465,0.000944137573242,0.300739049911,1,q,1113.99460816,,,,,,,,,,,,,,,,,,,,,,,,,,,,,,,,,,2015_Jul_07_1048,59.9269327321,LearningTask,1,81,
-200,a,-200,,,,,,,,,,,,,,,,,2,0,2,0,12,3,51,3,,,,,,,,,,,,,,,,,,,,,,,,,,,,,a,1,0.400954008102,None,0,0.5,lineblue.gif,stop,,,,,,,,,,,,,,,,,,,,,,,,0.58,0.51401591301,0.000881910324097,0.400954008102,1,a,1116.99799323,,,,,,,,,,,,,,,,,,,,,,,,,,,,,,,,,,2015_Jul_07_1048,59.9269327321,LearningTask,1,81,
-200,q,200,,,,,,,,,,,,,,,,,2,0,2,0,13,0,52,1,,,,,,,,,,,,,,,,,,,,,,,,,,,,,q,1,0.317883968353,None,0,0.5,lineblue.gif,stop,,,,,,,,,,,,,,,,,,,,,,,,0.57,0.513715982437,0.00087308883667,0.317883968353,1,q,1120.00103402,,,,,,,,,,,,,,,,,,,,,,,,,,,,,,,,,,2015_Jul_07_1048,59.9269327321,LearningTask,1,81,
200,s,-200,,,,,,,,,,,,,,,,,2,0,2,0,13,1,53,2,,,,,,,,,,,,,,,,,,,,,,,,,,,,,s,1,0.334204912186,None,0,1.0,hexagonwhite.gif,go,,,,,,,,,,,,,,,,,,,,,,,,0.95,0.514132022858,0.000881910324097,0.334204912186,1,s,1123.00420403,,,,,,,,,,,,,,,,,,,,,,,,,,,,,,,,,,2015_Jul_07_1048,59.9269327321,LearningTask,1,81,
-200,q,200,,,,,,,,,,,,,,,,,2,0,2,0,13,2,54,1,,,,,,,,,,,,,,,,,,,,,,,,,,,,,q,1,0.367058038712,None,0,0.5,trianglegray.gif,go,,,,,,,,,,,,,,,,,,,,,,,,0.53,0.514765024185,0.000880002975464,0.367058038712,1,q,1126.00801921,,,,,,,,,,,,,,,,,,,,,,,,,,,,,,,,,,2015_Jul_07_1048,59.9269327321,LearningTask,1,81,
200,w,200,,,,,,,,,,,,,,,,,2,0,2,0,13,3,55,0,,,,,,,,,,,,,,,,,,,,,,,,,,,,,w,1,0.417459964752,None,0,0.5,lineblue.gif,stop,,,,,,,,,,,,,,,,,,,,,,,,0.62,0.514001846313,0.000877857208252,0.417459964752,1,w,1129.01102304,,,,,,,,,,,,,,,,,,,,,,,,,,,,,,,,,,2015_Jul_07_1048,59.9269327321,LearningTask,1,81,
-200,a,-200,,,,,,,,,,,,,,,,,2,0,2,0,14,0,56,3,,,,,,,,,,,,,,,,,,,,,,,,,,,,,a,1,0.351396083832,None,0,4.0,diamondgreen.gif,stop,,,,,,,,,,,,,,,,,,,,,,,,4.03,0.514281988144,0.0010929107666,0.351396083832,1,a,1132.01447916,,,,,,,,,,,,,,,,,,,,,,,,,,,,,,,,,,2015_Jul_07_1048,59.9269327321,LearningTask,1,81,
-200,q,200,,,,,,,,,,,,,,,,,2,0,2,0,14,1,57,1,,,,,,,,,,,,,,,,,,,,,,,,,,,,,q,1,0.334211111069,None,0,4.0,diamondgreen.gif,stop,,,,,,,,,,,,,,,,,,,,,,,,4.03,0.51406788826,0.000892877578735,0.334211111069,1,q,1135.01771522,,,,,,,,,,,,,,,,,,,,,,,,,,,,,,,,,,2015_Jul_07_1048,59.9269327321,LearningTask,1,81,
-200,q,200,,,,,,,,,,,,,,,,,2,0,2,0,14,2,58,1,,,,,,,,,,,,,,,,,,,,,,,,,,,,,q,1,0.334309101105,None,0,2.0,crossorange.gif,stop,,,,,,,,,,,,,,,,,,,,,,,,0,0.51432800293,0.000881910324097,0.334309101105,1,q,1138.02090812,,,,,,,,,,,,,,,,,,,,,,,,,,,,,,,,,,2015_Jul_07_1048,59.9269327321,LearningTask,1,81,
-200,q,200,,,,,,,,,,,,,,,,,2,0,2,0,14,3,59,1,,,,,,,,,,,,,,,,,,,,,,,,,,,,,q,1,0.317605018616,None,0,2.0,crossorange.gif,stop,,,,,,,,,,,,,,,,,,,,,,,,2.1,0.514321088791,0.00320410728455,0.317605018616,1,q,1141.02463508,,,,,,,,,,,,,,,,,,,,,,,,,,,,,,,,,,2015_Jul_07_1048,59.9269327321,LearningTask,1,81,
200,w,200,,,,,,,,,,,,,,,,,2,0,2,0,15,0,60,0,,,,,,,,,,,,,,,,,,,,,,,,,,,,,w,1,0.350599050522,None,0,4.0,diamondgreen.gif,stop,,,,,,,,,,,,,,,,,,,,,,,,4.05,0.514282941818,0.000870943069458,0.350599050522,1,w,1144.02771211,,,,,,,,,,,,,,,,,,,,,,,,,,,,,,,,,,2015_Jul_07_1048,59.9269327321,LearningTask,1,81,
200,w,200,,,,,,,,,,,,,,,,,2,0,2,0,15,1,61,0,,,,,,,,,,,,,,,,,,,,,,,,,,,,,w,1,0.384593963623,None,0,2.0,circleyellow.gif,go,,,,,,,,,,,,,,,,,,,,,,,,1.84,0.514446020126,0.00088095664978,0.384593963623,1,w,1147.0311451,,,,,,,,,,,,,,,,,,,,,,,,,,,,,,,,,,2015_Jul_07_1048,59.9269327321,LearningTask,1,81,
-200,a,-200,,,,,,,,,,,,,,,,,2,0,2,0,15,2,62,3,,,,,,,,,,,,,,,,,,,,,,,,,,,,,a,1,0.401022911072,None,0,4.0,diamondgreen.gif,stop,,,,,,,,,,,,,,,,,,,,,,,,4.2,0.514123916626,0.00120711326599,0.401022911072,1,a,1150.03451419,,,,,,,,,,,,,,,,,,,,,,,,,,,,,,,,,,2015_Jul_07_1048,59.9269327321,LearningTask,1,81,
-200,q,200,,,,,,,,,,,,,,,,,2,0,2,0,15,3,63,1,,,,,,,,,,,,,,,,,,,,,,,,,,,,,q,1,0.333966970444,None,0,0.5,trianglegray.gif,go,,,,,,,,,,,,,,,,,,,,,,,,0.48,0.514446973801,0.000885009765625,0.333966970444,1,q,1153.0377171,,,,,,,,,,,,,,,,,,,,,,,,,,,,,,,,,,2015_Jul_07_1048,59.9269327321,LearningTask,1,81,
-200,q,200,,,,,,,,,,,,,,,,,2,0,2,0,16,0,64,1,,,,,,,,,,,,,,,,,,,,,,,,,,,,,q,1,0.36700296402,None,0,0.5,trianglegray.gif,go,,,,,,,,,,,,,,,,,,,,,,,,0.56,0.51447892189,0.000933885574341,0.36700296402,1,q,1156.04118514,,,,,,,,,,,,,,,,,,,,,,,,,,,,,,,,,,2015_Jul_07_1048,59.9269327321,LearningTask,1,81,
-200,q,200,,,,,,,,,,,,,,,,,2,0,2,0,16,1,65,1,,,,,,,,,,,,,,,,,,,,,,,,,,,,,q,1,0.300653934479,None,0,4.0,invertedtrianglemagenta.gif,go,,,,,,,,,,,,,,,,,,,,,,,,3.81,0.514678955078,0.000898838043213,0.300653934479,1,q,1159.0445261,,,,,,,,,,,,,,,,,,,,,,,,,,,,,,,,,,2015_Jul_07_1048,59.9269327321,LearningTask,1,81,
200,s,-200,,,,,,,,,,,,,,,,,2,0,2,0,16,2,66,2,,,,,,,,,,,,,,,,,,,,,,,,,,,,,s,1,0.334017038345,None,0,0.5,trianglegray.gif,go,,,,,,,,,,,,,,,,,,,,,,,,0.37,0.514620065689,0.000897169113159,0.334017038345,1,s,1162.04799914,,,,,,,,,,,,,,,,,,,,,,,,,,,,,,,,,,2015_Jul_07_1048,59.9269327321,LearningTask,1,81,
200,s,-200,,,,,,,,,,,,,,,,,2,0,2,0,16,3,67,2,,,,,,,,,,,,,,,,,,,,,,,,,,,,,s,1,0.31724691391,None,0,1.0,hexagonwhite.gif,go,,,,,,,,,,,,,,,,,,,,,,,,0.8,0.514367103577,0.000886917114258,0.31724691391,1,s,1165.05154014,,,,,,,,,,,,,,,,,,,,,,,,,,,,,,,,,,2015_Jul_07_1048,59.9269327321,LearningTask,1,81,
200,s,-200,,,,,,,,,,,,,,,,,2,0,2,0,17,0,68,2,,,,,,,,,,,,,,,,,,,,,,,,,,,,,s,1,0.317085027695,None,0,1.0,squarecyan.gif,stop,,,,,,,,,,,,,,,,,,,,,,,,0.95,0.513736009598,0.00105285644531,0.317085027695,1,s,1168.05478716,,,,,,,,,,,,,,,,,,,,,,,,,,,,,,,,,,2015_Jul_07_1048,59.9269327321,LearningTask,1,81,
-200,a,-200,,,,,,,,,,,,,,,,,2,0,2,0,17,1,69,3,,,,,,,,,,,,,,,,,,,,,,,,,,,,,a,1,0.450953006744,None,0,1.0,squarecyan.gif,stop,,,,,,,,,,,,,,,,,,,,,,,,1.07,0.514278888702,0.000866889953613,0.450953006744,1,a,1171.05796313,,,,,,,,,,,,,,,,,,,,,,,,,,,,,,,,,,2015_Jul_07_1048,59.9269327321,LearningTask,1,81,
200,s,-200,,,,,,,,,,,,,,,,,2,0,2,0,17,2,70,2,,,,,,,,,,,,,,,,,,,,,,,,,,,,,s,1,0.317814826965,None,0,4.0,invertedtrianglemagenta.gif,go,,,,,,,,,,,,,,,,,,,,,,,,4.2,0.514132976532,0.00088095664978,0.317814826965,1,s,1174.06162119,,,,,,,,,,,,,,,,,,,,,,,,,,,,,,,,,,2015_Jul_07_1048,59.9269327321,LearningTask,1,81,
200,s,-200,,,,,,,,,,,,,,,,,2,0,2,0,17,3,71,2,,,,,,,,,,,,,,,,,,,,,,,,,,,,,s,1,0.334425926208,None,0,1.0,hexagonwhite.gif,go,,,,,,,,,,,,,,,,,,,,,,,,1.04,0.513948917389,0.000925064086914,0.334425926208,1,s,1177.06470823,,,,,,,,,,,,,,,,,,,,,,,,,,,,,,,,,,2015_Jul_07_1048,59.9269327321,LearningTask,1,81,
200,s,-200,,,,,,,,,,,,,,,,,2,0,2,0,18,0,72,2,,,,,,,,,,,,,,,,,,,,,,,,,,,,,s,1,0.33465385437,None,0,2.0,crossorange.gif,stop,,,,,,,,,,,,,,,,,,,,,,,,1.94,0.514312982559,0.000899791717529,0.33465385437,1,s,1180.06799006,,,,,,,,,,,,,,,,,,,,,,,,,,,,,,,,,,2015_Jul_07_1048,59.9269327321,LearningTask,1,81,
200,s,-200,,,,,,,,,,,,,,,,,2,0,2,0,18,1,73,2,,,,,,,,,,,,,,,,,,,,,,,,,,,,,s,1,0.35039305687,None,0,1.0,hexagonwhite.gif,go,,,,,,,,,,,,,,,,,,,,,,,,1.08,0.514703989029,0.000886917114258,0.35039305687,1,s,1183.071455,,,,,,,,,,,,,,,,,,,,,,,,,,,,,,,,,,2015_Jul_07_1048,59.9269327321,LearningTask,1,81,
200,w,200,,,,,,,,,,,,,,,,,2,0,2,0,18,2,74,0,,,,,,,,,,,,,,,,,,,,,,,,,,,,,w,1,0.38397693634,None,0,1.0,hexagonwhite.gif,go,,,,,,,,,,,,,,,,,,,,,,,,1.0,0.514326095581,0.000893115997314,0.38397693634,1,w,1186.07500315,,,,,,,,,,,,,,,,,,,,,,,,,,,,,,,,,,2015_Jul_07_1048,59.9269327321,LearningTask,1,81,
200,s,-200,,,,,,,,,,,,,,,,,2,0,2,0,18,3,75,2,,,,,,,,,,,,,,,,,,,,,,,,,,,,,s,1,0.334321022034,None,0,2.0,crossorange.gif,stop,,,,,,,,,,,,,,,,,,,,,,,,1.86,0.513492107391,0.000997066497803,0.334321022034,1,s,1189.07865214,,,,,,,,,,,,,,,,,,,,,,,,,,,,,,,,,,2015_Jul_07_1048,59.9269327321,LearningTask,1,81,
200,s,-200,,,,,,,,,,,,,,,,,2,0,2,0,19,0,76,2,,,,,,,,,,,,,,,,,,,,,,,,,,,,,s,1,0.317564964294,None,0,1.0,hexagonwhite.gif,go,,,,,,,,,,,,,,,,,,,,,,,,0.75,0.513309001923,0.000922918319702,0.317564964294,1,s,1192.08169317,,,,,,,,,,,,,,,,,,,,,,,,,,,,,,,,,,2015_Jul_07_1048,59.9269327321,LearningTask,1,81,
200,w,200,,,,,,,,,,,,,,,,,2,0,2,0,19,1,77,0,,,,,,,,,,,,,,,,,,,,,,,,,,,,,w,1,0.317486047745,None,0,0.5,trianglegray.gif,go,,,,,,,,,,,,,,,,,,,,,,,,0.4,0.514238834381,0.000871896743774,0.317486047745,1,w,1195.0848372,,,,,,,,,,,,,,,,,,,,,,,,,,,,,,,,,,2015_Jul_07_1048,59.9269327321,LearningTask,1,81,
200,w,200,,,,,,,,,,,,,,,,,2,0,2,0,19,2,78,0,,,,,,,,,,,,,,,,,,,,,,,,,,,,,w,1,0.284462928772,None,0,1.0,hexagonwhite.gif,go,,,,,,,,,,,,,,,,,,,,,,,,0.85,0.513910055161,0.00124502182007,0.284462928772,1,w,1198.08815122,,,,,,,,,,,,,,,,,,,,,,,,,,,,,,,,,,2015_Jul_07_1048,59.9269327321,LearningTask,1,81,
-200,a,-200,,,,,,,,,,,,,,,,,2,0,2,0,19,3,79,3,,,,,,,,,,,,,,,,,,,,,,,,,,,,,a,1,0.317381858826,None,0,4.0,invertedtrianglemagenta.gif,go,,,,,,,,,,,,,,,,,,,,,,,,3.85,0.514333963394,0.000869989395142,0.317381858826,1,a,1201.09140515,,,,,,,,,,,,,,,,,,,,,,,,,,,,,,,,,,2015_Jul_07_1048,59.9269327321,LearningTask,1,81,
200,w,200,,,,,,,,,,,,,,,,,2,0,2,0,20,0,80,0,,,,,,,,,,,,,,,,,,,,,,,,,,,,,w,1,0.30083990097,None,0,2.0,circleyellow.gif,go,,,,,,,,,,,,,,,,,,,,,,,,1.98,0.514533996582,0.00140786170959,0.30083990097,1,w,1204.09506512,,,,,,,,,,,,,,,,,,,,,,,,,,,,,,,,,,2015_Jul_07_1048,59.9269327321,LearningTask,1,81,
200,w,200,,,,,,,,,,,,,,,,,2,0,2,0,20,1,81,0,,,,,,,,,,,,,,,,,,,,,,,,,,,,,w,1,0.300945043564,None,0,4.0,diamondgreen.gif,stop,,,,,,,,,,,,,,,,,,,,,,,,3.81,0.514001131058,0.000921964645386,0.300945043564,1,w,1207.09834003,,,,,,,,,,,,,,,,,,,,,,,,,,,,,,,,,,2015_Jul_07_1048,59.9269327321,LearningTask,1,81,
200,s,-200,,,,,,,,,,,,,,,,,2,0,2,0,20,2,82,2,,,,,,,,,,,,,,,,,,,,,,,,,,,,,s,1,0.300639867783,None,0,1.0,hexagonwhite.gif,go,,,,,,,,,,,,,,,,,,,,,,,,1.14,0.514364957809,0.00107789039612,0.300639867783,1,s,1210.10160422,,,,,,,,,,,,,,,,,,,,,,,,,,,,,,,,,,2015_Jul_07_1048,59.9269327321,LearningTask,1,81,
-200,a,-200,,,,,,,,,,,,,,,,,2,0,2,0,20,3,83,3,,,,,,,,,,,,,,,,,,,,,,,,,,,,,a,1,0.250885009766,None,0,2.0,circleyellow.gif,go,,,,,,,,,,,,,,,,,,,,,,,,0,0.514360904694,0.000875949859619,0.317630052567,0,q,1213.10515404,2.25,0.515450954437,0.000972032546997,0.250885009766,1,a,1216.10851908,,,,,,,,,,,,,,,,,,,,,,,,,,,2015_Jul_07_1048,59.9269327321,LearningTask,1,81,
200,s,-200,,,,,,,,,,,,,,,,,2,0,2,0,21,0,84,2,,,,,,,,,,,,,,,,,,,,,,,,,,,,,s,1,0.384327888489,None,0,0.5,lineblue.gif,stop,,,,,,,,,,,,,,,,,,,,,,,,0.37,0.513960123062,0.00087308883667,0.384327888489,1,s,1219.11174822,,,,,,,,,,,,,,,,,,,,,,,,,,,,,,,,,,2015_Jul_07_1048,59.9269327321,LearningTask,1,81,
-200,a,-200,,,,,,,,,,,,,,,,,2,0,2,0,21,1,85,3,,,,,,,,,,,,,,,,,,,,,,,,,,,,,a,1,0.350636959076,None,0,2.0,crossorange.gif,stop,,,,,,,,,,,,,,,,,,,,,,,,1.87,0.514589071274,0.000878095626831,0.350636959076,1,a,1222.11544609,,,,,,,,,,,,,,,,,,,,,,,,,,,,,,,,,,2015_Jul_07_1048,59.9269327321,LearningTask,1,81,
200,w,200,,,,,,,,,,,,,,,,,2,0,2,0,21,2,86,0,,,,,,,,,,,,,,,,,,,,,,,,,,,,,w,1,0.284899950027,None,0,1.0,squarecyan.gif,stop,,,,,,,,,,,,,,,,,,,,,,,,1.06,0.51347899437,0.00088095664978,0.284899950027,1,w,1225.11849523,,,,,,,,,,,,,,,,,,,,,,,,,,,,,,,,,,2015_Jul_07_1048,59.9269327321,LearningTask,1,81,
-200,q,200,,,,,,,,,,,,,,,,,2,0,2,0,21,3,87,1,,,,,,,,,,,,,,,,,,,,,,,,,,,,,q,1,0.284206151962,None,0,2.0,circleyellow.gif,go,,,,,,,,,,,,,,,,,,,,,,,,0,0.514342069626,0.000919103622437,0.333956956863,0,a,1228.12149405,1.79,0.515763998032,0.000917911529541,0.284206151962,1,q,1231.125144,,,,,,,,,,,,,,,,,,,,,,,,,,,2015_Jul_07_1048,59.9269327321,LearningTask,1,81,
-200,a,-200,,,,,,,,,,,,,,,,,2,0,2,0,22,0,88,3,,,,,,,,,,,,,,,,,,,,,,,,,,,,,a,1,0.367254972458,None,0,0.5,trianglegray.gif,go,,,,,,,,,,,,,,,,,,,,,,,,0.47,0.514329910278,0.000870943069458,0.367254972458,1,a,1234.1284461,,,,,,,,,,,,,,,,,,,,,,,,,,,,,,,,,,2015_Jul_07_1048,59.9269327321,LearningTask,1,81,
-200,a,-200,,,,,,,,,,,,,,,,,2,0,2,0,22,1,89,3,,,,,,,,,,,,,,,,,,,,,,,,,,,,,a,1,0.384314060211,None,0,1.0,hexagonwhite.gif,go,,,,,,,,,,,,,,,,,,,,,,,,1.03,0.514221191406,0.000941038131714,0.384314060211,1,a,1237.13203502,,,,,,,,,,,,,,,,,,,,,,,,,,,,,,,,,,2015_Jul_07_1048,59.9269327321,LearningTask,1,81,
200,w,200,,,,,,,,,,,,,,,,,2,0,2,0,22,2,90,0,,,,,,,,,,,,,,,,,,,,,,,,,,,,,w,1,0.301030874252,None,0,4.0,diamondgreen.gif,stop,,,,,,,,,,,,,,,,,,,,,,,,0,0.513786077499,0.000988006591797,0.301030874252,1,w,1240.13518023,,,,,,,,,,,,,,,,,,,,,,,,,,,,,,,,,,2015_Jul_07_1048,59.9269327321,LearningTask,1,81,
200,w,200,,,,,,,,,,,,,,,,,2,0,2,0,22,3,91,0,,,,,,,,,,,,,,,,,,,,,,,,,,,,,w,1,0.434141159058,None,0,4.0,invertedtrianglemagenta.gif,go,,,,,,,,,,,,,,,,,,,,,,,,4.22,0.514616966248,0.000875949859619,0.434141159058,1,w,1243.13898301,,,,,,,,,,,,,,,,,,,,,,,,,,,,,,,,,,2015_Jul_07_1048,59.9269327321,LearningTask,1,81,
200,s,-200,,,,,,,,,,,,,,,,,2,0,2,0,23,0,92,2,,,,,,,,,,,,,,,,,,,,,,,,,,,,,s,1,0.384516000748,None,0,4.0,diamondgreen.gif,stop,,,,,,,,,,,,,,,,,,,,,,,,0,0.513726949692,0.000910997390747,0.384516000748,1,s,1246.14189315,,,,,,,,,,,,,,,,,,,,,,,,,,,,,,,,,,2015_Jul_07_1048,59.9269327321,LearningTask,1,81,
-200,a,-200,,,,,,,,,,,,,,,,,2,0,2,0,23,1,93,3,,,,,,,,,,,,,,,,,,,,,,,,,,,,,a,1,0.351487159729,None,0,0.5,trianglegray.gif,go,,,,,,,,,,,,,,,,,,,,,,,,0,0.514096975327,0.000952005386353,[],0,None,1249.14567208,0.33,0.515048027039,0.000955104827881,0.351487159729,1,a,1252.14880514,,,,,,,,,,,,,,,,,,,,,,,,,,,2015_Jul_07_1048,59.9269327321,LearningTask,1,81,
200,s,-200,,,,,,,,,,,,,,,,,2,0,2,0,23,2,94,2,,,,,,,,,,,,,,,,,,,,,,,,,,,,,s,1,0.3840239048,None,0,4.0,diamondgreen.gif,stop,,,,,,,,,,,,,,,,,,,,,,,,4.14,0.514144897461,0.00092601776123,0.3840239048,1,s,1255.15196514,,,,,,,,,,,,,,,,,,,,,,,,,,,,,,,,,,2015_Jul_07_1048,59.9269327321,LearningTask,1,81,
200,w,200,,,,,,,,,,,,,,,,,2,0,2,0,23,3,95,0,,,,,,,,,,,,,,,,,,,,,,,,,,,,,w,1,0.333831787109,None,0,1.0,hexagonwhite.gif,go,,,,,,,,,,,,,,,,,,,,,,,,0.79,0.514290094376,0.000897884368896,0.333831787109,1,w,1258.15553403,,,,,,,,,,,,,,,,,,,,,,,,,,,,,,,,,,2015_Jul_07_1048,59.9269327321,LearningTask,1,81,
200,s,-200,,,,,,,,,,,,,,,,,2,0,2,0,24,0,96,2,,,,,,,,,,,,,,,,,,,,,,,,,,,,,s,1,0.334562063217,None,0,1.0,hexagonwhite.gif,go,,,,,,,,,,,,,,,,,,,,,,,,0,0.514002084732,0.000923156738281,0.334562063217,1,s,1261.15883112,,,,,,,,,,,,,,,,,,,,,,,,,,,,,,,,,,2015_Jul_07_1048,59.9269327321,LearningTask,1,81,
-200,q,200,,,,,,,,,,,,,,,,,2,0,2,0,24,1,97,1,,,,,,,,,,,,,,,,,,,,,,,,,,,,,q,1,0.31778883934,None,0,2.0,circleyellow.gif,go,,,,,,,,,,,,,,,,,,,,,,,,2.08,0.513854980469,0.000877857208252,0.31778883934,1,q,1264.16204119,,,,,,,,,,,,,,,,,,,,,,,,,,,,,,,,,,2015_Jul_07_1048,59.9269327321,LearningTask,1,81,
-200,a,-200,,,,,,,,,,,,,,,,,2,0,2,0,24,2,98,3,,,,,,,,,,,,,,,,,,,,,,,,,,,,,a,1,0.350774049759,None,0,2.0,crossorange.gif,stop,,,,,,,,,,,,,,,,,,,,,,,,2.06,0.514564990997,0.000879049301147,0.350774049759,1,a,1267.1654532,,,,,,,,,,,,,,,,,,,,,,,,,,,,,,,,,,2015_Jul_07_1048,59.9269327321,LearningTask,1,81,
-200,a,-200,,,,,,,,,,,,,,,,,2,0,2,0,24,3,99,3,,,,,,,,,,,,,,,,,,,,,,,,,,,,,a,1,0.384203910828,None,0,2.0,circleyellow.gif,go,,,,,,,,,,,,,,,,,,,,,,,,1.9,0.514292001724,0.000881910324097,0.384203910828,1,a,1270.16916609,,,,,,,,,,,,,,,,,,,,,,,,,,,,,,,,,,2015_Jul_07_1048,59.9269327321,LearningTask,1,81,
,,,,,,,,,,,,,,,,,,,2,0,2,0,,,,,,,,,,,,,,,,,,,,,,,,,,,,,,,,,,,,,,,,,,,,,,,,,,,,,,,,,,,,,,,,,,,,,,,,,,,,,,,9,20.8464331627,,,,,,,,,,,,,,,,,,,,,,,,2015_Jul_07_1048,59.9269327321,LearningTask,1,81,
200,w,200,,,,,,,,,,,,,,,,,3,0,3,0,0,0,0,0,,,,,,,,,,,,,,,,,,,,,,,,,,,,,w,1,0.418040037155,None,0,0.5,lineblue.gif,stop,,,,,,,,,,,,,,,,,,,,,,,,0.37,0.509726047516,0.000944852828979,0.418040037155,1,w,1294.94694614,,,,,,,,,,,,,,,,,,,,,,,,,,,,,,,,,,2015_Jul_07_1048,59.9269327321,LearningTask,1,81,
