	accuracy	block	chosen_bidding_amount	chosen_bidding_level	left_SSD	num_trial_presentations	paired_with_stopping	possible_bid_1	possible_bid_2	possible_bid_3	possible_bid_4	possible_bid_5	possible_bid_6	quadrant	raw_reward_magnitude	reaction_time	response	right_SSD	stepwise_reward_magnitude	stim_color	stim_reward	stim_shape	stop_signal_trial_type	which_part
0		1.0				1.0	0.0							3.0	205.0	0.3268069107289193	3.0		3.0	4.0	3.0	7.0		part_1
1		1.0				1.0	1.0							4.0	51.0	0.2933438454347197	4.0		1.0	3.0	5.0	8.0		part_1
2		1.0				2.0	1.0							1.0	0.0	0.329756649225601	1.0		0.0	8.0	8.0	6.0		part_1
3		1.0				2.0	0.0							2.0	380.0	0.3857731454918394	2.0		4.0	2.0	4.0	5.0		part_1
4		1.0				1.0	1.0							3.0	201.0	0.42051776815060293	3.0		3.0	1.0	7.0	1.0		part_1
5		1.0				1.0	0.0							4.0	0.0	0.35404020243731793	4.0		0.0	7.0	2.0	2.0		part_1
6		1.0				1.0	1.0							2.0	69.0	0.4319420832907781	2.0		1.0	3.0	5.0	8.0		part_1
7		1.0				1.0	0.0							1.0	77.0	0.3781998864360503	1.0		2.0	7.0	2.0	2.0		part_1
8		1.0				1.0	0.0							1.0	0.0	0.33198132885445375	1.0		0.0	2.0	4.0	5.0		part_1
9		1.0				1.0	0.0							2.0	124.0	0.2873815717321122	2.0		2.0	7.0	2.0	2.0		part_1
10		1.0				1.0	0.0							1.0	57.0	0.3561674248849158	1.0		1.0	5.0	1.0	4.0		part_1
11		1.0				1.0	1.0							2.0	191.0	0.2793144292954821	2.0		3.0	1.0	7.0	1.0		part_1
12		1.0				1.0	1.0							4.0	176.0	0.5820646212960128	4.0		3.0	1.0	7.0	1.0		part_1
13		1.0				1.0	0.0							4.0	415.0	0.34682745917962166	4.0		4.0	2.0	4.0	5.0		part_1
14		1.0				1.0	0.0							1.0	0.0	0.2566631058798521	1.0		0.0	4.0	3.0	7.0		part_1
15		1.0				3.0	0.0							3.0	424.0	0.5057313285869895	3.0		4.0	2.0	4.0	5.0		part_1
16		1.0				1.0	0.0							3.0	206.0	0.44990293500450207	3.0		3.0	4.0	3.0	7.0		part_1
17		1.0				1.0	1.0							4.0	113.0	0.3619643471756717	4.0		2.0	6.0	6.0	3.0		part_1
18		1.0				1.0	1.0							2.0	0.0	0.3726029558820301	2.0		0.0	1.0	7.0	1.0		part_1
19		1.0				1.0	0.0							4.0	33.0	0.38516796218027594	4.0		1.0	5.0	1.0	4.0		part_1
20		1.0				1.0	1.0							4.0	31.0	0.32908208388107596	4.0		1.0	3.0	5.0	8.0		part_1
21		1.0				2.0	1.0							1.0	77.0	0.5101233578825486	1.0		2.0	6.0	6.0	3.0		part_1
22		1.0				1.0	1.0							4.0	218.0	0.3990127483193646	4.0		3.0	1.0	7.0	1.0		part_1
23		1.0				1.0	1.0							3.0	416.0	0.39947933403163916	3.0		4.0	8.0	8.0	6.0		part_1
24		1.0				1.0	1.0							2.0	399.0	0.3323597463167971	2.0		4.0	8.0	8.0	6.0		part_1
25		1.0				1.0	0.0							1.0	80.0	0.3111929051738116	1.0		2.0	7.0	2.0	2.0		part_1
26		1.0				1.0	0.0							1.0	94.0	0.3660858054427081	1.0		2.0	7.0	2.0	2.0		part_1
27		1.0				1.0	0.0							1.0	92.0	0.31048759414989036	1.0		2.0	7.0	2.0	2.0		part_1
28		1.0				1.0	0.0							1.0	0.0	0.2997878174355719	1.0		0.0	5.0	1.0	4.0		part_1
29		1.0				1.0	0.0							3.0	185.0	0.3447196302950033	3.0		3.0	4.0	3.0	7.0		part_1
30		1.0				1.0	1.0							4.0	0.0	0.391036487177189	4.0		0.0	3.0	5.0	8.0		part_1
31		1.0				1.0	0.0							1.0	61.0	0.2905810711745289	1.0		1.0	5.0	1.0	4.0		part_1
32		1.0				1.0	0.0							1.0	184.0	0.303757285582833	1.0		3.0	4.0	3.0	7.0		part_1
33		1.0				1.0	1.0							2.0	0.0	0.3812418601446552	2.0		0.0	8.0	8.0	6.0		part_1
34		1.0				1.0	0.0							1.0	415.0	0.46140219473454636	1.0		4.0	2.0	4.0	5.0		part_1
35		1.0				1.0	1.0							2.0	0.0	0.29307934629468946	2.0		0.0	6.0	6.0	3.0		part_1
36		1.0				1.0	0.0							3.0	36.0	0.3729225100032636	3.0		1.0	5.0	1.0	4.0		part_1
37		1.0				1.0	0.0							4.0	0.0	0.3397296921466477	4.0		0.0	2.0	4.0	5.0		part_1
38		1.0				1.0	0.0							4.0	394.0	0.3835417512964341	4.0		4.0	2.0	4.0	5.0		part_1
39		1.0				1.0	0.0							4.0	220.0	0.3051695861722692	4.0		3.0	4.0	3.0	7.0		part_1
40		1.0				1.0	1.0							3.0	220.0	0.35202489043876994	3.0		3.0	1.0	7.0	1.0		part_1
41		1.0				1.0	0.0							3.0	198.0	0.3189045095787151	3.0		3.0	4.0	3.0	7.0		part_1
42		1.0				1.0	0.0							2.0	207.0	0.35256210043735337	2.0		3.0	4.0	3.0	7.0		part_1
43		1.0				1.0	0.0							2.0	378.0	0.41026404118019855	2.0		4.0	2.0	4.0	5.0		part_1
44		1.0				1.0	1.0							4.0	96.0	0.522766118432628	4.0		2.0	6.0	6.0	3.0		part_1
45		1.0				1.0	0.0							3.0	100.0	0.3547265043016523	3.0		2.0	7.0	2.0	2.0		part_1
46		1.0				1.0	1.0							4.0	47.0	0.2981581898784498	4.0		1.0	3.0	5.0	8.0		part_1
47		1.0				1.0	1.0							1.0	104.0	0.3683610607331502	1.0		2.0	6.0	6.0	3.0		part_1
48		1.0				1.0	0.0							2.0	96.0	0.2888126291509252	2.0		2.0	7.0	2.0	2.0		part_1
49		1.0				2.0	0.0							1.0	0.0	0.313308084885648	1.0		0.0	7.0	2.0	2.0		part_1
50		1.0				1.0	0.0							2.0	200.0	0.3350141722985427	2.0		3.0	4.0	3.0	7.0		part_1
51		1.0				1.0	1.0							1.0	0.0	0.40316635787894484	1.0		0.0	3.0	5.0	8.0		part_1
52		1.0				1.0	0.0							1.0	409.0	0.33627439258270897	1.0		4.0	2.0	4.0	5.0		part_1
53		1.0				1.0	0.0							1.0	59.0	0.2921823862925521	1.0		1.0	5.0	1.0	4.0		part_1
54		1.0				2.0	0.0							4.0	0.0	0.2920958487302414	4.0		0.0	4.0	3.0	7.0		part_1
55		1.0				1.0	0.0							4.0	223.0	0.2827032862987835	4.0		3.0	4.0	3.0	7.0		part_1
56		1.0				1.0	1.0							4.0	0.0	0.361253649876744	4.0		0.0	8.0	8.0	6.0		part_1
57		1.0				1.0	1.0							1.0	61.0	0.5201020552995033	1.0		1.0	3.0	5.0	8.0		part_1
58		1.0				1.0	0.0							1.0	187.0	0.4634937914306647	1.0		3.0	4.0	3.0	7.0		part_1
59		1.0				1.0	0.0							1.0	221.0	0.37571870088140713	1.0		3.0	4.0	3.0	7.0		part_1
60		1.0				1.0	1.0							1.0	207.0	0.46613101814728	1.0		3.0	1.0	7.0	1.0		part_1
61		1.0				1.0	0.0							3.0	65.0	0.42104795100021875	3.0		1.0	5.0	1.0	4.0		part_1
62		1.0				1.0	1.0							1.0	424.0	0.4113943415795802	1.0		4.0	8.0	8.0	6.0		part_1
63		1.0				1.0	1.0							3.0	0.0	0.40037331558414735	3.0		0.0	3.0	5.0	8.0		part_1
64		1.0				1.0	0.0							4.0	29.0	0.34344750300078886	4.0		1.0	5.0	1.0	4.0		part_1
65		1.0				1.0	1.0							4.0	0.0	0.3543461938825203	4.0		0.0	6.0	6.0	3.0		part_1
66		1.0				1.0	0.0							2.0	0.0	0.5915036812948529	2.0		0.0	7.0	2.0	2.0		part_1
67		1.0				1.0	0.0							2.0	0.0	0.4139573248830857	2.0		0.0	5.0	1.0	4.0		part_1
68		1.0				1.0	0.0							3.0	0.0	0.3679202102939598	3.0		0.0	2.0	4.0	5.0		part_1
69		1.0				1.0	1.0							4.0	104.0	0.380326872880687	4.0		2.0	6.0	6.0	3.0		part_1
70		1.0				1.0	1.0							2.0	120.0	0.3129423098798725	2.0		2.0	6.0	6.0	3.0		part_1
71		1.0				1.0	0.0							4.0	117.0	0.43749592702806694	4.0		2.0	7.0	2.0	2.0		part_1
72		1.0				1.0	1.0							3.0	0.0	0.37158912944141775	3.0		0.0	3.0	5.0	8.0		part_1
73		1.0				1.0	1.0							1.0	57.0	0.32771893614699366	1.0		1.0	3.0	5.0	8.0		part_1
74		1.0				1.0	0.0							3.0	0.0	0.28088185858359793	3.0		0.0	5.0	1.0	4.0		part_1
75		1.0				1.0	1.0							4.0	178.0	0.2712233784404816	4.0		3.0	1.0	7.0	1.0		part_1
76		1.0				1.0	0.0							2.0	71.0	0.30658454473450547	2.0		1.0	5.0	1.0	4.0		part_1
77		1.0				1.0	0.0							2.0	214.0	0.32875662073638523	2.0		3.0	4.0	3.0	7.0		part_1
78		1.0				1.0	0.0							1.0	422.0	0.3746711617350229	1.0		4.0	2.0	4.0	5.0		part_1
79		1.0				1.0	0.0							2.0	408.0	0.295109980586858	2.0		4.0	2.0	4.0	5.0		part_1
80		1.0				1.0	0.0							2.0	194.0	0.3201286401526886	2.0		3.0	4.0	3.0	7.0		part_1
81		1.0				1.0	1.0							3.0	397.0	0.28431751288007945	3.0		4.0	8.0	8.0	6.0		part_1
82		1.0				1.0	1.0							1.0	198.0	0.41024756102706306	1.0		3.0	1.0	7.0	1.0		part_1
83		1.0				1.0	1.0							3.0	185.0	0.3655553665885236	3.0		3.0	1.0	7.0	1.0		part_1
84		1.0				1.0	1.0							3.0	187.0	0.3313070522999624	3.0		3.0	1.0	7.0	1.0		part_1
85		1.0				1.0	1.0							1.0	184.0	0.3789439918764401	1.0		3.0	1.0	7.0	1.0		part_1
86		1.0				1.0	1.0							3.0	36.0	0.26603122873348184	3.0		1.0	3.0	5.0	8.0		part_1
87		1.0				1.0	1.0							3.0	182.0	0.3345283905873657	3.0		3.0	1.0	7.0	1.0		part_1
88		1.0				1.0	0.0							4.0	197.0	0.3344425220275298	4.0		3.0	4.0	3.0	7.0		part_1
89		1.0				1.0	1.0							2.0	392.0	0.31184046529233456	2.0		4.0	8.0	8.0	6.0		part_1
90		1.0				1.0	0.0							1.0	115.0	0.3033018403148162	1.0		2.0	7.0	2.0	2.0		part_1
91		1.0				1.0	0.0							1.0	0.0	0.3711074481761898	1.0		0.0	4.0	3.0	7.0		part_1
92		1.0				1.0	1.0							4.0	0.0	0.2683620668758522	4.0		0.0	6.0	6.0	3.0		part_1
93		1.0				1.0	0.0							2.0	121.0	0.2809662104336894	2.0		2.0	7.0	2.0	2.0		part_1
94		1.0				1.0	1.0							1.0	412.0	0.2713602418807568	1.0		4.0	8.0	8.0	6.0		part_1
95		1.0				2.0	1.0							4.0	219.0	0.34938141658494715	4.0		3.0	1.0	7.0	1.0		part_1
96		1.0				1.0	1.0							1.0	65.0	0.3858592555843643	1.0		1.0	3.0	5.0	8.0		part_1
97		1.0				1.0	0.0							2.0	27.0	0.31897389914956875	2.0		1.0	5.0	1.0	4.0		part_1
98		1.0				1.0	0.0							2.0	397.0	0.43175443173822714	2.0		4.0	2.0	4.0	5.0		part_1
99		1.0				1.0	1.0							2.0	410.0	0.44377881514810724	2.0		4.0	8.0	8.0	6.0		part_1
100		2.0				1.0	0.0							3.0	103.0	0.3691785351766157	3.0		2.0	7.0	2.0	2.0		part_1
101		2.0				2.0	0.0							3.0	0.0	0.37025040243315743	3.0		0.0	2.0	4.0	5.0		part_1
102		2.0				1.0	1.0							2.0	0.0	0.2694197790333419	2.0		0.0	1.0	7.0	1.0		part_1
103		2.0				2.0	0.0							4.0	405.0	0.43923290188104147	4.0		4.0	2.0	4.0	5.0		part_1
104		2.0				1.0	0.0							2.0	379.0	0.2946738983009709	2.0		4.0	2.0	4.0	5.0		part_1
105		2.0				1.0	1.0							2.0	205.0	0.27107219331810484	2.0		3.0	1.0	7.0	1.0		part_1
106		2.0				1.0	0.0							4.0	220.0	0.30595489643746987	4.0		3.0	4.0	3.0	7.0		part_1
107		2.0				2.0	0.0							3.0	104.0	0.29494492959202034	3.0		2.0	7.0	2.0	2.0		part_1
108		2.0				1.0	1.0							4.0	32.0	0.3526798001548741	4.0		1.0	3.0	5.0	8.0		part_1
109		2.0				1.0	0.0							1.0	96.0	0.30824457517883275	1.0		2.0	7.0	2.0	2.0		part_1
110		2.0				1.0	1.0							1.0	117.0	0.36519839458196657	1.0		2.0	6.0	6.0	3.0		part_1
111		2.0				1.0	1.0							4.0	96.0	0.33156249117746484	4.0		2.0	6.0	6.0	3.0		part_1
112		2.0				1.0	0.0							2.0	125.0	0.32115862758655567	2.0		2.0	7.0	2.0	2.0		part_1
113		2.0				1.0	1.0							2.0	64.0	0.47847623117559124	2.0		1.0	3.0	5.0	8.0		part_1
114		2.0				1.0	1.0							1.0	124.0	0.32187994573178	1.0		2.0	6.0	6.0	3.0		part_1
115		2.0				1.0	0.0							2.0	95.0	0.32239162958285306	2.0		2.0	7.0	2.0	2.0		part_1
116		2.0				1.0	0.0							1.0	94.0	0.30177716129401233	1.0		2.0	7.0	2.0	2.0		part_1
117		2.0				1.0	1.0							3.0	0.0	0.35716969599889126	3.0		0.0	8.0	8.0	6.0		part_1
118		2.0				1.0	1.0							2.0	398.0	0.33493498073221417	2.0		4.0	8.0	8.0	6.0		part_1
119		2.0				1.0	1.0							4.0	0.0	0.3138586048808065	4.0		0.0	1.0	7.0	1.0		part_1
120		2.0				1.0	1.0							3.0	404.0	0.3588225745843374	3.0		4.0	8.0	8.0	6.0		part_1
121		2.0				1.0	1.0							4.0	0.0	0.4384439458808629	4.0		0.0	3.0	5.0	8.0		part_1
122		2.0				1.0	0.0							2.0	115.0	0.303802077731234	2.0		2.0	7.0	2.0	2.0		part_1
123		2.0				1.0	0.0							3.0	376.0	0.338162519299658	3.0		4.0	2.0	4.0	5.0		part_1
124		2.0				1.0	0.0							1.0	398.0	0.36129179087583907	1.0		4.0	2.0	4.0	5.0		part_1
125		2.0				1.0	0.0							1.0	69.0	0.3064731241465779	1.0		1.0	5.0	1.0	4.0		part_1
126		2.0				1.0	1.0							4.0	382.0	0.31697080258163624	4.0		4.0	8.0	8.0	6.0		part_1
127		2.0				1.0	0.0							1.0	57.0	0.3402685341789038	1.0		1.0	5.0	1.0	4.0		part_1
128		2.0				1.0	1.0							2.0	208.0	0.2622148428854416	2.0		3.0	1.0	7.0	1.0		part_1
129		2.0				2.0	1.0							2.0	80.0	0.34164214500196977	2.0		2.0	6.0	6.0	3.0		part_1
130		2.0				1.0	1.0							1.0	67.0	0.3198226484382758	1.0		1.0	3.0	5.0	8.0		part_1
131		2.0				1.0	0.0							1.0	391.0	0.24144720873300685	1.0		4.0	2.0	4.0	5.0		part_1
132		2.0				1.0	1.0							1.0	421.0	0.31036272931669373	1.0		4.0	8.0	8.0	6.0		part_1
133		2.0				1.0	0.0							3.0	67.0	0.42267202288348926	3.0		1.0	5.0	1.0	4.0		part_1
134		2.0				1.0	1.0							1.0	0.0	0.3009610703011276	1.0		0.0	1.0	7.0	1.0		part_1
135		2.0				1.0	0.0							1.0	205.0	0.3458447313241777	1.0		3.0	4.0	3.0	7.0		part_1
136		2.0				1.0	0.0							4.0	206.0	0.35785901058261516	4.0		3.0	4.0	3.0	7.0		part_1
137		2.0				1.0	1.0							1.0	0.0	0.3127061804407276	1.0		0.0	3.0	5.0	8.0		part_1
138		2.0				1.0	0.0							1.0	418.0	0.24614619714702712	1.0		4.0	2.0	4.0	5.0		part_1
139		2.0				1.0	1.0							3.0	76.0	0.37026486518152524	3.0		2.0	6.0	6.0	3.0		part_1
140		2.0				1.0	1.0							3.0	197.0	0.3704005514373421	3.0		3.0	1.0	7.0	1.0		part_1
141		2.0				1.0	0.0							4.0	107.0	0.3612460205840762	4.0		2.0	7.0	2.0	2.0		part_1
142		2.0				1.0	0.0							4.0	36.0	0.37240167129493784	4.0		1.0	5.0	1.0	4.0		part_1
143		2.0				1.0	1.0							1.0	105.0	0.41656792414869415	1.0		2.0	6.0	6.0	3.0		part_1
144		2.0				1.0	0.0							1.0	211.0	0.3052328478806885	1.0		3.0	4.0	3.0	7.0		part_1
145		2.0				1.0	1.0							1.0	112.0	0.32793696131557226	1.0		2.0	6.0	6.0	3.0		part_1
146		2.0				1.0	1.0							2.0	391.0	0.3527895991501282	2.0		4.0	8.0	8.0	6.0		part_1
147		2.0				1.0	1.0							1.0	182.0	0.3306898528826423	1.0		3.0	1.0	7.0	1.0		part_1
148		2.0				1.0	1.0							3.0	221.0	0.31971694817912066	3.0		3.0	1.0	7.0	1.0		part_1
149		2.0				1.0	1.0							2.0	378.0	0.2968944210297195	2.0		4.0	8.0	8.0	6.0		part_1
150		2.0				1.0	0.0							3.0	0.0	0.36422942288481863	3.0		0.0	2.0	4.0	5.0		part_1
151		2.0				1.0	0.0							3.0	80.0	0.3315808148836368	3.0		2.0	7.0	2.0	2.0		part_1
152		2.0				1.0	1.0							4.0	401.0	0.46627952943526907	4.0		4.0	8.0	8.0	6.0		part_1
153		2.0				2.0	1.0							3.0	29.0	0.27636794731370173	3.0		1.0	3.0	5.0	8.0		part_1
154		2.0				1.0	1.0							3.0	62.0	0.35736622002877994	3.0		1.0	3.0	5.0	8.0		part_1
155		2.0				1.0	0.0							1.0	402.0	0.4809411108508357	1.0		4.0	2.0	4.0	5.0		part_1
156		2.0				1.0	0.0							2.0	41.0	0.3815995341501548	2.0		1.0	5.0	1.0	4.0		part_1
157		2.0				2.0	0.0							2.0	69.0	0.291175506732543	2.0		1.0	5.0	1.0	4.0		part_1
158		2.0				1.0	0.0							3.0	381.0	0.3147106234318926	3.0		4.0	2.0	4.0	5.0		part_1
159		2.0				1.0	1.0							1.0	0.0	0.32612130358756986	1.0		0.0	1.0	7.0	1.0		part_1
160		2.0				1.0	0.0							2.0	79.0	0.3372214107293985	2.0		2.0	7.0	2.0	2.0		part_1
161		2.0				1.0	0.0							2.0	0.0	0.3616805431447574	2.0		0.0	2.0	4.0	5.0		part_1
162		2.0				1.0	1.0							3.0	115.0	0.406653499994718	3.0		2.0	6.0	6.0	3.0		part_1
163		2.0				1.0	1.0							3.0	0.0	0.3611715807346627	3.0		0.0	3.0	5.0	8.0		part_1
164		2.0				1.0	0.0							4.0	100.0	0.3399479378858814	4.0		2.0	7.0	2.0	2.0		part_1
165		2.0				1.0	1.0							4.0	205.0	0.31727065688028233	4.0		3.0	1.0	7.0	1.0		part_1
166		2.0				1.0	1.0							4.0	222.0	0.3306524244399043	4.0		3.0	1.0	7.0	1.0		part_1
167		2.0				1.0	0.0							1.0	39.0	0.3544613370249863	1.0		1.0	5.0	1.0	4.0		part_1
168		2.0				2.0	1.0							2.0	41.0	0.3087715921792551	2.0		1.0	3.0	5.0	8.0		part_1
169		2.0				2.0	1.0							1.0	32.0	0.3207354611440678	1.0		1.0	3.0	5.0	8.0		part_1
170		2.0				1.0	0.0							2.0	48.0	0.29942078429303365	2.0		1.0	5.0	1.0	4.0		part_1
171		2.0				1.0	0.0							1.0	388.0	0.30098656758491416	1.0		4.0	2.0	4.0	5.0		part_1
172		2.0				1.0	1.0							1.0	388.0	0.3448203622974688	1.0		4.0	8.0	8.0	6.0		part_1
173		2.0				1.0	0.0							2.0	40.0	0.31218212458043126	2.0		1.0	5.0	1.0	4.0		part_1
174		2.0				2.0	0.0							4.0	82.0	0.32403797417646274	4.0		2.0	7.0	2.0	2.0		part_1
175		2.0				1.0	0.0							1.0	94.0	0.30244006858265493	1.0		2.0	7.0	2.0	2.0		part_1
176		2.0				1.0	1.0							1.0	376.0	0.3496959662952577	1.0		4.0	8.0	8.0	6.0		part_1
177		2.0				1.0	1.0							2.0	106.0	0.28048725017288234	2.0		2.0	6.0	6.0	3.0		part_1
178		2.0				1.0	0.0							3.0	62.0	0.31532406558835646	3.0		1.0	5.0	1.0	4.0		part_1
179		2.0				1.0	1.0							4.0	405.0	0.4294527827296406	4.0		4.0	8.0	8.0	6.0		part_1
180		2.0				1.0	0.0							4.0	0.0	0.3840500934384181	4.0		0.0	4.0	3.0	7.0		part_1
181		2.0				1.0	0.0							4.0	191.0	0.3395344790260424	4.0		3.0	4.0	3.0	7.0		part_1
182		2.0				1.0	1.0							4.0	0.0	0.27303104215388885	4.0		0.0	8.0	8.0	6.0		part_1
183		2.0				1.0	1.0							4.0	48.0	0.36331256788253086	4.0		1.0	3.0	5.0	8.0		part_1
184		2.0				1.0	1.0							3.0	385.0	0.37442845929035684	3.0		4.0	8.0	8.0	6.0		part_1
185		2.0				1.0	0.0							1.0	0.0	0.30796867473691236	1.0		0.0	4.0	3.0	7.0		part_1
186		2.0				1.0	0.0							2.0	106.0	0.3426062180296867	2.0		2.0	7.0	2.0	2.0		part_1
187		2.0				1.0	0.0							2.0	177.0	0.3087255754362559	2.0		3.0	4.0	3.0	7.0		part_1
188		2.0				1.0	1.0							1.0	190.0	0.3545561850260128	1.0		3.0	1.0	7.0	1.0		part_1
189		2.0				1.0	0.0							1.0	50.0	0.32102432073588716	1.0		1.0	5.0	1.0	4.0		part_1
190		2.0				1.0	1.0							2.0	116.0	0.29935750403092243	2.0		2.0	6.0	6.0	3.0		part_1
191		2.0				1.0	0.0							4.0	216.0	0.33384233258402674	4.0		3.0	4.0	3.0	7.0		part_1
192		2.0				2.0	0.0							1.0	0.0	0.2673842285803403	1.0		0.0	2.0	4.0	5.0		part_1
193		2.0				1.0	0.0							1.0	182.0	0.2908230257307878	1.0		3.0	4.0	3.0	7.0		part_1
194		2.0				1.0	0.0							1.0	187.0	0.3029167082931963	1.0		3.0	4.0	3.0	7.0		part_1
195		2.0				1.0	1.0							4.0	0.0	0.4261315867333906	4.0		0.0	3.0	5.0	8.0		part_1
196		2.0				1.0	1.0							1.0	45.0	0.29278692888328806	1.0		1.0	3.0	5.0	8.0		part_1
197		2.0				1.0	1.0							2.0	55.0	0.3495415205907193	2.0		1.0	3.0	5.0	8.0		part_1
198		2.0				1.0	1.0							2.0	194.0	0.338384744587529	2.0		3.0	1.0	7.0	1.0		part_1
199		2.0				2.0	0.0							4.0	221.0	0.3632094315835275	4.0		3.0	4.0	3.0	7.0		part_1
200		3.0				1.0	1.0							3.0	92.0	0.3522342865835526	3.0		2.0	6.0	6.0	3.0		part_1
201		3.0				1.0	1.0							4.0	386.0	0.3638154108848539	4.0		4.0	8.0	8.0	6.0		part_1
202		3.0				1.0	0.0							4.0	0.0	0.35205091788520804	4.0		0.0	5.0	1.0	4.0		part_1
203		3.0				1.0	0.0							3.0	0.0	0.3301804710281431	3.0		0.0	4.0	3.0	7.0		part_1
204		3.0				1.0	1.0							3.0	206.0	0.3535431782947853	3.0		3.0	1.0	7.0	1.0		part_1
205		3.0				1.0	0.0							2.0	382.0	0.253003449885	2.0		4.0	2.0	4.0	5.0		part_1
206		3.0				1.0	1.0							4.0	0.0	0.32153779643704183	4.0		0.0	6.0	6.0	3.0		part_1
207		3.0				1.0	1.0							2.0	221.0	0.29871158418245614	2.0		3.0	1.0	7.0	1.0		part_1
208		3.0				1.0	0.0							2.0	0.0	0.37889735200587893	2.0		0.0	7.0	2.0	2.0		part_1
209		3.0				1.0	1.0							4.0	422.0	0.39174205973540666	4.0		4.0	8.0	8.0	6.0		part_1
210		3.0				1.0	0.0							4.0	190.0	0.3242638023002655	4.0		3.0	4.0	3.0	7.0		part_1
211		3.0				1.0	0.0							2.0	92.0	0.3580979184334865	2.0		2.0	7.0	2.0	2.0		part_1
212		3.0				1.0	1.0							3.0	0.0	0.2914766174435499	3.0		0.0	1.0	7.0	1.0		part_1
213		3.0				1.0	1.0							1.0	125.0	0.4279189670269261	1.0		2.0	6.0	6.0	3.0		part_1
214		3.0				1.0	0.0							2.0	0.0	0.38208446399949025	2.0		0.0	4.0	3.0	7.0		part_1
215		3.0				1.0	1.0							4.0	98.0	0.38329363315278897	4.0		2.0	6.0	6.0	3.0		part_1
216		3.0				1.0	0.0							4.0	112.0	0.2932244725889177	4.0		2.0	7.0	2.0	2.0		part_1
217		3.0				1.0	0.0							2.0	80.0	0.3042762274344568	2.0		2.0	7.0	2.0	2.0		part_1
218		3.0				1.0	1.0							4.0	407.0	0.30467007472907426	4.0		4.0	8.0	8.0	6.0		part_1
219		3.0				1.0	0.0							4.0	36.0	0.3726927942916518	4.0		1.0	5.0	1.0	4.0		part_1
220		3.0				1.0	0.0							4.0	64.0	0.3285205231732107	4.0		1.0	5.0	1.0	4.0		part_1
221		3.0				1.0	1.0							3.0	124.0	0.35229778131179046	3.0		2.0	6.0	6.0	3.0		part_1
222		3.0				1.0	0.0							3.0	385.0	0.3738035030037281	3.0		4.0	2.0	4.0	5.0		part_1
223		3.0				1.0	0.0							4.0	0.0	0.42039096373628126	4.0		0.0	7.0	2.0	2.0		part_1
224		3.0				1.0	0.0							1.0	392.0	0.4330778652947629	1.0		4.0	2.0	4.0	5.0		part_1
225		3.0				1.0	0.0							4.0	176.0	0.46571179814782226	4.0		3.0	4.0	3.0	7.0		part_1
226		3.0				1.0	0.0							4.0	0.0	0.3660335580279934	4.0		0.0	4.0	3.0	7.0		part_1
227		3.0				1.0	0.0							4.0	421.0	0.28671561499504605	4.0		4.0	2.0	4.0	5.0		part_1
228		3.0				1.0	1.0							4.0	397.0	0.2768095271749189	4.0		4.0	8.0	8.0	6.0		part_1
229		3.0				1.0	0.0							2.0	32.0	0.357422875436896	2.0		1.0	5.0	1.0	4.0		part_1
230		3.0				1.0	1.0							2.0	402.0	0.3023069235860021	2.0		4.0	8.0	8.0	6.0		part_1
231		3.0				1.0	0.0							3.0	0.0	0.28896596658887574	3.0		0.0	7.0	2.0	2.0		part_1
232		3.0				1.0	1.0							4.0	0.0	0.3120513188841869	4.0		0.0	1.0	7.0	1.0		part_1
233		3.0				1.0	0.0							4.0	0.0	0.4476994315846241	4.0		0.0	4.0	3.0	7.0		part_1
234		3.0				1.0	0.0							2.0	404.0	0.3590988492942415	2.0		4.0	2.0	4.0	5.0		part_1
235		3.0				1.0	1.0							3.0	401.0	0.2800449824426323	3.0		4.0	8.0	8.0	6.0		part_1
236		3.0				1.0	1.0							4.0	220.0	0.38270458043552935	4.0		3.0	1.0	7.0	1.0		part_1
237		3.0				1.0	0.0							4.0	401.0	0.3498756342960405	4.0		4.0	2.0	4.0	5.0		part_1
238		3.0				1.0	0.0							4.0	120.0	0.2930409654363757	4.0		2.0	7.0	2.0	2.0		part_1
239		3.0				2.0	0.0							1.0	71.0	0.30608603058499284	1.0		1.0	5.0	1.0	4.0		part_1
240		3.0				1.0	1.0							3.0	418.0	0.37409464629308786	3.0		4.0	8.0	8.0	6.0		part_1
241		3.0				1.0	1.0							4.0	94.0	0.37512107220391044	4.0		2.0	6.0	6.0	3.0		part_1
242		3.0				1.0	0.0							1.0	185.0	0.2962369758824934	1.0		3.0	4.0	3.0	7.0		part_1
243		3.0				1.0	0.0							3.0	219.0	0.2628781897947192	3.0		3.0	4.0	3.0	7.0		part_1
244		3.0				1.0	1.0							2.0	107.0	0.2640348662971519	2.0		2.0	6.0	6.0	3.0		part_1
245		3.0				1.0	0.0							3.0	76.0	0.27530752629536437	3.0		2.0	7.0	2.0	2.0		part_1
246		3.0				1.0	1.0							1.0	379.0	0.3229427294427296	1.0		4.0	8.0	8.0	6.0		part_1
247		3.0				1.0	0.0							1.0	0.0	0.322193534586404	1.0		0.0	5.0	1.0	4.0		part_1
248		3.0				1.0	0.0							2.0	208.0	0.28846441787754884	2.0		3.0	4.0	3.0	7.0		part_1
249		3.0				1.0	0.0							1.0	416.0	0.3008414128780714	1.0		4.0	2.0	4.0	5.0		part_1
250		3.0				1.0	0.0							3.0	218.0	0.4014688967290567	3.0		3.0	4.0	3.0	7.0		part_1
251		3.0				1.0	0.0							3.0	397.0	0.4253152017336106	3.0		4.0	2.0	4.0	5.0		part_1
252		3.0				1.0	0.0							3.0	386.0	0.40252748414786765	3.0		4.0	2.0	4.0	5.0		part_1
253		3.0				1.0	1.0							2.0	75.0	0.3486685150273843	2.0		2.0	6.0	6.0	3.0		part_1
254		3.0				1.0	0.0							3.0	0.0	0.33683827358618146	3.0		0.0	5.0	1.0	4.0		part_1
255		3.0				1.0	1.0							2.0	177.0	0.26934882458590437	2.0		3.0	1.0	7.0	1.0		part_1
256		3.0				1.0	0.0							4.0	91.0	0.27040421717538266	4.0		2.0	7.0	2.0	2.0		part_1
257		3.0				1.0	1.0							1.0	381.0	0.2710079728785786	1.0		4.0	8.0	8.0	6.0		part_1
258		3.0				1.0	0.0							1.0	87.0	0.27243598915083567	1.0		2.0	7.0	2.0	2.0		part_1
259		3.0				1.0	0.0							1.0	0.0	0.41818277714628493	1.0		0.0	5.0	1.0	4.0		part_1
260		3.0				1.0	1.0							4.0	0.0	0.4517930455840542	4.0		0.0	6.0	6.0	3.0		part_1
261		3.0				1.0	1.0							2.0	79.0	0.2517567568793311	2.0		2.0	6.0	6.0	3.0		part_1
262		3.0				2.0	0.0							4.0	395.0	0.40997755817807047	4.0		4.0	2.0	4.0	5.0		part_1
263		3.0				1.0	0.0							4.0	32.0	0.44281065202812897	4.0		1.0	5.0	1.0	4.0		part_1
264		3.0				2.0	0.0							2.0	200.0	0.26624588029517327	2.0		3.0	4.0	3.0	7.0		part_1
265		3.0				1.0	0.0							3.0	0.0	0.42253058631467866	3.0		0.0	7.0	2.0	2.0		part_1
266		3.0				1.0	0.0							3.0	69.0	0.34385063328954857	3.0		1.0	5.0	1.0	4.0		part_1
267		3.0				1.0	1.0							2.0	384.0	0.2995726622903021	2.0		4.0	8.0	8.0	6.0		part_1
268		3.0				1.0	0.0							4.0	399.0	0.41281876403081696	4.0		4.0	2.0	4.0	5.0		part_1
269		3.0				2.0	0.0							4.0	40.0	0.3124018208764028	4.0		1.0	5.0	1.0	4.0		part_1
270		3.0				1.0	0.0							4.0	108.0	0.3240774667356163	4.0		2.0	7.0	2.0	2.0		part_1
271		3.0				1.0	1.0							3.0	40.0	0.31482840743410634	3.0		1.0	3.0	5.0	8.0		part_1
272		3.0				1.0	1.0							4.0	394.0	0.3497994101489894	4.0		4.0	8.0	8.0	6.0		part_1
273		3.0				1.0	1.0							3.0	0.0	0.293164245733351	3.0		0.0	1.0	7.0	1.0		part_1
274		3.0				1.0	0.0							3.0	116.0	0.394885360437911	3.0		2.0	7.0	2.0	2.0		part_1
275		3.0				1.0	1.0							2.0	43.0	0.40740570629714057	2.0		1.0	3.0	5.0	8.0		part_1
276		3.0				1.0	1.0							2.0	0.0	0.3622033878782531	2.0		0.0	8.0	8.0	6.0		part_1
277		3.0				1.0	1.0							1.0	0.0	0.35158512458292535	1.0		0.0	1.0	7.0	1.0		part_1
278		3.0				1.0	1.0							1.0	401.0	0.2729717408801662	1.0		4.0	8.0	8.0	6.0		part_1
279		3.0				1.0	1.0							4.0	121.0	0.3740323790261755	4.0		2.0	6.0	6.0	3.0		part_1
280		3.0				1.0	1.0							1.0	39.0	0.34139742629486136	1.0		1.0	3.0	5.0	8.0		part_1
281		3.0				1.0	1.0							2.0	115.0	0.3195150128813111	2.0		2.0	6.0	6.0	3.0		part_1
282		3.0				1.0	0.0							3.0	124.0	0.36540288517426234	3.0		2.0	7.0	2.0	2.0		part_1
283		3.0				1.0	1.0							4.0	112.0	0.3441512902354589	4.0		2.0	6.0	6.0	3.0		part_1
284		3.0				1.0	1.0							3.0	45.0	0.3881965555847273	3.0		1.0	3.0	5.0	8.0		part_1
285		3.0				1.0	1.0							2.0	388.0	0.3348346675848006	2.0		4.0	8.0	8.0	6.0		part_1
286		3.0				1.0	1.0							1.0	214.0	0.31283681829518173	1.0		3.0	1.0	7.0	1.0		part_1
287		3.0				1.0	0.0							4.0	29.0	0.3469280381759745	4.0		1.0	5.0	1.0	4.0		part_1
288		3.0				1.0	0.0							3.0	73.0	0.3006194387344294	3.0		1.0	5.0	1.0	4.0		part_1
289		3.0				1.0	1.0							4.0	62.0	0.3239484341465868	4.0		1.0	3.0	5.0	8.0		part_1
290		3.0				1.0	0.0							3.0	61.0	0.3589086432912154	3.0		1.0	5.0	1.0	4.0		part_1
291		3.0				1.0	0.0							2.0	47.0	0.38237410170404473	2.0		1.0	5.0	1.0	4.0		part_1
292		3.0				1.0	0.0							4.0	412.0	0.31541205888061086	4.0		4.0	2.0	4.0	5.0		part_1
293		3.0				1.0	1.0							3.0	185.0	0.3367579512996599	3.0		3.0	1.0	7.0	1.0		part_1
294		3.0				1.0	1.0							2.0	380.0	0.3719947558856802	2.0		4.0	8.0	8.0	6.0		part_1
295		3.0				1.0	0.0							2.0	178.0	0.3499827188788913	2.0		3.0	4.0	3.0	7.0		part_1
296		3.0				1.0	1.0							4.0	188.0	0.3391473487354233	4.0		3.0	1.0	7.0	1.0		part_1
297		3.0				1.0	1.0							2.0	57.0	0.31683387143857544	2.0		1.0	3.0	5.0	8.0		part_1
298		3.0				1.0	1.0							3.0	415.0	0.2725414941451163	3.0		4.0	8.0	8.0	6.0		part_1
299		3.0				1.0	0.0							1.0	112.0	0.420010735586402	1.0		2.0	7.0	2.0	2.0		part_1
300		4.0				1.0	1.0							4.0	0.0	0.34366195015172707	4.0		0.0	6.0	6.0	3.0		part_1
301		4.0				1.0	0.0							2.0	66.0	0.35572662142658373	2.0		1.0	5.0	1.0	4.0		part_1
302		4.0				2.0	0.0							3.0	113.0	0.3449092288792599	3.0		2.0	7.0	2.0	2.0		part_1
303		4.0				1.0	1.0							3.0	59.0	0.3020568228821503	3.0		1.0	3.0	5.0	8.0		part_1
304		4.0				2.0	0.0							4.0	0.0	0.4027613681537332	4.0		0.0	2.0	4.0	5.0		part_1
305		4.0				1.0	0.0							4.0	104.0	0.38111281344026793	4.0		2.0	7.0	2.0	2.0		part_1
306		4.0				1.0	1.0							4.0	210.0	0.34776737802894786	4.0		3.0	1.0	7.0	1.0		part_1
307		4.0				2.0	1.0							4.0	206.0	0.30421263317839475	4.0		3.0	1.0	7.0	1.0		part_1
308		4.0				1.0	1.0							4.0	80.0	0.37360440003249096	4.0		2.0	6.0	6.0	3.0		part_1
309		4.0				1.0	0.0							3.0	388.0	0.3278069601437892	3.0		4.0	2.0	4.0	5.0		part_1
310		4.0				1.0	0.0							3.0	177.0	0.30601030929392437	3.0		3.0	4.0	3.0	7.0		part_1
311		4.0				1.0	1.0							3.0	29.0	0.3631642151522101	3.0		1.0	3.0	5.0	8.0		part_1
312		4.0				1.0	1.0							3.0	0.0	0.3298040284353192	3.0		0.0	8.0	8.0	6.0		part_1
313		4.0				1.0	0.0							4.0	55.0	0.36323296400223626	4.0		1.0	5.0	1.0	4.0		part_1
314		4.0				1.0	0.0							4.0	105.0	0.33228737488389015	4.0		2.0	7.0	2.0	2.0		part_1
315		4.0				1.0	0.0							3.0	210.0	0.33215971143363276	3.0		3.0	4.0	3.0	7.0		part_1
316		4.0				2.0	1.0							1.0	91.0	0.37897844558756333	1.0		2.0	6.0	6.0	3.0		part_1
317		4.0				1.0	1.0							3.0	395.0	0.40115161873109173	3.0		4.0	8.0	8.0	6.0		part_1
318		4.0				1.0	1.0							4.0	0.0	0.310476985439891	4.0		0.0	8.0	8.0	6.0		part_1
319		4.0				1.0	0.0							2.0	0.0	0.2551572822703747	2.0		0.0	7.0	2.0	2.0		part_1
320		4.0				1.0	1.0							3.0	0.0	0.3359589628817048	3.0		0.0	6.0	6.0	3.0		part_1
321		4.0				1.0	0.0							3.0	192.0	0.2558383474315633	3.0		3.0	4.0	3.0	7.0		part_1
322		4.0				1.0	0.0							4.0	0.0	0.43848992203129455	4.0		0.0	2.0	4.0	5.0		part_1
323		4.0				1.0	0.0							4.0	0.0	0.3362989490342443	4.0		0.0	4.0	3.0	7.0		part_1
324		4.0				1.0	0.0							4.0	412.0	0.31575572487781756	4.0		4.0	2.0	4.0	5.0		part_1
325		4.0				1.0	1.0							3.0	0.0	0.33822400529606966	3.0		0.0	3.0	5.0	8.0		part_1
326		4.0				1.0	1.0							3.0	36.0	0.2815365585847758	3.0		1.0	3.0	5.0	8.0		part_1
327		4.0				1.0	0.0							4.0	32.0	0.2714353252958972	4.0		1.0	5.0	1.0	4.0		part_1
328		4.0				1.0	1.0							3.0	71.0	0.2832860423150123	3.0		1.0	3.0	5.0	8.0		part_1
329		4.0				1.0	1.0							3.0	108.0	0.2713710038806312	3.0		2.0	6.0	6.0	3.0		part_1
330		4.0				1.0	1.0							2.0	0.0	0.3745599354369915	2.0		0.0	8.0	8.0	6.0		part_1
331		4.0				1.0	0.0							1.0	43.0	0.34239386473200284	1.0		1.0	5.0	1.0	4.0		part_1
332		4.0				1.0	1.0							4.0	40.0	0.3185145925890538	4.0		1.0	3.0	5.0	8.0		part_1
333		4.0				1.0	0.0							3.0	31.0	0.32955218115239404	3.0		1.0	5.0	1.0	4.0		part_1
334		4.0				1.0	1.0							4.0	0.0	0.38742595729854656	4.0		0.0	6.0	6.0	3.0		part_1
335		4.0				1.0	1.0							3.0	100.0	0.34285051273036515	3.0		2.0	6.0	6.0	3.0		part_1
336		4.0				1.0	0.0							3.0	0.0	0.2883543278876459	3.0		0.0	5.0	1.0	4.0		part_1
337		4.0				1.0	1.0							3.0	94.0	0.26470775873895036	3.0		2.0	6.0	6.0	3.0		part_1
338		4.0				1.0	1.0							1.0	87.0	0.3570582301763352	1.0		2.0	6.0	6.0	3.0		part_1
339		4.0				1.0	1.0							2.0	211.0	0.3116564837328042	2.0		3.0	1.0	7.0	1.0		part_1
340		4.0				1.0	0.0							1.0	200.0	0.3699697937336168	1.0		3.0	4.0	3.0	7.0		part_1
341		4.0				1.0	0.0							3.0	98.0	0.288940420585277	3.0		2.0	7.0	2.0	2.0		part_1
342		4.0				1.0	0.0							2.0	188.0	0.2341273537967936	2.0		3.0	4.0	3.0	7.0		part_1
343		4.0				1.0	1.0							1.0	0.0	0.3251043862910592	1.0		0.0	6.0	6.0	3.0		part_1
344		4.0				1.0	0.0							1.0	0.0	0.30332518717477797	1.0		0.0	7.0	2.0	2.0		part_1
345		4.0				1.0	1.0							2.0	27.0	0.2931728837356786	2.0		1.0	3.0	5.0	8.0		part_1
346		4.0				1.0	1.0							4.0	0.0	0.35975210258038715	4.0		0.0	1.0	7.0	1.0		part_1
347		4.0				2.0	0.0							3.0	62.0	0.34958419688337017	3.0		1.0	5.0	1.0	4.0		part_1
348		4.0				1.0	1.0							4.0	32.0	0.3061621024389751	4.0		1.0	3.0	5.0	8.0		part_1
349		4.0				1.0	1.0							4.0	103.0	0.29616968243499286	4.0		2.0	6.0	6.0	3.0		part_1
350		4.0				1.0	0.0							3.0	0.0	0.44101021059032064	3.0		0.0	5.0	1.0	4.0		part_1
351		4.0				1.0	0.0							3.0	410.0	0.24016344129631761	3.0		4.0	2.0	4.0	5.0		part_1
352		4.0				1.0	1.0							3.0	216.0	0.25156479443830904	3.0		3.0	1.0	7.0	1.0		part_1
353		4.0				1.0	1.0							1.0	50.0	0.3641983304405585	1.0		1.0	3.0	5.0	8.0		part_1
354		4.0				1.0	1.0							1.0	187.0	0.409904040148831	1.0		3.0	1.0	7.0	1.0		part_1
355		4.0				1.0	1.0							2.0	66.0	0.3540265722986078	2.0		1.0	3.0	5.0	8.0		part_1
356		4.0				1.0	0.0							3.0	45.0	0.3216666467342293	3.0		1.0	5.0	1.0	4.0		part_1
357		4.0				1.0	1.0							3.0	100.0	0.23175016443565255	3.0		2.0	6.0	6.0	3.0		part_1
358		4.0				1.0	0.0							3.0	401.0	0.3345617192971986	3.0		4.0	2.0	4.0	5.0		part_1
359		4.0				1.0	1.0							3.0	82.0	0.2785468027359457	3.0		2.0	6.0	6.0	3.0		part_1
360		4.0				1.0	1.0							2.0	61.0	0.28916802129970165	2.0		1.0	3.0	5.0	8.0		part_1
361		4.0				1.0	0.0							4.0	0.0	0.44825903173477855	4.0		0.0	5.0	1.0	4.0		part_1
362		4.0				1.0	1.0							1.0	177.0	0.37079850844020257	1.0		3.0	1.0	7.0	1.0		part_1
363		4.0				1.0	1.0							2.0	36.0	0.3488183738809312	2.0		1.0	3.0	5.0	8.0		part_1
364		4.0				1.0	0.0							4.0	0.0	0.31470544214971596	4.0		0.0	7.0	2.0	2.0		part_1
365		4.0				1.0	1.0							2.0	200.0	0.2810310820277664	2.0		3.0	1.0	7.0	1.0		part_1
366		4.0				1.0	1.0							2.0	223.0	0.30423639788205037	2.0		3.0	1.0	7.0	1.0		part_1
367		4.0				1.0	1.0							1.0	69.0	0.32875549743766896	1.0		1.0	3.0	5.0	8.0		part_1
368		4.0				1.0	1.0							2.0	92.0	0.2716011912925751	2.0		2.0	6.0	6.0	3.0		part_1
369		4.0				1.0	1.0							1.0	412.0	0.2953658543192432	1.0		4.0	8.0	8.0	6.0		part_1
370		4.0				2.0	1.0							3.0	0.0	0.3062289594381582	3.0		0.0	6.0	6.0	3.0		part_1
371		4.0				1.0	0.0							1.0	182.0	0.23983668429718819	1.0		3.0	4.0	3.0	7.0		part_1
372		4.0				1.0	1.0							1.0	80.0	0.3311927991526318	1.0		2.0	6.0	6.0	3.0		part_1
373		4.0				1.0	1.0							4.0	33.0	0.3428500407462707	4.0		1.0	3.0	5.0	8.0		part_1
374		4.0				1.0	1.0							3.0	409.0	0.3197252972968272	3.0		4.0	8.0	8.0	6.0		part_1
375		4.0				1.0	1.0							1.0	69.0	0.25457870129321236	1.0		1.0	3.0	5.0	8.0		part_1
376		4.0				1.0	0.0							3.0	75.0	0.31058341517928056	3.0		2.0	7.0	2.0	2.0		part_1
377		4.0				1.0	1.0							3.0	415.0	0.28888482188631315	3.0		4.0	8.0	8.0	6.0		part_1
378		4.0				1.0	1.0							2.0	95.0	0.24528834503144026	2.0		2.0	6.0	6.0	3.0		part_1
379		4.0				1.0	0.0							2.0	45.0	0.27802217488351744	2.0		1.0	5.0	1.0	4.0		part_1
380		4.0				1.0	1.0							4.0	0.0	0.3229855202953331	4.0		0.0	8.0	8.0	6.0		part_1
381		4.0				1.0	1.0							1.0	408.0	0.3136079954347224	1.0		4.0	8.0	8.0	6.0		part_1
382		4.0				1.0	1.0							4.0	420.0	0.33711892815335887	4.0		4.0	8.0	8.0	6.0		part_1
383		4.0				1.0	1.0							1.0	192.0	0.33775106643588515	1.0		3.0	1.0	7.0	1.0		part_1
384		4.0				1.0	1.0							2.0	200.0	0.24695687444182113	2.0		3.0	1.0	7.0	1.0		part_1
385		4.0				1.0	1.0							4.0	73.0	0.3037504382955376	4.0		1.0	3.0	5.0	8.0		part_1
386		4.0				2.0	0.0							3.0	201.0	0.32809983929473674	3.0		3.0	4.0	3.0	7.0		part_1
387		4.0				1.0	1.0							4.0	399.0	0.3624720075822552	4.0		4.0	8.0	8.0	6.0		part_1
388		4.0				1.0	1.0							1.0	200.0	0.25152143288141815	1.0		3.0	1.0	7.0	1.0		part_1
389		4.0				1.0	1.0							3.0	71.0	0.22737208844046108	3.0		1.0	3.0	5.0	8.0		part_1
390		4.0				1.0	0.0							1.0	0.0	0.26288317088619806	1.0		0.0	2.0	4.0	5.0		part_1
391		4.0				1.0	0.0							2.0	222.0	0.3074483489981503	2.0		3.0	4.0	3.0	7.0		part_1
392		4.0				1.0	0.0							2.0	399.0	0.3081457727312227	2.0		4.0	2.0	4.0	5.0		part_1
393		4.0				1.0	0.0							4.0	384.0	0.3773088051530067	4.0		4.0	2.0	4.0	5.0		part_1
394		4.0				1.0	1.0							2.0	0.0	0.34326999573386274	2.0		0.0	3.0	5.0	8.0		part_1
395		4.0				1.0	0.0							2.0	420.0	0.3331312932932633	2.0		4.0	2.0	4.0	5.0		part_1
396		4.0				1.0	1.0							3.0	94.0	0.36702822514780564	3.0		2.0	6.0	6.0	3.0		part_1
397		4.0				1.0	0.0							2.0	401.0	0.2777300858797389	2.0		4.0	2.0	4.0	5.0		part_1
398		4.0				2.0	0.0							3.0	407.0	0.26659177058172645	3.0		4.0	2.0	4.0	5.0		part_1
399		4.0				1.0	0.0							1.0	51.0	0.4156429518479854	1.0		1.0	5.0	1.0	4.0		part_1
0	1.0	1.0			250.0	0.0	1.0							6.0	0.0	0.39639341765723657	6.0	250.0	4.0	8.0	8.0	6.0	0.0	part_2
1	1.0	1.0			250.0	0.0	0.0							6.0	0.0	0.39725189573073294	6.0	250.0	3.0	4.0	3.0	7.0	0.0	part_2
2	1.0	1.0			250.0	0.0	0.0							6.0	0.0	0.28547006365988636	6.0	250.0	4.0	2.0	4.0	5.0	0.0	part_2
3	1.0	1.0			250.0	0.0	1.0							6.0	0.0	0.2966768684782437	6.0	250.0	1.0	3.0	5.0	8.0	0.0	part_2
4	1.0	1.0			250.0	0.0	0.0							6.0	0.0	0.2522847581712995	6.0	250.0	1.0	5.0	1.0	4.0	0.0	part_2
5	1.0	1.0			250.0	0.0	0.0							5.0	0.0	0.27538714822003385	5.0	250.0	1.0	5.0	1.0	4.0	0.0	part_2
6	1.0	1.0			250.0	0.0	0.0							6.0	0.0	0.25466066543594934	6.0	250.0	2.0	7.0	2.0	2.0	0.0	part_2
7	4.0	1.0			250.0	0.0	1.0							5.0	0.0	0.0	0.0	250.0	1.0	3.0	5.0	8.0	1.0	part_2
8	1.0	1.0			300.0	0.0	1.0							6.0	0.0	0.2671723254825338	6.0	250.0	1.0	3.0	5.0	8.0	0.0	part_2
9	1.0	1.0			300.0	0.0	1.0							6.0	0.0	0.2790086142194923	6.0	250.0	4.0	8.0	8.0	6.0	0.0	part_2
10	1.0	1.0			300.0	0.0	0.0							5.0	0.0	0.25842649665719364	5.0	250.0	1.0	5.0	1.0	4.0	0.0	part_2
11	1.0	1.0			300.0	0.0	0.0							6.0	0.0	0.38173963648296194	6.0	250.0	1.0	5.0	1.0	4.0	0.0	part_2
12	1.0	1.0			300.0	0.0	0.0							6.0	0.0	0.2712320374776027	6.0	250.0	3.0	4.0	3.0	7.0	0.0	part_2
13	1.0	1.0			300.0	0.0	0.0							6.0	0.0	0.2611259365148726	6.0	250.0	2.0	7.0	2.0	2.0	0.0	part_2
14	1.0	1.0			300.0	0.0	0.0							6.0	0.0	0.2844763577377307	6.0	250.0	1.0	5.0	1.0	4.0	0.0	part_2
15	3.0	1.0			300.0	0.0	1.0							6.0	0.0	0.2951265324372798	6.0	250.0	4.0	8.0	8.0	6.0	1.0	part_2
16	3.0	1.0			300.0	0.0	1.0							5.0	0.0	0.35215173148026224	5.0	200.0	3.0	1.0	7.0	1.0	1.0	part_2
17	1.0	1.0			250.0	0.0	0.0							5.0	0.0	0.3528723136987537	5.0	200.0	1.0	5.0	1.0	4.0	0.0	part_2
18	1.0	1.0			250.0	0.0	0.0							6.0	0.0	0.33103319695510436	6.0	200.0	4.0	2.0	4.0	5.0	0.0	part_2
19	3.0	1.0			250.0	0.0	1.0							5.0	0.0	0.35561063495697454	5.0	200.0	2.0	6.0	6.0	3.0	1.0	part_2
20	4.0	1.0			200.0	0.0	1.0							5.0	0.0	0.0	0.0	200.0	3.0	1.0	7.0	1.0	1.0	part_2
21	4.0	1.0			250.0	0.0	1.0							5.0	0.0	0.0	0.0	200.0	1.0	3.0	5.0	8.0	1.0	part_2
22	1.0	1.0			300.0	0.0	1.0							5.0	0.0	0.7751231216607266	5.0	200.0	2.0	6.0	6.0	3.0	0.0	part_2
23	1.0	1.0			300.0	0.0	0.0							5.0	0.0	0.3799233774334425	5.0	200.0	2.0	7.0	2.0	2.0	0.0	part_2
24	3.0	1.0			300.0	0.0	1.0							6.0	0.0	0.37043753374018706	6.0	200.0	2.0	6.0	6.0	3.0	1.0	part_2
25	4.0	1.0			300.0	0.0	1.0							6.0	0.0	0.0	0.0	150.0	3.0	1.0	7.0	1.0	1.0	part_2
26	1.0	1.0			300.0	0.0	0.0							6.0	0.0	0.6654319799563382	6.0	200.0	1.0	5.0	1.0	4.0	0.0	part_2
27	1.0	1.0			300.0	0.0	0.0							5.0	0.0	0.7338044680000166	5.0	200.0	4.0	2.0	4.0	5.0	0.0	part_2
28	4.0	1.0			300.0	0.0	1.0							5.0	0.0	0.0	0.0	200.0	1.0	3.0	5.0	8.0	1.0	part_2
29	3.0	1.0			350.0	0.0	1.0							6.0	0.0	0.36330776695831446	6.0	200.0	2.0	6.0	6.0	3.0	1.0	part_2
30	1.0	1.0			350.0	0.0	0.0							5.0	0.0	1.2071339779577102	5.0	150.0	3.0	4.0	3.0	7.0	0.0	part_2
31	1.0	1.0			350.0	0.0	0.0							6.0	0.0	0.35370413790951716	6.0	150.0	2.0	7.0	2.0	2.0	0.0	part_2
32	4.0	1.0			350.0	0.0	1.0							6.0	0.0	0.0	0.0	150.0	4.0	8.0	8.0	6.0	1.0	part_2
33	1.0	1.0			350.0	0.0	0.0							6.0	0.0	0.6031053109109052	6.0	200.0	4.0	2.0	4.0	5.0	0.0	part_2
34	1.0	1.0			350.0	0.0	0.0							6.0	0.0	0.6372953031750512	6.0	200.0	1.0	5.0	1.0	4.0	0.0	part_2
35	1.0	1.0			350.0	0.0	0.0							6.0	0.0	0.908179831218149	6.0	200.0	1.0	5.0	1.0	4.0	0.0	part_2
36	1.0	2.0			350.0	0.0	1.0							5.0	0.0	0.4745870604820084	5.0	200.0	1.0	3.0	5.0	8.0	0.0	part_2
37	3.0	2.0			350.0	0.0	1.0							5.0	0.0	0.39655041721562156	5.0	200.0	3.0	1.0	7.0	1.0	1.0	part_2
38	4.0	2.0			300.0	0.0	1.0							6.0	0.0	0.0	0.0	200.0	3.0	1.0	7.0	1.0	1.0	part_2
39	1.0	2.0			300.0	0.0	0.0							5.0	0.0	0.6888100296928314	5.0	250.0	2.0	7.0	2.0	2.0	0.0	part_2
40	3.0	2.0			300.0	0.0	1.0							5.0	0.0	0.36487489744467894	5.0	250.0	1.0	3.0	5.0	8.0	1.0	part_2
41	1.0	2.0			250.0	0.0	0.0							5.0	0.0	0.7021324182205717	5.0	250.0	4.0	2.0	4.0	5.0	0.0	part_2
42	1.0	2.0			250.0	0.0	0.0							6.0	0.0	0.781664017442381	6.0	250.0	4.0	2.0	4.0	5.0	0.0	part_2
43	1.0	2.0			250.0	0.0	0.0							5.0	0.0	0.3884235157893272	5.0	250.0	4.0	2.0	4.0	5.0	0.0	part_2
44	1.0	2.0			250.0	0.0	0.0							5.0	0.0	0.672422607698536	5.0	250.0	2.0	7.0	2.0	2.0	0.0	part_2
45	4.0	2.0			250.0	0.0	1.0							6.0	0.0	0.0	0.0	250.0	3.0	1.0	7.0	1.0	1.0	part_2
46	1.0	2.0			250.0	0.0	0.0							6.0	0.0	0.7060595969596761	6.0	300.0	2.0	7.0	2.0	2.0	0.0	part_2
47	1.0	2.0			250.0	0.0	0.0							6.0	0.0	0.6060731847392162	6.0	300.0	1.0	5.0	1.0	4.0	0.0	part_2
48	1.0	2.0			250.0	0.0	0.0							6.0	0.0	0.6416768232156755	6.0	300.0	4.0	2.0	4.0	5.0	0.0	part_2
49	3.0	2.0			250.0	0.0	1.0							5.0	0.0	0.45037130073615117	5.0	300.0	4.0	8.0	8.0	6.0	1.0	part_2
50	1.0	2.0			200.0	0.0	1.0							5.0	0.0	0.6754328371753218	5.0	300.0	3.0	1.0	7.0	1.0	0.0	part_2
51	1.0	2.0			200.0	0.0	0.0							6.0	0.0	0.7008772644767305	6.0	300.0	3.0	4.0	3.0	7.0	0.0	part_2
52	3.0	2.0			200.0	0.0	1.0							5.0	0.0	0.3848312562186038	5.0	300.0	4.0	8.0	8.0	6.0	1.0	part_2
53	4.0	2.0			150.0	0.0	1.0							5.0	0.0	0.0	0.0	300.0	4.0	8.0	8.0	6.0	1.0	part_2
54	1.0	2.0			200.0	0.0	0.0							5.0	0.0	0.7807760652140132	5.0	300.0	3.0	4.0	3.0	7.0	0.0	part_2
55	4.0	2.0			200.0	0.0	1.0							6.0	0.0	0.0	0.0	300.0	1.0	3.0	5.0	8.0	1.0	part_2
56	1.0	2.0			200.0	0.0	0.0							6.0	0.0	0.7594736089522485	6.0	350.0	3.0	4.0	3.0	7.0	0.0	part_2
57	4.0	2.0			200.0	0.0	1.0							6.0	0.0	0.0	0.0	350.0	1.0	3.0	5.0	8.0	1.0	part_2
58	4.0	2.0			200.0	0.0	1.0							5.0	0.0	0.0	0.0	400.0	3.0	1.0	7.0	1.0	1.0	part_2
59	1.0	2.0			250.0	0.0	0.0							5.0	0.0	0.6831767984331236	5.0	400.0	3.0	4.0	3.0	7.0	0.0	part_2
60	4.0	2.0			250.0	0.0	1.0							5.0	0.0	0.0	0.0	400.0	4.0	8.0	8.0	6.0	1.0	part_2
61	1.0	2.0			300.0	0.0	1.0							5.0	0.0	0.7198221161743277	5.0	400.0	3.0	1.0	7.0	1.0	0.0	part_2
62	1.0	2.0			300.0	0.0	0.0							5.0	0.0	0.7316756171785528	5.0	400.0	1.0	5.0	1.0	4.0	0.0	part_2
63	1.0	2.0			300.0	0.0	0.0							5.0	0.0	0.3845396162214456	5.0	400.0	3.0	4.0	3.0	7.0	0.0	part_2
64	1.0	2.0			300.0	0.0	0.0							5.0	0.0	0.43032966995815514	5.0	400.0	2.0	7.0	2.0	2.0	0.0	part_2
65	3.0	2.0			300.0	0.0	1.0							6.0	0.0	0.38448314991546795	6.0	400.0	1.0	3.0	5.0	8.0	1.0	part_2
66	1.0	2.0			300.0	0.0	0.0							5.0	0.0	0.6784093944443157	5.0	350.0	3.0	4.0	3.0	7.0	0.0	part_2
67	1.0	2.0			300.0	0.0	0.0							5.0	0.0	0.7461478634868399	5.0	350.0	2.0	7.0	2.0	2.0	0.0	part_2
68	1.0	2.0			300.0	0.0	0.0							6.0	0.0	0.6794035684361006	6.0	350.0	1.0	5.0	1.0	4.0	0.0	part_2
69	1.0	2.0			300.0	0.0	0.0							6.0	0.0	0.8488961407347233	6.0	350.0	2.0	7.0	2.0	2.0	0.0	part_2
70	1.0	2.0			300.0	0.0	1.0							5.0	0.0	0.7369738926572609	5.0	350.0	2.0	6.0	6.0	3.0	0.0	part_2
71	1.0	2.0			300.0	0.0	0.0							5.0	0.0	0.795597407479363	5.0	350.0	3.0	4.0	3.0	7.0	0.0	part_2
72	4.0	3.0			300.0	0.0	1.0							6.0	0.0	0.0	0.0	350.0	1.0	3.0	5.0	8.0	1.0	part_2
73	3.0	3.0			300.0	0.0	1.0							5.0	0.0	0.4855354314422584	5.0	400.0	1.0	3.0	5.0	8.0	1.0	part_2
74	3.0	3.0			250.0	0.0	1.0							6.0	0.0	0.5645554421789711	6.0	400.0	4.0	8.0	8.0	6.0	1.0	part_2
75	1.0	3.0			250.0	0.0	1.0							5.0	0.0	0.4978979189108941	5.0	350.0	2.0	6.0	6.0	3.0	0.0	part_2
76	1.0	3.0			250.0	0.0	0.0							6.0	0.0	0.3512686062240391	6.0	350.0	4.0	2.0	4.0	5.0	0.0	part_2
77	1.0	3.0			250.0	0.0	1.0							5.0	0.0	0.4535306787365698	5.0	350.0	4.0	8.0	8.0	6.0	0.0	part_2
78	1.0	3.0			250.0	0.0	0.0							6.0	0.0	0.5901720741749159	6.0	350.0	4.0	2.0	4.0	5.0	0.0	part_2
79	3.0	3.0			250.0	0.0	1.0							5.0	0.0	0.34352434543689014	5.0	350.0	1.0	3.0	5.0	8.0	1.0	part_2
80	4.0	3.0			200.0	0.0	1.0							5.0	0.0	0.0	0.0	350.0	4.0	8.0	8.0	6.0	1.0	part_2
81	1.0	3.0			250.0	0.0	0.0							6.0	0.0	0.35657824773079483	6.0	350.0	2.0	7.0	2.0	2.0	0.0	part_2
82	1.0	3.0			250.0	0.0	0.0							5.0	0.0	0.3797239735213225	5.0	350.0	3.0	4.0	3.0	7.0	0.0	part_2
83	1.0	3.0			250.0	0.0	0.0							6.0	0.0	0.5618347747367807	6.0	350.0	3.0	4.0	3.0	7.0	0.0	part_2
84	1.0	3.0			250.0	0.0	0.0							6.0	0.0	0.5834333915772731	6.0	350.0	1.0	5.0	1.0	4.0	0.0	part_2
85	3.0	3.0			250.0	0.0	1.0							5.0	0.0	0.4385630426913849	5.0	350.0	1.0	3.0	5.0	8.0	1.0	part_2
86	3.0	3.0			200.0	0.0	1.0							6.0	0.0	0.4952175109574455	6.0	350.0	1.0	3.0	5.0	8.0	1.0	part_2
87	1.0	3.0			200.0	0.0	0.0							6.0	0.0	0.6872475584386848	6.0	300.0	3.0	4.0	3.0	7.0	0.0	part_2
88	4.0	3.0			200.0	0.0	1.0							5.0	0.0	0.0	0.0	300.0	2.0	6.0	6.0	3.0	1.0	part_2
89	3.0	3.0			250.0	0.0	1.0							6.0	0.0	0.3099518282178906	6.0	300.0	1.0	3.0	5.0	8.0	1.0	part_2
90	1.0	3.0			250.0	0.0	0.0							5.0	0.0	0.41998857194994343	5.0	250.0	2.0	7.0	2.0	2.0	0.0	part_2
91	1.0	3.0			250.0	0.0	0.0							5.0	0.0	0.5460706217418192	5.0	250.0	4.0	2.0	4.0	5.0	0.0	part_2
92	3.0	3.0			250.0	0.0	1.0							5.0	0.0	0.3325502907318878	5.0	250.0	4.0	8.0	8.0	6.0	1.0	part_2
93	1.0	3.0			200.0	0.0	0.0							6.0	0.0	0.33208438743895385	6.0	250.0	3.0	4.0	3.0	7.0	0.0	part_2
94	4.0	3.0			200.0	0.0	1.0							5.0	0.0	0.0	0.0	250.0	3.0	1.0	7.0	1.0	1.0	part_2
95	1.0	3.0			250.0	0.0	0.0							5.0	0.0	0.5257348909144639	5.0	250.0	4.0	2.0	4.0	5.0	0.0	part_2
96	1.0	3.0			250.0	0.0	0.0							5.0	0.0	0.3361428269126918	5.0	250.0	2.0	7.0	2.0	2.0	0.0	part_2
97	1.0	3.0			250.0	0.0	1.0							6.0	0.0	0.5497417707374552	6.0	250.0	4.0	8.0	8.0	6.0	0.0	part_2
98	3.0	3.0			250.0	0.0	1.0							5.0	0.0	0.46172845322143985	5.0	250.0	1.0	3.0	5.0	8.0	1.0	part_2
99	4.0	3.0			200.0	0.0	1.0							5.0	0.0	0.0	0.0	250.0	3.0	1.0	7.0	1.0	1.0	part_2
100	4.0	3.0			250.0	0.0	1.0							5.0	0.0	0.0	0.0	250.0	2.0	6.0	6.0	3.0	1.0	part_2
101	1.0	3.0			300.0	0.0	0.0							6.0	0.0	0.4065741466911277	6.0	250.0	3.0	4.0	3.0	7.0	0.0	part_2
102	1.0	3.0			300.0	0.0	0.0							5.0	0.0	0.6204724837371032	5.0	250.0	1.0	5.0	1.0	4.0	0.0	part_2
103	1.0	3.0			300.0	0.0	0.0							6.0	0.0	0.3072136427363148	6.0	250.0	3.0	4.0	3.0	7.0	0.0	part_2
104	1.0	3.0			300.0	0.0	0.0							6.0	0.0	0.34114245569799095	6.0	250.0	4.0	2.0	4.0	5.0	0.0	part_2
105	3.0	3.0			300.0	0.0	1.0							6.0	0.0	0.421405911736656	6.0	250.0	4.0	8.0	8.0	6.0	1.0	part_2
106	1.0	3.0			300.0	0.0	0.0							6.0	0.0	0.46713620744412765	6.0	200.0	3.0	4.0	3.0	7.0	0.0	part_2
107	1.0	3.0			300.0	0.0	0.0							5.0	0.0	0.5237637119571446	5.0	200.0	4.0	2.0	4.0	5.0	0.0	part_2
108	1.0	4.0			300.0	0.0	0.0							5.0	0.0	0.6936344259156613	5.0	200.0	2.0	7.0	2.0	2.0	0.0	part_2
109	3.0	4.0			300.0	0.0	1.0							6.0	0.0	0.289791884002625	6.0	200.0	1.0	3.0	5.0	8.0	1.0	part_2
110	1.0	4.0			300.0	0.0	0.0							5.0	0.0	0.470815565000521	5.0	150.0	4.0	2.0	4.0	5.0	0.0	part_2
111	1.0	4.0			300.0	0.0	0.0							5.0	0.0	0.33784968047984876	5.0	150.0	4.0	2.0	4.0	5.0	0.0	part_2
112	3.0	4.0			300.0	0.0	1.0							6.0	0.0	0.2591917337413179	6.0	150.0	2.0	6.0	6.0	3.0	1.0	part_2
113	1.0	4.0			300.0	0.0	1.0							6.0	0.0	0.5735372524359263	6.0	100.0	2.0	6.0	6.0	3.0	0.0	part_2
114	1.0	4.0			300.0	0.0	0.0							6.0	0.0	0.3046479057375109	6.0	100.0	3.0	4.0	3.0	7.0	0.0	part_2
115	1.0	4.0			300.0	0.0	0.0							6.0	0.0	0.284783096954925	6.0	100.0	1.0	5.0	1.0	4.0	0.0	part_2
116	4.0	4.0			300.0	0.0	1.0							6.0	0.0	0.0	0.0	100.0	4.0	8.0	8.0	6.0	1.0	part_2
117	3.0	4.0			300.0	0.0	1.0							6.0	0.0	0.27477193973754765	6.0	150.0	4.0	8.0	8.0	6.0	1.0	part_2
118	1.0	4.0			300.0	0.0	0.0							6.0	0.0	0.522376612694643	6.0	100.0	2.0	7.0	2.0	2.0	0.0	part_2
119	1.0	4.0			300.0	0.0	0.0							5.0	0.0	0.41067842148186173	5.0	100.0	2.0	7.0	2.0	2.0	0.0	part_2
120	1.0	4.0			300.0	0.0	0.0							6.0	0.0	0.32072608626185684	6.0	100.0	2.0	7.0	2.0	2.0	0.0	part_2
121	1.0	4.0			300.0	0.0	0.0							5.0	0.0	0.4226037504777196	5.0	100.0	3.0	4.0	3.0	7.0	0.0	part_2
122	1.0	4.0			300.0	0.0	0.0							5.0	0.0	0.3569432321819477	5.0	100.0	2.0	7.0	2.0	2.0	0.0	part_2
123	1.0	4.0			300.0	0.0	1.0							5.0	0.0	0.3343997479096288	5.0	100.0	1.0	3.0	5.0	8.0	0.0	part_2
124	4.0	4.0			300.0	0.0	1.0							6.0	0.0	0.0	0.0	100.0	4.0	8.0	8.0	6.0	1.0	part_2
125	4.0	4.0			300.0	0.0	1.0							6.0	0.0	0.0	0.0	150.0	3.0	1.0	7.0	1.0	1.0	part_2
126	1.0	4.0			300.0	0.0	0.0							5.0	0.0	0.48390697821741924	5.0	200.0	3.0	4.0	3.0	7.0	0.0	part_2
127	1.0	4.0			300.0	0.0	1.0							5.0	0.0	0.47441433600033633	5.0	200.0	2.0	6.0	6.0	3.0	0.0	part_2
128	1.0	4.0			300.0	0.0	1.0							6.0	0.0	0.34972418469260447	6.0	200.0	4.0	8.0	8.0	6.0	0.0	part_2
129	1.0	4.0			300.0	0.0	0.0							5.0	0.0	0.2721845414416748	5.0	200.0	1.0	5.0	1.0	4.0	0.0	part_2
130	4.0	4.0			300.0	0.0	1.0							6.0	0.0	0.0	0.0	200.0	2.0	6.0	6.0	3.0	1.0	part_2
131	4.0	4.0			300.0	0.0	1.0							6.0	0.0	0.0	0.0	250.0	4.0	8.0	8.0	6.0	1.0	part_2
132	1.0	4.0			300.0	0.0	0.0							6.0	0.0	0.478734853953938	6.0	300.0	1.0	5.0	1.0	4.0	0.0	part_2
133	1.0	4.0			300.0	0.0	0.0							6.0	0.0	0.32084375122212805	6.0	300.0	4.0	2.0	4.0	5.0	0.0	part_2
134	3.0	4.0			300.0	0.0	1.0							5.0	0.0	0.4466544956958387	5.0	300.0	3.0	1.0	7.0	1.0	1.0	part_2
135	3.0	4.0			250.0	0.0	1.0							6.0	0.0	0.4576926046938752	6.0	300.0	2.0	6.0	6.0	3.0	1.0	part_2
136	1.0	4.0			250.0	0.0	0.0							5.0	0.0	0.5828527679987019	5.0	250.0	2.0	7.0	2.0	2.0	0.0	part_2
137	3.0	4.0			250.0	0.0	1.0							6.0	0.0	0.4269098494332866	6.0	250.0	1.0	3.0	5.0	8.0	1.0	part_2
138	4.0	4.0			250.0	0.0	1.0							6.0	0.0	0.0	0.0	200.0	2.0	6.0	6.0	3.0	1.0	part_2
139	1.0	4.0			250.0	0.0	0.0							6.0	0.0	0.5516550410466152	6.0	250.0	2.0	7.0	2.0	2.0	0.0	part_2
140	1.0	4.0			250.0	0.0	1.0							6.0	0.0	0.29417445469880477	6.0	250.0	2.0	6.0	6.0	3.0	0.0	part_2
141	3.0	4.0			250.0	0.0	1.0							6.0	0.0	0.36278233569464646	6.0	250.0	3.0	1.0	7.0	1.0	1.0	part_2
142	1.0	4.0			250.0	0.0	0.0							6.0	0.0	0.6659159604460001	6.0	200.0	2.0	7.0	2.0	2.0	0.0	part_2
143	1.0	4.0			250.0	0.0	0.0							5.0	0.0	0.555731726482918	5.0	200.0	1.0	5.0	1.0	4.0	0.0	part_2
144	1.0	5.0			250.0	0.0	0.0							6.0	0.0	1.1465803106912063	6.0	200.0	2.0	7.0	2.0	2.0	0.0	part_2
145	1.0	5.0			250.0	0.0	0.0							5.0	0.0	0.31561845117539633	5.0	200.0	3.0	4.0	3.0	7.0	0.0	part_2
146	1.0	5.0			250.0	0.0	1.0							6.0	0.0	0.2589787540055113	6.0	200.0	3.0	1.0	7.0	1.0	0.0	part_2
147	3.0	5.0			250.0	0.0	1.0							5.0	0.0	0.38449560769367963	5.0	200.0	3.0	1.0	7.0	1.0	1.0	part_2
148	4.0	5.0			200.0	0.0	1.0							5.0	0.0	0.0	0.0	200.0	2.0	6.0	6.0	3.0	1.0	part_2
149	4.0	5.0			250.0	0.0	1.0							6.0	0.0	0.0	0.0	200.0	2.0	6.0	6.0	3.0	1.0	part_2
150	1.0	5.0			250.0	0.0	0.0							5.0	0.0	0.40848786944116	5.0	250.0	2.0	7.0	2.0	2.0	0.0	part_2
151	4.0	5.0			250.0	0.0	1.0							5.0	0.0	0.0	0.0	250.0	4.0	8.0	8.0	6.0	1.0	part_2
152	1.0	5.0			300.0	0.0	1.0							6.0	0.0	0.7027908664822462	6.0	250.0	1.0	3.0	5.0	8.0	0.0	part_2
153	4.0	5.0			300.0	0.0	1.0							5.0	0.0	0.0	0.0	250.0	3.0	1.0	7.0	1.0	1.0	part_2
154	3.0	5.0			350.0	0.0	1.0							6.0	0.0	0.32251964318129467	6.0	250.0	3.0	1.0	7.0	1.0	1.0	part_2
155	4.0	5.0			350.0	0.0	1.0							6.0	0.0	0.0	0.0	200.0	2.0	6.0	6.0	3.0	1.0	part_2
156	1.0	5.0			350.0	0.0	0.0							6.0	0.0	0.5482911356593831	6.0	250.0	4.0	2.0	4.0	5.0	0.0	part_2
157	1.0	5.0			350.0	0.0	1.0							5.0	0.0	0.44817703025910305	5.0	250.0	2.0	6.0	6.0	3.0	0.0	part_2
158	1.0	5.0			350.0	0.0	0.0							5.0	0.0	0.3357740089559229	5.0	250.0	4.0	2.0	4.0	5.0	0.0	part_2
159	1.0	5.0			350.0	0.0	0.0							5.0	0.0	0.3146734049587394	5.0	250.0	2.0	7.0	2.0	2.0	0.0	part_2
160	1.0	5.0			350.0	0.0	0.0							5.0	0.0	0.39385725244210334	5.0	250.0	2.0	7.0	2.0	2.0	0.0	part_2
161	3.0	5.0			350.0	0.0	1.0							6.0	0.0	0.3839606882611406	6.0	250.0	3.0	1.0	7.0	1.0	1.0	part_2
162	3.0	5.0			350.0	0.0	1.0							5.0	0.0	0.5421642192231957	5.0	200.0	4.0	8.0	8.0	6.0	1.0	part_2
163	1.0	5.0			300.0	0.0	0.0							6.0	0.0	0.6442593089086586	6.0	200.0	1.0	5.0	1.0	4.0	0.0	part_2
164	1.0	5.0			300.0	0.0	0.0							5.0	0.0	0.5559121604383108	5.0	200.0	4.0	2.0	4.0	5.0	0.0	part_2
165	1.0	5.0			300.0	0.0	0.0							6.0	0.0	0.31991740095691057	6.0	200.0	4.0	2.0	4.0	5.0	0.0	part_2
166	1.0	5.0			300.0	0.0	1.0							6.0	0.0	0.6018471123024938	6.0	200.0	1.0	3.0	5.0	8.0	0.0	part_2
167	1.0	5.0			300.0	0.0	0.0							5.0	0.0	0.35583951322041685	5.0	200.0	1.0	5.0	1.0	4.0	0.0	part_2
168	1.0	5.0			300.0	0.0	0.0							5.0	0.0	0.3234046386933187	5.0	200.0	3.0	4.0	3.0	7.0	0.0	part_2
169	3.0	5.0			300.0	0.0	1.0							6.0	0.0	0.32262093021563487	6.0	200.0	3.0	1.0	7.0	1.0	1.0	part_2
170	1.0	5.0			300.0	0.0	0.0							5.0	0.0	0.4937214540041168	5.0	150.0	3.0	4.0	3.0	7.0	0.0	part_2
171	1.0	5.0			300.0	0.0	0.0							6.0	0.0	0.5156269464860088	6.0	150.0	4.0	2.0	4.0	5.0	0.0	part_2
172	3.0	5.0			300.0	0.0	1.0							6.0	0.0	0.3040347837813897	6.0	150.0	1.0	3.0	5.0	8.0	1.0	part_2
173	4.0	5.0			300.0	0.0	1.0							5.0	0.0	0.0	0.0	100.0	1.0	3.0	5.0	8.0	1.0	part_2
174	1.0	5.0			350.0	0.0	0.0							6.0	0.0	0.51813055943785	6.0	100.0	3.0	4.0	3.0	7.0	0.0	part_2
175	3.0	5.0			350.0	0.0	1.0							5.0	0.0	0.5413623844870017	5.0	100.0	4.0	8.0	8.0	6.0	1.0	part_2
176	4.0	5.0			300.0	0.0	1.0							5.0	0.0	0.0	0.0	100.0	2.0	6.0	6.0	3.0	1.0	part_2
177	1.0	5.0			350.0	0.0	0.0							5.0	0.0	0.5554246754400083	5.0	100.0	3.0	4.0	3.0	7.0	0.0	part_2
178	1.0	5.0			350.0	0.0	0.0							5.0	0.0	0.5780587084809667	5.0	100.0	1.0	5.0	1.0	4.0	0.0	part_2
179	1.0	5.0			350.0	0.0	0.0							5.0	0.0	0.5564560754864942	5.0	100.0	1.0	5.0	1.0	4.0	0.0	part_2
180	4.0	6.0			350.0	0.0	1.0							6.0	0.0	0.0	0.0	100.0	4.0	8.0	8.0	6.0	1.0	part_2
181	4.0	6.0			350.0	0.0	1.0							5.0	0.0	0.0	0.0	150.0	1.0	3.0	5.0	8.0	1.0	part_2
182	4.0	6.0			400.0	0.0	1.0							5.0	0.0	0.0	0.0	150.0	2.0	6.0	6.0	3.0	1.0	part_2
183	1.0	6.0			450.0	0.0	0.0							6.0	0.0	0.6198978054380859	6.0	150.0	3.0	4.0	3.0	7.0	0.0	part_2
184	1.0	6.0			450.0	0.0	0.0							5.0	0.0	0.34940147873567184	5.0	150.0	4.0	2.0	4.0	5.0	0.0	part_2
185	4.0	6.0			450.0	0.0	1.0							6.0	0.0	0.0	0.0	150.0	3.0	1.0	7.0	1.0	1.0	part_2
186	1.0	6.0			450.0	0.0	1.0							5.0	0.0	0.5195427569633466	5.0	200.0	4.0	8.0	8.0	6.0	0.0	part_2
187	1.0	6.0			450.0	0.0	1.0							6.0	0.0	0.5781722834362881	6.0	200.0	3.0	1.0	7.0	1.0	0.0	part_2
188	1.0	6.0			450.0	0.0	0.0							6.0	0.0	0.26312005047657294	6.0	200.0	2.0	7.0	2.0	2.0	0.0	part_2
189	3.0	6.0			450.0	0.0	1.0							5.0	0.0	0.625104018690763	5.0	200.0	1.0	3.0	5.0	8.0	1.0	part_2
190	4.0	6.0			400.0	0.0	1.0							6.0	0.0	0.0	0.0	200.0	3.0	1.0	7.0	1.0	1.0	part_2
191	1.0	6.0			400.0	0.0	0.0							5.0	0.0	0.6703271074875374	5.0	250.0	4.0	2.0	4.0	5.0	0.0	part_2
192	3.0	6.0			400.0	0.0	1.0							5.0	0.0	0.3801062066995655	5.0	250.0	4.0	8.0	8.0	6.0	1.0	part_2
193	4.0	6.0			350.0	0.0	1.0							5.0	0.0	0.0	0.0	250.0	2.0	6.0	6.0	3.0	1.0	part_2
194	1.0	6.0			400.0	0.0	1.0							6.0	0.0	0.29175826325808885	6.0	250.0	1.0	3.0	5.0	8.0	0.0	part_2
195	4.0	6.0			400.0	0.0	1.0							6.0	0.0	0.0	0.0	250.0	3.0	1.0	7.0	1.0	1.0	part_2
196	1.0	6.0			400.0	0.0	0.0							6.0	0.0	0.5388938256946858	6.0	300.0	1.0	5.0	1.0	4.0	0.0	part_2
197	1.0	6.0			400.0	0.0	1.0							6.0	0.0	0.3829455166924163	6.0	300.0	2.0	6.0	6.0	3.0	0.0	part_2
198	4.0	6.0			400.0	0.0	1.0							5.0	0.0	0.0	0.0	300.0	4.0	8.0	8.0	6.0	1.0	part_2
199	3.0	6.0			450.0	0.0	1.0							6.0	0.0	0.4064725219504908	6.0	300.0	1.0	3.0	5.0	8.0	1.0	part_2
200	3.0	6.0			450.0	0.0	1.0							5.0	0.0	0.5220312096935231	5.0	250.0	3.0	1.0	7.0	1.0	1.0	part_2
201	1.0	6.0			400.0	0.0	0.0							5.0	0.0	0.6125218777378905	5.0	250.0	1.0	5.0	1.0	4.0	0.0	part_2
202	3.0	6.0			400.0	0.0	1.0							5.0	0.0	0.3322596674406668	5.0	250.0	2.0	6.0	6.0	3.0	1.0	part_2
203	4.0	6.0			350.0	0.0	1.0							5.0	0.0	0.0	0.0	250.0	1.0	3.0	5.0	8.0	1.0	part_2
204	1.0	6.0			400.0	0.0	0.0							5.0	0.0	0.7935536572185811	5.0	250.0	2.0	7.0	2.0	2.0	0.0	part_2
205	1.0	6.0			400.0	0.0	0.0							6.0	0.0	0.31159928199485876	6.0	250.0	3.0	4.0	3.0	7.0	0.0	part_2
206	1.0	6.0			400.0	0.0	0.0							5.0	0.0	0.6950315432186471	5.0	250.0	2.0	7.0	2.0	2.0	0.0	part_2
207	1.0	6.0			400.0	0.0	0.0							5.0	0.0	0.5260801960030221	5.0	250.0	2.0	7.0	2.0	2.0	0.0	part_2
208	3.0	6.0			400.0	0.0	1.0							6.0	0.0	0.31258713048737263	6.0	250.0	1.0	3.0	5.0	8.0	1.0	part_2
209	1.0	6.0			400.0	0.0	0.0							6.0	0.0	0.7073340290007764	6.0	200.0	1.0	5.0	1.0	4.0	0.0	part_2
210	1.0	6.0			400.0	0.0	0.0							5.0	0.0	0.39353759844379965	5.0	200.0	3.0	4.0	3.0	7.0	0.0	part_2
211	3.0	6.0			400.0	0.0	1.0							6.0	0.0	0.3611589354404714	6.0	200.0	2.0	6.0	6.0	3.0	1.0	part_2
212	4.0	6.0			400.0	0.0	1.0							5.0	0.0	0.0	0.0	150.0	4.0	8.0	8.0	6.0	1.0	part_2
213	1.0	6.0			450.0	0.0	0.0							6.0	0.0	0.5984305717429379	6.0	150.0	2.0	7.0	2.0	2.0	0.0	part_2
214	1.0	6.0			450.0	0.0	0.0							6.0	0.0	0.45286164926801575	6.0	150.0	3.0	4.0	3.0	7.0	0.0	part_2
215	1.0	6.0			450.0	0.0	0.0							5.0	0.0	0.588888342732389	5.0	150.0	1.0	5.0	1.0	4.0	0.0	part_2
216	1.0	7.0			450.0	0.0	1.0							6.0	0.0	0.4263996591762407	6.0	150.0	3.0	1.0	7.0	1.0	0.0	part_2
217	3.0	7.0			450.0	0.0	1.0							5.0	0.0	0.26765628469729563	5.0	150.0	3.0	1.0	7.0	1.0	1.0	part_2
218	1.0	7.0			400.0	0.0	0.0							6.0	0.0	0.34799036721960874	6.0	150.0	3.0	4.0	3.0	7.0	0.0	part_2
219	3.0	7.0			400.0	0.0	1.0							5.0	0.0	0.5065617572181509	5.0	150.0	2.0	6.0	6.0	3.0	1.0	part_2
220	1.0	7.0			350.0	0.0	0.0							5.0	0.0	0.5068667444866151	5.0	150.0	2.0	7.0	2.0	2.0	0.0	part_2
221	1.0	7.0			350.0	0.0	0.0							5.0	0.0	0.395841765741352	5.0	150.0	1.0	5.0	1.0	4.0	0.0	part_2
222	3.0	7.0			350.0	0.0	1.0							5.0	0.0	0.37294926095637493	5.0	150.0	4.0	8.0	8.0	6.0	1.0	part_2
223	1.0	7.0			300.0	0.0	0.0							6.0	0.0	0.28440949622017797	6.0	150.0	2.0	7.0	2.0	2.0	0.0	part_2
224	1.0	7.0			300.0	0.0	0.0							6.0	0.0	0.500078836485045	6.0	150.0	1.0	5.0	1.0	4.0	0.0	part_2
225	4.0	7.0			300.0	0.0	1.0							5.0	0.0	0.0	0.0	150.0	2.0	6.0	6.0	3.0	1.0	part_2
226	1.0	7.0			350.0	0.0	1.0							6.0	0.0	0.3203948342197691	6.0	150.0	4.0	8.0	8.0	6.0	0.0	part_2
227	1.0	7.0			350.0	0.0	1.0							5.0	0.0	0.8743513876979705	5.0	150.0	4.0	8.0	8.0	6.0	0.0	part_2
228	1.0	7.0			350.0	0.0	0.0							5.0	0.0	0.4362224379583495	5.0	150.0	1.0	5.0	1.0	4.0	0.0	part_2
229	1.0	7.0			350.0	0.0	1.0							6.0	0.0	0.3117883341765264	6.0	150.0	3.0	1.0	7.0	1.0	0.0	part_2
230	1.0	7.0			350.0	0.0	0.0							6.0	0.0	0.4361312552646268	6.0	150.0	2.0	7.0	2.0	2.0	0.0	part_2
231	4.0	7.0			350.0	0.0	1.0							5.0	0.0	0.0	0.0	150.0	3.0	1.0	7.0	1.0	1.0	part_2
232	4.0	7.0			400.0	0.0	1.0							5.0	0.0	0.0	0.0	150.0	1.0	3.0	5.0	8.0	1.0	part_2
233	1.0	7.0			450.0	0.0	0.0							5.0	0.0	0.6524987136945128	5.0	150.0	3.0	4.0	3.0	7.0	0.0	part_2
234	1.0	7.0			450.0	0.0	1.0							5.0	0.0	0.9573266494408017	5.0	150.0	1.0	3.0	5.0	8.0	0.0	part_2
235	1.0	7.0			450.0	0.0	0.0							5.0	0.0	0.6329037266987143	5.0	150.0	4.0	2.0	4.0	5.0	0.0	part_2
236	1.0	7.0			450.0	0.0	0.0							6.0	0.0	0.5331522746564588	6.0	150.0	2.0	7.0	2.0	2.0	0.0	part_2
237	3.0	7.0			450.0	0.0	1.0							6.0	0.0	0.3292264314368367	6.0	150.0	2.0	6.0	6.0	3.0	1.0	part_2
238	3.0	7.0			450.0	0.0	1.0							5.0	0.0	0.3192531977329054	5.0	100.0	3.0	1.0	7.0	1.0	1.0	part_2
239	4.0	7.0			400.0	0.0	1.0							6.0	0.0	0.0	0.0	100.0	1.0	3.0	5.0	8.0	1.0	part_2
240	1.0	7.0			400.0	0.0	0.0							6.0	0.0	0.545807466172846	6.0	150.0	4.0	2.0	4.0	5.0	0.0	part_2
241	1.0	7.0			400.0	0.0	0.0							5.0	0.0	0.5811472037385101	5.0	150.0	1.0	5.0	1.0	4.0	0.0	part_2
242	1.0	7.0			400.0	0.0	1.0							6.0	0.0	0.762460583486245	6.0	150.0	3.0	1.0	7.0	1.0	0.0	part_2
243	1.0	7.0			400.0	0.0	0.0							5.0	0.0	0.5149624421756016	5.0	150.0	4.0	2.0	4.0	5.0	0.0	part_2
244	1.0	7.0			400.0	0.0	0.0							6.0	0.0	0.5835124299119343	6.0	150.0	2.0	7.0	2.0	2.0	0.0	part_2
245	3.0	7.0			400.0	0.0	1.0							5.0	0.0	0.39304421569249826	5.0	150.0	4.0	8.0	8.0	6.0	1.0	part_2
246	1.0	7.0			350.0	0.0	0.0							5.0	0.0	0.5190521572585567	5.0	150.0	3.0	4.0	3.0	7.0	0.0	part_2
247	4.0	7.0			350.0	0.0	1.0							6.0	0.0	0.0	0.0	150.0	3.0	1.0	7.0	1.0	1.0	part_2
248	1.0	7.0			350.0	0.0	0.0							5.0	0.0	0.3506224256925634	5.0	200.0	1.0	5.0	1.0	4.0	0.0	part_2
249	1.0	7.0			350.0	0.0	0.0							5.0	0.0	0.6324171285159537	5.0	200.0	1.0	5.0	1.0	4.0	0.0	part_2
250	4.0	7.0			350.0	0.0	1.0							6.0	0.0	0.0	0.0	200.0	4.0	8.0	8.0	6.0	1.0	part_2
251	1.0	7.0			350.0	0.0	0.0							5.0	0.0	0.45427963651309256	5.0	250.0	4.0	2.0	4.0	5.0	0.0	part_2
252	1.0	8.0			350.0	0.0	0.0							6.0	0.0	0.6213528129956103	6.0	250.0	4.0	2.0	4.0	5.0	0.0	part_2
253	1.0	8.0			350.0	0.0	0.0							6.0	0.0	0.32818842522101477	6.0	250.0	4.0	2.0	4.0	5.0	0.0	part_2
254	3.0	8.0			350.0	0.0	1.0							5.0	0.0	0.32813462644116953	5.0	250.0	2.0	6.0	6.0	3.0	1.0	part_2
255	1.0	8.0			300.0	0.0	1.0							6.0	0.0	0.7126929001751705	6.0	250.0	3.0	1.0	7.0	1.0	0.0	part_2
256	1.0	8.0			300.0	0.0	0.0							5.0	0.0	0.29781312921841163	5.0	250.0	4.0	2.0	4.0	5.0	0.0	part_2
257	4.0	8.0			300.0	0.0	1.0							6.0	0.0	0.0	0.0	250.0	2.0	6.0	6.0	3.0	1.0	part_2
258	4.0	8.0			300.0	0.0	1.0							6.0	0.0	0.0	0.0	300.0	2.0	6.0	6.0	3.0	1.0	part_2
259	1.0	8.0			300.0	0.0	0.0							5.0	0.0	0.36676533826539526	5.0	350.0	1.0	5.0	1.0	4.0	0.0	part_2
260	1.0	8.0			300.0	0.0	1.0							6.0	0.0	0.7837043024774175	6.0	350.0	1.0	3.0	5.0	8.0	0.0	part_2
261	1.0	8.0			300.0	0.0	0.0							6.0	0.0	0.5037622387390002	6.0	350.0	4.0	2.0	4.0	5.0	0.0	part_2
262	3.0	8.0			300.0	0.0	1.0							5.0	0.0	0.31137596473126905	5.0	350.0	3.0	1.0	7.0	1.0	1.0	part_2
263	1.0	8.0			250.0	0.0	0.0							5.0	0.0	0.4711647582225851	5.0	350.0	4.0	2.0	4.0	5.0	0.0	part_2
264	1.0	8.0			250.0	0.0	0.0							6.0	0.0	0.32546089695824776	6.0	350.0	1.0	5.0	1.0	4.0	0.0	part_2
265	3.0	8.0			250.0	0.0	1.0							5.0	0.0	0.3158019659531419	5.0	350.0	1.0	3.0	5.0	8.0	1.0	part_2
266	4.0	8.0			200.0	0.0	1.0							5.0	0.0	0.0	0.0	350.0	3.0	1.0	7.0	1.0	1.0	part_2
267	4.0	8.0			250.0	0.0	1.0							5.0	0.0	0.0	0.0	350.0	1.0	3.0	5.0	8.0	1.0	part_2
268	1.0	8.0			300.0	0.0	0.0							5.0	0.0	0.5553577469618176	5.0	350.0	4.0	2.0	4.0	5.0	0.0	part_2
269	1.0	8.0			300.0	0.0	0.0							6.0	0.0	0.3750094117349363	6.0	350.0	1.0	5.0	1.0	4.0	0.0	part_2
270	1.0	8.0			300.0	0.0	1.0							5.0	0.0	0.6244641054436215	5.0	350.0	3.0	1.0	7.0	1.0	0.0	part_2
271	1.0	8.0			300.0	0.0	1.0							6.0	0.0	0.6687157994383597	6.0	350.0	4.0	8.0	8.0	6.0	0.0	part_2
272	1.0	8.0			300.0	0.0	0.0							6.0	0.0	0.46704497348400764	6.0	350.0	2.0	7.0	2.0	2.0	0.0	part_2
273	1.0	8.0			300.0	0.0	1.0							6.0	0.0	0.2890168732192251	6.0	350.0	2.0	6.0	6.0	3.0	0.0	part_2
274	4.0	8.0			300.0	0.0	1.0							6.0	0.0	0.0	0.0	350.0	2.0	6.0	6.0	3.0	1.0	part_2
275	1.0	8.0			300.0	0.0	0.0							6.0	0.0	0.48156839948205743	6.0	400.0	3.0	4.0	3.0	7.0	0.0	part_2
276	3.0	8.0			300.0	0.0	1.0							6.0	0.0	0.3482400891734869	6.0	400.0	2.0	6.0	6.0	3.0	1.0	part_2
277	1.0	8.0			300.0	0.0	0.0							6.0	0.0	0.5399776581762126	6.0	350.0	1.0	5.0	1.0	4.0	0.0	part_2
278	4.0	8.0			300.0	0.0	1.0							5.0	0.0	0.0	0.0	350.0	4.0	8.0	8.0	6.0	1.0	part_2
279	4.0	8.0			350.0	0.0	1.0							5.0	0.0	0.0	0.0	350.0	2.0	6.0	6.0	3.0	1.0	part_2
280	4.0	8.0			400.0	0.0	1.0							6.0	0.0	0.0	0.0	350.0	4.0	8.0	8.0	6.0	1.0	part_2
281	1.0	8.0			400.0	0.0	0.0							6.0	0.0	0.5208005754393525	6.0	400.0	4.0	2.0	4.0	5.0	0.0	part_2
282	1.0	8.0			400.0	0.0	0.0							5.0	0.0	0.31962111948087113	5.0	400.0	3.0	4.0	3.0	7.0	0.0	part_2
283	3.0	8.0			400.0	0.0	1.0							6.0	0.0	0.2867609234381234	6.0	400.0	4.0	8.0	8.0	6.0	1.0	part_2
284	1.0	8.0			400.0	0.0	0.0							6.0	0.0	0.43218800517206546	6.0	350.0	4.0	2.0	4.0	5.0	0.0	part_2
285	1.0	8.0			400.0	0.0	0.0							5.0	0.0	0.343688452434435	5.0	350.0	3.0	4.0	3.0	7.0	0.0	part_2
286	1.0	8.0			400.0	0.0	0.0							6.0	0.0	0.27646207100042375	6.0	350.0	3.0	4.0	3.0	7.0	0.0	part_2
287	3.0	8.0			400.0	0.0	1.0							5.0	0.0	0.27756162566220155	5.0	350.0	2.0	6.0	6.0	3.0	1.0	part_2
0	0.0	1.0	294.0	6.0	0.0	2.0	0.0	147.0	245.0	196.0	98.0	294.0	49.0	7.0	0.0	0.0189565356267849	5.0	0.0	4.0	2.0	4.0	5.0	0.0	part_3
1	0.0	1.0	216.0	4.0	0.0	1.0	0.0	54.0	216.0	324.0	108.0	162.0	270.0	7.0	0.0	3.0465937928966014	2.0	0.0	2.0	7.0	2.0	2.0	0.0	part_3
2	0.0	1.0	34.0	1.0	0.0	1.0	1.0	34.0	170.0	204.0	68.0	136.0	102.0	7.0	0.0	2.01437435758271	1.0	0.0	2.0	6.0	6.0	3.0	0.0	part_3
3	0.0	1.0	68.0	2.0	0.0	1.0	1.0	170.0	34.0	204.0	136.0	102.0	68.0	7.0	0.0	2.0252953063172754	6.0	0.0	1.0	3.0	5.0	8.0	0.0	part_3
4	0.0	1.0	162.0	3.0	0.0	1.0	0.0	324.0	108.0	54.0	270.0	162.0	216.0	7.0	0.0	1.5554580798998359	5.0	0.0	2.0	7.0	2.0	2.0	0.0	part_3
5	0.0	1.0	170.0	5.0	0.0	1.0	0.0	102.0	34.0	204.0	170.0	136.0	68.0	7.0	0.0	2.7822007038994343	4.0	0.0	3.0	4.0	3.0	7.0	0.0	part_3
6	0.0	1.0	108.0	2.0	0.0	1.0	1.0	108.0	270.0	324.0	54.0	216.0	162.0	7.0	0.0	3.323455114266835	1.0	0.0	3.0	1.0	7.0	1.0	0.0	part_3
7	0.0	1.0	78.0	2.0	0.0	1.0	0.0	78.0	195.0	117.0	156.0	234.0	39.0	7.0	0.0	2.727369881948107	1.0	0.0	1.0	5.0	1.0	4.0	0.0	part_3
8	0.0	1.0	264.0	6.0	0.0	1.0	0.0	44.0	88.0	132.0	220.0	264.0	176.0	7.0	0.0	1.9414533658564324	5.0	0.0	4.0	2.0	4.0	5.0	0.0	part_3
9	0.0	1.0	117.0	3.0	0.0	1.0	1.0	156.0	39.0	195.0	78.0	117.0	234.0	7.0	0.0	2.471206372581946	5.0	0.0	4.0	8.0	8.0	6.0	0.0	part_3
10	0.0	1.0	108.0	2.0	0.0	1.0	1.0	324.0	54.0	216.0	270.0	162.0	108.0	7.0	0.0	3.0015812339479453	6.0	0.0	1.0	3.0	5.0	8.0	0.0	part_3
11	0.0	1.0	220.0	5.0	0.0	1.0	0.0	44.0	132.0	88.0	264.0	176.0	220.0	7.0	0.0	2.5421572409031796	6.0	0.0	3.0	4.0	3.0	7.0	0.0	part_3
12	0.0	1.0	117.0	3.0	0.0	1.0	0.0	78.0	156.0	39.0	117.0	195.0	234.0	7.0	0.0	3.19400801431766	4.0	0.0	1.0	5.0	1.0	4.0	0.0	part_3
13	0.0	1.0	54.0	1.0	0.0	2.0	1.0	270.0	108.0	324.0	162.0	54.0	216.0	7.0	0.0	1.7976457162658335	5.0	0.0	2.0	6.0	6.0	3.0	0.0	part_3
14	0.0	1.0	117.0	3.0	0.0	1.0	0.0	156.0	117.0	195.0	39.0	234.0	78.0	7.0	0.0	2.4386252352123847	2.0	0.0	4.0	2.0	4.0	5.0	0.0	part_3
15	0.0	1.0	156.0	4.0	0.0	1.0	0.0	234.0	156.0	195.0	78.0	117.0	39.0	7.0	0.0	3.655132510633848	2.0	0.0	3.0	4.0	3.0	7.0	0.0	part_3
16	0.0	1.0	196.0	4.0	0.0	2.0	0.0	294.0	245.0	98.0	196.0	147.0	49.0	7.0	0.0	1.9996784606337314	4.0	0.0	2.0	7.0	2.0	2.0	0.0	part_3
17	0.0	1.0	220.0	5.0	0.0	1.0	0.0	44.0	176.0	264.0	132.0	88.0	220.0	7.0	0.0	3.464284430949192	6.0	0.0	3.0	4.0	3.0	7.0	0.0	part_3
18	0.0	1.0	132.0	3.0	0.0	2.0	0.0	220.0	88.0	132.0	44.0	264.0	176.0	7.0	0.0	1.344930998631753	3.0	0.0	2.0	7.0	2.0	2.0	0.0	part_3
19	0.0	1.0	216.0	4.0	0.0	1.0	0.0	108.0	162.0	54.0	216.0	270.0	324.0	7.0	0.0	3.449969746543502	4.0	0.0	3.0	4.0	3.0	7.0	0.0	part_3
20	0.0	2.0	195.0	5.0	0.0	1.0	0.0	117.0	156.0	234.0	195.0	78.0	39.0	7.0	0.0	2.529962070584588	4.0	0.0	4.0	2.0	4.0	5.0	0.0	part_3
21	0.0	2.0	78.0	2.0	0.0	1.0	1.0	195.0	156.0	78.0	234.0	117.0	39.0	7.0	0.0	2.768624822216225	3.0	0.0	2.0	6.0	6.0	3.0	0.0	part_3
22	0.0	2.0	220.0	5.0	0.0	1.0	0.0	220.0	44.0	132.0	88.0	264.0	176.0	7.0	0.0	2.5322251929537742	1.0	0.0	4.0	2.0	4.0	5.0	0.0	part_3
23	0.0	2.0	170.0	5.0	0.0	1.0	1.0	136.0	102.0	68.0	34.0	170.0	204.0	7.0	0.0	2.082665470588836	5.0	0.0	3.0	1.0	7.0	1.0	0.0	part_3
24	0.0	2.0	270.0	5.0	0.0	1.0	0.0	108.0	54.0	216.0	324.0	270.0	162.0	7.0	0.0	3.7045189370037406	5.0	0.0	3.0	4.0	3.0	7.0	0.0	part_3
25	0.0	2.0	108.0	2.0	0.0	1.0	0.0	324.0	270.0	162.0	54.0	216.0	108.0	7.0	0.0	2.9626259428987396	6.0	0.0	1.0	5.0	1.0	4.0	0.0	part_3
26	0.0	2.0	98.0	2.0	0.0	1.0	0.0	98.0	49.0	294.0	245.0	147.0	196.0	7.0	0.0	4.9105839133117115	1.0	0.0	1.0	5.0	1.0	4.0	0.0	part_3
27	0.0	2.0	98.0	2.0	0.0	1.0	1.0	49.0	294.0	245.0	196.0	98.0	147.0	7.0	0.0	4.697836723898945	5.0	0.0	3.0	1.0	7.0	1.0	0.0	part_3
28	0.0	2.0	204.0	6.0	0.0	1.0	0.0	170.0	136.0	204.0	102.0	68.0	34.0	7.0	0.0	3.498177192217554	3.0	0.0	4.0	2.0	4.0	5.0	0.0	part_3
29	0.0	2.0	98.0	2.0	0.0	1.0	1.0	98.0	147.0	49.0	245.0	294.0	196.0	7.0	0.0	3.116164690902224	1.0	0.0	1.0	3.0	5.0	8.0	0.0	part_3
30	0.0	2.0	102.0	3.0	0.0	1.0	0.0	34.0	102.0	136.0	204.0	68.0	170.0	7.0	0.0	3.3871770365876728	2.0	0.0	1.0	5.0	1.0	4.0	0.0	part_3
31	0.0	2.0	196.0	4.0	0.0	1.0	0.0	98.0	294.0	147.0	196.0	245.0	49.0	7.0	0.0	2.3439503105400945	4.0	0.0	3.0	4.0	3.0	7.0	0.0	part_3
32	0.0	2.0	98.0	2.0	0.0	1.0	1.0	196.0	98.0	245.0	294.0	49.0	147.0	7.0	0.0	3.5371654765403946	2.0	0.0	3.0	1.0	7.0	1.0	0.0	part_3
33	0.0	2.0	176.0	4.0	0.0	1.0	1.0	44.0	220.0	132.0	88.0	176.0	264.0	7.0	0.0	4.155504942267726	5.0	0.0	4.0	8.0	8.0	6.0	0.0	part_3
34	0.0	2.0	245.0	5.0	0.0	1.0	0.0	294.0	98.0	49.0	245.0	147.0	196.0	7.0	0.0	2.8725941535885795	4.0	0.0	3.0	4.0	3.0	7.0	0.0	part_3
35	0.0	2.0	102.0	3.0	0.0	1.0	1.0	34.0	136.0	68.0	170.0	102.0	204.0	7.0	0.0	2.716222201634082	5.0	0.0	4.0	8.0	8.0	6.0	0.0	part_3
36	0.0	2.0	147.0	3.0	0.0	1.0	0.0	49.0	196.0	98.0	147.0	294.0	245.0	7.0	0.0	2.3346760980057297	4.0	0.0	2.0	7.0	2.0	2.0	0.0	part_3
37	0.0	2.0	270.0	5.0	0.0	1.0	0.0	270.0	54.0	108.0	162.0	216.0	324.0	7.0	0.0	4.676091865905619	1.0	0.0	4.0	2.0	4.0	5.0	0.0	part_3
38	0.0	2.0	117.0	3.0	0.0	1.0	1.0	78.0	156.0	234.0	39.0	195.0	117.0	7.0	0.0	4.437656932270329	6.0	0.0	3.0	1.0	7.0	1.0	0.0	part_3
39	0.0	2.0	176.0	4.0	0.0	1.0	0.0	176.0	264.0	44.0	220.0	88.0	132.0	7.0	0.0	4.668568677538133	1.0	0.0	2.0	7.0	2.0	2.0	0.0	part_3
40	0.0	3.0	98.0	2.0	0.0	1.0	1.0	147.0	49.0	245.0	196.0	98.0	294.0	7.0	0.0	1.8075020003161626	5.0	0.0	1.0	3.0	5.0	8.0	0.0	part_3
41	0.0	3.0	108.0	2.0	0.0	1.0	1.0	270.0	108.0	216.0	162.0	54.0	324.0	7.0	0.0	2.9684210668565356	2.0	0.0	4.0	8.0	8.0	6.0	0.0	part_3
42	0.0	3.0	88.0	2.0	0.0	1.0	1.0	176.0	88.0	132.0	44.0	220.0	264.0	7.0	0.0	2.7115375059947837	2.0	0.0	2.0	6.0	6.0	3.0	0.0	part_3
43	0.0	3.0	98.0	2.0	0.0	1.0	1.0	49.0	245.0	98.0	196.0	294.0	147.0	7.0	0.0	4.422564044267347	3.0	0.0	4.0	8.0	8.0	6.0	0.0	part_3
44	0.0	3.0	147.0	3.0	0.0	1.0	0.0	147.0	196.0	294.0	98.0	245.0	49.0	7.0	0.0	2.2972182149533182	1.0	0.0	1.0	5.0	1.0	4.0	0.0	part_3
45	0.0	3.0	156.0	4.0	0.0	1.0	1.0	78.0	156.0	234.0	117.0	39.0	195.0	7.0	0.0	3.9522219008940738	2.0	0.0	3.0	1.0	7.0	1.0	0.0	part_3
46	0.0	3.0	98.0	2.0	0.0	1.0	1.0	245.0	98.0	196.0	49.0	147.0	294.0	7.0	0.0	3.417797792957572	2.0	0.0	4.0	8.0	8.0	6.0	0.0	part_3
47	0.0	3.0	245.0	5.0	0.0	1.0	0.0	196.0	245.0	49.0	98.0	294.0	147.0	7.0	0.0	3.5878127725809463	2.0	0.0	4.0	2.0	4.0	5.0	0.0	part_3
48	0.0	3.0	88.0	2.0	0.0	1.0	1.0	88.0	176.0	220.0	132.0	264.0	44.0	7.0	0.0	3.3407950668988633	1.0	0.0	1.0	3.0	5.0	8.0	0.0	part_3
49	0.0	3.0	78.0	2.0	0.0	1.0	1.0	78.0	195.0	234.0	156.0	39.0	117.0	7.0	0.0	2.2061358365390333	1.0	0.0	1.0	3.0	5.0	8.0	0.0	part_3
50	0.0	3.0	102.0	3.0	0.0	1.0	1.0	68.0	34.0	102.0	170.0	204.0	136.0	7.0	0.0	2.2182783502648817	3.0	0.0	3.0	1.0	7.0	1.0	0.0	part_3
51	0.0	3.0	204.0	6.0	0.0	1.0	0.0	102.0	68.0	170.0	34.0	136.0	204.0	7.0	0.0	2.5354894952179166	6.0	0.0	4.0	2.0	4.0	5.0	0.0	part_3
52	0.0	3.0	68.0	2.0	0.0	1.0	1.0	68.0	136.0	170.0	204.0	34.0	102.0	7.0	0.0	3.300488527631387	1.0	0.0	1.0	3.0	5.0	8.0	0.0	part_3
53	0.0	3.0	136.0	4.0	0.0	1.0	0.0	204.0	68.0	102.0	136.0	170.0	34.0	7.0	0.0	2.9537542232719716	4.0	0.0	2.0	7.0	2.0	2.0	0.0	part_3
54	0.0	3.0	108.0	2.0	0.0	1.0	1.0	324.0	54.0	162.0	270.0	108.0	216.0	7.0	0.0	4.135128645000805	5.0	0.0	2.0	6.0	6.0	3.0	0.0	part_3
55	0.0	3.0	204.0	6.0	0.0	1.0	0.0	170.0	68.0	136.0	102.0	204.0	34.0	7.0	0.0	4.196484744854388	5.0	0.0	3.0	4.0	3.0	7.0	0.0	part_3
56	0.0	3.0	78.0	2.0	0.0	1.0	1.0	234.0	78.0	39.0	195.0	156.0	117.0	7.0	0.0	3.8001578485345817	2.0	0.0	2.0	6.0	6.0	3.0	0.0	part_3
57	0.0	3.0	132.0	3.0	0.0	1.0	0.0	176.0	264.0	220.0	88.0	44.0	132.0	7.0	0.0	4.6793897449970245	6.0	0.0	1.0	5.0	1.0	4.0	0.0	part_3
58	0.0	3.0	108.0	2.0	0.0	1.0	1.0	270.0	216.0	324.0	108.0	54.0	162.0	7.0	0.0	3.4615514118995634	4.0	0.0	3.0	1.0	7.0	1.0	0.0	part_3
59	0.0	3.0	117.0	3.0	0.0	1.0	0.0	156.0	117.0	78.0	39.0	234.0	195.0	7.0	0.0	3.7203917415317846	2.0	0.0	2.0	7.0	2.0	2.0	0.0	part_3
60	0.0	4.0	108.0	2.0	0.0	1.0	1.0	324.0	54.0	270.0	162.0	108.0	216.0	7.0	0.0	4.505948894315225	5.0	0.0	1.0	3.0	5.0	8.0	0.0	part_3
61	0.0	4.0	132.0	3.0	0.0	1.0	1.0	132.0	220.0	44.0	88.0	264.0	176.0	7.0	0.0	4.975202466266637	1.0	0.0	4.0	8.0	8.0	6.0	0.0	part_3
62	0.0	4.0	117.0	3.0	0.0	1.0	1.0	78.0	234.0	156.0	39.0	195.0	117.0	7.0	0.0	4.550573403314047	6.0	0.0	4.0	8.0	8.0	6.0	0.0	part_3
63	0.0	4.0	156.0	4.0	0.0	1.0	0.0	78.0	234.0	156.0	195.0	117.0	39.0	7.0	0.0	4.749304367898731	3.0	0.0	2.0	7.0	2.0	2.0	0.0	part_3
64	0.0	4.0	108.0	2.0	0.0	1.0	0.0	216.0	162.0	54.0	108.0	270.0	324.0	7.0	0.0	3.3879559705383144	4.0	0.0	1.0	5.0	1.0	4.0	0.0	part_3
65	0.0	4.0	68.0	2.0	0.0	1.0	1.0	68.0	136.0	170.0	102.0	204.0	34.0	7.0	0.0	2.6899475002719555	1.0	0.0	2.0	6.0	6.0	3.0	0.0	part_3
66	0.0	4.0	216.0	4.0	0.0	1.0	0.0	108.0	54.0	216.0	162.0	324.0	270.0	7.0	0.0	4.43639087631891	3.0	0.0	4.0	2.0	4.0	5.0	0.0	part_3
67	0.0	4.0	108.0	2.0	0.0	1.0	1.0	54.0	324.0	270.0	108.0	216.0	162.0	7.0	0.0	3.5081716988497647	4.0	0.0	4.0	8.0	8.0	6.0	0.0	part_3
68	0.0	4.0	234.0	6.0	0.0	1.0	0.0	39.0	78.0	117.0	234.0	195.0	156.0	7.0	0.0	2.642983066951274	4.0	0.0	3.0	4.0	3.0	7.0	0.0	part_3
69	0.0	4.0	88.0	2.0	0.0	1.0	1.0	132.0	264.0	220.0	44.0	176.0	88.0	7.0	0.0	2.50967187826609	6.0	0.0	2.0	6.0	6.0	3.0	0.0	part_3
70	0.0	4.0	136.0	4.0	0.0	2.0	0.0	102.0	204.0	136.0	68.0	34.0	170.0	7.0	0.0	1.561800750947441	3.0	0.0	1.0	5.0	1.0	4.0	0.0	part_3
71	0.0	4.0	170.0	5.0	0.0	1.0	0.0	68.0	170.0	136.0	102.0	34.0	204.0	7.0	0.0	3.0928226899486617	2.0	0.0	2.0	7.0	2.0	2.0	0.0	part_3
72	0.0	4.0	78.0	2.0	0.0	1.0	1.0	156.0	195.0	234.0	117.0	78.0	39.0	7.0	0.0	2.778756359271938	5.0	0.0	1.0	3.0	5.0	8.0	0.0	part_3
73	0.0	4.0	88.0	2.0	0.0	2.0	1.0	44.0	132.0	176.0	220.0	88.0	264.0	7.0	0.0	0.3232751912655658	5.0	0.0	3.0	1.0	7.0	1.0	0.0	part_3
74	0.0	4.0	132.0	3.0	0.0	1.0	0.0	264.0	220.0	44.0	176.0	132.0	88.0	7.0	0.0	3.4635998185840435	5.0	0.0	1.0	5.0	1.0	4.0	0.0	part_3
75	0.0	4.0	88.0	2.0	0.0	1.0	1.0	44.0	88.0	176.0	132.0	220.0	264.0	7.0	0.0	2.001877088630863	2.0	0.0	1.0	3.0	5.0	8.0	0.0	part_3
76	0.0	4.0	88.0	2.0	0.0	1.0	1.0	88.0	132.0	44.0	176.0	220.0	264.0	7.0	0.0	3.140503279209952	1.0	0.0	3.0	1.0	7.0	1.0	0.0	part_3
77	0.0	4.0	102.0	3.0	0.0	1.0	1.0	68.0	204.0	170.0	136.0	34.0	102.0	7.0	0.0	3.7935403536321246	6.0	0.0	4.0	8.0	8.0	6.0	0.0	part_3
78	0.0	4.0	98.0	2.0	0.0	1.0	1.0	49.0	294.0	147.0	98.0	196.0	245.0	7.0	0.0	3.52509496431594	4.0	0.0	2.0	6.0	6.0	3.0	0.0	part_3
79	0.0	4.0	98.0	2.0	0.0	1.0	1.0	294.0	147.0	245.0	196.0	49.0	98.0	7.0	0.0	3.549195588217117	6.0	0.0	2.0	6.0	6.0	3.0	0.0	part_3
