	accuracy	block	chosen_bidding_amount	chosen_bidding_level	left_SSD	num_trial_presentations	paired_with_stopping	possible_bid_1	possible_bid_2	possible_bid_3	possible_bid_4	possible_bid_5	possible_bid_6	quadrant	raw_reward_magnitude	reaction_time	response	right_SSD	stepwise_reward_magnitude	stim_color	stim_reward	stim_shape	stop_signal_trial_type	which_part
0		1.0				1.0	0.0							2.0	33.0	0.43838004147983156	2.0		1.0	6.0	1.0	7.0		part_1
1		1.0				1.0	1.0							2.0	184.0	0.3717678294633515	2.0		3.0	5.0	7.0	8.0		part_1
2		1.0				1.0	0.0							3.0	0.0	0.4042569269804517	3.0		0.0	8.0	2.0	2.0		part_1
3		1.0				1.0	1.0							3.0	219.0	0.4720472204426187	3.0		3.0	5.0	7.0	8.0		part_1
4		1.0				1.0	0.0							4.0	0.0	0.3381090744660469	4.0		0.0	8.0	2.0	2.0		part_1
5		1.0				1.0	0.0							1.0	0.0	0.32874037649162346	1.0		0.0	4.0	3.0	6.0		part_1
6		1.0				1.0	0.0							1.0	80.0	0.351978615479311	1.0		2.0	8.0	2.0	2.0		part_1
7		1.0				1.0	1.0							2.0	205.0	0.3305197899826453	2.0		3.0	5.0	7.0	8.0		part_1
8		1.0				1.0	1.0							4.0	380.0	0.33039284799451707	4.0		4.0	1.0	8.0	5.0		part_1
9		1.0				1.0	0.0							4.0	0.0	0.35150460446311627	4.0		0.0	8.0	2.0	2.0		part_1
10		1.0				1.0	1.0							4.0	68.0	0.3082878354762215	4.0		1.0	2.0	5.0	4.0		part_1
11		1.0				1.0	0.0							3.0	0.0	0.2737277034611907	3.0		0.0	6.0	1.0	7.0		part_1
12		1.0				1.0	1.0							2.0	393.0	0.35552917098539183	2.0		4.0	1.0	8.0	5.0		part_1
13		1.0				1.0	1.0							4.0	0.0	0.33152890299243154	4.0		0.0	7.0	6.0	1.0		part_1
14		1.0				1.0	1.0							3.0	0.0	0.3675017389759887	3.0		0.0	2.0	5.0	4.0		part_1
15		1.0				1.0	1.0							1.0	419.0	0.3673315804480808	1.0		4.0	1.0	8.0	5.0		part_1
16		1.0				1.0	1.0							3.0	86.0	0.28794817448215326	3.0		2.0	7.0	6.0	1.0		part_1
17		1.0				2.0	1.0							1.0	58.0	0.43603213848837186	1.0		1.0	2.0	5.0	4.0		part_1
18		1.0				1.0	0.0							4.0	0.0	0.3245766289619496	4.0		0.0	4.0	3.0	6.0		part_1
19		1.0				1.0	1.0							4.0	414.0	0.32390194097388303	4.0		4.0	1.0	8.0	5.0		part_1
20		1.0				1.0	0.0							2.0	75.0	0.3481157129863277	2.0		2.0	8.0	2.0	2.0		part_1
21		1.0				1.0	1.0							3.0	385.0	0.32669869996607304	3.0		4.0	1.0	8.0	5.0		part_1
22		1.0				1.0	0.0							4.0	121.0	0.3941080734875868	4.0		2.0	8.0	2.0	2.0		part_1
23		1.0				1.0	0.0							3.0	34.0	0.33786839211097686	3.0		1.0	6.0	1.0	7.0		part_1
24		1.0				1.0	1.0							3.0	62.0	0.36151256043376634	3.0		1.0	2.0	5.0	4.0		part_1
25		1.0				1.0	0.0							1.0	66.0	0.38454380297480384	1.0		1.0	6.0	1.0	7.0		part_1
26		1.0				1.0	1.0							1.0	86.0	0.4740568714623805	1.0		2.0	7.0	6.0	1.0		part_1
27		1.0				1.0	1.0							2.0	411.0	0.3283915249776328	2.0		4.0	1.0	8.0	5.0		part_1
28		1.0				1.0	1.0							1.0	51.0	0.38701091298571555	1.0		1.0	2.0	5.0	4.0		part_1
29		1.0				1.0	0.0							4.0	195.0	0.39725245044974145	4.0		3.0	4.0	3.0	6.0		part_1
30		1.0				1.0	0.0							4.0	191.0	0.33082053445104975	4.0		3.0	4.0	3.0	6.0		part_1
31		1.0				1.0	1.0							1.0	94.0	0.3759600524645066	1.0		2.0	7.0	6.0	1.0		part_1
32		1.0				1.0	0.0							3.0	209.0	0.37681967976823216	3.0		3.0	4.0	3.0	6.0		part_1
33		1.0				1.0	0.0							4.0	64.0	0.38857859896234004	4.0		1.0	6.0	1.0	7.0		part_1
34		1.0				1.0	1.0							3.0	0.0	0.36588966497947695	3.0		0.0	5.0	7.0	8.0		part_1
35		1.0				1.0	1.0							1.0	66.0	0.36710640197998146	1.0		1.0	2.0	5.0	4.0		part_1
36		1.0				1.0	0.0							3.0	76.0	0.3556662334522116	3.0		2.0	8.0	2.0	2.0		part_1
37		1.0				1.0	1.0							1.0	83.0	0.3697432859844412	1.0		2.0	7.0	6.0	1.0		part_1
38		1.0				1.0	1.0							2.0	76.0	0.28948627249337733	2.0		2.0	7.0	6.0	1.0		part_1
39		1.0				1.0	0.0							2.0	68.0	0.30170261697639944	2.0		1.0	6.0	1.0	7.0		part_1
40		1.0				1.0	0.0							1.0	33.0	0.34722337296261685	1.0		1.0	6.0	1.0	7.0		part_1
41		1.0				1.0	0.0							2.0	112.0	0.38276573896291666	2.0		2.0	8.0	2.0	2.0		part_1
42		1.0				1.0	1.0							2.0	407.0	0.31498505245690467	2.0		4.0	1.0	8.0	5.0		part_1
43		1.0				1.0	0.0							2.0	409.0	0.2713848639759817	2.0		4.0	3.0	4.0	3.0		part_1
44		1.0				1.0	0.0							3.0	59.0	0.2823744554625591	3.0		1.0	6.0	1.0	7.0		part_1
45		1.0				1.0	0.0							2.0	0.0	0.42937839549267665	2.0		0.0	6.0	1.0	7.0		part_1
46		1.0				1.0	0.0							3.0	43.0	0.3068481634618365	3.0		1.0	6.0	1.0	7.0		part_1
47		1.0				1.0	1.0							3.0	63.0	0.37299125498975627	3.0		1.0	2.0	5.0	4.0		part_1
48		1.0				1.0	0.0							1.0	33.0	0.3418089989645523	1.0		1.0	6.0	1.0	7.0		part_1
49		1.0				1.0	0.0							1.0	196.0	0.3632026234845398	1.0		3.0	4.0	3.0	6.0		part_1
50		1.0				1.0	1.0							2.0	33.0	0.2629688129600254	2.0		1.0	2.0	5.0	4.0		part_1
51		1.0				1.0	1.0							2.0	0.0	0.27467294048983604	2.0		0.0	7.0	6.0	1.0		part_1
52		1.0				1.0	0.0							1.0	91.0	0.29890456846624147	1.0		2.0	8.0	2.0	2.0		part_1
53		1.0				1.0	1.0							1.0	391.0	0.3320854449775652	1.0		4.0	1.0	8.0	5.0		part_1
54		1.0				2.0	1.0							4.0	399.0	0.36624291948828613	4.0		4.0	1.0	8.0	5.0		part_1
55		1.0				1.0	1.0							3.0	197.0	0.37863388047844637	3.0		3.0	5.0	7.0	8.0		part_1
56		1.0				1.0	1.0							4.0	0.0	0.3784389594802633	4.0		0.0	5.0	7.0	8.0		part_1
57		1.0				1.0	0.0							3.0	0.0	0.3338301624826272	3.0		0.0	6.0	1.0	7.0		part_1
58		1.0				1.0	0.0							4.0	0.0	0.3360103739760234	4.0		0.0	3.0	4.0	3.0		part_1
59		1.0				1.0	1.0							4.0	0.0	0.34678546100622043	4.0		0.0	5.0	7.0	8.0		part_1
60		1.0				1.0	1.0							4.0	384.0	0.3244944999460131	4.0		4.0	1.0	8.0	5.0		part_1
61		1.0				1.0	0.0							3.0	203.0	0.359656553453533	3.0		3.0	4.0	3.0	6.0		part_1
62		1.0				1.0	0.0							2.0	200.0	0.3488811914648977	2.0		3.0	4.0	3.0	6.0		part_1
63		1.0				1.0	0.0							2.0	418.0	0.4052566759783076	2.0		4.0	3.0	4.0	3.0		part_1
64		1.0				1.0	0.0							2.0	210.0	0.3497434344681096	2.0		3.0	4.0	3.0	6.0		part_1
65		1.0				1.0	1.0							1.0	407.0	0.4081013559771236	1.0		4.0	1.0	8.0	5.0		part_1
66		1.0				1.0	0.0							3.0	381.0	0.361944334465079	3.0		4.0	3.0	4.0	3.0		part_1
67		1.0				1.0	1.0							2.0	75.0	0.31886681896139635	2.0		2.0	7.0	6.0	1.0		part_1
68		1.0				1.0	0.0							3.0	55.0	0.341228034478263	3.0		1.0	6.0	1.0	7.0		part_1
69		1.0				1.0	1.0							2.0	202.0	0.30845251349091996	2.0		3.0	5.0	7.0	8.0		part_1
70		1.0				1.0	0.0							4.0	184.0	0.3652813464650535	4.0		3.0	4.0	3.0	6.0		part_1
71		1.0				1.0	1.0							1.0	208.0	0.33091610146220773	1.0		3.0	5.0	7.0	8.0		part_1
72		1.0				1.0	0.0							1.0	182.0	0.2997346029878827	1.0		3.0	4.0	3.0	6.0		part_1
73		1.0				1.0	1.0							4.0	209.0	0.4101966079615522	4.0		3.0	5.0	7.0	8.0		part_1
74		1.0				1.0	0.0							2.0	202.0	0.3442249039580929	2.0		3.0	4.0	3.0	6.0		part_1
75		1.0				1.0	1.0							3.0	87.0	0.3908120854757726	3.0		2.0	7.0	6.0	1.0		part_1
76		1.0				1.0	1.0							1.0	80.0	0.3014827709630481	1.0		2.0	7.0	6.0	1.0		part_1
77		1.0				1.0	1.0							4.0	196.0	0.35662505997606786	4.0		3.0	5.0	7.0	8.0		part_1
78		1.0				1.0	1.0							3.0	390.0	0.3697232104896102	3.0		4.0	1.0	8.0	5.0		part_1
79		1.0				1.0	1.0							4.0	68.0	0.3465855919421301	4.0		1.0	2.0	5.0	4.0		part_1
80		1.0				1.0	0.0							4.0	0.0	0.35806394496466964	4.0		0.0	8.0	2.0	2.0		part_1
81		1.0				1.0	1.0							2.0	222.0	0.3482961004701792	2.0		3.0	5.0	7.0	8.0		part_1
82		1.0				1.0	1.0							2.0	95.0	0.3386032704875106	2.0		2.0	7.0	6.0	1.0		part_1
83		1.0				1.0	1.0							1.0	0.0	0.34886701797222486	1.0		0.0	1.0	8.0	5.0		part_1
84		1.0				1.0	1.0							2.0	64.0	0.3046576999477111	2.0		1.0	2.0	5.0	4.0		part_1
85		1.0				1.0	1.0							4.0	119.0	0.32780699547583936	4.0		2.0	7.0	6.0	1.0		part_1
86		1.0				1.0	1.0							4.0	96.0	0.3290316249913303	4.0		2.0	7.0	6.0	1.0		part_1
87		1.0				1.0	1.0							2.0	75.0	0.3510896564766881	2.0		2.0	7.0	6.0	1.0		part_1
88		1.0				1.0	1.0							2.0	0.0	0.3521234574727714	2.0		0.0	1.0	8.0	5.0		part_1
89		1.0				1.0	1.0							4.0	0.0	0.36326666145032505	4.0		0.0	2.0	5.0	4.0		part_1
90		1.0				1.0	0.0							1.0	402.0	0.3311999779762118	1.0		4.0	3.0	4.0	3.0		part_1
91		1.0				1.0	0.0							4.0	60.0	0.36441779898450477	4.0		1.0	6.0	1.0	7.0		part_1
92		1.0				1.0	0.0							4.0	95.0	0.4207233924898901	4.0		2.0	8.0	2.0	2.0		part_1
93		1.0				1.0	1.0							4.0	101.0	0.34351020649046404	4.0		2.0	7.0	6.0	1.0		part_1
94		1.0				1.0	1.0							1.0	204.0	0.3226649654607172	1.0		3.0	5.0	7.0	8.0		part_1
95		1.0				1.0	0.0							2.0	86.0	0.3225772094738204	2.0		2.0	8.0	2.0	2.0		part_1
96		1.0				1.0	1.0							2.0	54.0	0.3568418814757024	2.0		1.0	2.0	5.0	4.0		part_1
97		1.0				1.0	0.0							2.0	51.0	0.34522541747719515	2.0		1.0	6.0	1.0	7.0		part_1
98		1.0				1.0	0.0							1.0	392.0	0.3462460669616121	1.0		4.0	3.0	4.0	3.0		part_1
99		1.0				1.0	1.0							4.0	0.0	0.3910480289705447	4.0		0.0	2.0	5.0	4.0		part_1
100		2.0				1.0	1.0							4.0	225.0	0.36142890398332383	4.0		3.0	5.0	7.0	8.0		part_1
101		2.0				1.0	1.0							4.0	189.0	0.40809214494220214	4.0		3.0	5.0	7.0	8.0		part_1
102		2.0				1.0	1.0							1.0	184.0	0.30656147597619565	1.0		3.0	5.0	7.0	8.0		part_1
103		2.0				1.0	0.0							1.0	50.0	0.3993954569887137	1.0		1.0	6.0	1.0	7.0		part_1
104		2.0				1.0	1.0							3.0	27.0	0.3637758564509568	3.0		1.0	2.0	5.0	4.0		part_1
105		2.0				1.0	0.0							1.0	0.0	0.36571597146394197	1.0		0.0	3.0	4.0	3.0		part_1
106		2.0				1.0	0.0							3.0	86.0	0.2873858959865174	3.0		2.0	8.0	2.0	2.0		part_1
107		2.0				1.0	1.0							3.0	111.0	0.3994015909920563	3.0		2.0	7.0	6.0	1.0		part_1
108		2.0				1.0	0.0							4.0	0.0	0.4003093544670264	4.0		0.0	4.0	3.0	6.0		part_1
109		2.0				1.0	0.0							2.0	423.0	0.36826500646566274	2.0		4.0	3.0	4.0	3.0		part_1
110		2.0				1.0	0.0							2.0	0.0	0.3808021209697472	2.0		0.0	6.0	1.0	7.0		part_1
111		2.0				1.0	0.0							4.0	63.0	0.32416330344130984	4.0		1.0	6.0	1.0	7.0		part_1
112		2.0				1.0	0.0							3.0	0.0	0.3138477439933922	3.0		0.0	3.0	4.0	3.0		part_1
113		2.0				1.0	0.0							3.0	424.0	0.3353183379585971	3.0		4.0	3.0	4.0	3.0		part_1
114		2.0				1.0	0.0							3.0	380.0	0.31381828596204286	3.0		4.0	3.0	4.0	3.0		part_1
115		2.0				1.0	1.0							4.0	0.0	0.28171004899195395	4.0		0.0	2.0	5.0	4.0		part_1
116		2.0				1.0	0.0							4.0	0.0	0.32516373445105273	4.0		0.0	3.0	4.0	3.0		part_1
117		2.0				1.0	1.0							4.0	35.0	0.3043273879593471	4.0		1.0	2.0	5.0	4.0		part_1
118		2.0				1.0	1.0							2.0	0.0	0.3387609099445399	2.0		0.0	5.0	7.0	8.0		part_1
119		2.0				1.0	0.0							3.0	0.0	0.29308916798618156	3.0		0.0	4.0	3.0	6.0		part_1
120		2.0				1.0	1.0							2.0	35.0	0.2942644549621036	2.0		1.0	2.0	5.0	4.0		part_1
121		2.0				1.0	1.0							4.0	198.0	0.3176571254807641	4.0		3.0	5.0	7.0	8.0		part_1
122		2.0				1.0	1.0							4.0	50.0	0.3295217099657748	4.0		1.0	2.0	5.0	4.0		part_1
123		2.0				1.0	1.0							2.0	117.0	0.28616025947849266	2.0		2.0	7.0	6.0	1.0		part_1
124		2.0				1.0	0.0							4.0	27.0	0.2978553899592953	4.0		1.0	6.0	1.0	7.0		part_1
125		2.0				1.0	0.0							4.0	0.0	0.28667749647866003	4.0		0.0	4.0	3.0	6.0		part_1
126		2.0				1.0	1.0							2.0	190.0	0.31995325197203783	2.0		3.0	5.0	7.0	8.0		part_1
127		2.0				1.0	0.0							4.0	0.0	0.37756667097710306	4.0		0.0	6.0	1.0	7.0		part_1
128		2.0				1.0	1.0							4.0	46.0	0.29806728547555394	4.0		1.0	2.0	5.0	4.0		part_1
129		2.0				1.0	1.0							3.0	380.0	0.3213367784410366	3.0		4.0	1.0	8.0	5.0		part_1
130		2.0				1.0	0.0							4.0	414.0	0.334647646479425	4.0		4.0	3.0	4.0	3.0		part_1
131		2.0				1.0	1.0							1.0	395.0	0.3343797079869546	1.0		4.0	1.0	8.0	5.0		part_1
132		2.0				1.0	0.0							3.0	58.0	0.31282949796150206	3.0		1.0	6.0	1.0	7.0		part_1
133		2.0				1.0	0.0							3.0	391.0	0.27819378998538014	3.0		4.0	3.0	4.0	3.0		part_1
134		2.0				1.0	1.0							3.0	418.0	0.31380021444056183	3.0		4.0	1.0	8.0	5.0		part_1
135		2.0				1.0	0.0							4.0	76.0	0.33687556596123613	4.0		2.0	8.0	2.0	2.0		part_1
136		2.0				1.0	1.0							3.0	105.0	0.3037173219927354	3.0		2.0	7.0	6.0	1.0		part_1
137		2.0				1.0	0.0							2.0	223.0	0.2807155249392963	2.0		3.0	4.0	3.0	6.0		part_1
138		2.0				1.0	0.0							3.0	0.0	0.31536082449019887	3.0		0.0	6.0	1.0	7.0		part_1
139		2.0				1.0	1.0							4.0	0.0	0.30431373397732386	4.0		0.0	7.0	6.0	1.0		part_1
140		2.0				1.0	0.0							2.0	0.0	0.307193001244741	2.0		0.0	8.0	2.0	2.0		part_1
141		2.0				1.0	0.0							1.0	121.0	0.385037776963145	1.0		2.0	8.0	2.0	2.0		part_1
142		2.0				1.0	0.0							4.0	390.0	0.31898543847637484	4.0		4.0	3.0	4.0	3.0		part_1
143		2.0				1.0	0.0							3.0	391.0	0.3080122594765271	3.0		4.0	3.0	4.0	3.0		part_1
144		2.0				1.0	0.0							3.0	104.0	0.29743085994414287	3.0		2.0	8.0	2.0	2.0		part_1
145		2.0				1.0	1.0							3.0	203.0	0.36478493348840857	3.0		3.0	5.0	7.0	8.0		part_1
146		2.0				1.0	1.0							4.0	398.0	0.3867845334825688	4.0		4.0	1.0	8.0	5.0		part_1
147		2.0				2.0	0.0							2.0	193.0	0.2870444689760916	2.0		3.0	4.0	3.0	6.0		part_1
148		2.0				1.0	1.0							1.0	191.0	0.37767834644182585	1.0		3.0	5.0	7.0	8.0		part_1
149		2.0				1.0	1.0							3.0	89.0	0.3562572654700489	3.0		2.0	7.0	6.0	1.0		part_1
150		2.0				1.0	1.0							3.0	43.0	0.366722826489422	3.0		1.0	2.0	5.0	4.0		part_1
151		2.0				1.0	1.0							1.0	0.0	0.38070240945671685	1.0		0.0	1.0	8.0	5.0		part_1
152		2.0				1.0	0.0							2.0	74.0	0.3026782389788423	2.0		1.0	6.0	1.0	7.0		part_1
153		2.0				1.0	1.0							1.0	121.0	0.42613883898593485	1.0		2.0	7.0	6.0	1.0		part_1
154		2.0				1.0	0.0							4.0	420.0	0.32461792699905345	4.0		4.0	3.0	4.0	3.0		part_1
155		2.0				1.0	1.0							3.0	100.0	0.34707979697122937	3.0		2.0	7.0	6.0	1.0		part_1
156		2.0				1.0	0.0							3.0	83.0	0.35936219393624924	3.0		2.0	8.0	2.0	2.0		part_1
157		2.0				1.0	1.0							4.0	385.0	0.3150152139714919	4.0		4.0	1.0	8.0	5.0		part_1
158		2.0				1.0	0.0							4.0	197.0	0.3055612244934309	4.0		3.0	4.0	3.0	6.0		part_1
159		2.0				1.0	0.0							1.0	0.0	0.35147276698990026	1.0		0.0	6.0	1.0	7.0		part_1
160		2.0				1.0	1.0							3.0	187.0	0.35090220846177544	3.0		3.0	5.0	7.0	8.0		part_1
161		2.0				1.0	0.0							2.0	0.0	0.33989956496225204	2.0		0.0	6.0	1.0	7.0		part_1
162		2.0				1.0	1.0							4.0	210.0	0.3418835130723892	4.0		3.0	5.0	7.0	8.0		part_1
163		2.0				1.0	1.0							2.0	48.0	0.3858912009600317	2.0		1.0	2.0	5.0	4.0		part_1
164		2.0				1.0	0.0							3.0	225.0	0.3636768529613619	3.0		3.0	4.0	3.0	6.0		part_1
165		2.0				1.0	1.0							4.0	74.0	0.36464312049065484	4.0		1.0	2.0	5.0	4.0		part_1
166		2.0				1.0	1.0							1.0	123.0	0.3202478489765781	1.0		2.0	7.0	6.0	1.0		part_1
167		2.0				1.0	0.0							4.0	0.0	0.34250200648239115	4.0		0.0	3.0	4.0	3.0		part_1
168		2.0				1.0	1.0							3.0	34.0	0.3439082214899827	3.0		1.0	2.0	5.0	4.0		part_1
169		2.0				1.0	0.0							4.0	25.0	0.33336820198746864	4.0		1.0	6.0	1.0	7.0		part_1
170		2.0				1.0	0.0							4.0	398.0	0.32272845895931823	4.0		4.0	3.0	4.0	3.0		part_1
171		2.0				1.0	1.0							3.0	0.0	0.3227027374887257	3.0		0.0	2.0	5.0	4.0		part_1
172		2.0				1.0	0.0							4.0	184.0	0.36899091395753203	4.0		3.0	4.0	3.0	6.0		part_1
173		2.0				1.0	0.0							1.0	224.0	0.3242701384879183	1.0		3.0	4.0	3.0	6.0		part_1
174		2.0				1.0	0.0							2.0	203.0	0.4034363884929917	2.0		3.0	4.0	3.0	6.0		part_1
175		2.0				1.0	1.0							4.0	223.0	0.40349054598482326	4.0		3.0	5.0	7.0	8.0		part_1
176		2.0				1.0	0.0							2.0	27.0	0.4059134139897651	2.0		1.0	6.0	1.0	7.0		part_1
177		2.0				1.0	1.0							3.0	74.0	0.35006050248921383	3.0		1.0	2.0	5.0	4.0		part_1
178		2.0				1.0	0.0							3.0	216.0	0.348976867942838	3.0		3.0	4.0	3.0	6.0		part_1
179		2.0				1.0	1.0							3.0	215.0	0.394717013456102	3.0		3.0	5.0	7.0	8.0		part_1
180		2.0				1.0	1.0							3.0	112.0	0.3271289169715601	3.0		2.0	7.0	6.0	1.0		part_1
181		2.0				1.0	1.0							3.0	0.0	0.3169883719601785	3.0		0.0	1.0	8.0	5.0		part_1
182		2.0				1.0	0.0							4.0	395.0	0.3183571424524416	4.0		4.0	3.0	4.0	3.0		part_1
183		2.0				1.0	0.0							2.0	85.0	0.31957248345861444	2.0		2.0	8.0	2.0	2.0		part_1
184		2.0				1.0	0.0							3.0	87.0	0.38644785447831964	3.0		2.0	8.0	2.0	2.0		part_1
185		2.0				1.0	0.0							2.0	35.0	0.3319891269420623	2.0		1.0	6.0	1.0	7.0		part_1
186		2.0				1.0	0.0							3.0	0.0	0.3646745534861111	3.0		0.0	8.0	2.0	2.0		part_1
187		2.0				1.0	0.0							3.0	393.0	0.37599229698389536	3.0		4.0	3.0	4.0	3.0		part_1
188		2.0				1.0	0.0							1.0	395.0	0.34456883596431	1.0		4.0	3.0	4.0	3.0		part_1
189		2.0				1.0	1.0							2.0	104.0	0.3103629314355203	2.0		2.0	7.0	6.0	1.0		part_1
190		2.0				1.0	0.0							4.0	101.0	0.32165714843722526	4.0		2.0	8.0	2.0	2.0		part_1
191		2.0				1.0	1.0							3.0	423.0	0.3223981434930465	3.0		4.0	1.0	8.0	5.0		part_1
192		2.0				1.0	0.0							4.0	82.0	0.346116461987549	4.0		2.0	8.0	2.0	2.0		part_1
193		2.0				1.0	0.0							2.0	385.0	0.29032484249182744	2.0		4.0	3.0	4.0	3.0		part_1
194		2.0				1.0	1.0							2.0	114.0	0.3139419559884118	2.0		2.0	7.0	6.0	1.0		part_1
195		2.0				1.0	1.0							3.0	193.0	0.32489161949342815	3.0		3.0	5.0	7.0	8.0		part_1
196		2.0				1.0	1.0							1.0	182.0	0.3366821719610016	1.0		3.0	5.0	7.0	8.0		part_1
197		2.0				1.0	1.0							1.0	186.0	0.4158089049597038	1.0		3.0	5.0	7.0	8.0		part_1
198		2.0				1.0	0.0							2.0	116.0	0.3825982389753335	2.0		2.0	8.0	2.0	2.0		part_1
199		2.0				1.0	1.0							1.0	204.0	0.3844709999830229	1.0		3.0	5.0	7.0	8.0		part_1
200		3.0				1.0	1.0							4.0	0.0	0.3354741859366186	4.0		0.0	2.0	5.0	4.0		part_1
201		3.0				1.0	1.0							4.0	395.0	0.3036504299961962	4.0		4.0	1.0	8.0	5.0		part_1
202		3.0				1.0	1.0							4.0	34.0	0.30487513297703117	4.0		1.0	2.0	5.0	4.0		part_1
203		3.0				1.0	0.0							4.0	28.0	0.4059177474700846	4.0		1.0	6.0	1.0	7.0		part_1
204		3.0				1.0	1.0							4.0	35.0	0.29363627497514244	4.0		1.0	2.0	5.0	4.0		part_1
205		3.0				1.0	1.0							1.0	107.0	0.34080265497323126	1.0		2.0	7.0	6.0	1.0		part_1
206		3.0				1.0	0.0							3.0	63.0	0.35115591096837306	3.0		1.0	6.0	1.0	7.0		part_1
207		3.0				1.0	0.0							1.0	198.0	0.3740378079601214	1.0		3.0	4.0	3.0	6.0		part_1
208		3.0				1.0	1.0							1.0	0.0	0.284668640975724	1.0		0.0	5.0	7.0	8.0		part_1
209		3.0				1.0	1.0							2.0	191.0	0.34310912896035006	2.0		3.0	5.0	7.0	8.0		part_1
210		3.0				1.0	1.0							3.0	398.0	0.3423104634784977	3.0		4.0	1.0	8.0	5.0		part_1
211		3.0				1.0	1.0							4.0	117.0	0.3644944114566897	4.0		2.0	7.0	6.0	1.0		part_1
212		3.0				1.0	0.0							3.0	209.0	0.3666812379597104	3.0		3.0	4.0	3.0	6.0		part_1
213		3.0				1.0	1.0							4.0	47.0	0.35503873349080095	4.0		1.0	2.0	5.0	4.0		part_1
214		3.0				1.0	0.0							4.0	48.0	0.3797538714716211	4.0		1.0	6.0	1.0	7.0		part_1
215		3.0				1.0	0.0							1.0	398.0	0.31080246797500877	1.0		4.0	3.0	4.0	3.0		part_1
216		3.0				1.0	1.0							1.0	116.0	0.3676827919771313	1.0		2.0	7.0	6.0	1.0		part_1
217		3.0				1.0	0.0							4.0	419.0	0.40168046649341704	4.0		4.0	3.0	4.0	3.0		part_1
218		3.0				1.0	0.0							3.0	385.0	0.35867188544216333	3.0		4.0	3.0	4.0	3.0		part_1
219		3.0				1.0	0.0							4.0	89.0	0.3591058034726302	4.0		2.0	8.0	2.0	2.0		part_1
220		3.0				1.0	0.0							4.0	106.0	0.3590918959598639	4.0		2.0	8.0	2.0	2.0		part_1
221		3.0				1.0	0.0							1.0	74.0	0.415332450545975	1.0		1.0	6.0	1.0	7.0		part_1
222		3.0				1.0	0.0							3.0	96.0	0.36999707444920205	3.0		2.0	8.0	2.0	2.0		part_1
223		3.0				1.0	1.0							3.0	83.0	0.32758525996177923	3.0		2.0	7.0	6.0	1.0		part_1
224		3.0				1.0	0.0							2.0	189.0	0.327089818456443	2.0		3.0	4.0	3.0	6.0		part_1
225		3.0				1.0	1.0							4.0	414.0	0.338066769472789	4.0		4.0	1.0	8.0	5.0		part_1
226		3.0				1.0	1.0							1.0	0.0	0.39580779496463947	1.0		0.0	1.0	8.0	5.0		part_1
227		3.0				1.0	0.0							1.0	0.0	0.4297081169861485	1.0		0.0	4.0	3.0	6.0		part_1
228		3.0				1.0	0.0							3.0	100.0	0.37489354797435226	3.0		2.0	8.0	2.0	2.0		part_1
229		3.0				1.0	1.0							1.0	33.0	0.43075658948509954	1.0		1.0	2.0	5.0	4.0		part_1
230		3.0				1.0	1.0							2.0	104.0	0.3308190074603772	2.0		2.0	7.0	6.0	1.0		part_1
231		3.0				1.0	1.0							4.0	0.0	0.33171955447323853	4.0		0.0	7.0	6.0	1.0		part_1
232		3.0				1.0	1.0							2.0	195.0	0.3669272574916249	2.0		3.0	5.0	7.0	8.0		part_1
233		3.0				1.0	1.0							2.0	197.0	0.377481364448613	2.0		3.0	5.0	7.0	8.0		part_1
234		3.0				1.0	0.0							3.0	66.0	0.546726035514439	3.0		1.0	6.0	1.0	7.0		part_1
235		3.0				1.0	1.0							2.0	414.0	0.36732723299064673	2.0		4.0	1.0	8.0	5.0		part_1
236		3.0				1.0	1.0							1.0	25.0	0.28997930246259784	1.0		1.0	2.0	5.0	4.0		part_1
237		3.0				1.0	1.0							2.0	29.0	0.30030330394220073	2.0		1.0	2.0	5.0	4.0		part_1
238		3.0				1.0	0.0							3.0	176.0	0.32239411349291913	3.0		3.0	4.0	3.0	6.0		part_1
239		3.0				1.0	0.0							4.0	219.0	0.3125884004912223	4.0		3.0	4.0	3.0	6.0		part_1
240		3.0				1.0	0.0							2.0	380.0	0.33628925499215256	2.0		4.0	3.0	4.0	3.0		part_1
241		3.0				1.0	1.0							3.0	0.0	0.2583935704678879	3.0		0.0	5.0	7.0	8.0		part_1
242		3.0				1.0	0.0							4.0	187.0	0.34821182094310643	4.0		3.0	4.0	3.0	6.0		part_1
243		3.0				2.0	0.0							4.0	384.0	0.37327135645318776	4.0		4.0	3.0	4.0	3.0		part_1
244		3.0				1.0	1.0							1.0	216.0	0.4504913859855151	1.0		3.0	5.0	7.0	8.0		part_1
245		3.0				1.0	1.0							1.0	98.0	0.4292951059760526	1.0		2.0	7.0	6.0	1.0		part_1
246		3.0				1.0	1.0							2.0	0.0	0.4067431004732498	2.0		0.0	5.0	7.0	8.0		part_1
247		3.0				1.0	1.0							3.0	378.0	0.3184865174625884	3.0		4.0	1.0	8.0	5.0		part_1
248		3.0				1.0	0.0							4.0	0.0	0.34220735196140595	4.0		0.0	3.0	4.0	3.0		part_1
249		3.0				1.0	0.0							1.0	46.0	0.39737627746217186	1.0		1.0	6.0	1.0	7.0		part_1
250		3.0				1.0	1.0							3.0	391.0	0.34375665949482936	3.0		4.0	1.0	8.0	5.0		part_1
251		3.0				1.0	0.0							1.0	59.0	0.3553771959632286	1.0		1.0	6.0	1.0	7.0		part_1
252		3.0				1.0	0.0							2.0	54.0	0.3991608059441205	2.0		1.0	6.0	1.0	7.0		part_1
253		3.0				1.0	0.0							4.0	399.0	0.3674736299653887	4.0		4.0	3.0	4.0	3.0		part_1
254		3.0				1.0	0.0							1.0	0.0	0.36778219147527125	1.0		0.0	8.0	2.0	2.0		part_1
255		3.0				1.0	1.0							2.0	386.0	0.3461104734815308	2.0		4.0	1.0	8.0	5.0		part_1
256		3.0				1.0	0.0							2.0	83.0	0.33389289570914116	2.0		2.0	8.0	2.0	2.0		part_1
257		3.0				1.0	0.0							4.0	117.0	0.4013155094726244	4.0		2.0	8.0	2.0	2.0		part_1
258		3.0				1.0	1.0							4.0	0.0	0.37915178547700634	4.0		0.0	2.0	5.0	4.0		part_1
259		3.0				1.0	1.0							1.0	423.0	0.41387340246728854	1.0		4.0	1.0	8.0	5.0		part_1
260		3.0				1.0	1.0							4.0	55.0	0.42594598299183417	4.0		1.0	2.0	5.0	4.0		part_1
261		3.0				1.0	1.0							4.0	396.0	0.335801098466618	4.0		4.0	1.0	8.0	5.0		part_1
262		3.0				1.0	0.0							3.0	120.0	0.34863405297801364	3.0		2.0	8.0	2.0	2.0		part_1
263		3.0				1.0	1.0							2.0	113.0	0.33925935193838086	2.0		2.0	7.0	6.0	1.0		part_1
264		3.0				1.0	0.0							1.0	205.0	0.350669183942955	1.0		3.0	4.0	3.0	6.0		part_1
265		3.0				1.0	1.0							1.0	59.0	0.36140331143542426	1.0		1.0	2.0	5.0	4.0		part_1
266		3.0				1.0	0.0							2.0	411.0	0.5996880135135143	2.0		4.0	3.0	4.0	3.0		part_1
267		3.0				1.0	1.0							2.0	0.0	0.3636353769397829	2.0		0.0	5.0	7.0	8.0		part_1
268		3.0				1.0	0.0							1.0	414.0	0.4651625924889231	1.0		4.0	3.0	4.0	3.0		part_1
269		3.0				1.0	1.0							1.0	0.0	0.3647814304858912	1.0		0.0	1.0	8.0	5.0		part_1
270		3.0				1.0	1.0							1.0	0.0	0.30892615897755604	1.0		0.0	7.0	6.0	1.0		part_1
271		3.0				1.0	0.0							3.0	0.0	0.3542981724895071	3.0		0.0	3.0	4.0	3.0		part_1
272		3.0				1.0	0.0							2.0	216.0	0.30930233447725186	2.0		3.0	4.0	3.0	6.0		part_1
273		3.0				1.0	1.0							2.0	419.0	0.3330299914814532	2.0		4.0	1.0	8.0	5.0		part_1
274		3.0				1.0	0.0							4.0	0.0	0.3662879174662521	4.0		0.0	4.0	3.0	6.0		part_1
275		3.0				1.0	1.0							2.0	120.0	0.34399048148770817	2.0		2.0	7.0	6.0	1.0		part_1
276		3.0				1.0	0.0							1.0	29.0	0.36857367297488963	1.0		1.0	6.0	1.0	7.0		part_1
277		3.0				1.0	0.0							1.0	0.0	0.4014953904770664	1.0		0.0	3.0	4.0	3.0		part_1
278		3.0				1.0	1.0							2.0	0.0	0.33549087896972196	2.0		0.0	7.0	6.0	1.0		part_1
279		3.0				1.0	0.0							2.0	47.0	0.4138510999691789	2.0		1.0	6.0	1.0	7.0		part_1
280		3.0				1.0	0.0							4.0	38.0	0.4036772049876163	4.0		1.0	6.0	1.0	7.0		part_1
281		3.0				1.0	0.0							1.0	407.0	0.3592445319663966	1.0		4.0	3.0	4.0	3.0		part_1
282		3.0				1.0	0.0							4.0	66.0	0.35900027897878317	4.0		1.0	6.0	1.0	7.0		part_1
283		3.0				1.0	0.0							1.0	197.0	0.33870699600083753	1.0		3.0	4.0	3.0	6.0		part_1
284		3.0				1.0	0.0							1.0	204.0	0.351000907488924	1.0		3.0	4.0	3.0	6.0		part_1
285		3.0				1.0	1.0							1.0	216.0	0.32845610848016804	1.0		3.0	5.0	7.0	8.0		part_1
286		3.0				1.0	1.0							4.0	85.0	0.38519605196779594	4.0		2.0	7.0	6.0	1.0		part_1
287		3.0				1.0	0.0							2.0	98.0	0.33977697295631515	2.0		2.0	8.0	2.0	2.0		part_1
288		3.0				1.0	1.0							2.0	176.0	0.29546281298826216	2.0		3.0	5.0	7.0	8.0		part_1
289		3.0				1.0	0.0							3.0	34.0	0.2965058954723645	3.0		1.0	6.0	1.0	7.0		part_1
290		3.0				1.0	1.0							3.0	37.0	0.38562547558831284	3.0		1.0	2.0	5.0	4.0		part_1
291		3.0				1.0	1.0							4.0	116.0	0.31930842345173005	4.0		2.0	7.0	6.0	1.0		part_1
292		3.0				1.0	1.0							1.0	59.0	0.3553504409865127	1.0		1.0	2.0	5.0	4.0		part_1
293		3.0				1.0	1.0							2.0	424.0	0.28666879695811076	2.0		4.0	1.0	8.0	5.0		part_1
294		3.0				1.0	0.0							3.0	37.0	0.32029078187042614	3.0		1.0	6.0	1.0	7.0		part_1
295		3.0				1.0	0.0							1.0	0.0	0.30973642098979326	1.0		0.0	4.0	3.0	6.0		part_1
296		3.0				1.0	1.0							1.0	382.0	0.33383890588447684	1.0		4.0	1.0	8.0	5.0		part_1
297		3.0				1.0	0.0							4.0	407.0	0.4466248863755027	4.0		4.0	3.0	4.0	3.0		part_1
298		3.0				1.0	1.0							4.0	0.0	0.4022659474503598	4.0		0.0	7.0	6.0	1.0		part_1
299		3.0				1.0	1.0							3.0	187.0	0.30203185235586716	3.0		3.0	5.0	7.0	8.0		part_1
300		4.0				1.0	0.0							1.0	104.0	0.3211945494695101	1.0		2.0	8.0	2.0	2.0		part_1
301		4.0				1.0	1.0							4.0	0.0	0.333414370965329	4.0		0.0	7.0	6.0	1.0		part_1
302		4.0				1.0	0.0							2.0	378.0	0.3124219889868982	2.0		4.0	3.0	4.0	3.0		part_1
303		4.0				1.0	0.0							1.0	414.0	0.3013930029483163	1.0		4.0	3.0	4.0	3.0		part_1
304		4.0				1.0	1.0							3.0	28.0	0.31340411298151594	3.0		1.0	2.0	5.0	4.0		part_1
305		4.0				1.0	0.0							2.0	402.0	0.279409825001494	2.0		4.0	3.0	4.0	3.0		part_1
306		4.0				1.0	0.0							1.0	396.0	0.2799154894746607	1.0		4.0	3.0	4.0	3.0		part_1
307		4.0				1.0	0.0							3.0	0.0	0.35999048096709885	3.0		0.0	8.0	2.0	2.0		part_1
308		4.0				1.0	0.0							3.0	0.0	0.37170242697175127	3.0		0.0	3.0	4.0	3.0		part_1
309		4.0				1.0	0.0							3.0	215.0	0.31619162149581825	3.0		3.0	4.0	3.0	6.0		part_1
310		4.0				1.0	1.0							2.0	381.0	0.28323614896362415	2.0		4.0	1.0	8.0	5.0		part_1
311		4.0				1.0	0.0							1.0	35.0	0.3043301844591042	1.0		1.0	6.0	1.0	7.0		part_1
312		4.0				2.0	0.0							2.0	182.0	0.33995523048361065	2.0		3.0	4.0	3.0	6.0		part_1
313		4.0				1.0	0.0							3.0	423.0	0.30662910095998086	3.0		4.0	3.0	4.0	3.0		part_1
314		4.0				1.0	0.0							3.0	208.0	0.3961837739843759	3.0		3.0	4.0	3.0	6.0		part_1
315		4.0				1.0	0.0							4.0	187.0	0.35270040697650984	4.0		3.0	4.0	3.0	6.0		part_1
316		4.0				1.0	0.0							4.0	419.0	0.37503884496254614	4.0		4.0	3.0	4.0	3.0		part_1
317		4.0				1.0	0.0							1.0	0.0	0.38748634346120525	1.0		0.0	8.0	2.0	2.0		part_1
318		4.0				1.0	1.0							4.0	0.0	0.3882461079847417	4.0		0.0	5.0	7.0	8.0		part_1
319		4.0				1.0	0.0							1.0	113.0	0.4121714089415036	1.0		2.0	8.0	2.0	2.0		part_1
320		4.0				1.0	0.0							2.0	68.0	0.35507125997537514	2.0		1.0	6.0	1.0	7.0		part_1
321		4.0				1.0	1.0							1.0	0.0	0.3892019724808051	1.0		0.0	1.0	8.0	5.0		part_1
322		4.0				1.0	0.0							4.0	35.0	0.35773417547898134	4.0		1.0	6.0	1.0	7.0		part_1
323		4.0				1.0	0.0							3.0	204.0	0.31275427849323023	3.0		3.0	4.0	3.0	6.0		part_1
324		4.0				1.0	1.0							4.0	82.0	0.47099044744390994	4.0		2.0	7.0	6.0	1.0		part_1
325		4.0				1.0	1.0							3.0	213.0	0.4260221699878457	3.0		3.0	5.0	7.0	8.0		part_1
326		4.0				1.0	0.0							1.0	94.0	0.34896923648921074	1.0		2.0	8.0	2.0	2.0		part_1
327		4.0				1.0	0.0							4.0	186.0	0.4941014074574923	4.0		3.0	4.0	3.0	6.0		part_1
328		4.0				1.0	0.0							2.0	107.0	0.3593939789789147	2.0		2.0	8.0	2.0	2.0		part_1
329		4.0				1.0	0.0							3.0	113.0	0.3723422754846979	3.0		2.0	8.0	2.0	2.0		part_1
330		4.0				1.0	1.0							4.0	409.0	0.45002533047954785	4.0		4.0	1.0	8.0	5.0		part_1
331		4.0				1.0	0.0							3.0	117.0	0.3716069664733368	3.0		2.0	8.0	2.0	2.0		part_1
332		4.0				1.0	1.0							3.0	393.0	0.39581609800370643	3.0		4.0	1.0	8.0	5.0		part_1
333		4.0				1.0	1.0							4.0	0.0	0.38463956196210347	4.0		0.0	7.0	6.0	1.0		part_1
334		4.0				1.0	0.0							4.0	75.0	0.36436179498559795	4.0		2.0	8.0	2.0	2.0		part_1
335		4.0				1.0	0.0							3.0	409.0	0.28550621499016415	3.0		4.0	3.0	4.0	3.0		part_1
336		4.0				1.0	0.0							1.0	194.0	0.3635435964752105	1.0		3.0	4.0	3.0	6.0		part_1
337		4.0				1.0	1.0							3.0	0.0	0.33098237697413424	3.0		0.0	2.0	5.0	4.0		part_1
338		4.0				1.0	0.0							2.0	105.0	0.2974772504894645	2.0		2.0	8.0	2.0	2.0		part_1
339		4.0				1.0	1.0							3.0	91.0	0.39876337545138085	3.0		2.0	7.0	6.0	1.0		part_1
340		4.0				1.0	1.0							1.0	420.0	0.3445967209408991	1.0		4.0	1.0	8.0	5.0		part_1
341		4.0				1.0	1.0							1.0	113.0	0.4118862039904343	1.0		2.0	7.0	6.0	1.0		part_1
342		4.0				1.0	1.0							1.0	186.0	0.34596725096344016	1.0		3.0	5.0	7.0	8.0		part_1
343		4.0				1.0	1.0							1.0	404.0	0.40159964998747455	1.0		4.0	1.0	8.0	5.0		part_1
344		4.0				1.0	1.0							3.0	402.0	0.4137730994625599	3.0		4.0	1.0	8.0	5.0		part_1
345		4.0				1.0	1.0							4.0	0.0	0.33485594249214046	4.0		0.0	5.0	7.0	8.0		part_1
346		4.0				1.0	0.0							3.0	191.0	0.33568679746531416	3.0		3.0	4.0	3.0	6.0		part_1
347		4.0				1.0	1.0							1.0	0.0	0.33788901749358047	1.0		0.0	1.0	8.0	5.0		part_1
348		4.0				1.0	1.0							4.0	121.0	0.40409821250796085	4.0		2.0	7.0	6.0	1.0		part_1
349		4.0				1.0	0.0							1.0	115.0	0.3598595764924539	1.0		2.0	8.0	2.0	2.0		part_1
350		4.0				1.0	1.0							4.0	106.0	0.4278541559469886	4.0		2.0	7.0	6.0	1.0		part_1
351		4.0				1.0	1.0							3.0	66.0	0.3948109324774123	3.0		1.0	2.0	5.0	4.0		part_1
352		4.0				1.0	0.0							1.0	111.0	0.3507373804386589	1.0		2.0	8.0	2.0	2.0		part_1
353		4.0				1.0	0.0							1.0	0.0	0.43081649647501763	1.0		0.0	8.0	2.0	2.0		part_1
354		4.0				1.0	0.0							2.0	222.0	0.4187598354765214	2.0		3.0	4.0	3.0	6.0		part_1
355		4.0				1.0	0.0							4.0	0.0	0.3640506924712099	4.0		0.0	6.0	1.0	7.0		part_1
356		4.0				1.0	0.0							1.0	382.0	0.30883847844961565	1.0		4.0	3.0	4.0	3.0		part_1
357		4.0				1.0	1.0							3.0	209.0	0.30711411100492114	3.0		3.0	5.0	7.0	8.0		part_1
358		4.0				1.0	1.0							2.0	74.0	0.3204404974821955	2.0		1.0	2.0	5.0	4.0		part_1
359		4.0				1.0	0.0							2.0	393.0	0.364821631963423	2.0		4.0	3.0	4.0	3.0		part_1
360		4.0				1.0	1.0							4.0	224.0	0.4008321194778546	4.0		3.0	5.0	7.0	8.0		part_1
361		4.0				1.0	0.0							1.0	0.0	0.344122142480046	1.0		0.0	6.0	1.0	7.0		part_1
362		4.0				1.0	0.0							1.0	385.0	0.2998853434837656	1.0		4.0	3.0	4.0	3.0		part_1
363		4.0				1.0	1.0							2.0	392.0	0.4015551019765553	2.0		4.0	1.0	8.0	5.0		part_1
364		4.0				1.0	1.0							1.0	402.0	0.34582353146834066	1.0		4.0	1.0	8.0	5.0		part_1
365		4.0				1.0	1.0							4.0	76.0	0.324949604961148	4.0		2.0	7.0	6.0	1.0		part_1
366		4.0				1.0	1.0							2.0	60.0	0.347329173986509	2.0		1.0	2.0	5.0	4.0		part_1
367		4.0				1.0	0.0							2.0	119.0	0.29125095997733297	2.0		2.0	8.0	2.0	2.0		part_1
368		4.0				1.0	0.0							1.0	213.0	0.3043589549852186	1.0		3.0	4.0	3.0	6.0		part_1
369		4.0				1.0	1.0							3.0	0.0	0.32656843443692196	3.0		0.0	1.0	8.0	5.0		part_1
370		4.0				1.0	0.0							4.0	190.0	0.485014482466795	4.0		3.0	4.0	3.0	6.0		part_1
371		4.0				1.0	1.0							1.0	63.0	0.33971244896383723	1.0		1.0	2.0	5.0	4.0		part_1
372		4.0				1.0	1.0							3.0	0.0	0.3620651720048045	3.0		0.0	1.0	8.0	5.0		part_1
373		4.0				1.0	0.0							1.0	123.0	0.32772537797427503	1.0		2.0	8.0	2.0	2.0		part_1
374		4.0				1.0	1.0							3.0	115.0	0.3521407889711554	3.0		2.0	7.0	6.0	1.0		part_1
375		4.0				1.0	0.0							3.0	0.0	0.3298942114779493	3.0		0.0	3.0	4.0	3.0		part_1
376		4.0				1.0	1.0							2.0	38.0	0.3065359629690647	2.0		1.0	2.0	5.0	4.0		part_1
377		4.0				1.0	1.0							4.0	200.0	0.30922568746609613	4.0		3.0	5.0	7.0	8.0		part_1
378		4.0				1.0	0.0							1.0	0.0	0.34302831947570667	1.0		0.0	4.0	3.0	6.0		part_1
379		4.0				1.0	0.0							3.0	62.0	0.2978508059604792	3.0		1.0	6.0	1.0	7.0		part_1
380		4.0				1.0	1.0							1.0	66.0	0.3317292724677827	1.0		1.0	2.0	5.0	4.0		part_1
381		4.0				1.0	1.0							3.0	182.0	0.3548175904797972	3.0		3.0	5.0	7.0	8.0		part_1
382		4.0				1.0	1.0							1.0	0.0	0.37758043299254496	1.0		0.0	2.0	5.0	4.0		part_1
383		4.0				1.0	0.0							1.0	74.0	0.4238864354774705	1.0		1.0	6.0	1.0	7.0		part_1
384		4.0				1.0	0.0							1.0	114.0	0.35766644198884023	1.0		2.0	8.0	2.0	2.0		part_1
385		4.0				1.0	0.0							2.0	74.0	0.3462362174905138	2.0		1.0	6.0	1.0	7.0		part_1
386		4.0				1.0	1.0							3.0	27.0	0.3471577924792655	3.0		1.0	2.0	5.0	4.0		part_1
387		4.0				1.0	1.0							4.0	0.0	0.3686834184700274	4.0		0.0	2.0	5.0	4.0		part_1
388		4.0				1.0	0.0							4.0	0.0	0.37097159800032387	4.0		0.0	4.0	3.0	6.0		part_1
389		4.0				1.0	0.0							1.0	186.0	0.34845943260006607	1.0		3.0	4.0	3.0	6.0		part_1
390		4.0				1.0	0.0							3.0	386.0	0.42701626699999906	3.0		4.0	3.0	4.0	3.0		part_1
391		4.0				1.0	1.0							2.0	74.0	0.3154581384442281	2.0		1.0	2.0	5.0	4.0		part_1
392		4.0				1.0	1.0							1.0	385.0	0.33791031695727725	1.0		4.0	1.0	8.0	5.0		part_1
393		4.0				1.0	1.0							2.0	409.0	0.3838855009744293	2.0		4.0	1.0	8.0	5.0		part_1
394		4.0				1.0	1.0							2.0	0.0	0.33002105745254084	2.0		0.0	7.0	6.0	1.0		part_1
395		4.0				1.0	1.0							4.0	203.0	0.36300958543870365	4.0		3.0	5.0	7.0	8.0		part_1
396		4.0				1.0	1.0							1.0	33.0	0.26231499343703035	1.0		1.0	2.0	5.0	4.0		part_1
397		4.0				1.0	1.0							2.0	194.0	0.28617741894413484	2.0		3.0	5.0	7.0	8.0		part_1
398		4.0				1.0	0.0							2.0	404.0	0.33183230944996467	2.0		4.0	3.0	4.0	3.0		part_1
399		4.0				1.0	0.0							4.0	116.0	0.3433944639764377	4.0		2.0	8.0	2.0	2.0		part_1
0	1.0	1.0			250.0	0.0	0.0							6.0	0.0	0.6581469216325786	6.0	250.0	1.0	6.0	1.0	7.0	0.0	part_2
1	3.0	1.0			250.0	0.0	1.0							5.0	0.0	0.5792058945080498	5.0	250.0	3.0	5.0	7.0	8.0	1.0	part_2
2	4.0	1.0			200.0	0.0	1.0							6.0	0.0	0.0	0.0	250.0	3.0	5.0	7.0	8.0	1.0	part_2
3	1.0	1.0			200.0	0.0	0.0							6.0	0.0	0.5270229265152011	6.0	300.0	2.0	8.0	2.0	2.0	0.0	part_2
4	1.0	1.0			200.0	0.0	0.0							5.0	0.0	0.6617190140168532	5.0	300.0	3.0	4.0	3.0	6.0	0.0	part_2
5	4.0	1.0			200.0	0.0	1.0							5.0	0.0	0.0	0.0	300.0	4.0	1.0	8.0	5.0	1.0	part_2
6	1.0	1.0			250.0	0.0	0.0							5.0	0.0	0.6301047843953711	5.0	300.0	4.0	3.0	4.0	3.0	0.0	part_2
7	1.0	1.0			250.0	0.0	0.0							6.0	0.0	0.7207768893858884	6.0	300.0	3.0	4.0	3.0	6.0	0.0	part_2
8	4.0	1.0			250.0	0.0	1.0							5.0	0.0	0.0	0.0	300.0	1.0	2.0	5.0	4.0	1.0	part_2
9	1.0	1.0			300.0	0.0	0.0							6.0	0.0	0.6649465727532515	6.0	300.0	2.0	8.0	2.0	2.0	0.0	part_2
10	4.0	1.0			300.0	0.0	1.0							5.0	0.0	0.0	0.0	300.0	1.0	2.0	5.0	4.0	1.0	part_2
11	4.0	1.0			350.0	0.0	1.0							5.0	0.0	0.0	0.0	300.0	3.0	5.0	7.0	8.0	1.0	part_2
12	4.0	1.0			400.0	0.0	1.0							5.0	0.0	0.0	0.0	300.0	4.0	1.0	8.0	5.0	1.0	part_2
13	1.0	1.0			450.0	0.0	0.0							5.0	0.0	0.8165442618701491	5.0	300.0	3.0	4.0	3.0	6.0	0.0	part_2
14	3.0	1.0			450.0	0.0	1.0							5.0	0.0	0.5803370136272861	5.0	300.0	1.0	2.0	5.0	4.0	1.0	part_2
15	4.0	1.0			400.0	0.0	1.0							6.0	0.0	0.0	0.0	300.0	1.0	2.0	5.0	4.0	1.0	part_2
16	4.0	1.0			400.0	0.0	1.0							6.0	0.0	0.0	0.0	350.0	1.0	2.0	5.0	4.0	1.0	part_2
17	1.0	1.0			400.0	0.0	0.0							6.0	0.0	0.7402987853856757	6.0	400.0	4.0	3.0	4.0	3.0	0.0	part_2
18	1.0	1.0			400.0	0.0	1.0							6.0	0.0	0.8546268051286461	6.0	400.0	1.0	2.0	5.0	4.0	0.0	part_2
19	4.0	1.0			400.0	0.0	1.0							6.0	0.0	0.0	0.0	400.0	2.0	7.0	6.0	1.0	1.0	part_2
20	1.0	1.0			400.0	0.0	0.0							6.0	0.0	0.9111190618787077	6.0	450.0	1.0	6.0	1.0	7.0	0.0	part_2
21	1.0	1.0			400.0	0.0	0.0							5.0	0.0	0.845924945511797	5.0	450.0	3.0	4.0	3.0	6.0	0.0	part_2
22	4.0	1.0			400.0	0.0	1.0							6.0	0.0	0.0	0.0	450.0	2.0	7.0	6.0	1.0	1.0	part_2
23	4.0	1.0			400.0	0.0	1.0							6.0	0.0	0.0	0.0	500.0	2.0	7.0	6.0	1.0	1.0	part_2
24	1.0	1.0			400.0	0.0	1.0							6.0	0.0	0.915106095126248	6.0	550.0	4.0	1.0	8.0	5.0	0.0	part_2
25	1.0	1.0			400.0	0.0	0.0							6.0	0.0	0.8812429528770735	6.0	550.0	3.0	4.0	3.0	6.0	0.0	part_2
26	4.0	1.0			400.0	0.0	1.0							5.0	0.0	0.0	0.0	550.0	1.0	2.0	5.0	4.0	1.0	part_2
27	4.0	1.0			450.0	0.0	1.0							5.0	0.0	0.0	0.0	550.0	2.0	7.0	6.0	1.0	1.0	part_2
28	1.0	1.0			500.0	0.0	0.0							6.0	0.0	0.941713834006805	6.0	550.0	2.0	8.0	2.0	2.0	0.0	part_2
29	4.0	1.0			500.0	0.0	1.0							5.0	0.0	0.0	0.0	550.0	4.0	1.0	8.0	5.0	1.0	part_2
30	1.0	1.0			550.0	0.0	0.0							6.0	0.0	0.5260130335154827	6.0	550.0	4.0	3.0	4.0	3.0	0.0	part_2
31	1.0	1.0			550.0	0.0	0.0							6.0	0.0	0.7622832571214531	6.0	550.0	4.0	3.0	4.0	3.0	0.0	part_2
32	1.0	1.0			550.0	0.0	1.0							6.0	0.0	0.8884996845081332	6.0	550.0	3.0	5.0	7.0	8.0	0.0	part_2
33	4.0	1.0			550.0	0.0	1.0							6.0	0.0	0.0	0.0	550.0	1.0	2.0	5.0	4.0	1.0	part_2
34	1.0	1.0			550.0	0.0	0.0							6.0	0.0	0.6647618330171099	6.0	600.0	4.0	3.0	4.0	3.0	0.0	part_2
35	3.0	1.0			550.0	0.0	1.0							6.0	0.0	0.6212763335133786	6.0	600.0	1.0	2.0	5.0	4.0	1.0	part_2
36	1.0	2.0			550.0	0.0	0.0							5.0	0.0	0.41860674490453675	5.0	550.0	1.0	6.0	1.0	7.0	0.0	part_2
37	1.0	2.0			550.0	0.0	0.0							5.0	0.0	0.284605858141731	5.0	550.0	3.0	4.0	3.0	6.0	0.0	part_2
38	1.0	2.0			550.0	0.0	0.0							5.0	0.0	0.3304071516249678	5.0	550.0	1.0	6.0	1.0	7.0	0.0	part_2
39	3.0	2.0			550.0	0.0	1.0							5.0	0.0	0.30860566075716633	5.0	550.0	1.0	2.0	5.0	4.0	1.0	part_2
40	1.0	2.0			500.0	0.0	1.0							5.0	0.0	0.45665145975362975	5.0	550.0	2.0	7.0	6.0	1.0	0.0	part_2
41	3.0	2.0			500.0	0.0	1.0							5.0	0.0	0.2880302839985234	5.0	550.0	2.0	7.0	6.0	1.0	1.0	part_2
42	1.0	2.0			450.0	0.0	0.0							5.0	0.0	0.5481538011226803	5.0	550.0	1.0	6.0	1.0	7.0	0.0	part_2
43	1.0	2.0			450.0	0.0	1.0							5.0	0.0	0.3239682260027621	5.0	550.0	2.0	7.0	6.0	1.0	0.0	part_2
44	1.0	2.0			450.0	0.0	0.0							5.0	0.0	0.5601958161423681	5.0	550.0	2.0	8.0	2.0	2.0	0.0	part_2
45	3.0	2.0			450.0	0.0	1.0							6.0	0.0	0.37159617024008185	6.0	550.0	3.0	5.0	7.0	8.0	1.0	part_2
46	1.0	2.0			450.0	0.0	0.0							5.0	0.0	0.3255455997568788	5.0	500.0	3.0	4.0	3.0	6.0	0.0	part_2
47	3.0	2.0			450.0	0.0	1.0							6.0	0.0	0.4631272152691963	6.0	500.0	1.0	2.0	5.0	4.0	1.0	part_2
48	1.0	2.0			450.0	0.0	0.0							6.0	0.0	0.4864761988792452	6.0	450.0	1.0	6.0	1.0	7.0	0.0	part_2
49	1.0	2.0			450.0	0.0	0.0							6.0	0.0	0.4632801596308127	6.0	450.0	2.0	8.0	2.0	2.0	0.0	part_2
50	1.0	2.0			450.0	0.0	0.0							5.0	0.0	0.5778126971199526	5.0	450.0	4.0	3.0	4.0	3.0	0.0	part_2
51	3.0	2.0			450.0	0.0	1.0							6.0	0.0	0.4435292630150798	6.0	450.0	1.0	2.0	5.0	4.0	1.0	part_2
52	1.0	2.0			450.0	0.0	1.0							6.0	0.0	0.28609987902018474	6.0	400.0	1.0	2.0	5.0	4.0	0.0	part_2
53	1.0	2.0			450.0	0.0	0.0							6.0	0.0	0.5116356501239352	6.0	400.0	4.0	3.0	4.0	3.0	0.0	part_2
54	1.0	2.0			450.0	0.0	0.0							5.0	0.0	0.749064717143483	5.0	400.0	3.0	4.0	3.0	6.0	0.0	part_2
55	1.0	2.0			450.0	0.0	0.0							6.0	0.0	0.8746715078013949	6.0	400.0	1.0	6.0	1.0	7.0	0.0	part_2
56	1.0	2.0			450.0	0.0	0.0							6.0	0.0	0.48071826675732154	6.0	400.0	2.0	8.0	2.0	2.0	0.0	part_2
57	1.0	2.0			450.0	0.0	0.0							6.0	0.0	0.5273351486321189	6.0	400.0	4.0	3.0	4.0	3.0	0.0	part_2
58	1.0	2.0			450.0	0.0	0.0							5.0	0.0	0.6507888777559856	5.0	400.0	3.0	4.0	3.0	6.0	0.0	part_2
59	1.0	2.0			450.0	0.0	0.0							6.0	0.0	0.3044022016329109	6.0	400.0	3.0	4.0	3.0	6.0	0.0	part_2
60	1.0	2.0			450.0	0.0	0.0							6.0	0.0	0.43880958287627436	6.0	400.0	1.0	6.0	1.0	7.0	0.0	part_2
61	3.0	2.0			450.0	0.0	1.0							5.0	0.0	0.5424259717547102	5.0	400.0	2.0	7.0	6.0	1.0	1.0	part_2
62	1.0	2.0			400.0	0.0	1.0							5.0	0.0	0.3620489883905975	5.0	400.0	1.0	2.0	5.0	4.0	0.0	part_2
63	1.0	2.0			400.0	0.0	0.0							6.0	0.0	0.8141353951286874	6.0	400.0	4.0	3.0	4.0	3.0	0.0	part_2
64	3.0	2.0			400.0	0.0	1.0							6.0	0.0	0.39735045899578836	6.0	400.0	4.0	1.0	8.0	5.0	1.0	part_2
65	1.0	2.0			400.0	0.0	0.0							5.0	0.0	0.6130382693881984	5.0	350.0	4.0	3.0	4.0	3.0	0.0	part_2
66	1.0	2.0			400.0	0.0	0.0							6.0	0.0	0.3426342965103686	6.0	350.0	2.0	8.0	2.0	2.0	0.0	part_2
67	1.0	2.0			400.0	0.0	1.0							6.0	0.0	0.6709931788718677	6.0	350.0	2.0	7.0	6.0	1.0	0.0	part_2
68	4.0	2.0			400.0	0.0	1.0							5.0	0.0	0.0	0.0	350.0	1.0	2.0	5.0	4.0	1.0	part_2
69	1.0	2.0			450.0	0.0	0.0							6.0	0.0	0.55984661399998	6.0	350.0	4.0	3.0	4.0	3.0	0.0	part_2
70	3.0	2.0			450.0	0.0	1.0							5.0	0.0	0.5705872401449597	5.0	350.0	4.0	1.0	8.0	5.0	1.0	part_2
71	4.0	2.0			400.0	0.0	1.0							6.0	0.0	0.0	0.0	350.0	3.0	5.0	7.0	8.0	1.0	part_2
72	1.0	3.0			400.0	0.0	0.0							6.0	0.0	0.6524847525070072	6.0	400.0	2.0	8.0	2.0	2.0	0.0	part_2
73	4.0	3.0			400.0	0.0	1.0							5.0	0.0	0.0	0.0	400.0	3.0	5.0	7.0	8.0	1.0	part_2
74	1.0	3.0			450.0	0.0	1.0							5.0	0.0	0.6417489288724028	5.0	400.0	1.0	2.0	5.0	4.0	0.0	part_2
75	1.0	3.0			450.0	0.0	0.0							5.0	0.0	0.7238139305118239	5.0	400.0	2.0	8.0	2.0	2.0	0.0	part_2
76	1.0	3.0			450.0	0.0	1.0							6.0	0.0	0.3964988331281347	6.0	400.0	4.0	1.0	8.0	5.0	0.0	part_2
77	1.0	3.0			450.0	0.0	0.0							5.0	0.0	0.5223531085139257	5.0	400.0	2.0	8.0	2.0	2.0	0.0	part_2
78	1.0	3.0			450.0	0.0	0.0							6.0	0.0	0.43170256426674314	6.0	400.0	2.0	8.0	2.0	2.0	0.0	part_2
79	1.0	3.0			450.0	0.0	0.0							6.0	0.0	0.6701434443893959	6.0	400.0	2.0	8.0	2.0	2.0	0.0	part_2
80	1.0	3.0			450.0	0.0	1.0							6.0	0.0	0.6360626020177733	6.0	400.0	3.0	5.0	7.0	8.0	0.0	part_2
81	3.0	3.0			450.0	0.0	1.0							5.0	0.0	0.46192993887962075	5.0	400.0	4.0	1.0	8.0	5.0	1.0	part_2
82	3.0	3.0			400.0	0.0	1.0							5.0	0.0	0.4106713832443347	5.0	400.0	2.0	7.0	6.0	1.0	1.0	part_2
83	4.0	3.0			350.0	0.0	1.0							6.0	0.0	0.0	0.0	400.0	1.0	2.0	5.0	4.0	1.0	part_2
84	1.0	3.0			350.0	0.0	0.0							6.0	0.0	0.6052073253813433	6.0	450.0	2.0	8.0	2.0	2.0	0.0	part_2
85	4.0	3.0			350.0	0.0	1.0							5.0	0.0	0.0	0.0	450.0	4.0	1.0	8.0	5.0	1.0	part_2
86	1.0	3.0			400.0	0.0	0.0							5.0	0.0	0.5398838408073061	5.0	450.0	1.0	6.0	1.0	7.0	0.0	part_2
87	1.0	3.0			400.0	0.0	1.0							6.0	0.0	0.563501618875307	6.0	450.0	1.0	2.0	5.0	4.0	0.0	part_2
88	4.0	3.0			400.0	0.0	1.0							6.0	0.0	0.0	0.0	450.0	4.0	1.0	8.0	5.0	1.0	part_2
89	1.0	3.0			400.0	0.0	0.0							6.0	0.0	0.587611206145084	6.0	500.0	2.0	8.0	2.0	2.0	0.0	part_2
90	1.0	3.0			400.0	0.0	0.0							6.0	0.0	0.5222563127608737	6.0	500.0	3.0	4.0	3.0	6.0	0.0	part_2
91	1.0	3.0			400.0	0.0	0.0							6.0	0.0	0.28627482187584974	6.0	500.0	2.0	8.0	2.0	2.0	0.0	part_2
92	1.0	3.0			400.0	0.0	0.0							5.0	0.0	0.4788106520209112	5.0	500.0	3.0	4.0	3.0	6.0	0.0	part_2
93	1.0	3.0			400.0	0.0	0.0							6.0	0.0	0.7827600767559488	6.0	500.0	4.0	3.0	4.0	3.0	0.0	part_2
94	3.0	3.0			400.0	0.0	1.0							6.0	0.0	0.534944615632412	6.0	500.0	4.0	1.0	8.0	5.0	1.0	part_2
95	1.0	3.0			400.0	0.0	0.0							5.0	0.0	0.7733853411409655	5.0	450.0	4.0	3.0	4.0	3.0	0.0	part_2
96	1.0	3.0			400.0	0.0	1.0							5.0	0.0	0.5044045772738173	5.0	450.0	2.0	7.0	6.0	1.0	0.0	part_2
97	1.0	3.0			400.0	0.0	0.0							5.0	0.0	0.4929854075089679	5.0	450.0	1.0	6.0	1.0	7.0	0.0	part_2
98	1.0	3.0			400.0	0.0	0.0							6.0	0.0	0.3818648640153697	6.0	450.0	4.0	3.0	4.0	3.0	0.0	part_2
99	3.0	3.0			400.0	0.0	1.0							6.0	0.0	0.36026225651585264	6.0	450.0	2.0	7.0	6.0	1.0	1.0	part_2
100	1.0	3.0			400.0	0.0	0.0							5.0	0.0	0.49653360975935357	5.0	400.0	2.0	8.0	2.0	2.0	0.0	part_2
101	1.0	3.0			400.0	0.0	0.0							6.0	0.0	0.41846913687186316	6.0	400.0	1.0	6.0	1.0	7.0	0.0	part_2
102	1.0	3.0			400.0	0.0	0.0							5.0	0.0	0.305620135513891	5.0	400.0	3.0	4.0	3.0	6.0	0.0	part_2
103	3.0	3.0			400.0	0.0	1.0							6.0	0.0	0.5321037088724552	6.0	400.0	2.0	7.0	6.0	1.0	1.0	part_2
104	3.0	3.0			400.0	0.0	1.0							5.0	0.0	0.2968230063925148	5.0	350.0	3.0	5.0	7.0	8.0	1.0	part_2
105	4.0	3.0			350.0	0.0	1.0							5.0	0.0	0.0	0.0	350.0	3.0	5.0	7.0	8.0	1.0	part_2
106	1.0	3.0			400.0	0.0	0.0							5.0	0.0	0.7260170603840379	5.0	350.0	2.0	8.0	2.0	2.0	0.0	part_2
107	3.0	3.0			400.0	0.0	1.0							6.0	0.0	0.44548492563626496	6.0	350.0	1.0	2.0	5.0	4.0	1.0	part_2
108	1.0	4.0			400.0	0.0	0.0							6.0	0.0	0.35035235626855865	6.0	300.0	1.0	6.0	1.0	7.0	0.0	part_2
109	3.0	4.0			400.0	0.0	1.0							6.0	0.0	0.283862569143821	6.0	300.0	4.0	1.0	8.0	5.0	1.0	part_2
110	1.0	4.0			400.0	0.0	1.0							6.0	0.0	0.46466036039055325	6.0	250.0	4.0	1.0	8.0	5.0	0.0	part_2
111	1.0	4.0			400.0	0.0	0.0							5.0	0.0	0.5449083303901716	5.0	250.0	4.0	3.0	4.0	3.0	0.0	part_2
112	4.0	4.0			400.0	0.0	1.0							6.0	0.0	0.0	0.0	250.0	3.0	5.0	7.0	8.0	1.0	part_2
113	1.0	4.0			400.0	0.0	0.0							5.0	0.0	0.3883531507526641	5.0	300.0	1.0	6.0	1.0	7.0	0.0	part_2
114	1.0	4.0			400.0	0.0	0.0							6.0	0.0	0.6027489072730532	6.0	300.0	3.0	4.0	3.0	6.0	0.0	part_2
115	1.0	4.0			400.0	0.0	0.0							5.0	0.0	0.6259804418732529	5.0	300.0	2.0	8.0	2.0	2.0	0.0	part_2
116	3.0	4.0			400.0	0.0	1.0							5.0	0.0	0.3453283468988957	5.0	300.0	3.0	5.0	7.0	8.0	1.0	part_2
117	1.0	4.0			350.0	0.0	0.0							5.0	0.0	0.5942766383886919	5.0	300.0	1.0	6.0	1.0	7.0	0.0	part_2
118	1.0	4.0			350.0	0.0	1.0							5.0	0.0	0.5172132628795225	5.0	300.0	4.0	1.0	8.0	5.0	0.0	part_2
119	3.0	4.0			350.0	0.0	1.0							6.0	0.0	0.325288393869414	6.0	300.0	1.0	2.0	5.0	4.0	1.0	part_2
120	1.0	4.0			350.0	0.0	0.0							6.0	0.0	0.3370952328768908	6.0	250.0	4.0	3.0	4.0	3.0	0.0	part_2
121	4.0	4.0			350.0	0.0	1.0							5.0	0.0	0.0	0.0	250.0	4.0	1.0	8.0	5.0	1.0	part_2
122	1.0	4.0			400.0	0.0	1.0							5.0	0.0	0.4193618881472503	5.0	250.0	1.0	2.0	5.0	4.0	0.0	part_2
123	1.0	4.0			400.0	0.0	1.0							6.0	0.0	0.34099371189950034	6.0	250.0	2.0	7.0	6.0	1.0	0.0	part_2
124	1.0	4.0			400.0	0.0	0.0							5.0	0.0	0.49982354127132567	5.0	250.0	1.0	6.0	1.0	7.0	0.0	part_2
125	1.0	4.0			400.0	0.0	0.0							5.0	0.0	0.5442460477570421	5.0	250.0	2.0	8.0	2.0	2.0	0.0	part_2
126	4.0	4.0			400.0	0.0	1.0							5.0	0.0	0.0	0.0	250.0	4.0	1.0	8.0	5.0	1.0	part_2
127	1.0	4.0			450.0	0.0	0.0							6.0	0.0	0.43400825712888036	6.0	250.0	4.0	3.0	4.0	3.0	0.0	part_2
128	1.0	4.0			450.0	0.0	0.0							6.0	0.0	0.35608210175996646	6.0	250.0	3.0	4.0	3.0	6.0	0.0	part_2
129	1.0	4.0			450.0	0.0	0.0							6.0	0.0	0.5479805095092161	6.0	250.0	3.0	4.0	3.0	6.0	0.0	part_2
130	1.0	4.0			450.0	0.0	1.0							5.0	0.0	0.5592068936311989	5.0	250.0	3.0	5.0	7.0	8.0	0.0	part_2
131	3.0	4.0			450.0	0.0	1.0							6.0	0.0	0.36970330426993314	6.0	250.0	2.0	7.0	6.0	1.0	1.0	part_2
132	4.0	4.0			450.0	0.0	1.0							6.0	0.0	0.0	0.0	200.0	4.0	1.0	8.0	5.0	1.0	part_2
133	1.0	4.0			450.0	0.0	0.0							6.0	0.0	0.4736780963939964	6.0	250.0	2.0	8.0	2.0	2.0	0.0	part_2
134	4.0	4.0			450.0	0.0	1.0							6.0	0.0	0.0	0.0	250.0	2.0	7.0	6.0	1.0	1.0	part_2
135	3.0	4.0			450.0	0.0	1.0							5.0	0.0	0.46428418202413013	5.0	300.0	1.0	2.0	5.0	4.0	1.0	part_2
136	1.0	4.0			400.0	0.0	1.0							6.0	0.0	0.464665430758032	6.0	300.0	2.0	7.0	6.0	1.0	0.0	part_2
137	3.0	4.0			400.0	0.0	1.0							5.0	0.0	0.4637194086317322	5.0	300.0	4.0	1.0	8.0	5.0	1.0	part_2
138	4.0	4.0			350.0	0.0	1.0							6.0	0.0	0.0	0.0	300.0	2.0	7.0	6.0	1.0	1.0	part_2
139	1.0	4.0			350.0	0.0	0.0							5.0	0.0	0.5897192319971509	5.0	350.0	2.0	8.0	2.0	2.0	0.0	part_2
140	1.0	4.0			350.0	0.0	0.0							6.0	0.0	0.5471846673899563	6.0	350.0	4.0	3.0	4.0	3.0	0.0	part_2
141	1.0	4.0			350.0	0.0	0.0							6.0	0.0	0.5460166799166473	6.0	350.0	1.0	6.0	1.0	7.0	0.0	part_2
142	1.0	4.0			350.0	0.0	0.0							6.0	0.0	0.5587598103884375	6.0	350.0	4.0	3.0	4.0	3.0	0.0	part_2
143	4.0	4.0			350.0	0.0	1.0							5.0	0.0	0.0	0.0	350.0	2.0	7.0	6.0	1.0	1.0	part_2
144	1.0	5.0			400.0	0.0	0.0							5.0	0.0	0.3978387791503337	5.0	350.0	1.0	6.0	1.0	7.0	0.0	part_2
145	1.0	5.0			400.0	0.0	0.0							6.0	0.0	0.3653309301225818	6.0	350.0	2.0	8.0	2.0	2.0	0.0	part_2
146	3.0	5.0			400.0	0.0	1.0							5.0	0.0	0.4674870098751853	5.0	350.0	3.0	5.0	7.0	8.0	1.0	part_2
147	3.0	5.0			350.0	0.0	1.0							5.0	0.0	0.4683338485119748	5.0	350.0	4.0	1.0	8.0	5.0	1.0	part_2
148	3.0	5.0			300.0	0.0	1.0							6.0	0.0	0.4676657316304045	6.0	350.0	2.0	7.0	6.0	1.0	1.0	part_2
149	1.0	5.0			300.0	0.0	0.0							6.0	0.0	0.557980510246125	6.0	300.0	2.0	8.0	2.0	2.0	0.0	part_2
150	4.0	5.0			300.0	0.0	1.0							6.0	0.0	0.0	0.0	300.0	4.0	1.0	8.0	5.0	1.0	part_2
151	1.0	5.0			300.0	0.0	0.0							6.0	0.0	0.5825944507596432	6.0	350.0	2.0	8.0	2.0	2.0	0.0	part_2
152	1.0	5.0			300.0	0.0	0.0							5.0	0.0	0.6961330952690332	5.0	350.0	4.0	3.0	4.0	3.0	0.0	part_2
153	3.0	5.0			300.0	0.0	1.0							6.0	0.0	0.529659767751582	6.0	350.0	4.0	1.0	8.0	5.0	1.0	part_2
154	1.0	5.0			300.0	0.0	0.0							5.0	0.0	0.5177083516318817	5.0	300.0	1.0	6.0	1.0	7.0	0.0	part_2
155	1.0	5.0			300.0	0.0	0.0							5.0	0.0	0.5516850902713486	5.0	300.0	4.0	3.0	4.0	3.0	0.0	part_2
156	4.0	5.0			300.0	0.0	1.0							6.0	0.0	0.0	0.0	300.0	3.0	5.0	7.0	8.0	1.0	part_2
157	4.0	5.0			300.0	0.0	1.0							6.0	0.0	0.0	0.0	350.0	2.0	7.0	6.0	1.0	1.0	part_2
158	1.0	5.0			300.0	0.0	0.0							5.0	0.0	0.4885048145370092	5.0	400.0	2.0	8.0	2.0	2.0	0.0	part_2
159	3.0	5.0			300.0	0.0	1.0							6.0	0.0	0.4884935311420122	6.0	400.0	1.0	2.0	5.0	4.0	1.0	part_2
160	4.0	5.0			300.0	0.0	1.0							6.0	0.0	0.0	0.0	350.0	3.0	5.0	7.0	8.0	1.0	part_2
161	1.0	5.0			300.0	0.0	0.0							6.0	0.0	0.5019946558750235	6.0	400.0	2.0	8.0	2.0	2.0	0.0	part_2
162	1.0	5.0			300.0	0.0	0.0							6.0	0.0	0.6706665023884852	6.0	400.0	3.0	4.0	3.0	6.0	0.0	part_2
163	1.0	5.0			300.0	0.0	1.0							6.0	0.0	0.5041240123900934	6.0	400.0	1.0	2.0	5.0	4.0	0.0	part_2
164	4.0	5.0			300.0	0.0	1.0							5.0	0.0	0.0	0.0	400.0	3.0	5.0	7.0	8.0	1.0	part_2
165	4.0	5.0			350.0	0.0	1.0							5.0	0.0	0.0	0.0	400.0	1.0	2.0	5.0	4.0	1.0	part_2
166	4.0	5.0			400.0	0.0	1.0							6.0	0.0	0.0	0.0	400.0	2.0	7.0	6.0	1.0	1.0	part_2
167	1.0	5.0			400.0	0.0	0.0							6.0	0.0	0.5513419777562376	6.0	450.0	3.0	4.0	3.0	6.0	0.0	part_2
168	4.0	5.0			400.0	0.0	1.0							5.0	0.0	0.0	0.0	450.0	4.0	1.0	8.0	5.0	1.0	part_2
169	4.0	5.0			450.0	0.0	1.0							5.0	0.0	0.0	0.0	450.0	2.0	7.0	6.0	1.0	1.0	part_2
170	1.0	5.0			500.0	0.0	0.0							5.0	0.0	0.6208988680227776	5.0	450.0	1.0	6.0	1.0	7.0	0.0	part_2
171	1.0	5.0			500.0	0.0	0.0							6.0	0.0	0.49736594926798716	6.0	450.0	1.0	6.0	1.0	7.0	0.0	part_2
172	4.0	5.0			500.0	0.0	1.0							5.0	0.0	0.0	0.0	450.0	4.0	1.0	8.0	5.0	1.0	part_2
173	1.0	5.0			550.0	0.0	0.0							6.0	0.0	0.5787949997538817	6.0	450.0	3.0	4.0	3.0	6.0	0.0	part_2
174	1.0	5.0			550.0	0.0	1.0							5.0	0.0	0.7144552689933334	5.0	450.0	4.0	1.0	8.0	5.0	0.0	part_2
175	1.0	5.0			550.0	0.0	0.0							5.0	0.0	0.5803140291463933	5.0	450.0	4.0	3.0	4.0	3.0	0.0	part_2
176	4.0	5.0			550.0	0.0	1.0							6.0	0.0	0.0	0.0	450.0	4.0	1.0	8.0	5.0	1.0	part_2
177	1.0	5.0			550.0	0.0	1.0							5.0	0.0	0.5591485808763537	5.0	500.0	4.0	1.0	8.0	5.0	0.0	part_2
178	1.0	5.0			550.0	0.0	1.0							5.0	0.0	0.5373114813846769	5.0	500.0	2.0	7.0	6.0	1.0	0.0	part_2
179	3.0	5.0			550.0	0.0	1.0							5.0	0.0	0.5491898926338763	5.0	500.0	1.0	2.0	5.0	4.0	1.0	part_2
180	1.0	6.0			500.0	0.0	0.0							5.0	0.0	0.6865925966267241	5.0	500.0	2.0	8.0	2.0	2.0	0.0	part_2
181	1.0	6.0			500.0	0.0	0.0							6.0	0.0	0.49503362426912645	6.0	500.0	1.0	6.0	1.0	7.0	0.0	part_2
182	3.0	6.0			500.0	0.0	1.0							6.0	0.0	0.37249630187579896	6.0	500.0	4.0	1.0	8.0	5.0	1.0	part_2
183	1.0	6.0			500.0	0.0	0.0							5.0	0.0	0.5089042783874902	5.0	450.0	3.0	4.0	3.0	6.0	0.0	part_2
184	1.0	6.0			500.0	0.0	0.0							5.0	0.0	0.4992326448991662	5.0	450.0	3.0	4.0	3.0	6.0	0.0	part_2
185	3.0	6.0			500.0	0.0	1.0							6.0	0.0	0.37559067112306366	6.0	450.0	3.0	5.0	7.0	8.0	1.0	part_2
186	1.0	6.0			500.0	0.0	1.0							5.0	0.0	0.5330973601448932	5.0	400.0	2.0	7.0	6.0	1.0	0.0	part_2
187	1.0	6.0			500.0	0.0	0.0							6.0	0.0	0.26589796538610244	6.0	400.0	1.0	6.0	1.0	7.0	0.0	part_2
188	1.0	6.0			500.0	0.0	0.0							5.0	0.0	0.32238557827076875	5.0	400.0	3.0	4.0	3.0	6.0	0.0	part_2
189	3.0	6.0			500.0	0.0	1.0							6.0	0.0	0.5029745051288046	6.0	400.0	4.0	1.0	8.0	5.0	1.0	part_2
190	1.0	6.0			500.0	0.0	0.0							5.0	0.0	0.4349653213939746	5.0	350.0	1.0	6.0	1.0	7.0	0.0	part_2
191	1.0	6.0			500.0	0.0	0.0							5.0	0.0	0.5939653745153919	5.0	350.0	4.0	3.0	4.0	3.0	0.0	part_2
192	1.0	6.0			500.0	0.0	0.0							6.0	0.0	0.5048815218760865	6.0	350.0	1.0	6.0	1.0	7.0	0.0	part_2
193	1.0	6.0			500.0	0.0	0.0							5.0	0.0	0.4830764207581524	5.0	350.0	1.0	6.0	1.0	7.0	0.0	part_2
194	1.0	6.0			500.0	0.0	0.0							6.0	0.0	0.43914180962747196	6.0	350.0	1.0	6.0	1.0	7.0	0.0	part_2
195	4.0	6.0			500.0	0.0	1.0							6.0	0.0	0.0	0.0	350.0	3.0	5.0	7.0	8.0	1.0	part_2
196	1.0	6.0			500.0	0.0	0.0							5.0	0.0	0.49667237301764544	5.0	400.0	2.0	8.0	2.0	2.0	0.0	part_2
197	1.0	6.0			500.0	0.0	0.0							6.0	0.0	0.4648741687560687	6.0	400.0	1.0	6.0	1.0	7.0	0.0	part_2
198	1.0	6.0			500.0	0.0	0.0							5.0	0.0	0.3987934732431313	5.0	400.0	3.0	4.0	3.0	6.0	0.0	part_2
199	3.0	6.0			500.0	0.0	1.0							6.0	0.0	0.33049136176123284	6.0	400.0	2.0	7.0	6.0	1.0	1.0	part_2
200	3.0	6.0			500.0	0.0	1.0							5.0	0.0	0.3770189826245769	5.0	350.0	2.0	7.0	6.0	1.0	1.0	part_2
201	1.0	6.0			450.0	0.0	0.0							5.0	0.0	0.5689031735091703	5.0	350.0	2.0	8.0	2.0	2.0	0.0	part_2
202	3.0	6.0			450.0	0.0	1.0							6.0	0.0	0.43395852138928603	6.0	350.0	3.0	5.0	7.0	8.0	1.0	part_2
203	1.0	6.0			450.0	0.0	0.0							6.0	0.0	0.7629376240220154	6.0	300.0	4.0	3.0	4.0	3.0	0.0	part_2
204	4.0	6.0			450.0	0.0	1.0							5.0	0.0	0.0	0.0	300.0	2.0	7.0	6.0	1.0	1.0	part_2
205	1.0	6.0			500.0	0.0	0.0							5.0	0.0	0.5602813173827599	5.0	300.0	1.0	6.0	1.0	7.0	0.0	part_2
206	3.0	6.0			500.0	0.0	1.0							5.0	0.0	0.6071134013836854	5.0	300.0	2.0	7.0	6.0	1.0	1.0	part_2
207	1.0	6.0			450.0	0.0	1.0							5.0	0.0	0.5956031068708398	5.0	300.0	2.0	7.0	6.0	1.0	0.0	part_2
208	1.0	6.0			450.0	0.0	0.0							6.0	0.0	0.5414184600158478	6.0	300.0	1.0	6.0	1.0	7.0	0.0	part_2
209	4.0	6.0			450.0	0.0	1.0							6.0	0.0	0.0	0.0	300.0	4.0	1.0	8.0	5.0	1.0	part_2
210	1.0	6.0			450.0	0.0	0.0							5.0	0.0	0.5772303122721496	5.0	350.0	3.0	4.0	3.0	6.0	0.0	part_2
211	3.0	6.0			450.0	0.0	1.0							6.0	0.0	0.6229870185125037	6.0	350.0	3.0	5.0	7.0	8.0	1.0	part_2
212	4.0	6.0			450.0	0.0	1.0							5.0	0.0	0.0	0.0	300.0	3.0	5.0	7.0	8.0	1.0	part_2
213	1.0	6.0			500.0	0.0	0.0							5.0	0.0	0.6231249228731031	5.0	300.0	4.0	3.0	4.0	3.0	0.0	part_2
214	1.0	6.0			500.0	0.0	0.0							5.0	0.0	0.8264354173661559	5.0	300.0	4.0	3.0	4.0	3.0	0.0	part_2
215	1.0	6.0			500.0	0.0	1.0							6.0	0.0	0.6584544969955459	6.0	300.0	1.0	2.0	5.0	4.0	0.0	part_2
216	1.0	7.0			500.0	0.0	0.0							5.0	0.0	0.5299742052666261	5.0	300.0	2.0	8.0	2.0	2.0	0.0	part_2
217	1.0	7.0			500.0	0.0	0.0							6.0	0.0	0.38267687324696453	6.0	300.0	3.0	4.0	3.0	6.0	0.0	part_2
218	3.0	7.0			500.0	0.0	1.0							6.0	0.0	0.33910125675902236	6.0	300.0	1.0	2.0	5.0	4.0	1.0	part_2
219	3.0	7.0			500.0	0.0	1.0							5.0	0.0	0.41870837251190096	5.0	250.0	3.0	5.0	7.0	8.0	1.0	part_2
220	1.0	7.0			450.0	0.0	0.0							6.0	0.0	0.4186257930196007	6.0	250.0	3.0	4.0	3.0	6.0	0.0	part_2
221	3.0	7.0			450.0	0.0	1.0							5.0	0.0	0.3306563027508673	5.0	250.0	1.0	2.0	5.0	4.0	1.0	part_2
222	1.0	7.0			400.0	0.0	1.0							6.0	0.0	0.5554350712700398	6.0	250.0	3.0	5.0	7.0	8.0	0.0	part_2
223	1.0	7.0			400.0	0.0	0.0							6.0	0.0	0.47926885051856516	6.0	250.0	3.0	4.0	3.0	6.0	0.0	part_2
224	3.0	7.0			400.0	0.0	1.0							5.0	0.0	0.4446279927578871	5.0	250.0	1.0	2.0	5.0	4.0	1.0	part_2
225	1.0	7.0			350.0	0.0	0.0							5.0	0.0	0.5246006042434601	5.0	250.0	2.0	8.0	2.0	2.0	0.0	part_2
226	4.0	7.0			350.0	0.0	1.0							5.0	0.0	0.0	0.0	250.0	3.0	5.0	7.0	8.0	1.0	part_2
227	4.0	7.0			400.0	0.0	1.0							6.0	0.0	0.0	0.0	250.0	3.0	5.0	7.0	8.0	1.0	part_2
228	4.0	7.0			400.0	0.0	1.0							6.0	0.0	0.0	0.0	300.0	2.0	7.0	6.0	1.0	1.0	part_2
229	1.0	7.0			400.0	0.0	0.0							5.0	0.0	0.5163214877611608	5.0	350.0	4.0	3.0	4.0	3.0	0.0	part_2
230	1.0	7.0			400.0	0.0	0.0							6.0	0.0	0.49609805751242675	6.0	350.0	3.0	4.0	3.0	6.0	0.0	part_2
231	4.0	7.0			400.0	0.0	1.0							6.0	0.0	0.0	0.0	350.0	3.0	5.0	7.0	8.0	1.0	part_2
232	3.0	7.0			400.0	0.0	1.0							5.0	0.0	0.4288054530188674	5.0	400.0	2.0	7.0	6.0	1.0	1.0	part_2
233	1.0	7.0			350.0	0.0	0.0							6.0	0.0	0.5876385890005622	6.0	400.0	1.0	6.0	1.0	7.0	0.0	part_2
234	1.0	7.0			350.0	0.0	0.0							5.0	0.0	0.4544486423910712	5.0	400.0	3.0	4.0	3.0	6.0	0.0	part_2
235	1.0	7.0			350.0	0.0	0.0							6.0	0.0	0.35280145926662954	6.0	400.0	3.0	4.0	3.0	6.0	0.0	part_2
236	1.0	7.0			350.0	0.0	0.0							5.0	0.0	0.5563172582769766	5.0	400.0	2.0	8.0	2.0	2.0	0.0	part_2
237	4.0	7.0			350.0	0.0	1.0							5.0	0.0	0.0	0.0	400.0	1.0	2.0	5.0	4.0	1.0	part_2
238	3.0	7.0			400.0	0.0	1.0							5.0	0.0	0.5136403368742322	5.0	400.0	2.0	7.0	6.0	1.0	1.0	part_2
239	1.0	7.0			350.0	0.0	0.0							6.0	0.0	0.3125381597565138	6.0	400.0	1.0	6.0	1.0	7.0	0.0	part_2
240	3.0	7.0			350.0	0.0	1.0							6.0	0.0	0.2556109051438398	6.0	400.0	2.0	7.0	6.0	1.0	1.0	part_2
241	1.0	7.0			350.0	0.0	1.0							5.0	0.0	0.5372698193823453	5.0	350.0	3.0	5.0	7.0	8.0	0.0	part_2
242	1.0	7.0			350.0	0.0	0.0							5.0	0.0	0.3473826029076008	5.0	350.0	1.0	6.0	1.0	7.0	0.0	part_2
243	1.0	7.0			350.0	0.0	1.0							5.0	0.0	0.40440594263054663	5.0	350.0	3.0	5.0	7.0	8.0	0.0	part_2
244	1.0	7.0			350.0	0.0	0.0							6.0	0.0	0.359912088875717	6.0	350.0	3.0	4.0	3.0	6.0	0.0	part_2
245	1.0	7.0			350.0	0.0	1.0							5.0	0.0	0.4526362933902419	5.0	350.0	4.0	1.0	8.0	5.0	0.0	part_2
246	1.0	7.0			350.0	0.0	0.0							5.0	0.0	0.3280872337563778	5.0	350.0	4.0	3.0	4.0	3.0	0.0	part_2
247	3.0	7.0			350.0	0.0	1.0							6.0	0.0	0.4193040638783714	6.0	350.0	4.0	1.0	8.0	5.0	1.0	part_2
248	1.0	7.0			350.0	0.0	1.0							5.0	0.0	0.34143613326887134	5.0	300.0	3.0	5.0	7.0	8.0	0.0	part_2
249	4.0	7.0			350.0	0.0	1.0							5.0	0.0	0.0	0.0	300.0	2.0	7.0	6.0	1.0	1.0	part_2
250	1.0	7.0			400.0	0.0	1.0							6.0	0.0	0.3990501808730187	6.0	300.0	3.0	5.0	7.0	8.0	0.0	part_2
251	1.0	7.0			400.0	0.0	0.0							6.0	0.0	0.42236607027007267	6.0	300.0	4.0	3.0	4.0	3.0	0.0	part_2
252	1.0	8.0			400.0	0.0	0.0							5.0	0.0	0.5015781378970132	5.0	300.0	2.0	8.0	2.0	2.0	0.0	part_2
253	1.0	8.0			400.0	0.0	0.0							6.0	0.0	0.35687721727299504	6.0	300.0	4.0	3.0	4.0	3.0	0.0	part_2
254	3.0	8.0			400.0	0.0	1.0							5.0	0.0	0.46959209939086577	5.0	300.0	3.0	5.0	7.0	8.0	1.0	part_2
255	1.0	8.0			350.0	0.0	1.0							6.0	0.0	0.3146817855158588	6.0	300.0	3.0	5.0	7.0	8.0	0.0	part_2
256	1.0	8.0			350.0	0.0	0.0							5.0	0.0	0.46075110651145224	5.0	300.0	3.0	4.0	3.0	6.0	0.0	part_2
257	3.0	8.0			350.0	0.0	1.0							6.0	0.0	0.4050263005119632	6.0	300.0	4.0	1.0	8.0	5.0	1.0	part_2
258	4.0	8.0			350.0	0.0	1.0							6.0	0.0	0.0	0.0	250.0	1.0	2.0	5.0	4.0	1.0	part_2
259	1.0	8.0			350.0	0.0	0.0							5.0	0.0	0.46275849115045276	5.0	300.0	1.0	6.0	1.0	7.0	0.0	part_2
260	1.0	8.0			350.0	0.0	0.0							5.0	0.0	0.3749973808735376	5.0	300.0	1.0	6.0	1.0	7.0	0.0	part_2
261	3.0	8.0			350.0	0.0	1.0							6.0	0.0	0.4193849371513352	6.0	300.0	1.0	2.0	5.0	4.0	1.0	part_2
262	1.0	8.0			350.0	0.0	1.0							5.0	0.0	0.48793450375524117	5.0	250.0	1.0	2.0	5.0	4.0	0.0	part_2
263	1.0	8.0			350.0	0.0	1.0							6.0	0.0	0.2965291652435553	6.0	250.0	4.0	1.0	8.0	5.0	0.0	part_2
264	4.0	8.0			350.0	0.0	1.0							6.0	0.0	0.0	0.0	250.0	3.0	5.0	7.0	8.0	1.0	part_2
265	1.0	8.0			350.0	0.0	0.0							5.0	0.0	0.46794408714049496	5.0	300.0	4.0	3.0	4.0	3.0	0.0	part_2
266	1.0	8.0			350.0	0.0	0.0							5.0	0.0	0.53595403424697	5.0	300.0	4.0	3.0	4.0	3.0	0.0	part_2
267	1.0	8.0			350.0	0.0	0.0							5.0	0.0	0.6172578439945937	5.0	300.0	2.0	8.0	2.0	2.0	0.0	part_2
268	3.0	8.0			350.0	0.0	1.0							5.0	0.0	0.3475134866312146	5.0	300.0	3.0	5.0	7.0	8.0	1.0	part_2
269	1.0	8.0			300.0	0.0	0.0							6.0	0.0	0.425286138386582	6.0	300.0	1.0	6.0	1.0	7.0	0.0	part_2
270	3.0	8.0			300.0	0.0	1.0							5.0	0.0	0.2464119515134371	5.0	300.0	1.0	2.0	5.0	4.0	1.0	part_2
271	4.0	8.0			250.0	0.0	1.0							6.0	0.0	0.0	0.0	300.0	4.0	1.0	8.0	5.0	1.0	part_2
272	1.0	8.0			250.0	0.0	0.0							5.0	0.0	0.5970840425143251	5.0	350.0	3.0	4.0	3.0	6.0	0.0	part_2
273	1.0	8.0			250.0	0.0	0.0							6.0	0.0	0.306446030139341	6.0	350.0	3.0	4.0	3.0	6.0	0.0	part_2
274	4.0	8.0			250.0	0.0	1.0							5.0	0.0	0.0	0.0	350.0	4.0	1.0	8.0	5.0	1.0	part_2
275	1.0	8.0			300.0	0.0	0.0							5.0	0.0	0.5321987063871347	5.0	350.0	4.0	3.0	4.0	3.0	0.0	part_2
276	1.0	8.0			300.0	0.0	0.0							5.0	0.0	0.3872600716276793	5.0	350.0	1.0	6.0	1.0	7.0	0.0	part_2
277	3.0	8.0			300.0	0.0	1.0							6.0	0.0	0.44509526327601634	6.0	350.0	2.0	7.0	6.0	1.0	1.0	part_2
278	1.0	8.0			300.0	0.0	1.0							5.0	0.0	0.5795693913896685	5.0	300.0	4.0	1.0	8.0	5.0	0.0	part_2
279	1.0	8.0			300.0	0.0	0.0							6.0	0.0	0.3905872195173288	6.0	300.0	4.0	3.0	4.0	3.0	0.0	part_2
280	1.0	8.0			300.0	0.0	0.0							5.0	0.0	0.4910843408724759	5.0	300.0	4.0	3.0	4.0	3.0	0.0	part_2
281	1.0	8.0			300.0	0.0	0.0							6.0	0.0	0.39112013926933287	6.0	300.0	3.0	4.0	3.0	6.0	0.0	part_2
282	1.0	8.0			300.0	0.0	0.0							5.0	0.0	0.37090155175246764	5.0	300.0	4.0	3.0	4.0	3.0	0.0	part_2
283	1.0	8.0			300.0	0.0	0.0							6.0	0.0	0.4716160757598118	6.0	300.0	2.0	8.0	2.0	2.0	0.0	part_2
284	3.0	8.0			300.0	0.0	1.0							5.0	0.0	0.4380394983891165	5.0	300.0	3.0	5.0	7.0	8.0	1.0	part_2
285	1.0	8.0			250.0	0.0	0.0							5.0	0.0	0.48528891101886984	5.0	300.0	3.0	4.0	3.0	6.0	0.0	part_2
286	1.0	8.0			250.0	0.0	0.0							5.0	0.0	0.4519929630187107	5.0	300.0	2.0	8.0	2.0	2.0	0.0	part_2
287	3.0	8.0			250.0	0.0	1.0							5.0	0.0	0.36318439627211774	5.0	300.0	1.0	2.0	5.0	4.0	1.0	part_2
0	0.0	1.0	117.0	3.0	0.0	2.0	0.0	234.0	156.0	195.0	117.0	39.0	78.0	7.0	0.0	0.40607391640514834	4.0	0.0	2.0	8.0	2.0	2.0	0.0	part_3
1	0.0	1.0	234.0	6.0	0.0	1.0	1.0	78.0	39.0	234.0	117.0	156.0	195.0	7.0	0.0	1.362158471303701	3.0	0.0	1.0	2.0	5.0	4.0	0.0	part_3
2	0.0	1.0	156.0	4.0	0.0	1.0	1.0	39.0	195.0	117.0	234.0	78.0	156.0	7.0	0.0	0.935964382304519	6.0	0.0	2.0	7.0	6.0	1.0	0.0	part_3
3	0.0	1.0	136.0	4.0	0.0	1.0	1.0	34.0	136.0	204.0	102.0	170.0	68.0	7.0	0.0	1.1063428630950511	2.0	0.0	1.0	2.0	5.0	4.0	0.0	part_3
4	0.0	1.0	245.0	5.0	0.0	1.0	0.0	245.0	196.0	49.0	147.0	294.0	98.0	7.0	0.0	1.0624784814062878	1.0	0.0	3.0	4.0	3.0	6.0	0.0	part_3
5	0.0	1.0	176.0	4.0	0.0	1.0	0.0	88.0	44.0	264.0	132.0	176.0	220.0	7.0	0.0	0.7471368627084303	5.0	0.0	1.0	6.0	1.0	7.0	0.0	part_3
6	0.0	1.0	176.0	4.0	0.0	1.0	0.0	264.0	176.0	44.0	88.0	132.0	220.0	7.0	0.0	0.7481055667085457	2.0	0.0	4.0	3.0	4.0	3.0	0.0	part_3
7	0.0	1.0	294.0	6.0	0.0	1.0	0.0	196.0	147.0	98.0	245.0	294.0	49.0	7.0	0.0	0.7949061550971237	5.0	0.0	1.0	6.0	1.0	7.0	0.0	part_3
8	0.0	1.0	270.0	5.0	0.0	1.0	1.0	216.0	108.0	54.0	162.0	324.0	270.0	7.0	0.0	0.7285744403052377	6.0	0.0	4.0	1.0	8.0	5.0	0.0	part_3
9	0.0	1.0	220.0	5.0	0.0	1.0	1.0	44.0	176.0	88.0	132.0	264.0	220.0	7.0	0.0	1.0346029246065882	6.0	0.0	4.0	1.0	8.0	5.0	0.0	part_3
10	0.0	1.0	39.0	1.0	0.0	1.0	0.0	234.0	39.0	117.0	195.0	156.0	78.0	7.0	0.0	0.5388053240967565	2.0	0.0	4.0	3.0	4.0	3.0	0.0	part_3
11	0.0	1.0	216.0	4.0	0.0	1.0	0.0	162.0	270.0	108.0	216.0	54.0	324.0	7.0	0.0	0.8448771994080744	4.0	0.0	3.0	4.0	3.0	6.0	0.0	part_3
12	0.0	1.0	234.0	6.0	0.0	1.0	0.0	195.0	39.0	117.0	234.0	156.0	78.0	7.0	0.0	0.7336130746043636	4.0	0.0	3.0	4.0	3.0	6.0	0.0	part_3
13	0.0	1.0	170.0	5.0	0.0	1.0	0.0	204.0	170.0	34.0	136.0	102.0	68.0	7.0	0.0	0.6656902360045933	2.0	0.0	4.0	3.0	4.0	3.0	0.0	part_3
14	0.0	1.0	324.0	6.0	0.0	1.0	1.0	162.0	108.0	270.0	54.0	216.0	324.0	7.0	0.0	1.3660470200993586	6.0	0.0	2.0	7.0	6.0	1.0	0.0	part_3
15	0.0	1.0	204.0	6.0	0.0	1.0	1.0	34.0	102.0	68.0	204.0	170.0	136.0	7.0	0.0	1.3657768432967714	4.0	0.0	1.0	2.0	5.0	4.0	0.0	part_3
16	0.0	1.0	196.0	4.0	0.0	1.0	0.0	294.0	245.0	98.0	196.0	49.0	147.0	7.0	0.0	0.9742575357086025	4.0	0.0	1.0	6.0	1.0	7.0	0.0	part_3
17	0.0	1.0	132.0	3.0	0.0	1.0	1.0	264.0	132.0	44.0	88.0	176.0	220.0	7.0	0.0	0.7608985691986163	2.0	0.0	3.0	5.0	7.0	8.0	0.0	part_3
18	0.0	1.0	264.0	6.0	0.0	1.0	1.0	176.0	264.0	220.0	88.0	44.0	132.0	7.0	0.0	1.0883374690965866	2.0	0.0	2.0	7.0	6.0	1.0	0.0	part_3
19	0.0	1.0	204.0	6.0	0.0	1.0	1.0	34.0	204.0	136.0	102.0	68.0	170.0	7.0	0.0	0.7757270396032254	2.0	0.0	4.0	1.0	8.0	5.0	0.0	part_3
20	0.0	2.0	234.0	6.0	0.0	1.0	0.0	156.0	39.0	117.0	195.0	234.0	78.0	7.0	0.0	0.7650593909129384	5.0	0.0	1.0	6.0	1.0	7.0	0.0	part_3
21	0.0	2.0	294.0	6.0	0.0	1.0	1.0	147.0	294.0	245.0	196.0	49.0	98.0	7.0	0.0	0.6651067862039781	2.0	0.0	4.0	1.0	8.0	5.0	0.0	part_3
22	0.0	2.0	216.0	4.0	0.0	1.0	0.0	54.0	270.0	162.0	216.0	324.0	108.0	7.0	0.0	0.48533749660418835	4.0	0.0	1.0	6.0	1.0	7.0	0.0	part_3
23	0.0	2.0	147.0	3.0	0.0	1.0	0.0	49.0	196.0	98.0	245.0	294.0	147.0	7.0	0.0	0.9705828519072384	6.0	0.0	4.0	3.0	4.0	3.0	0.0	part_3
24	0.0	2.0	132.0	3.0	0.0	1.0	0.0	132.0	176.0	264.0	220.0	44.0	88.0	7.0	0.0	0.43041685450589284	1.0	0.0	3.0	4.0	3.0	6.0	0.0	part_3
25	0.0	2.0	147.0	3.0	0.0	1.0	0.0	245.0	147.0	294.0	49.0	196.0	98.0	7.0	0.0	0.7347964598084218	2.0	0.0	4.0	3.0	4.0	3.0	0.0	part_3
26	0.0	2.0	220.0	5.0	0.0	1.0	0.0	176.0	132.0	44.0	88.0	220.0	264.0	7.0	0.0	0.47932569430122385	5.0	0.0	2.0	8.0	2.0	2.0	0.0	part_3
27	0.0	2.0	44.0	1.0	0.0	1.0	1.0	44.0	220.0	132.0	264.0	88.0	176.0	7.0	0.0	0.4345683417050168	1.0	0.0	3.0	5.0	7.0	8.0	0.0	part_3
28	0.0	2.0	162.0	3.0	0.0	1.0	1.0	270.0	324.0	162.0	54.0	216.0	108.0	7.0	0.0	0.9410308242004248	3.0	0.0	4.0	1.0	8.0	5.0	0.0	part_3
29	0.0	2.0	220.0	5.0	0.0	1.0	1.0	176.0	264.0	88.0	132.0	44.0	220.0	7.0	0.0	0.6827574320996064	6.0	0.0	2.0	7.0	6.0	1.0	0.0	part_3
30	0.0	2.0	147.0	3.0	0.0	1.0	0.0	98.0	294.0	49.0	147.0	196.0	245.0	7.0	0.0	0.5603577630972723	4.0	0.0	2.0	8.0	2.0	2.0	0.0	part_3
31	0.0	2.0	204.0	6.0	0.0	1.0	1.0	136.0	102.0	68.0	34.0	204.0	170.0	7.0	0.0	1.079397412999242	5.0	0.0	2.0	7.0	6.0	1.0	0.0	part_3
32	0.0	2.0	204.0	6.0	0.0	1.0	1.0	68.0	34.0	136.0	204.0	102.0	170.0	7.0	0.0	0.5290647303045262	4.0	0.0	3.0	5.0	7.0	8.0	0.0	part_3
33	0.0	2.0	216.0	4.0	0.0	1.0	1.0	108.0	216.0	54.0	324.0	162.0	270.0	7.0	0.0	0.8235594908037456	2.0	0.0	1.0	2.0	5.0	4.0	0.0	part_3
34	0.0	2.0	220.0	5.0	0.0	1.0	1.0	264.0	88.0	132.0	220.0	176.0	44.0	7.0	0.0	0.767467331905209	4.0	0.0	1.0	2.0	5.0	4.0	0.0	part_3
35	0.0	2.0	117.0	3.0	0.0	1.0	0.0	117.0	195.0	156.0	39.0	78.0	234.0	7.0	0.0	0.7249118520994671	1.0	0.0	4.0	3.0	4.0	3.0	0.0	part_3
36	0.0	2.0	234.0	6.0	0.0	1.0	1.0	156.0	78.0	195.0	234.0	117.0	39.0	7.0	0.0	0.5220394498028327	4.0	0.0	2.0	7.0	6.0	1.0	0.0	part_3
37	0.0	2.0	132.0	3.0	0.0	1.0	0.0	88.0	132.0	264.0	176.0	44.0	220.0	7.0	0.0	0.5476218326075468	2.0	0.0	1.0	6.0	1.0	7.0	0.0	part_3
38	0.0	2.0	102.0	3.0	0.0	1.0	1.0	136.0	68.0	170.0	102.0	34.0	204.0	7.0	0.0	0.6027036016021157	4.0	0.0	2.0	7.0	6.0	1.0	0.0	part_3
39	0.0	2.0	264.0	6.0	0.0	1.0	1.0	264.0	44.0	176.0	88.0	132.0	220.0	7.0	0.0	0.9419319669977995	1.0	0.0	1.0	2.0	5.0	4.0	0.0	part_3
40	0.0	3.0	102.0	3.0	0.0	1.0	1.0	34.0	136.0	68.0	102.0	204.0	170.0	7.0	0.0	0.6923596522028674	4.0	0.0	3.0	5.0	7.0	8.0	0.0	part_3
41	0.0	3.0	216.0	4.0	0.0	1.0	1.0	324.0	270.0	54.0	108.0	216.0	162.0	7.0	0.0	1.0979822158042225	5.0	0.0	1.0	2.0	5.0	4.0	0.0	part_3
42	0.0	3.0	294.0	6.0	0.0	1.0	1.0	294.0	196.0	245.0	49.0	98.0	147.0	7.0	0.0	1.4483933142983005	1.0	0.0	1.0	2.0	5.0	4.0	0.0	part_3
43	0.0	3.0	162.0	3.0	0.0	1.0	0.0	270.0	216.0	324.0	162.0	54.0	108.0	7.0	0.0	0.7615709046076518	4.0	0.0	4.0	3.0	4.0	3.0	0.0	part_3
44	0.0	3.0	245.0	5.0	0.0	1.0	1.0	245.0	98.0	49.0	294.0	147.0	196.0	7.0	0.0	0.94250544620445	1.0	0.0	2.0	7.0	6.0	1.0	0.0	part_3
45	0.0	3.0	195.0	5.0	0.0	1.0	1.0	156.0	234.0	78.0	195.0	39.0	117.0	7.0	0.0	0.8648960428035934	4.0	0.0	1.0	2.0	5.0	4.0	0.0	part_3
46	0.0	3.0	147.0	3.0	0.0	1.0	1.0	49.0	294.0	147.0	196.0	98.0	245.0	7.0	0.0	0.92394350880204	3.0	0.0	1.0	2.0	5.0	4.0	0.0	part_3
47	0.0	3.0	176.0	4.0	0.0	1.0	0.0	132.0	176.0	88.0	220.0	264.0	44.0	7.0	0.0	1.2722515786008444	2.0	0.0	2.0	8.0	2.0	2.0	0.0	part_3
48	0.0	3.0	34.0	1.0	0.0	1.0	1.0	136.0	68.0	102.0	34.0	204.0	170.0	7.0	0.0	1.351858423804515	4.0	0.0	4.0	1.0	8.0	5.0	0.0	part_3
49	0.0	3.0	204.0	6.0	0.0	1.0	0.0	34.0	102.0	204.0	68.0	136.0	170.0	7.0	0.0	0.6795577125085401	3.0	0.0	1.0	6.0	1.0	7.0	0.0	part_3
50	0.0	3.0	170.0	5.0	0.0	1.0	0.0	204.0	170.0	34.0	136.0	68.0	102.0	7.0	0.0	1.1745043264090782	2.0	0.0	2.0	8.0	2.0	2.0	0.0	part_3
51	0.0	3.0	39.0	1.0	0.0	1.0	1.0	234.0	195.0	156.0	117.0	39.0	78.0	7.0	0.0	0.7253966651041992	5.0	0.0	3.0	5.0	7.0	8.0	0.0	part_3
52	0.0	3.0	54.0	1.0	0.0	1.0	0.0	216.0	54.0	270.0	108.0	324.0	162.0	7.0	0.0	1.1666849268076476	2.0	0.0	2.0	8.0	2.0	2.0	0.0	part_3
53	0.0	3.0	136.0	4.0	0.0	1.0	0.0	102.0	204.0	68.0	34.0	136.0	170.0	7.0	0.0	0.9074605136047467	5.0	0.0	3.0	4.0	3.0	6.0	0.0	part_3
54	0.0	3.0	294.0	6.0	0.0	1.0	1.0	49.0	147.0	294.0	245.0	196.0	98.0	7.0	0.0	0.9536827815027209	3.0	0.0	4.0	1.0	8.0	5.0	0.0	part_3
55	0.0	3.0	98.0	2.0	0.0	1.0	1.0	98.0	49.0	196.0	294.0	147.0	245.0	7.0	0.0	1.2028122228002758	1.0	0.0	2.0	7.0	6.0	1.0	0.0	part_3
56	0.0	3.0	98.0	2.0	0.0	1.0	0.0	196.0	98.0	245.0	147.0	294.0	49.0	7.0	0.0	1.2948790974041913	2.0	0.0	2.0	8.0	2.0	2.0	0.0	part_3
57	0.0	3.0	195.0	5.0	0.0	1.0	0.0	234.0	156.0	78.0	195.0	117.0	39.0	7.0	0.0	0.745081542605476	4.0	0.0	2.0	8.0	2.0	2.0	0.0	part_3
58	0.0	3.0	162.0	3.0	0.0	1.0	1.0	162.0	270.0	216.0	108.0	324.0	54.0	7.0	0.0	0.7784793426035321	1.0	0.0	3.0	5.0	7.0	8.0	0.0	part_3
59	0.0	3.0	108.0	2.0	0.0	1.0	0.0	54.0	324.0	162.0	216.0	270.0	108.0	7.0	0.0	1.4893309983017389	6.0	0.0	1.0	6.0	1.0	7.0	0.0	part_3
60	0.0	4.0	68.0	2.0	0.0	1.0	0.0	204.0	102.0	34.0	136.0	68.0	170.0	7.0	0.0	0.8512329699151451	5.0	0.0	3.0	4.0	3.0	6.0	0.0	part_3
61	0.0	4.0	39.0	1.0	0.0	1.0	1.0	156.0	117.0	39.0	234.0	195.0	78.0	7.0	0.0	1.2238021754019428	3.0	0.0	3.0	5.0	7.0	8.0	0.0	part_3
62	0.0	4.0	176.0	4.0	0.0	1.0	0.0	88.0	264.0	220.0	176.0	44.0	132.0	7.0	0.0	0.7295549530972494	4.0	0.0	4.0	3.0	4.0	3.0	0.0	part_3
63	0.0	4.0	220.0	5.0	0.0	1.0	1.0	176.0	44.0	264.0	88.0	220.0	132.0	7.0	0.0	0.898163867801486	5.0	0.0	4.0	1.0	8.0	5.0	0.0	part_3
64	0.0	4.0	98.0	2.0	0.0	1.0	1.0	196.0	294.0	98.0	147.0	49.0	245.0	7.0	0.0	0.9681294524052646	3.0	0.0	3.0	5.0	7.0	8.0	0.0	part_3
65	0.0	4.0	88.0	2.0	0.0	1.0	0.0	132.0	220.0	264.0	44.0	88.0	176.0	7.0	0.0	0.8223592243011808	5.0	0.0	3.0	4.0	3.0	6.0	0.0	part_3
66	0.0	4.0	117.0	3.0	0.0	1.0	0.0	39.0	117.0	234.0	156.0	78.0	195.0	7.0	0.0	1.0265665682090912	2.0	0.0	3.0	4.0	3.0	6.0	0.0	part_3
67	0.0	4.0	162.0	3.0	0.0	1.0	0.0	108.0	324.0	162.0	270.0	54.0	216.0	7.0	0.0	1.0493673969103838	3.0	0.0	2.0	8.0	2.0	2.0	0.0	part_3
68	0.0	4.0	195.0	5.0	0.0	1.0	0.0	39.0	234.0	156.0	195.0	78.0	117.0	7.0	0.0	1.0614204762023292	4.0	0.0	1.0	6.0	1.0	7.0	0.0	part_3
69	0.0	4.0	204.0	6.0	0.0	1.0	0.0	102.0	204.0	170.0	136.0	68.0	34.0	7.0	0.0	1.3324609062983654	2.0	0.0	4.0	3.0	4.0	3.0	0.0	part_3
70	0.0	4.0	49.0	1.0	0.0	1.0	0.0	147.0	294.0	196.0	49.0	98.0	245.0	7.0	0.0	1.1303601817126037	4.0	0.0	3.0	4.0	3.0	6.0	0.0	part_3
71	0.0	4.0	234.0	6.0	0.0	1.0	1.0	78.0	39.0	234.0	195.0	117.0	156.0	7.0	0.0	0.9527882936017704	3.0	0.0	4.0	1.0	8.0	5.0	0.0	part_3
72	0.0	4.0	196.0	4.0	0.0	1.0	1.0	98.0	196.0	245.0	147.0	294.0	49.0	7.0	0.0	1.156997390302422	2.0	0.0	3.0	5.0	7.0	8.0	0.0	part_3
73	0.0	4.0	108.0	2.0	0.0	1.0	1.0	54.0	270.0	324.0	108.0	216.0	162.0	7.0	0.0	0.7852634302034858	4.0	0.0	2.0	7.0	6.0	1.0	0.0	part_3
74	0.0	4.0	216.0	4.0	0.0	1.0	1.0	324.0	270.0	162.0	54.0	216.0	108.0	7.0	0.0	0.9664098515058868	5.0	0.0	3.0	5.0	7.0	8.0	0.0	part_3
75	0.0	4.0	162.0	3.0	0.0	1.0	0.0	270.0	162.0	324.0	216.0	54.0	108.0	7.0	0.0	1.158866274592583	2.0	0.0	4.0	3.0	4.0	3.0	0.0	part_3
76	0.0	4.0	102.0	3.0	0.0	1.0	0.0	204.0	102.0	170.0	68.0	136.0	34.0	7.0	0.0	1.1488639196031727	2.0	0.0	1.0	6.0	1.0	7.0	0.0	part_3
77	0.0	4.0	195.0	5.0	0.0	1.0	1.0	39.0	234.0	78.0	156.0	195.0	117.0	7.0	0.0	0.8339688136911718	5.0	0.0	4.0	1.0	8.0	5.0	0.0	part_3
78	0.0	4.0	170.0	5.0	0.0	1.0	0.0	68.0	102.0	170.0	204.0	34.0	136.0	7.0	0.0	1.1174108115956187	3.0	0.0	2.0	8.0	2.0	2.0	0.0	part_3
79	0.0	4.0	216.0	4.0	0.0	1.0	0.0	270.0	162.0	108.0	54.0	324.0	216.0	7.0	0.0	1.1968707524065394	6.0	0.0	3.0	4.0	3.0	6.0	0.0	part_3
