	accuracy	block	chosen_bidding_amount	chosen_bidding_level	left_SSD	num_trial_presentations	paired_with_stopping	possible_bid_1	possible_bid_2	possible_bid_3	possible_bid_4	possible_bid_5	possible_bid_6	quadrant	raw_reward_magnitude	reaction_time	response	right_SSD	stepwise_reward_magnitude	stim_color	stim_reward	stim_shape	stop_signal_trial_type	which_part
0		1.0				1.0	1.0							4.0	68.0	0.5565903529713978	4.0		1.0	6.0	5.0	5.0		part_1
1		1.0				1.0	1.0							4.0	0.0	0.32084058062537224	4.0		0.0	6.0	5.0	5.0		part_1
2		1.0				1.0	0.0							2.0	389.0	0.35614880565481144	2.0		4.0	1.0	4.0	8.0		part_1
3		1.0				1.0	0.0							2.0	118.0	0.3336925973162579	2.0		2.0	2.0	2.0	7.0		part_1
4		1.0				1.0	1.0							4.0	223.0	0.28930387865693774	4.0		3.0	8.0	7.0	2.0		part_1
5		1.0				1.0	1.0							3.0	198.0	0.312481475972163	3.0		3.0	8.0	7.0	2.0		part_1
6		1.0				1.0	0.0							1.0	28.0	0.31391363031434594	1.0		1.0	4.0	1.0	3.0		part_1
7		1.0				1.0	0.0							3.0	55.0	0.2668496029400558	3.0		1.0	4.0	1.0	3.0		part_1
8		1.0				1.0	1.0							2.0	118.0	0.30243137828438194	2.0		2.0	5.0	6.0	4.0		part_1
9		1.0				1.0	0.0							2.0	423.0	0.32491173331436585	2.0		4.0	1.0	4.0	8.0		part_1
10		1.0				1.0	0.0							3.0	196.0	0.23643053565683658	3.0		3.0	3.0	3.0	6.0		part_1
11		1.0				1.0	0.0							3.0	220.0	0.30490046693739714	3.0		3.0	3.0	3.0	6.0		part_1
12		1.0				1.0	0.0							3.0	45.0	0.2932704229679075	3.0		1.0	4.0	1.0	3.0		part_1
13		1.0				1.0	0.0							1.0	123.0	0.3270150623175141	1.0		2.0	2.0	2.0	7.0		part_1
14		1.0				1.0	1.0							4.0	185.0	0.249593129283312	4.0		3.0	8.0	7.0	2.0		part_1
15		1.0				1.0	1.0							4.0	0.0	0.20579350793923368	4.0		0.0	8.0	7.0	2.0		part_1
16		1.0				1.0	0.0							1.0	36.0	0.2631466629682109	1.0		1.0	4.0	1.0	3.0		part_1
17		1.0				1.0	0.0							4.0	51.0	0.2395706716015411	4.0		1.0	4.0	1.0	3.0		part_1
18		1.0				2.0	1.0							1.0	419.0	0.3752764532837318	1.0		4.0	7.0	8.0	1.0		part_1
19		1.0				1.0	0.0							1.0	47.0	0.3421482776575431	1.0		1.0	4.0	1.0	3.0		part_1
20		1.0				1.0	0.0							4.0	211.0	0.41229170931183035	4.0		3.0	3.0	3.0	6.0		part_1
21		1.0				1.0	0.0							4.0	195.0	0.3551869632829039	4.0		3.0	3.0	3.0	6.0		part_1
22		1.0				1.0	1.0							3.0	421.0	0.309934758257441	3.0		4.0	7.0	8.0	1.0		part_1
23		1.0				1.0	0.0							4.0	207.0	0.40199333962300443	4.0		3.0	3.0	3.0	6.0		part_1
24		1.0				1.0	1.0							4.0	111.0	0.3673775315983221	4.0		2.0	5.0	6.0	4.0		part_1
25		1.0				1.0	1.0							3.0	94.0	0.3249364259390859	3.0		2.0	5.0	6.0	4.0		part_1
26		1.0				1.0	0.0							2.0	0.0	0.33438063894209336	2.0		0.0	3.0	3.0	6.0		part_1
27		1.0				1.0	0.0							1.0	0.0	0.2919146359708975	1.0		0.0	1.0	4.0	8.0		part_1
28		1.0				2.0	0.0							1.0	109.0	0.3482696893152024	1.0		2.0	2.0	2.0	7.0		part_1
29		1.0				1.0	1.0							2.0	180.0	0.3712893943156814	2.0		3.0	8.0	7.0	2.0		part_1
30		1.0				1.0	1.0							3.0	403.0	0.3723728099394066	3.0		4.0	7.0	8.0	1.0		part_1
31		1.0				1.0	1.0							1.0	382.0	0.3392478502828453	1.0		4.0	7.0	8.0	1.0		part_1
32		1.0				1.0	1.0							2.0	124.0	0.30473198331310414	2.0		2.0	5.0	6.0	4.0		part_1
33		1.0				1.0	0.0							4.0	0.0	0.3725571799695899	4.0		0.0	1.0	4.0	8.0		part_1
34		1.0				1.0	0.0							4.0	68.0	0.3622712862561457	4.0		1.0	4.0	1.0	3.0		part_1
35		1.0				1.0	0.0							4.0	98.0	0.35197222462738864	4.0		2.0	2.0	2.0	7.0		part_1
36		1.0				1.0	1.0							2.0	418.0	0.2957749886554666	2.0		4.0	7.0	8.0	1.0		part_1
37		1.0				1.0	0.0							1.0	55.0	0.3528182032096083	1.0		1.0	4.0	1.0	3.0		part_1
38		1.0				1.0	1.0							4.0	48.0	0.3313390509720193	4.0		1.0	6.0	5.0	5.0		part_1
39		1.0				1.0	1.0							1.0	392.0	0.3103015589695133	1.0		4.0	7.0	8.0	1.0		part_1
40		1.0				1.0	1.0							3.0	47.0	0.2984761633160815	3.0		1.0	6.0	5.0	5.0		part_1
41		1.0				1.0	0.0							2.0	212.0	0.277850670285261	2.0		3.0	3.0	3.0	6.0		part_1
42		1.0				1.0	1.0							2.0	189.0	0.311970525970537	2.0		3.0	8.0	7.0	2.0		part_1
43		1.0				1.0	1.0							4.0	225.0	0.3783497492840979	4.0		3.0	8.0	7.0	2.0		part_1
44		1.0				1.0	0.0							2.0	59.0	0.36933769565439434	2.0		1.0	4.0	1.0	3.0		part_1
45		1.0				1.0	1.0							4.0	32.0	0.3563065496273339	4.0		1.0	6.0	5.0	5.0		part_1
46		1.0				1.0	0.0							1.0	29.0	0.27868550793937175	1.0		1.0	4.0	1.0	3.0		part_1
47		1.0				1.0	0.0							2.0	68.0	0.2684290019387845	2.0		1.0	4.0	1.0	3.0		part_1
48		1.0				1.0	0.0							3.0	392.0	0.29140645393999876	3.0		4.0	1.0	4.0	8.0		part_1
49		1.0				1.0	0.0							2.0	83.0	0.31414652959938394	2.0		2.0	2.0	2.0	7.0		part_1
50		1.0				1.0	0.0							4.0	119.0	0.3272643569398497	4.0		2.0	2.0	2.0	7.0		part_1
51		1.0				1.0	1.0							1.0	179.0	0.2608165013152757	1.0		3.0	8.0	7.0	2.0		part_1
52		1.0				1.0	1.0							1.0	415.0	0.32722162831487367	1.0		4.0	7.0	8.0	1.0		part_1
53		1.0				1.0	1.0							2.0	54.0	0.3047477536238148	2.0		1.0	6.0	5.0	5.0		part_1
54		1.0				1.0	0.0							4.0	216.0	0.282493501312274	4.0		3.0	3.0	3.0	6.0		part_1
55		1.0				1.0	1.0							3.0	0.0	0.34007266631306265	3.0		0.0	5.0	6.0	4.0		part_1
56		1.0				1.0	1.0							4.0	179.0	0.3292641083171475	4.0		3.0	8.0	7.0	2.0		part_1
57		1.0				1.0	0.0							4.0	0.0	0.2869094779707666	4.0		0.0	1.0	4.0	8.0		part_1
58		1.0				1.0	0.0							2.0	0.0	0.29812397062778473	2.0		0.0	3.0	3.0	6.0		part_1
59		1.0				1.0	1.0							2.0	380.0	0.2874124992558791	2.0		4.0	7.0	8.0	1.0		part_1
60		1.0				1.0	1.0							3.0	201.0	0.29888732762628933	3.0		3.0	8.0	7.0	2.0		part_1
61		1.0				1.0	1.0							1.0	69.0	0.2772996306557616	1.0		1.0	6.0	5.0	5.0		part_1
62		1.0				1.0	0.0							2.0	32.0	0.33349340359927737	2.0		1.0	4.0	1.0	3.0		part_1
63		1.0				1.0	0.0							3.0	0.0	0.26696713157070917	3.0		0.0	1.0	4.0	8.0		part_1
64		1.0				1.0	0.0							3.0	415.0	0.32266712394266506	3.0		4.0	1.0	4.0	8.0		part_1
65		1.0				1.0	1.0							1.0	216.0	0.36796685099761817	1.0		3.0	8.0	7.0	2.0		part_1
66		1.0				1.0	0.0							1.0	392.0	0.40246718865819275	1.0		4.0	1.0	4.0	8.0		part_1
67		1.0				1.0	1.0							4.0	74.0	0.37995259290983086	4.0		1.0	6.0	5.0	5.0		part_1
68		1.0				1.0	0.0							3.0	193.0	0.31394763962453	3.0		3.0	3.0	3.0	6.0		part_1
69		1.0				1.0	0.0							3.0	418.0	0.3134150339428743	3.0		4.0	1.0	4.0	8.0		part_1
70		1.0				2.0	0.0							3.0	124.0	0.3493259023161954	3.0		2.0	2.0	2.0	7.0		part_1
71		1.0				1.0	1.0							3.0	207.0	0.305647962315561	3.0		3.0	8.0	7.0	2.0		part_1
72		1.0				1.0	0.0							3.0	83.0	0.33919084731678595	3.0		2.0	2.0	2.0	7.0		part_1
73		1.0				1.0	0.0							1.0	421.0	0.3518899376576883	1.0		4.0	1.0	4.0	8.0		part_1
74		1.0				1.0	0.0							4.0	401.0	0.3295173249716754	4.0		4.0	1.0	4.0	8.0		part_1
75		1.0				1.0	0.0							4.0	94.0	0.33939005299907876	4.0		2.0	2.0	2.0	7.0		part_1
76		1.0				2.0	0.0							1.0	90.0	0.3753581836244848	1.0		2.0	2.0	2.0	7.0		part_1
77		1.0				1.0	1.0							2.0	47.0	0.41057462025491986	2.0		1.0	6.0	5.0	5.0		part_1
78		1.0				1.0	1.0							1.0	389.0	0.6242440085989074	1.0		4.0	7.0	8.0	1.0		part_1
79		1.0				1.0	1.0							4.0	123.0	0.5010493182853679	4.0		2.0	5.0	6.0	4.0		part_1
80		1.0				1.0	1.0							4.0	39.0	0.4333973345965205	4.0		1.0	6.0	5.0	5.0		part_1
81		1.0				1.0	0.0							2.0	0.0	0.40011393660097383	2.0		0.0	2.0	2.0	7.0		part_1
82		1.0				1.0	1.0							4.0	111.0	0.34480351231468376	4.0		2.0	5.0	6.0	4.0		part_1
83		1.0				1.0	1.0							3.0	0.0	0.3897434289101511	3.0		0.0	6.0	5.0	5.0		part_1
84		1.0				1.0	0.0							3.0	387.0	0.30027397100275266	3.0		4.0	1.0	4.0	8.0		part_1
85		1.0				1.0	1.0							1.0	110.0	0.3025801372532442	1.0		2.0	5.0	6.0	4.0		part_1
86		1.0				1.0	0.0							1.0	0.0	0.4263640143144585	1.0		0.0	2.0	2.0	7.0		part_1
87		1.0				1.0	0.0							4.0	193.0	0.4382801196552464	4.0		3.0	3.0	3.0	6.0		part_1
88		1.0				1.0	0.0							2.0	37.0	0.4041189345989551	2.0		1.0	4.0	1.0	3.0		part_1
89		1.0				1.0	1.0							4.0	27.0	0.4156467232533032	4.0		1.0	6.0	5.0	5.0		part_1
90		1.0				1.0	1.0							1.0	0.0	0.416720778313902	1.0		0.0	5.0	6.0	4.0		part_1
91		1.0				1.0	0.0							1.0	196.0	0.4176646032865392	1.0		3.0	3.0	3.0	6.0		part_1
92		1.0				1.0	1.0							4.0	76.0	0.41927087465592194	4.0		2.0	5.0	6.0	4.0		part_1
93		1.0				1.0	0.0							2.0	0.0	0.508810820600047	2.0		0.0	3.0	3.0	6.0		part_1
94		1.0				1.0	0.0							2.0	0.0	0.4077571059387992	2.0		0.0	2.0	2.0	7.0		part_1
95		1.0				1.0	1.0							2.0	36.0	0.2961089349410031	2.0		1.0	6.0	5.0	5.0		part_1
96		1.0				1.0	1.0							4.0	0.0	0.44365586260028067	4.0		0.0	6.0	5.0	5.0		part_1
97		1.0				1.0	0.0							2.0	40.0	0.4097246426536003	2.0		1.0	4.0	1.0	3.0		part_1
98		1.0				1.0	1.0							1.0	95.0	0.4321939633155125	1.0		2.0	5.0	6.0	4.0		part_1
99		1.0				1.0	0.0							3.0	47.0	0.4334499686556228	3.0		1.0	4.0	1.0	3.0		part_1
100		2.0				1.0	0.0							4.0	71.0	0.49007346165308263	4.0		1.0	4.0	1.0	3.0		part_1
101		2.0				1.0	0.0							2.0	198.0	0.4227207949697913	2.0		3.0	3.0	3.0	6.0		part_1
102		2.0				1.0	1.0							2.0	54.0	0.32250533594196895	2.0		1.0	6.0	5.0	5.0		part_1
103		2.0				1.0	1.0							3.0	412.0	0.32256206165402546	3.0		4.0	7.0	8.0	1.0		part_1
104		2.0				1.0	0.0							2.0	187.0	0.32516985265465337	2.0		3.0	3.0	3.0	6.0		part_1
105		2.0				1.0	0.0							1.0	384.0	0.42558163831563434	1.0		4.0	1.0	4.0	8.0		part_1
106		2.0				1.0	0.0							4.0	27.0	0.42595345134759555	4.0		1.0	4.0	1.0	3.0		part_1
107		2.0				1.0	1.0							4.0	0.0	0.40444907928758767	4.0		0.0	5.0	6.0	4.0		part_1
108		2.0				1.0	1.0							3.0	0.0	0.31484654762607533	3.0		0.0	5.0	6.0	4.0		part_1
109		2.0				1.0	1.0							1.0	29.0	0.34870129962655483	1.0		1.0	6.0	5.0	5.0		part_1
110		2.0				1.0	1.0							4.0	395.0	0.36023664294043556	4.0		4.0	7.0	8.0	1.0		part_1
111		2.0				1.0	1.0							4.0	211.0	0.3954924609424779	4.0		3.0	8.0	7.0	2.0		part_1
112		2.0				1.0	0.0							2.0	386.0	0.38380857828451553	2.0		4.0	1.0	4.0	8.0		part_1
113		2.0				1.0	1.0							4.0	0.0	0.32896968660134007	4.0		0.0	7.0	8.0	1.0		part_1
114		2.0				1.0	1.0							3.0	0.0	0.3632222546002595	3.0		0.0	8.0	7.0	2.0		part_1
115		2.0				1.0	1.0							2.0	48.0	0.32902345962429536	2.0		1.0	6.0	5.0	5.0		part_1
116		2.0				1.0	0.0							2.0	216.0	0.4088391989716911	2.0		3.0	3.0	3.0	6.0		part_1
117		2.0				1.0	1.0							4.0	98.0	0.33085422890871996	4.0		2.0	5.0	6.0	4.0		part_1
118		2.0				1.0	0.0							4.0	386.0	0.36473647265302134	4.0		4.0	1.0	4.0	8.0		part_1
119		2.0				1.0	1.0							3.0	47.0	0.4106833922851365	3.0		1.0	6.0	5.0	5.0		part_1
120		2.0				1.0	0.0							4.0	0.0	0.37671501928707585	4.0		0.0	3.0	3.0	6.0		part_1
121		2.0				1.0	1.0							2.0	90.0	0.45763644362523337	2.0		2.0	5.0	6.0	4.0		part_1
122		2.0				1.0	0.0							3.0	0.0	0.33319883399963146	3.0		0.0	2.0	2.0	7.0		part_1
123		2.0				1.0	0.0							1.0	182.0	0.5715337966030347	1.0		3.0	3.0	3.0	6.0		part_1
124		2.0				1.0	0.0							3.0	401.0	0.4126338123132882	3.0		4.0	1.0	4.0	8.0		part_1
125		2.0				1.0	1.0							3.0	91.0	0.3910837996263581	3.0		2.0	5.0	6.0	4.0		part_1
126		2.0				1.0	1.0							1.0	40.0	0.48162675862477045	1.0		1.0	6.0	5.0	5.0		part_1
127		2.0				1.0	0.0							4.0	180.0	0.3812690746271983	4.0		3.0	3.0	3.0	6.0		part_1
128		2.0				1.0	0.0							3.0	47.0	0.32675614925756236	3.0		1.0	4.0	1.0	3.0		part_1
129		2.0				1.0	0.0							4.0	204.0	0.3832470309389464	4.0		3.0	3.0	3.0	6.0		part_1
130		2.0				1.0	0.0							3.0	0.0	0.7199402979422302	3.0		0.0	1.0	4.0	8.0		part_1
131		2.0				1.0	0.0							3.0	409.0	0.34957842294170405	3.0		4.0	1.0	4.0	8.0		part_1
132		2.0				1.0	0.0							4.0	395.0	0.36195340396807296	4.0		4.0	1.0	4.0	8.0		part_1
133		2.0				1.0	0.0							2.0	202.0	0.3508285955977044	2.0		3.0	3.0	3.0	6.0		part_1
134		2.0				1.0	1.0							2.0	412.0	0.30618387893991894	2.0		4.0	7.0	8.0	1.0		part_1
135		2.0				1.0	1.0							3.0	193.0	0.3410738956554269	3.0		3.0	8.0	7.0	2.0		part_1
136		2.0				1.0	0.0							3.0	175.0	0.3744693670014385	3.0		3.0	3.0	3.0	6.0		part_1
137		2.0				2.0	1.0							2.0	410.0	0.41005166625473066	2.0		4.0	7.0	8.0	1.0		part_1
138		2.0				1.0	1.0							2.0	204.0	0.479569016941241	2.0		3.0	8.0	7.0	2.0		part_1
139		2.0				1.0	0.0							3.0	403.0	0.38864675760123646	3.0		4.0	1.0	4.0	8.0		part_1
140		2.0				1.0	0.0							1.0	179.0	0.5254962283142959	1.0		3.0	3.0	3.0	6.0		part_1
141		2.0				1.0	0.0							3.0	0.0	0.5029180709680077	3.0		0.0	4.0	1.0	3.0		part_1
142		2.0				1.0	0.0							1.0	0.0	0.44656646894145524	1.0		0.0	3.0	3.0	6.0		part_1
143		2.0				1.0	1.0							2.0	187.0	0.4022751096235879	2.0		3.0	8.0	7.0	2.0		part_1
144		2.0				1.0	1.0							4.0	0.0	0.38002241059803055	4.0		0.0	6.0	5.0	5.0		part_1
145		2.0				1.0	1.0							4.0	68.0	0.5152028122829506	4.0		1.0	6.0	5.0	5.0		part_1
146		2.0				1.0	0.0							2.0	30.0	0.36995358965577907	2.0		1.0	4.0	1.0	3.0		part_1
147		2.0				1.0	1.0							1.0	212.0	0.5176476799679222	1.0		3.0	8.0	7.0	2.0		part_1
148		2.0				1.0	1.0							2.0	401.0	0.4164611402557057	2.0		4.0	7.0	8.0	1.0		part_1
149		2.0				1.0	1.0							3.0	82.0	0.34919045396964066	3.0		2.0	5.0	6.0	4.0		part_1
150		2.0				1.0	1.0							1.0	32.0	0.4053043776548293	1.0		1.0	6.0	5.0	5.0		part_1
151		2.0				1.0	0.0							1.0	195.0	0.4961737133162387	1.0		3.0	3.0	3.0	6.0		part_1
152		2.0				1.0	0.0							2.0	70.0	0.44059244796881103	2.0		1.0	4.0	1.0	3.0		part_1
153		2.0				1.0	0.0							2.0	97.0	0.385562385970843	2.0		2.0	2.0	2.0	7.0		part_1
154		2.0				1.0	0.0							3.0	67.0	0.42945232793863397	3.0		1.0	4.0	1.0	3.0		part_1
155		2.0				1.0	1.0							3.0	0.0	0.3512889155972516	3.0		0.0	7.0	8.0	1.0		part_1
156		2.0				1.0	0.0							2.0	382.0	0.36430925159947947	2.0		4.0	1.0	4.0	8.0		part_1
157		2.0				1.0	0.0							2.0	185.0	0.36584280660099466	2.0		3.0	3.0	3.0	6.0		part_1
158		2.0				1.0	1.0							1.0	125.0	0.454459546966973	1.0		2.0	5.0	6.0	4.0		part_1
159		2.0				1.0	1.0							4.0	0.0	0.5454640259995358	4.0		0.0	8.0	7.0	2.0		part_1
160		2.0				1.0	0.0							4.0	0.0	0.44444920297246426	4.0		0.0	4.0	1.0	3.0		part_1
161		2.0				1.0	0.0							4.0	76.0	0.378422192625294	4.0		2.0	2.0	2.0	7.0		part_1
162		2.0				1.0	0.0							3.0	0.0	0.36692553796819993	3.0		0.0	1.0	4.0	8.0		part_1
163		2.0				1.0	1.0							2.0	116.0	0.312670598654222	2.0		2.0	5.0	6.0	4.0		part_1
164		2.0				1.0	1.0							3.0	212.0	0.3123783362862014	3.0		3.0	8.0	7.0	2.0		part_1
165		2.0				1.0	0.0							1.0	224.0	0.38170631831599167	1.0		3.0	3.0	3.0	6.0		part_1
166		2.0				1.0	0.0							4.0	52.0	0.3923106806250871	4.0		1.0	4.0	1.0	3.0		part_1
167		2.0				1.0	0.0							3.0	193.0	0.39321117399958894	3.0		3.0	3.0	3.0	6.0		part_1
168		2.0				1.0	1.0							1.0	0.0	0.33664660603244556	1.0		0.0	5.0	6.0	4.0		part_1
169		2.0				1.0	1.0							1.0	0.0	0.3937692836007045	1.0		0.0	5.0	6.0	4.0		part_1
170		2.0				1.0	0.0							2.0	120.0	0.3056912459433079	2.0		2.0	2.0	2.0	7.0		part_1
171		2.0				1.0	0.0							2.0	0.0	0.40580427497116034	2.0		0.0	2.0	2.0	7.0		part_1
172		2.0				1.0	1.0							3.0	421.0	0.37381975731477723	3.0		4.0	7.0	8.0	1.0		part_1
173		2.0				1.0	0.0							2.0	189.0	0.3075410969722725	2.0		3.0	3.0	3.0	6.0		part_1
174		2.0				1.0	1.0							3.0	61.0	0.37460101934266277	3.0		1.0	6.0	5.0	5.0		part_1
175		2.0				1.0	1.0							4.0	51.0	0.3303506733136601	4.0		1.0	6.0	5.0	5.0		part_1
176		2.0				1.0	1.0							1.0	83.0	0.2973485366565001	1.0		2.0	5.0	6.0	4.0		part_1
177		2.0				1.0	0.0							4.0	73.0	0.3525512025989883	4.0		1.0	4.0	1.0	3.0		part_1
178		2.0				1.0	0.0							1.0	69.0	0.3100053259986453	1.0		1.0	4.0	1.0	3.0		part_1
179		2.0				1.0	1.0							4.0	180.0	0.3553041239392769	4.0		3.0	8.0	7.0	2.0		part_1
180		2.0				1.0	1.0							1.0	30.0	0.2983977930016408	1.0		1.0	6.0	5.0	5.0		part_1
181		2.0				1.0	1.0							3.0	0.0	0.40004888797193416	3.0		0.0	8.0	7.0	2.0		part_1
182		2.0				1.0	0.0							4.0	392.0	0.6260084142850246	4.0		4.0	1.0	4.0	8.0		part_1
183		2.0				1.0	1.0							3.0	83.0	0.4013838106257026	3.0		2.0	5.0	6.0	4.0		part_1
184		2.0				1.0	0.0							1.0	125.0	0.4032324646541383	1.0		2.0	2.0	2.0	7.0		part_1
185		2.0				1.0	1.0							4.0	392.0	0.3699628662543546	4.0		4.0	7.0	8.0	1.0		part_1
186		2.0				1.0	1.0							4.0	423.0	0.35759327731648227	4.0		4.0	7.0	8.0	1.0		part_1
187		2.0				1.0	1.0							4.0	98.0	0.3463033233128954	4.0		2.0	5.0	6.0	4.0		part_1
188		2.0				1.0	1.0							1.0	120.0	0.4838323479380051	1.0		2.0	5.0	6.0	4.0		part_1
189		2.0				1.0	1.0							2.0	43.0	0.40430494928295957	2.0		1.0	6.0	5.0	5.0		part_1
190		2.0				1.0	1.0							2.0	67.0	0.36017554893987835	2.0		1.0	6.0	5.0	5.0		part_1
191		2.0				1.0	1.0							3.0	102.0	0.31589559765779995	3.0		2.0	5.0	6.0	4.0		part_1
192		2.0				1.0	0.0							3.0	0.0	0.36130384928401327	3.0		0.0	4.0	1.0	3.0		part_1
193		2.0				1.0	1.0							1.0	0.0	0.4514884519703628	1.0		0.0	7.0	8.0	1.0		part_1
194		2.0				1.0	0.0							4.0	421.0	0.3636513242854562	4.0		4.0	1.0	4.0	8.0		part_1
195		2.0				1.0	1.0							3.0	68.0	0.3626764992841345	3.0		1.0	6.0	5.0	5.0		part_1
196		2.0				1.0	0.0							3.0	116.0	0.42061400262537063	3.0		2.0	2.0	2.0	7.0		part_1
197		2.0				1.0	1.0							3.0	218.0	0.37410274194189697	3.0		3.0	8.0	7.0	2.0		part_1
198		2.0				1.0	0.0							4.0	106.0	0.3760132622846868	4.0		2.0	2.0	2.0	7.0		part_1
199		2.0				1.0	1.0							3.0	77.0	0.38746146462653996	3.0		2.0	5.0	6.0	4.0		part_1
200		3.0				1.0	1.0							3.0	195.0	0.44123103794117924	3.0		3.0	8.0	7.0	2.0		part_1
201		3.0				1.0	1.0							1.0	84.0	0.48675877794084954	1.0		2.0	5.0	6.0	4.0		part_1
202		3.0				1.0	0.0							4.0	394.0	0.35167370428462164	4.0		4.0	1.0	4.0	8.0		part_1
203		3.0				1.0	0.0							2.0	103.0	0.3527410299393523	2.0		2.0	2.0	2.0	7.0		part_1
204		3.0				1.0	1.0							2.0	421.0	0.37521855196973775	2.0		4.0	7.0	8.0	1.0		part_1
205		3.0				1.0	1.0							2.0	0.0	0.35355378693930106	2.0		0.0	5.0	6.0	4.0		part_1
206		3.0				1.0	0.0							1.0	212.0	0.3764027399411134	1.0		3.0	3.0	3.0	6.0		part_1
207		3.0				1.0	0.0							3.0	82.0	0.378140747314319	3.0		2.0	2.0	2.0	7.0		part_1
208		3.0				1.0	1.0							2.0	27.0	0.3210592292853107	2.0		1.0	6.0	5.0	5.0		part_1
209		3.0				1.0	0.0							2.0	406.0	0.34457050493801944	2.0		4.0	1.0	4.0	8.0		part_1
210		3.0				1.0	0.0							4.0	0.0	0.35650184831320075	4.0		0.0	4.0	1.0	3.0		part_1
211		3.0				1.0	0.0							2.0	84.0	0.32410272896959214	2.0		2.0	2.0	2.0	7.0		part_1
212		3.0				1.0	1.0							1.0	0.0	0.4261555363154912	1.0		0.0	8.0	7.0	2.0		part_1
213		3.0				1.0	0.0							1.0	413.0	0.41516463796870084	1.0		4.0	1.0	4.0	8.0		part_1
214		3.0				1.0	0.0							1.0	399.0	0.3690227422521275	1.0		4.0	1.0	4.0	8.0		part_1
215		3.0				1.0	0.0							2.0	377.0	0.348266689285083	2.0		4.0	1.0	4.0	8.0		part_1
216		3.0				1.0	0.0							3.0	397.0	0.3358657999706338	3.0		4.0	1.0	4.0	8.0		part_1
217		3.0				1.0	1.0							3.0	386.0	0.38167178759977105	3.0		4.0	7.0	8.0	1.0		part_1
218		3.0				1.0	0.0							4.0	223.0	0.4287440712832904	4.0		3.0	3.0	3.0	6.0		part_1
219		3.0				1.0	0.0							4.0	179.0	0.36082507128230645	4.0		3.0	3.0	3.0	6.0		part_1
220		3.0				1.0	1.0							4.0	36.0	0.38445925393898506	4.0		1.0	6.0	5.0	5.0		part_1
221		3.0				1.0	0.0							4.0	101.0	0.37455940099971485	4.0		2.0	2.0	2.0	7.0		part_1
222		3.0				1.0	0.0							1.0	111.0	0.4187129359415849	1.0		2.0	2.0	2.0	7.0		part_1
223		3.0				1.0	0.0							4.0	80.0	0.35184539190959185	4.0		2.0	2.0	2.0	7.0		part_1
224		3.0				1.0	0.0							2.0	110.0	0.35194685190799646	2.0		2.0	2.0	2.0	7.0		part_1
225		3.0				1.0	0.0							3.0	0.0	0.40979627965498366	3.0		0.0	1.0	4.0	8.0		part_1
226		3.0				1.0	0.0							2.0	401.0	0.3868380569401779	2.0		4.0	1.0	4.0	8.0		part_1
227		3.0				1.0	1.0							2.0	212.0	0.38774055362591753	2.0		3.0	8.0	7.0	2.0		part_1
228		3.0				1.0	1.0							3.0	64.0	0.3671137129094859	3.0		1.0	6.0	5.0	5.0		part_1
229		3.0				1.0	1.0							2.0	109.0	0.3231713099703484	2.0		2.0	5.0	6.0	4.0		part_1
230		3.0				1.0	0.0							2.0	54.0	0.39127625828405144	2.0		1.0	4.0	1.0	3.0		part_1
231		3.0				1.0	0.0							2.0	43.0	0.31289550696965307	2.0		1.0	4.0	1.0	3.0		part_1
232		3.0				1.0	1.0							1.0	0.0	0.38999767494169646	1.0		0.0	8.0	7.0	2.0		part_1
233		3.0				1.0	1.0							4.0	0.0	0.3349223216282553	4.0		0.0	7.0	8.0	1.0		part_1
234		3.0				1.0	0.0							4.0	0.0	0.39246724831536994	4.0		0.0	2.0	2.0	7.0		part_1
235		3.0				1.0	0.0							3.0	0.0	0.3800875059678219	3.0		0.0	3.0	3.0	6.0		part_1
236		3.0				1.0	0.0							3.0	0.0	0.37069445762608666	3.0		0.0	1.0	4.0	8.0		part_1
237		3.0				1.0	0.0							2.0	412.0	0.4048969893156027	2.0		4.0	1.0	4.0	8.0		part_1
238		3.0				1.0	1.0							4.0	62.0	0.38453586562536657	4.0		1.0	6.0	5.0	5.0		part_1
239		3.0				1.0	1.0							4.0	0.0	0.37135856365421205	4.0		0.0	5.0	6.0	4.0		part_1
240		3.0				1.0	1.0							4.0	384.0	0.3395081262533495	4.0		4.0	7.0	8.0	1.0		part_1
241		3.0				1.0	0.0							4.0	0.0	0.3278442666232877	4.0		0.0	4.0	1.0	3.0		part_1
242		3.0				1.0	1.0							2.0	0.0	0.4197301939711906	2.0		0.0	7.0	8.0	1.0		part_1
243		3.0				1.0	1.0							3.0	27.0	0.37404556359979324	3.0		1.0	6.0	5.0	5.0		part_1
244		3.0				1.0	1.0							4.0	0.0	0.43111398125620326	4.0		0.0	6.0	5.0	5.0		part_1
245		3.0				1.0	1.0							2.0	43.0	0.43274152097001206	2.0		1.0	6.0	5.0	5.0		part_1
246		3.0				1.0	1.0							4.0	196.0	0.31967041865573265	4.0		3.0	8.0	7.0	2.0		part_1
247		3.0				1.0	1.0							3.0	94.0	0.35361416525483946	3.0		2.0	5.0	6.0	4.0		part_1
248		3.0				1.0	0.0							4.0	0.0	0.44629352031552116	4.0		0.0	3.0	3.0	6.0		part_1
249		3.0				1.0	0.0							3.0	74.0	0.4235685086568992	3.0		1.0	4.0	1.0	3.0		part_1
250		3.0				1.0	0.0							3.0	0.0	0.401041296285257	3.0		0.0	4.0	1.0	3.0		part_1
251		3.0				1.0	1.0							3.0	0.0	0.39082219828196685	3.0		0.0	7.0	8.0	1.0		part_1
252		3.0				1.0	1.0							2.0	185.0	0.4026882039725024	2.0		3.0	8.0	7.0	2.0		part_1
253		3.0				1.0	0.0							4.0	218.0	0.43586181359933107	4.0		3.0	3.0	3.0	6.0		part_1
254		3.0				1.0	1.0							1.0	196.0	0.5278872979724838	1.0		3.0	8.0	7.0	2.0		part_1
255		3.0				1.0	1.0							3.0	45.0	0.4482881972871837	3.0		1.0	6.0	5.0	5.0		part_1
256		3.0				1.0	1.0							3.0	390.0	0.4380278329408611	3.0		4.0	7.0	8.0	1.0		part_1
257		3.0				1.0	0.0							2.0	107.0	0.4037587239399727	2.0		2.0	2.0	2.0	7.0		part_1
258		3.0				1.0	1.0							4.0	0.0	0.539085278967832	4.0		0.0	6.0	5.0	5.0		part_1
259		3.0				1.0	1.0							2.0	119.0	0.38467356259934604	2.0		2.0	5.0	6.0	4.0		part_1
260		3.0				1.0	1.0							4.0	0.0	0.4509822906256886	4.0		0.0	5.0	6.0	4.0		part_1
261		3.0				1.0	1.0							4.0	0.0	0.4285216963144194	4.0		0.0	8.0	7.0	2.0		part_1
262		3.0				1.0	0.0							3.0	122.0	0.3959224392856413	3.0		2.0	2.0	2.0	7.0		part_1
263		3.0				1.0	0.0							2.0	0.0	0.364073730284872	2.0		0.0	2.0	2.0	7.0		part_1
264		3.0				1.0	1.0							4.0	381.0	0.3963988302857615	4.0		4.0	7.0	8.0	1.0		part_1
265		3.0				1.0	0.0							3.0	105.0	0.32990891062581795	3.0		2.0	2.0	2.0	7.0		part_1
266		3.0				1.0	0.0							4.0	0.0	0.3867458779386652	4.0		0.0	2.0	2.0	7.0		part_1
267		3.0				1.0	1.0							1.0	0.0	0.45505510491057066	1.0		0.0	8.0	7.0	2.0		part_1
268		3.0				1.0	0.0							4.0	422.0	0.4107198596539092	4.0		4.0	1.0	4.0	8.0		part_1
269		3.0				1.0	0.0							1.0	202.0	0.4107784956249816	1.0		3.0	3.0	3.0	6.0		part_1
270		3.0				1.0	0.0							1.0	401.0	0.49173773594156955	1.0		4.0	1.0	4.0	8.0		part_1
271		3.0				1.0	1.0							2.0	106.0	0.41161195025779307	2.0		2.0	5.0	6.0	4.0		part_1
272		3.0				1.0	0.0							4.0	410.0	0.4455329579395766	4.0		4.0	1.0	4.0	8.0		part_1
273		3.0				1.0	1.0							1.0	220.0	0.4017721283125866	1.0		3.0	8.0	7.0	2.0		part_1
274		3.0				1.0	1.0							1.0	193.0	0.3701950029389991	1.0		3.0	8.0	7.0	2.0		part_1
275		3.0				1.0	0.0							2.0	212.0	0.3357963463131455	2.0		3.0	3.0	3.0	6.0		part_1
276		3.0				1.0	1.0							2.0	101.0	0.3814173096543527	2.0		2.0	5.0	6.0	4.0		part_1
277		3.0				1.0	1.0							2.0	182.0	0.3139189329704095	2.0		3.0	8.0	7.0	2.0		part_1
278		3.0				1.0	0.0							1.0	61.0	0.44936386328481603	1.0		1.0	4.0	1.0	3.0		part_1
279		3.0				1.0	0.0							4.0	54.0	0.43896171231608605	4.0		1.0	4.0	1.0	3.0		part_1
280		3.0				1.0	0.0							3.0	0.0	0.3602962449695042	3.0		0.0	1.0	4.0	8.0		part_1
281		3.0				1.0	0.0							4.0	64.0	0.35091248465687386	4.0		1.0	4.0	1.0	3.0		part_1
282		3.0				1.0	1.0							1.0	59.0	0.36279331662808545	1.0		1.0	6.0	5.0	5.0		part_1
283		3.0				1.0	1.0							2.0	103.0	0.328839834255632	2.0		2.0	5.0	6.0	4.0		part_1
284		3.0				1.0	0.0							4.0	95.0	0.4189412966261443	4.0		2.0	2.0	2.0	7.0		part_1
285		3.0				1.0	1.0							4.0	379.0	0.3985499253140006	4.0		4.0	7.0	8.0	1.0		part_1
286		3.0				1.0	1.0							4.0	80.0	0.35281372359895613	4.0		2.0	5.0	6.0	4.0		part_1
287		3.0				1.0	1.0							3.0	401.0	0.37506486265556305	3.0		4.0	7.0	8.0	1.0		part_1
288		3.0				1.0	0.0							1.0	32.0	0.5339679219687241	1.0		1.0	4.0	1.0	3.0		part_1
289		3.0				1.0	0.0							1.0	381.0	0.5460577102821844	1.0		4.0	1.0	4.0	8.0		part_1
290		3.0				1.0	0.0							1.0	0.0	0.5016639262539684	1.0		0.0	4.0	1.0	3.0		part_1
291		3.0				1.0	0.0							1.0	215.0	0.3784517902568041	1.0		3.0	3.0	3.0	6.0		part_1
292		3.0				1.0	1.0							3.0	0.0	0.4912876609414525	3.0		0.0	6.0	5.0	5.0		part_1
293		3.0				1.0	1.0							4.0	212.0	0.3689348346561019	4.0		3.0	8.0	7.0	2.0		part_1
294		3.0				1.0	1.0							1.0	0.0	0.40202989897079533	1.0		0.0	6.0	5.0	5.0		part_1
295		3.0				1.0	0.0							1.0	91.0	0.5731602219384513	1.0		2.0	2.0	2.0	7.0		part_1
296		3.0				1.0	1.0							3.0	105.0	0.4135753123155155	3.0		2.0	5.0	6.0	4.0		part_1
297		3.0				1.0	1.0							1.0	52.0	0.46112352999989525	1.0		1.0	6.0	5.0	5.0		part_1
298		3.0				1.0	0.0							2.0	77.0	0.37048052997124614	2.0		2.0	2.0	2.0	7.0		part_1
299		3.0				1.0	0.0							3.0	98.0	0.3482123109679378	3.0		2.0	2.0	2.0	7.0		part_1
300		4.0				1.0	0.0							3.0	88.0	0.611254461655335	3.0		2.0	2.0	2.0	7.0		part_1
301		4.0				1.0	1.0							1.0	71.0	0.4456498482868483	1.0		1.0	6.0	5.0	5.0		part_1
302		4.0				1.0	1.0							3.0	70.0	0.34407834897137946	3.0		1.0	6.0	5.0	5.0		part_1
303		4.0				1.0	1.0							3.0	180.0	0.42338234131602803	3.0		3.0	8.0	7.0	2.0		part_1
304		4.0				1.0	0.0							3.0	180.0	0.4222347255999921	3.0		3.0	3.0	3.0	6.0		part_1
305		4.0				1.0	1.0							3.0	202.0	0.3669155159404909	3.0		3.0	8.0	7.0	2.0		part_1
306		4.0				1.0	0.0							1.0	111.0	0.35679765325403423	1.0		2.0	2.0	2.0	7.0		part_1
307		4.0				1.0	0.0							1.0	0.0	0.39286070259913686	1.0		0.0	2.0	2.0	7.0		part_1
308		4.0				1.0	0.0							3.0	209.0	0.33544146496933536	3.0		3.0	3.0	3.0	6.0		part_1
309		4.0				1.0	1.0							4.0	0.0	0.41480967631650856	4.0		0.0	8.0	7.0	2.0		part_1
310		4.0				1.0	1.0							2.0	28.0	0.34927884159696987	2.0		1.0	6.0	5.0	5.0		part_1
311		4.0				1.0	0.0							2.0	0.0	0.3484025733159797	2.0		0.0	3.0	3.0	6.0		part_1
312		4.0				1.0	0.0							1.0	201.0	0.4179659442852426	1.0		3.0	3.0	3.0	6.0		part_1
313		4.0				1.0	1.0							3.0	394.0	0.28128471097079455	3.0		4.0	7.0	8.0	1.0		part_1
314		4.0				1.0	0.0							3.0	39.0	0.38488555494041066	3.0		1.0	4.0	1.0	3.0		part_1
315		4.0				1.0	1.0							2.0	386.0	0.3728267493133899	2.0		4.0	7.0	8.0	1.0		part_1
316		4.0				1.0	0.0							2.0	203.0	0.3511783165995439	2.0		3.0	3.0	3.0	6.0		part_1
317		4.0				1.0	1.0							1.0	0.0	0.40931957328575663	1.0		0.0	7.0	8.0	1.0		part_1
318		4.0				1.0	1.0							1.0	409.0	0.40871580993916723	1.0		4.0	7.0	8.0	1.0		part_1
319		4.0				1.0	0.0							4.0	0.0	0.43182453490953776	4.0		0.0	4.0	1.0	3.0		part_1
320		4.0				1.0	0.0							3.0	94.0	0.35380370594066335	3.0		2.0	2.0	2.0	7.0		part_1
321		4.0				1.0	0.0							3.0	0.0	0.3204987979697762	3.0		0.0	3.0	3.0	6.0		part_1
322		4.0				1.0	1.0							1.0	392.0	0.4116624335983943	1.0		4.0	7.0	8.0	1.0		part_1
323		4.0				1.0	1.0							1.0	0.0	0.44571107225419837	1.0		0.0	7.0	8.0	1.0		part_1
324		4.0				1.0	0.0							1.0	0.0	0.388743679941399	1.0		0.0	4.0	1.0	3.0		part_1
325		4.0				1.0	1.0							1.0	122.0	0.3793072233129351	1.0		2.0	5.0	6.0	4.0		part_1
326		4.0				1.0	1.0							3.0	0.0	0.34441416397021385	3.0		0.0	6.0	5.0	5.0		part_1
327		4.0				1.0	1.0							1.0	0.0	0.34578022897039773	1.0		0.0	5.0	6.0	4.0		part_1
328		4.0				1.0	1.0							4.0	97.0	0.3454660989700642	4.0		2.0	5.0	6.0	4.0		part_1
329		4.0				1.0	1.0							1.0	107.0	0.39145483094034716	1.0		2.0	5.0	6.0	4.0		part_1
330		4.0				1.0	0.0							1.0	380.0	0.4501226222528203	1.0		4.0	1.0	4.0	8.0		part_1
331		4.0				1.0	1.0							4.0	175.0	0.46122067993928795	4.0		3.0	8.0	7.0	2.0		part_1
332		4.0				1.0	0.0							3.0	62.0	0.3939258899372362	3.0		1.0	4.0	1.0	3.0		part_1
333		4.0				1.0	0.0							1.0	82.0	0.4290706559731916	1.0		2.0	2.0	2.0	7.0		part_1
334		4.0				1.0	1.0							4.0	114.0	0.41641842162425746	4.0		2.0	5.0	6.0	4.0		part_1
335		4.0				1.0	1.0							2.0	111.0	0.3945893972850172	2.0		2.0	5.0	6.0	4.0		part_1
336		4.0				1.0	1.0							3.0	37.0	0.3511493506266561	3.0		1.0	6.0	5.0	5.0		part_1
337		4.0				1.0	1.0							1.0	406.0	0.4542409850000695	1.0		4.0	7.0	8.0	1.0		part_1
338		4.0				1.0	0.0							3.0	379.0	0.40788883465575054	3.0		4.0	1.0	4.0	8.0		part_1
339		4.0				1.0	0.0							2.0	379.0	0.3867753696249565	2.0		4.0	1.0	4.0	8.0		part_1
340		4.0				1.0	1.0							4.0	216.0	0.4201598023173574	4.0		3.0	8.0	7.0	2.0		part_1
341		4.0				1.0	0.0							1.0	77.0	0.49977184865565505	1.0		2.0	2.0	2.0	7.0		part_1
342		4.0				1.0	1.0							2.0	379.0	0.5128163996268995	2.0		4.0	7.0	8.0	1.0		part_1
343		4.0				1.0	0.0							4.0	0.0	0.4683856389419816	4.0		0.0	2.0	2.0	7.0		part_1
344		4.0				1.0	0.0							3.0	389.0	0.3442443936546624	3.0		4.0	1.0	4.0	8.0		part_1
345		4.0				1.0	1.0							4.0	411.0	0.3560769309406169	4.0		4.0	7.0	8.0	1.0		part_1
346		4.0				1.0	1.0							2.0	209.0	0.3467546916253923	2.0		3.0	8.0	7.0	2.0		part_1
347		4.0				1.0	0.0							3.0	86.0	0.32320772497041617	3.0		2.0	2.0	2.0	7.0		part_1
348		4.0				1.0	0.0							3.0	183.0	0.36893516760028433	3.0		3.0	3.0	3.0	6.0		part_1
349		4.0				1.0	0.0							3.0	180.0	0.39262085365407984	3.0		3.0	3.0	3.0	6.0		part_1
350		4.0				1.0	1.0							1.0	77.0	0.3812458656539093	1.0		2.0	5.0	6.0	4.0		part_1
351		4.0				1.0	1.0							1.0	55.0	0.3592813626564748	1.0		1.0	6.0	5.0	5.0		part_1
352		4.0				1.0	0.0							4.0	411.0	0.41579095997076365	4.0		4.0	1.0	4.0	8.0		part_1
353		4.0				1.0	0.0							4.0	27.0	0.3709949236254033	4.0		1.0	4.0	1.0	3.0		part_1
354		4.0				1.0	1.0							3.0	73.0	0.326717501910025	3.0		1.0	6.0	5.0	5.0		part_1
355		4.0				1.0	1.0							4.0	422.0	0.36067071960133035	4.0		4.0	7.0	8.0	1.0		part_1
356		4.0				1.0	0.0							2.0	0.0	0.32790646791181643	2.0		0.0	4.0	1.0	3.0		part_1
357		4.0				1.0	0.0							1.0	419.0	0.3631173842550197	1.0		4.0	1.0	4.0	8.0		part_1
358		4.0				1.0	0.0							4.0	0.0	0.352289637656213	4.0		0.0	3.0	3.0	6.0		part_1
359		4.0				1.0	0.0							2.0	412.0	0.31814395793844596	2.0		4.0	1.0	4.0	8.0		part_1
360		4.0				1.0	1.0							4.0	401.0	0.3309881483146455	4.0		4.0	7.0	8.0	1.0		part_1
361		4.0				1.0	1.0							4.0	397.0	0.35363924525518087	4.0		4.0	7.0	8.0	1.0		part_1
362		4.0				1.0	0.0							4.0	421.0	0.4094659602524189	4.0		4.0	1.0	4.0	8.0		part_1
363		4.0				1.0	0.0							1.0	390.0	0.45568387594175874	1.0		4.0	1.0	4.0	8.0		part_1
364		4.0				1.0	0.0							2.0	36.0	0.5252163730292523	2.0		1.0	4.0	1.0	3.0		part_1
365		4.0				1.0	1.0							2.0	215.0	0.42257923931538244	2.0		3.0	8.0	7.0	2.0		part_1
366		4.0				1.0	0.0							3.0	43.0	0.4570107976287545	3.0		1.0	4.0	1.0	3.0		part_1
367		4.0				1.0	1.0							1.0	195.0	0.47016545794031117	1.0		3.0	8.0	7.0	2.0		part_1
368		4.0				1.0	0.0							3.0	48.0	0.38995976897058426	3.0		1.0	4.0	1.0	3.0		part_1
369		4.0				1.0	1.0							3.0	202.0	0.4036739432558534	3.0		3.0	8.0	7.0	2.0		part_1
370		4.0				1.0	1.0							2.0	224.0	0.3926300176026416	2.0		3.0	8.0	7.0	2.0		part_1
371		4.0				1.0	1.0							4.0	0.0	0.5493812819076993	4.0		0.0	7.0	8.0	1.0		part_1
372		4.0				1.0	1.0							1.0	193.0	0.43815454459763714	1.0		3.0	8.0	7.0	2.0		part_1
373		4.0				1.0	1.0							2.0	0.0	0.43868955762445694	2.0		0.0	6.0	5.0	5.0		part_1
374		4.0				1.0	0.0							2.0	185.0	0.3499189266585745	2.0		3.0	3.0	3.0	6.0		part_1
375		4.0				1.0	1.0							1.0	0.0	0.4751461072555685	1.0		0.0	8.0	7.0	2.0		part_1
376		4.0				1.0	1.0							4.0	82.0	0.452307261286478	4.0		2.0	5.0	6.0	4.0		part_1
377		4.0				1.0	1.0							1.0	401.0	0.41900925028312486	1.0		4.0	7.0	8.0	1.0		part_1
378		4.0				1.0	1.0							1.0	98.0	0.4655426446261117	1.0		2.0	5.0	6.0	4.0		part_1
379		4.0				1.0	0.0							4.0	48.0	0.386800270909589	4.0		1.0	4.0	1.0	3.0		part_1
380		4.0				1.0	0.0							4.0	98.0	0.3635105443136126	4.0		2.0	2.0	2.0	7.0		part_1
381		4.0				1.0	0.0							1.0	225.0	0.45519272157253	1.0		3.0	3.0	3.0	6.0		part_1
382		4.0				1.0	0.0							3.0	212.0	0.3528586659085704	3.0		3.0	3.0	3.0	6.0		part_1
383		4.0				1.0	0.0							1.0	27.0	0.4106589865987189	1.0		1.0	4.0	1.0	3.0		part_1
384		4.0				1.0	1.0							3.0	399.0	0.45592360100272344	3.0		4.0	7.0	8.0	1.0		part_1
385		4.0				1.0	1.0							1.0	0.0	0.4005300132848788	1.0		0.0	7.0	8.0	1.0		part_1
386		4.0				1.0	1.0							3.0	88.0	0.33304482165840454	3.0		2.0	5.0	6.0	4.0		part_1
387		4.0				1.0	1.0							2.0	389.0	0.3336835239715583	2.0		4.0	7.0	8.0	1.0		part_1
388		4.0				1.0	0.0							1.0	68.0	0.6159579626546474	1.0		1.0	4.0	1.0	3.0		part_1
389		4.0				1.0	0.0							2.0	114.0	0.6057503642550728	2.0		2.0	2.0	2.0	7.0		part_1
390		4.0				1.0	1.0							1.0	203.0	0.6174615183153946	1.0		3.0	8.0	7.0	2.0		part_1
391		4.0				1.0	1.0							1.0	55.0	0.5175274276261916	1.0		1.0	6.0	5.0	5.0		part_1
392		4.0				1.0	1.0							3.0	86.0	0.39314746231320896	3.0		2.0	5.0	6.0	4.0		part_1
393		4.0				1.0	0.0							1.0	102.0	0.37104528065538034	1.0		2.0	2.0	2.0	7.0		part_1
394		4.0				1.0	1.0							1.0	413.0	0.3614500035982928	1.0		4.0	7.0	8.0	1.0		part_1
395		4.0				1.0	0.0							4.0	111.0	0.4282176952547161	4.0		2.0	2.0	2.0	7.0		part_1
396		4.0				1.0	1.0							1.0	183.0	0.4736354426240723	1.0		3.0	8.0	7.0	2.0		part_1
397		4.0				1.0	0.0							4.0	0.0	0.47606008631555596	4.0		0.0	1.0	4.0	8.0		part_1
398		4.0				1.0	1.0							2.0	377.0	0.36320067297128844	2.0		4.0	7.0	8.0	1.0		part_1
399		4.0				1.0	1.0							3.0	387.0	0.3292491989705013	3.0		4.0	7.0	8.0	1.0		part_1
0	1.0	1.0			250.0	0.0	0.0							5.0	0.0	0.44214502693284885	5.0	250.0	4.0	1.0	4.0	8.0	0.0	part_2
1	1.0	1.0			250.0	0.0	0.0							5.0	0.0	0.6333123152835469	5.0	250.0	3.0	3.0	3.0	6.0	0.0	part_2
2	1.0	1.0			250.0	0.0	0.0							6.0	0.0	0.5657129302780959	6.0	250.0	1.0	4.0	1.0	3.0	0.0	part_2
3	1.0	1.0			250.0	0.0	0.0							5.0	0.0	0.5793229026567133	5.0	250.0	3.0	3.0	3.0	6.0	0.0	part_2
4	3.0	1.0			250.0	0.0	1.0							5.0	0.0	0.6472049012481875	5.0	250.0	1.0	6.0	5.0	5.0	1.0	part_2
5	4.0	1.0			200.0	0.0	1.0							6.0	0.0	0.0	0.0	250.0	1.0	6.0	5.0	5.0	1.0	part_2
6	1.0	1.0			200.0	0.0	0.0							6.0	0.0	0.6825599249677907	6.0	300.0	1.0	4.0	1.0	3.0	0.0	part_2
7	4.0	1.0			200.0	0.0	1.0							6.0	0.0	0.0	0.0	300.0	3.0	8.0	7.0	2.0	1.0	part_2
8	1.0	1.0			200.0	0.0	0.0							6.0	0.0	0.7290140823097317	6.0	350.0	4.0	1.0	4.0	8.0	0.0	part_2
9	1.0	1.0			200.0	0.0	0.0							6.0	0.0	0.7851999459999206	6.0	350.0	2.0	2.0	2.0	7.0	0.0	part_2
10	4.0	1.0			200.0	0.0	1.0							6.0	0.0	0.0	0.0	350.0	2.0	5.0	6.0	4.0	1.0	part_2
11	4.0	1.0			200.0	0.0	1.0							5.0	0.0	0.0	0.0	400.0	2.0	5.0	6.0	4.0	1.0	part_2
12	4.0	1.0			250.0	0.0	1.0							5.0	0.0	0.0	0.0	400.0	3.0	8.0	7.0	2.0	1.0	part_2
13	1.0	1.0			300.0	0.0	0.0							6.0	0.0	0.5533504126542539	6.0	400.0	1.0	4.0	1.0	3.0	0.0	part_2
14	3.0	1.0			300.0	0.0	1.0							6.0	0.0	0.5989431383095507	6.0	400.0	3.0	8.0	7.0	2.0	1.0	part_2
15	1.0	1.0			300.0	0.0	0.0							5.0	0.0	0.9150806049365201	5.0	350.0	2.0	2.0	2.0	7.0	0.0	part_2
16	1.0	1.0			300.0	0.0	0.0							5.0	0.0	0.7480650293437066	5.0	350.0	4.0	1.0	4.0	8.0	0.0	part_2
17	4.0	1.0			300.0	0.0	1.0							5.0	0.0	0.0	0.0	350.0	3.0	8.0	7.0	2.0	1.0	part_2
18	1.0	1.0			350.0	0.0	0.0							6.0	0.0	0.748332772313006	6.0	350.0	4.0	1.0	4.0	8.0	0.0	part_2
19	1.0	1.0			350.0	0.0	0.0							5.0	0.0	0.7502415432791167	5.0	350.0	4.0	1.0	4.0	8.0	0.0	part_2
20	1.0	1.0			350.0	0.0	0.0							5.0	0.0	0.580633643654437	5.0	350.0	4.0	1.0	4.0	8.0	0.0	part_2
21	4.0	1.0			350.0	0.0	1.0							5.0	0.0	0.0	0.0	350.0	2.0	5.0	6.0	4.0	1.0	part_2
22	1.0	1.0			400.0	0.0	0.0							5.0	0.0	0.5933037562826939	5.0	350.0	4.0	1.0	4.0	8.0	0.0	part_2
23	4.0	1.0			400.0	0.0	1.0							6.0	0.0	0.0	0.0	350.0	4.0	7.0	8.0	1.0	1.0	part_2
24	1.0	1.0			400.0	0.0	0.0							6.0	0.0	0.764460349935689	6.0	400.0	1.0	4.0	1.0	3.0	0.0	part_2
25	1.0	1.0			400.0	0.0	1.0							5.0	0.0	0.9221393439656822	5.0	400.0	4.0	7.0	8.0	1.0	0.0	part_2
26	1.0	1.0			400.0	0.0	0.0							6.0	0.0	0.6545475716266083	6.0	400.0	2.0	2.0	2.0	7.0	0.0	part_2
27	4.0	1.0			400.0	0.0	1.0							5.0	0.0	0.0	0.0	400.0	1.0	6.0	5.0	5.0	1.0	part_2
28	4.0	1.0			450.0	0.0	1.0							6.0	0.0	0.0	0.0	400.0	3.0	8.0	7.0	2.0	1.0	part_2
29	1.0	1.0			450.0	0.0	0.0							6.0	0.0	0.9705281645910873	6.0	450.0	1.0	4.0	1.0	3.0	0.0	part_2
30	4.0	1.0			450.0	0.0	1.0							6.0	0.0	0.0	0.0	450.0	4.0	7.0	8.0	1.0	1.0	part_2
31	1.0	1.0			450.0	0.0	0.0							5.0	0.0	1.0850028312815994	5.0	500.0	3.0	3.0	3.0	6.0	0.0	part_2
32	1.0	1.0			450.0	0.0	0.0							5.0	0.0	0.7612656606579549	5.0	500.0	2.0	2.0	2.0	7.0	0.0	part_2
33	1.0	1.0			450.0	0.0	0.0							5.0	0.0	0.8054384685929108	5.0	500.0	3.0	3.0	3.0	6.0	0.0	part_2
34	1.0	1.0			450.0	0.0	0.0							5.0	0.0	0.7166716316569364	5.0	500.0	2.0	2.0	2.0	7.0	0.0	part_2
35	1.0	1.0			450.0	0.0	0.0							5.0	0.0	0.6726217302493751	5.0	500.0	4.0	1.0	4.0	8.0	0.0	part_2
36	4.0	2.0			450.0	0.0	1.0							6.0	0.0	0.0	0.0	500.0	4.0	7.0	8.0	1.0	1.0	part_2
37	1.0	2.0			450.0	0.0	0.0							5.0	0.0	0.41182629028116935	5.0	550.0	4.0	1.0	4.0	8.0	0.0	part_2
38	1.0	2.0			450.0	0.0	0.0							6.0	0.0	0.36674300365848467	6.0	550.0	1.0	4.0	1.0	3.0	0.0	part_2
39	1.0	2.0			450.0	0.0	0.0							6.0	0.0	0.5361011476561544	6.0	550.0	1.0	4.0	1.0	3.0	0.0	part_2
40	1.0	2.0			450.0	0.0	0.0							6.0	0.0	0.3926930826601165	6.0	550.0	4.0	1.0	4.0	8.0	0.0	part_2
41	3.0	2.0			450.0	0.0	1.0							5.0	0.0	0.5164584503436345	5.0	550.0	2.0	5.0	6.0	4.0	1.0	part_2
42	1.0	2.0			400.0	0.0	0.0							5.0	0.0	0.5505074083121144	5.0	550.0	4.0	1.0	4.0	8.0	0.0	part_2
43	1.0	2.0			400.0	0.0	0.0							6.0	0.0	0.42770176830890705	6.0	550.0	2.0	2.0	2.0	7.0	0.0	part_2
44	1.0	2.0			400.0	0.0	0.0							6.0	0.0	0.541123067967419	6.0	550.0	2.0	2.0	2.0	7.0	0.0	part_2
45	1.0	2.0			400.0	0.0	1.0							5.0	0.0	0.46408121124841273	5.0	550.0	4.0	7.0	8.0	1.0	0.0	part_2
46	1.0	2.0			400.0	0.0	0.0							5.0	0.0	0.5776377746587968	5.0	550.0	2.0	2.0	2.0	7.0	0.0	part_2
47	3.0	2.0			400.0	0.0	1.0							5.0	0.0	0.3967736536251323	5.0	550.0	1.0	6.0	5.0	5.0	1.0	part_2
48	1.0	2.0			350.0	0.0	0.0							6.0	0.0	0.5903816182799346	6.0	550.0	3.0	3.0	3.0	6.0	0.0	part_2
49	1.0	2.0			350.0	0.0	1.0							5.0	0.0	0.6348878309363499	5.0	550.0	2.0	5.0	6.0	4.0	0.0	part_2
50	1.0	2.0			350.0	0.0	0.0							5.0	0.0	0.5467398226246587	5.0	550.0	2.0	2.0	2.0	7.0	0.0	part_2
51	1.0	2.0			350.0	0.0	1.0							6.0	0.0	0.34374558966010227	6.0	550.0	4.0	7.0	8.0	1.0	0.0	part_2
52	1.0	2.0			350.0	0.0	0.0							5.0	0.0	0.5804998330022499	5.0	550.0	3.0	3.0	3.0	6.0	0.0	part_2
53	1.0	2.0			350.0	0.0	1.0							5.0	0.0	0.3923579326583422	5.0	550.0	2.0	5.0	6.0	4.0	0.0	part_2
54	1.0	2.0			350.0	0.0	0.0							6.0	0.0	0.5381529356563988	6.0	550.0	4.0	1.0	4.0	8.0	0.0	part_2
55	3.0	2.0			350.0	0.0	1.0							6.0	0.0	0.5719583413410874	6.0	550.0	3.0	8.0	7.0	2.0	1.0	part_2
56	4.0	2.0			350.0	0.0	1.0							5.0	0.0	0.0	0.0	500.0	2.0	5.0	6.0	4.0	1.0	part_2
57	4.0	2.0			400.0	0.0	1.0							5.0	0.0	0.0	0.0	500.0	1.0	6.0	5.0	5.0	1.0	part_2
58	1.0	2.0			450.0	0.0	1.0							5.0	0.0	0.801404265625024	5.0	500.0	3.0	8.0	7.0	2.0	0.0	part_2
59	1.0	2.0			450.0	0.0	0.0							5.0	0.0	0.4196859143448819	5.0	500.0	2.0	2.0	2.0	7.0	0.0	part_2
60	1.0	2.0			450.0	0.0	0.0							5.0	0.0	0.5768665892792342	5.0	500.0	2.0	2.0	2.0	7.0	0.0	part_2
61	1.0	2.0			450.0	0.0	1.0							5.0	0.0	0.5544337186584016	5.0	500.0	2.0	5.0	6.0	4.0	0.0	part_2
62	4.0	2.0			450.0	0.0	1.0							6.0	0.0	0.0	0.0	500.0	3.0	8.0	7.0	2.0	1.0	part_2
63	1.0	2.0			450.0	0.0	0.0							5.0	0.0	0.7038906382476853	5.0	550.0	3.0	3.0	3.0	6.0	0.0	part_2
64	1.0	2.0			450.0	0.0	0.0							6.0	0.0	0.6361024893085414	6.0	550.0	1.0	4.0	1.0	3.0	0.0	part_2
65	4.0	2.0			450.0	0.0	1.0							5.0	0.0	0.0	0.0	550.0	4.0	7.0	8.0	1.0	1.0	part_2
66	1.0	2.0			500.0	0.0	0.0							5.0	0.0	0.7165807732781104	5.0	550.0	1.0	4.0	1.0	3.0	0.0	part_2
67	1.0	2.0			500.0	0.0	0.0							6.0	0.0	0.696373279686668	6.0	550.0	1.0	4.0	1.0	3.0	0.0	part_2
68	3.0	2.0			500.0	0.0	1.0							5.0	0.0	0.35764085690607317	5.0	550.0	3.0	8.0	7.0	2.0	1.0	part_2
69	4.0	2.0			450.0	0.0	1.0							6.0	0.0	0.0	0.0	550.0	3.0	8.0	7.0	2.0	1.0	part_2
70	1.0	2.0			450.0	0.0	0.0							6.0	0.0	0.6411574706253305	6.0	600.0	4.0	1.0	4.0	8.0	0.0	part_2
71	4.0	2.0			450.0	0.0	1.0							6.0	0.0	0.0	0.0	600.0	2.0	5.0	6.0	4.0	1.0	part_2
72	4.0	3.0			450.0	0.0	1.0							6.0	0.0	0.0	0.0	650.0	1.0	6.0	5.0	5.0	1.0	part_2
73	3.0	3.0			450.0	0.0	1.0							5.0	0.0	0.5918104602460517	5.0	700.0	4.0	7.0	8.0	1.0	1.0	part_2
74	1.0	3.0			400.0	0.0	1.0							5.0	0.0	0.9300345252777333	5.0	700.0	3.0	8.0	7.0	2.0	0.0	part_2
75	1.0	3.0			400.0	0.0	0.0							6.0	0.0	0.5827237809353392	6.0	700.0	2.0	2.0	2.0	7.0	0.0	part_2
76	1.0	3.0			400.0	0.0	0.0							5.0	0.0	0.6166100813097728	5.0	700.0	3.0	3.0	3.0	6.0	0.0	part_2
77	1.0	3.0			400.0	0.0	1.0							6.0	0.0	0.6294231813117221	6.0	700.0	2.0	5.0	6.0	4.0	0.0	part_2
78	1.0	3.0			400.0	0.0	0.0							5.0	0.0	0.7873297879996244	5.0	700.0	3.0	3.0	3.0	6.0	0.0	part_2
79	3.0	3.0			400.0	0.0	1.0							6.0	0.0	0.4503314756548207	6.0	700.0	1.0	6.0	5.0	5.0	1.0	part_2
80	3.0	3.0			400.0	0.0	1.0							6.0	0.0	0.659258143248735	6.0	650.0	2.0	5.0	6.0	4.0	1.0	part_2
81	1.0	3.0			400.0	0.0	0.0							6.0	0.0	0.868551014966215	6.0	600.0	2.0	2.0	2.0	7.0	0.0	part_2
82	1.0	3.0			400.0	0.0	0.0							5.0	0.0	0.7801850539690349	5.0	600.0	4.0	1.0	4.0	8.0	0.0	part_2
83	4.0	3.0			400.0	0.0	1.0							5.0	0.0	0.0	0.0	600.0	1.0	6.0	5.0	5.0	1.0	part_2
84	1.0	3.0			450.0	0.0	0.0							6.0	0.0	0.8277689063106664	6.0	600.0	3.0	3.0	3.0	6.0	0.0	part_2
85	3.0	3.0			450.0	0.0	1.0							6.0	0.0	0.6923184369043156	6.0	600.0	2.0	5.0	6.0	4.0	1.0	part_2
86	4.0	3.0			450.0	0.0	1.0							6.0	0.0	0.0	0.0	550.0	2.0	5.0	6.0	4.0	1.0	part_2
87	1.0	3.0			450.0	0.0	0.0							6.0	0.0	0.9630369903461542	6.0	600.0	2.0	2.0	2.0	7.0	0.0	part_2
88	4.0	3.0			450.0	0.0	1.0							6.0	0.0	0.0	0.0	600.0	4.0	7.0	8.0	1.0	1.0	part_2
89	1.0	3.0			450.0	0.0	1.0							6.0	0.0	0.6837940129698836	6.0	650.0	2.0	5.0	6.0	4.0	0.0	part_2
90	4.0	3.0			450.0	0.0	1.0							5.0	0.0	0.0	0.0	650.0	3.0	8.0	7.0	2.0	1.0	part_2
91	1.0	3.0			500.0	0.0	0.0							5.0	0.0	0.7211223972808511	5.0	650.0	2.0	2.0	2.0	7.0	0.0	part_2
92	4.0	3.0			500.0	0.0	1.0							5.0	0.0	0.0	0.0	650.0	4.0	7.0	8.0	1.0	1.0	part_2
93	4.0	3.0			550.0	0.0	1.0							5.0	0.0	0.0	0.0	650.0	1.0	6.0	5.0	5.0	1.0	part_2
94	1.0	3.0			600.0	0.0	1.0							6.0	0.0	0.8691149749683973	6.0	650.0	4.0	7.0	8.0	1.0	0.0	part_2
95	1.0	3.0			600.0	0.0	0.0							5.0	0.0	0.858872058281122	5.0	650.0	2.0	2.0	2.0	7.0	0.0	part_2
96	1.0	3.0			600.0	0.0	0.0							5.0	0.0	0.5886291570022877	5.0	650.0	3.0	3.0	3.0	6.0	0.0	part_2
97	1.0	3.0			600.0	0.0	0.0							5.0	0.0	0.7810986142831098	5.0	650.0	1.0	4.0	1.0	3.0	0.0	part_2
98	1.0	3.0			600.0	0.0	0.0							5.0	0.0	0.7697323869688262	5.0	650.0	3.0	3.0	3.0	6.0	0.0	part_2
99	3.0	3.0			600.0	0.0	1.0							6.0	0.0	0.36596011993606226	6.0	650.0	2.0	5.0	6.0	4.0	1.0	part_2
100	1.0	3.0			600.0	0.0	0.0							6.0	0.0	0.9070870242794626	6.0	600.0	3.0	3.0	3.0	6.0	0.0	part_2
101	1.0	3.0			600.0	0.0	0.0							5.0	0.0	0.9205507323422353	5.0	600.0	2.0	2.0	2.0	7.0	0.0	part_2
102	1.0	3.0			600.0	0.0	0.0							5.0	0.0	0.9996927536267322	5.0	600.0	2.0	2.0	2.0	7.0	0.0	part_2
103	1.0	3.0			600.0	0.0	0.0							6.0	0.0	0.7978584862830758	6.0	600.0	2.0	2.0	2.0	7.0	0.0	part_2
104	1.0	3.0			600.0	0.0	0.0							5.0	0.0	0.8085781602821953	5.0	600.0	4.0	1.0	4.0	8.0	0.0	part_2
105	1.0	3.0			600.0	0.0	0.0							5.0	0.0	0.7999946156232909	5.0	600.0	4.0	1.0	4.0	8.0	0.0	part_2
106	4.0	3.0			600.0	0.0	1.0							6.0	0.0	0.0	0.0	600.0	1.0	6.0	5.0	5.0	1.0	part_2
107	4.0	3.0			600.0	0.0	1.0							6.0	0.0	0.0	0.0	650.0	3.0	8.0	7.0	2.0	1.0	part_2
108	5.0	4.0			600.0	0.0	0.0							6.0	0.0	0.0	0.0	700.0	3.0	3.0	3.0	6.0	0.0	part_2
109	4.0	4.0			600.0	0.0	1.0							5.0	0.0	0.0	0.0	700.0	4.0	7.0	8.0	1.0	1.0	part_2
110	1.0	4.0			650.0	0.0	0.0							5.0	0.0	0.6756174963120429	5.0	700.0	3.0	3.0	3.0	6.0	0.0	part_2
111	3.0	4.0			650.0	0.0	1.0							5.0	0.0	0.675057308308169	5.0	700.0	3.0	8.0	7.0	2.0	1.0	part_2
112	1.0	4.0			600.0	0.0	0.0							5.0	0.0	0.9344180509979196	5.0	700.0	3.0	3.0	3.0	6.0	0.0	part_2
113	1.0	4.0			600.0	0.0	0.0							6.0	0.0	0.44096135465588304	6.0	700.0	3.0	3.0	3.0	6.0	0.0	part_2
114	1.0	4.0			600.0	0.0	0.0							5.0	0.0	0.6217767546586401	5.0	700.0	4.0	1.0	4.0	8.0	0.0	part_2
115	3.0	4.0			600.0	0.0	1.0							5.0	0.0	0.5337933635892114	5.0	700.0	1.0	6.0	5.0	5.0	1.0	part_2
116	1.0	4.0			550.0	0.0	1.0							5.0	0.0	0.6238497876547626	5.0	700.0	2.0	5.0	6.0	4.0	0.0	part_2
117	3.0	4.0			550.0	0.0	1.0							5.0	0.0	0.692658767591638	5.0	700.0	3.0	8.0	7.0	2.0	1.0	part_2
118	1.0	4.0			500.0	0.0	0.0							6.0	0.0	0.671297603934363	6.0	700.0	1.0	4.0	1.0	3.0	0.0	part_2
119	3.0	4.0			500.0	0.0	1.0							6.0	0.0	0.6255310499691404	6.0	700.0	2.0	5.0	6.0	4.0	1.0	part_2
120	3.0	4.0			500.0	0.0	1.0							5.0	0.0	0.32376047030993504	5.0	650.0	1.0	6.0	5.0	5.0	1.0	part_2
121	1.0	4.0			450.0	0.0	0.0							6.0	0.0	0.311662415308092	6.0	650.0	2.0	2.0	2.0	7.0	0.0	part_2
122	1.0	4.0			450.0	0.0	0.0							5.0	0.0	0.7850109315913869	5.0	650.0	1.0	4.0	1.0	3.0	0.0	part_2
123	3.0	4.0			450.0	0.0	1.0							6.0	0.0	0.40395732225078973	6.0	650.0	1.0	6.0	5.0	5.0	1.0	part_2
124	4.0	4.0			450.0	0.0	1.0							5.0	0.0	0.0	0.0	600.0	3.0	8.0	7.0	2.0	1.0	part_2
125	4.0	4.0			500.0	0.0	1.0							5.0	0.0	0.0	0.0	600.0	4.0	7.0	8.0	1.0	1.0	part_2
126	1.0	4.0			550.0	0.0	1.0							5.0	0.0	0.7780669716557895	5.0	600.0	3.0	8.0	7.0	2.0	0.0	part_2
127	3.0	4.0			550.0	0.0	1.0							5.0	0.0	0.4072008543116681	5.0	600.0	4.0	7.0	8.0	1.0	1.0	part_2
128	1.0	4.0			500.0	0.0	0.0							6.0	0.0	0.2855843069337425	6.0	600.0	3.0	3.0	3.0	6.0	0.0	part_2
129	1.0	4.0			500.0	0.0	0.0							6.0	0.0	0.5208006106222456	6.0	600.0	3.0	3.0	3.0	6.0	0.0	part_2
130	1.0	4.0			500.0	0.0	0.0							6.0	0.0	0.4226359469066665	6.0	600.0	4.0	1.0	4.0	8.0	0.0	part_2
131	1.0	4.0			500.0	0.0	1.0							5.0	0.0	0.5918753876576375	5.0	600.0	4.0	7.0	8.0	1.0	0.0	part_2
132	3.0	4.0			500.0	0.0	1.0							6.0	0.0	0.3102617386248312	6.0	600.0	4.0	7.0	8.0	1.0	1.0	part_2
133	1.0	4.0			500.0	0.0	1.0							5.0	0.0	0.6502197072804847	5.0	550.0	1.0	6.0	5.0	5.0	0.0	part_2
134	1.0	4.0			500.0	0.0	0.0							6.0	0.0	0.5933492753101746	6.0	550.0	2.0	2.0	2.0	7.0	0.0	part_2
135	1.0	4.0			500.0	0.0	0.0							5.0	0.0	0.7291910846543033	5.0	550.0	3.0	3.0	3.0	6.0	0.0	part_2
136	1.0	4.0			500.0	0.0	0.0							5.0	0.0	0.6055752562824637	5.0	550.0	1.0	4.0	1.0	3.0	0.0	part_2
137	1.0	4.0			500.0	0.0	0.0							6.0	0.0	0.5275489236264548	6.0	550.0	3.0	3.0	3.0	6.0	0.0	part_2
138	3.0	4.0			500.0	0.0	1.0							6.0	0.0	0.38266165359164006	6.0	550.0	3.0	8.0	7.0	2.0	1.0	part_2
139	3.0	4.0			500.0	0.0	1.0							6.0	0.0	0.6775654862794909	6.0	500.0	3.0	8.0	7.0	2.0	1.0	part_2
140	3.0	4.0			500.0	0.0	1.0							5.0	0.0	0.632996457592526	5.0	450.0	1.0	6.0	5.0	5.0	1.0	part_2
141	1.0	4.0			450.0	0.0	0.0							5.0	0.0	0.6659522076224675	5.0	450.0	1.0	4.0	1.0	3.0	0.0	part_2
142	4.0	4.0			450.0	0.0	1.0							5.0	0.0	0.0	0.0	450.0	4.0	7.0	8.0	1.0	1.0	part_2
143	1.0	4.0			500.0	0.0	0.0							6.0	0.0	0.7466830795929127	6.0	450.0	4.0	1.0	4.0	8.0	0.0	part_2
144	4.0	5.0			500.0	0.0	1.0							6.0	0.0	0.0	0.0	450.0	3.0	8.0	7.0	2.0	1.0	part_2
145	1.0	5.0			500.0	0.0	0.0							6.0	0.0	0.609931342623895	6.0	500.0	2.0	2.0	2.0	7.0	0.0	part_2
146	1.0	5.0			500.0	0.0	1.0							5.0	0.0	0.5750868882787472	5.0	500.0	2.0	5.0	6.0	4.0	0.0	part_2
147	1.0	5.0			500.0	0.0	0.0							5.0	0.0	0.4980021249357378	5.0	500.0	1.0	4.0	1.0	3.0	0.0	part_2
148	1.0	5.0			500.0	0.0	0.0							6.0	0.0	0.3645303242810769	6.0	500.0	1.0	4.0	1.0	3.0	0.0	part_2
149	1.0	5.0			500.0	0.0	0.0							6.0	0.0	0.3531489396264078	6.0	500.0	3.0	3.0	3.0	6.0	0.0	part_2
150	1.0	5.0			500.0	0.0	0.0							6.0	0.0	0.344081713930791	6.0	500.0	3.0	3.0	3.0	6.0	0.0	part_2
151	1.0	5.0			500.0	0.0	0.0							5.0	0.0	0.46823400665743975	5.0	500.0	2.0	2.0	2.0	7.0	0.0	part_2
152	3.0	5.0			500.0	0.0	1.0							6.0	0.0	0.49215238396573113	6.0	500.0	1.0	6.0	5.0	5.0	1.0	part_2
153	1.0	5.0			500.0	0.0	1.0							5.0	0.0	0.885630000000674	5.0	450.0	3.0	8.0	7.0	2.0	0.0	part_2
154	1.0	5.0			500.0	0.0	0.0							5.0	0.0	0.46024532793308026	5.0	450.0	1.0	4.0	1.0	3.0	0.0	part_2
155	3.0	5.0			500.0	0.0	1.0							5.0	0.0	0.4035298976559716	5.0	450.0	2.0	5.0	6.0	4.0	1.0	part_2
156	1.0	5.0			450.0	0.0	0.0							5.0	0.0	0.573691434936336	5.0	450.0	1.0	4.0	1.0	3.0	0.0	part_2
157	3.0	5.0			450.0	0.0	1.0							6.0	0.0	0.4060259145917371	6.0	450.0	4.0	7.0	8.0	1.0	1.0	part_2
158	1.0	5.0			450.0	0.0	1.0							5.0	0.0	0.5070088946231408	5.0	400.0	3.0	8.0	7.0	2.0	0.0	part_2
159	1.0	5.0			450.0	0.0	0.0							6.0	0.0	0.6197998896568606	6.0	400.0	3.0	3.0	3.0	6.0	0.0	part_2
160	1.0	5.0			450.0	0.0	0.0							5.0	0.0	0.4976129509668681	5.0	400.0	3.0	3.0	3.0	6.0	0.0	part_2
161	4.0	5.0			450.0	0.0	1.0							6.0	0.0	0.0	0.0	400.0	3.0	8.0	7.0	2.0	1.0	part_2
162	1.0	5.0			450.0	0.0	0.0							6.0	0.0	0.6563051869670744	6.0	450.0	4.0	1.0	4.0	8.0	0.0	part_2
163	4.0	5.0			450.0	0.0	1.0							5.0	0.0	0.0	0.0	450.0	1.0	6.0	5.0	5.0	1.0	part_2
164	1.0	5.0			500.0	0.0	0.0							5.0	0.0	0.5349235149660672	5.0	450.0	2.0	2.0	2.0	7.0	0.0	part_2
165	3.0	5.0			500.0	0.0	1.0							6.0	0.0	0.3326993202790618	6.0	450.0	4.0	7.0	8.0	1.0	1.0	part_2
166	1.0	5.0			500.0	0.0	0.0							6.0	0.0	0.7050801869700081	6.0	400.0	3.0	3.0	3.0	6.0	0.0	part_2
167	1.0	5.0			500.0	0.0	0.0							5.0	0.0	0.4690709803107893	5.0	400.0	2.0	2.0	2.0	7.0	0.0	part_2
168	1.0	5.0			500.0	0.0	0.0							5.0	0.0	0.5278599479352124	5.0	400.0	1.0	4.0	1.0	3.0	0.0	part_2
169	1.0	5.0			500.0	0.0	0.0							6.0	0.0	0.3601044825918507	6.0	400.0	1.0	4.0	1.0	3.0	0.0	part_2
170	3.0	5.0			500.0	0.0	1.0							5.0	0.0	0.37093308665498625	5.0	400.0	1.0	6.0	5.0	5.0	1.0	part_2
171	1.0	5.0			450.0	0.0	1.0							6.0	0.0	0.5973005452797224	6.0	400.0	4.0	7.0	8.0	1.0	0.0	part_2
172	3.0	5.0			450.0	0.0	1.0							6.0	0.0	0.41662806862586876	6.0	400.0	2.0	5.0	6.0	4.0	1.0	part_2
173	1.0	5.0			450.0	0.0	0.0							5.0	0.0	0.622138581591571	5.0	350.0	3.0	3.0	3.0	6.0	0.0	part_2
174	4.0	5.0			450.0	0.0	1.0							5.0	0.0	0.0	0.0	350.0	2.0	5.0	6.0	4.0	1.0	part_2
175	3.0	5.0			500.0	0.0	1.0							6.0	0.0	0.4889117852799245	6.0	350.0	2.0	5.0	6.0	4.0	1.0	part_2
176	1.0	5.0			500.0	0.0	1.0							6.0	0.0	0.5558756909340445	6.0	300.0	1.0	6.0	5.0	5.0	0.0	part_2
177	1.0	5.0			500.0	0.0	0.0							6.0	0.0	0.613011432622443	6.0	300.0	4.0	1.0	4.0	8.0	0.0	part_2
178	1.0	5.0			500.0	0.0	1.0							5.0	0.0	0.3999856646551052	5.0	300.0	2.0	5.0	6.0	4.0	0.0	part_2
179	1.0	5.0			500.0	0.0	0.0							5.0	0.0	0.43583459996807505	5.0	300.0	1.0	4.0	1.0	3.0	0.0	part_2
180	4.0	6.0			500.0	0.0	1.0							6.0	0.0	0.0	0.0	300.0	4.0	7.0	8.0	1.0	1.0	part_2
181	1.0	6.0			500.0	0.0	0.0							5.0	0.0	0.3671109252827591	5.0	350.0	1.0	4.0	1.0	3.0	0.0	part_2
182	1.0	6.0			500.0	0.0	0.0							5.0	0.0	0.5942838506271073	5.0	350.0	3.0	3.0	3.0	6.0	0.0	part_2
183	3.0	6.0			500.0	0.0	1.0							5.0	0.0	0.63875658759207	5.0	350.0	1.0	6.0	5.0	5.0	1.0	part_2
184	1.0	6.0			450.0	0.0	0.0							6.0	0.0	0.38078823993419064	6.0	350.0	4.0	1.0	4.0	8.0	0.0	part_2
185	1.0	6.0			450.0	0.0	0.0							6.0	0.0	0.561192612247396	6.0	350.0	3.0	3.0	3.0	6.0	0.0	part_2
186	1.0	6.0			450.0	0.0	0.0							6.0	0.0	0.3827805946566514	6.0	350.0	3.0	3.0	3.0	6.0	0.0	part_2
187	1.0	6.0			450.0	0.0	0.0							5.0	0.0	0.5630058246242697	5.0	350.0	4.0	1.0	4.0	8.0	0.0	part_2
188	1.0	6.0			450.0	0.0	0.0							5.0	0.0	0.5637314086234255	5.0	350.0	2.0	2.0	2.0	7.0	0.0	part_2
189	3.0	6.0			450.0	0.0	1.0							6.0	0.0	0.3281572319319821	6.0	350.0	2.0	5.0	6.0	4.0	1.0	part_2
190	1.0	6.0			450.0	0.0	0.0							5.0	0.0	0.2948889672807127	5.0	300.0	4.0	1.0	4.0	8.0	0.0	part_2
191	3.0	6.0			450.0	0.0	1.0							6.0	0.0	0.295977789312019	6.0	300.0	4.0	7.0	8.0	1.0	1.0	part_2
192	1.0	6.0			450.0	0.0	1.0							5.0	0.0	0.5122577773108787	5.0	250.0	4.0	7.0	8.0	1.0	0.0	part_2
193	4.0	6.0			450.0	0.0	1.0							6.0	0.0	0.0	0.0	250.0	3.0	8.0	7.0	2.0	1.0	part_2
194	4.0	6.0			450.0	0.0	1.0							6.0	0.0	0.0	0.0	300.0	1.0	6.0	5.0	5.0	1.0	part_2
195	1.0	6.0			450.0	0.0	0.0							5.0	0.0	0.4230030289691058	5.0	350.0	3.0	3.0	3.0	6.0	0.0	part_2
196	1.0	6.0			450.0	0.0	1.0							6.0	0.0	0.4808917866575939	6.0	350.0	4.0	7.0	8.0	1.0	0.0	part_2
197	3.0	6.0			450.0	0.0	1.0							6.0	0.0	0.42454305165665573	6.0	350.0	2.0	5.0	6.0	4.0	1.0	part_2
198	3.0	6.0			450.0	0.0	1.0							5.0	0.0	0.5159406009661325	5.0	300.0	2.0	5.0	6.0	4.0	1.0	part_2
199	1.0	6.0			400.0	0.0	0.0							6.0	0.0	0.31375267131079454	6.0	300.0	4.0	1.0	4.0	8.0	0.0	part_2
200	3.0	6.0			400.0	0.0	1.0							5.0	0.0	0.42868102990541956	5.0	300.0	4.0	7.0	8.0	1.0	1.0	part_2
201	4.0	6.0			350.0	0.0	1.0							5.0	0.0	0.0	0.0	300.0	2.0	5.0	6.0	4.0	1.0	part_2
202	3.0	6.0			400.0	0.0	1.0							5.0	0.0	0.48611786562469206	5.0	300.0	4.0	7.0	8.0	1.0	1.0	part_2
203	1.0	6.0			350.0	0.0	0.0							6.0	0.0	0.32909487128199544	6.0	300.0	1.0	4.0	1.0	3.0	0.0	part_2
204	1.0	6.0			350.0	0.0	1.0							5.0	0.0	0.6904581313101517	5.0	300.0	3.0	8.0	7.0	2.0	0.0	part_2
205	4.0	6.0			350.0	0.0	1.0							6.0	0.0	0.0	0.0	300.0	2.0	5.0	6.0	4.0	1.0	part_2
206	1.0	6.0			350.0	0.0	1.0							6.0	0.0	0.49998102328027016	6.0	350.0	1.0	6.0	5.0	5.0	0.0	part_2
207	4.0	6.0			350.0	0.0	1.0							6.0	0.0	0.0	0.0	350.0	3.0	8.0	7.0	2.0	1.0	part_2
208	1.0	6.0			350.0	0.0	0.0							6.0	0.0	0.5694501975922321	6.0	400.0	4.0	1.0	4.0	8.0	0.0	part_2
209	1.0	6.0			350.0	0.0	0.0							6.0	0.0	0.581277943594614	6.0	400.0	3.0	3.0	3.0	6.0	0.0	part_2
210	1.0	6.0			350.0	0.0	0.0							5.0	0.0	0.5611070810009551	5.0	400.0	1.0	4.0	1.0	3.0	0.0	part_2
211	3.0	6.0			350.0	0.0	1.0							6.0	0.0	0.45863183124674833	6.0	400.0	3.0	8.0	7.0	2.0	1.0	part_2
212	3.0	6.0			350.0	0.0	1.0							6.0	0.0	0.48329240228122217	6.0	350.0	3.0	8.0	7.0	2.0	1.0	part_2
213	1.0	6.0			350.0	0.0	0.0							6.0	0.0	0.5618247713100573	6.0	300.0	1.0	4.0	1.0	3.0	0.0	part_2
214	3.0	6.0			350.0	0.0	1.0							6.0	0.0	0.32619773130863905	6.0	300.0	4.0	7.0	8.0	1.0	1.0	part_2
215	1.0	6.0			350.0	0.0	1.0							5.0	0.0	0.5202484379333328	5.0	250.0	1.0	6.0	5.0	5.0	0.0	part_2
216	1.0	7.0			350.0	0.0	0.0							5.0	0.0	0.7237321172506199	5.0	250.0	2.0	2.0	2.0	7.0	0.0	part_2
217	1.0	7.0			350.0	0.0	0.0							6.0	0.0	0.4210539380001137	6.0	250.0	2.0	2.0	2.0	7.0	0.0	part_2
218	4.0	7.0			350.0	0.0	1.0							6.0	0.0	0.0	0.0	250.0	1.0	6.0	5.0	5.0	1.0	part_2
219	1.0	7.0			350.0	0.0	1.0							5.0	0.0	0.613288838932931	5.0	300.0	1.0	6.0	5.0	5.0	0.0	part_2
220	1.0	7.0			350.0	0.0	0.0							5.0	0.0	0.7716053922777064	5.0	300.0	1.0	4.0	1.0	3.0	0.0	part_2
221	4.0	7.0			350.0	0.0	1.0							6.0	0.0	0.0	0.0	300.0	4.0	7.0	8.0	1.0	1.0	part_2
222	4.0	7.0			350.0	0.0	1.0							6.0	0.0	0.0	0.0	350.0	4.0	7.0	8.0	1.0	1.0	part_2
223	1.0	7.0			350.0	0.0	1.0							5.0	0.0	0.4036216706226696	5.0	400.0	3.0	8.0	7.0	2.0	0.0	part_2
224	1.0	7.0			350.0	0.0	0.0							6.0	0.0	0.4497886329991161	6.0	400.0	1.0	4.0	1.0	3.0	0.0	part_2
225	1.0	7.0			350.0	0.0	1.0							6.0	0.0	0.449692397905892	6.0	400.0	4.0	7.0	8.0	1.0	0.0	part_2
226	1.0	7.0			350.0	0.0	0.0							6.0	0.0	0.49726251296669943	6.0	400.0	2.0	2.0	2.0	7.0	0.0	part_2
227	1.0	7.0			350.0	0.0	0.0							5.0	0.0	0.554328568312485	5.0	400.0	1.0	4.0	1.0	3.0	0.0	part_2
228	1.0	7.0			350.0	0.0	1.0							5.0	0.0	0.6205736796546262	5.0	400.0	3.0	8.0	7.0	2.0	0.0	part_2
229	1.0	7.0			350.0	0.0	0.0							6.0	0.0	0.5553024639339128	6.0	400.0	4.0	1.0	4.0	8.0	0.0	part_2
230	1.0	7.0			350.0	0.0	0.0							6.0	0.0	0.3971462129702559	6.0	400.0	2.0	2.0	2.0	7.0	0.0	part_2
231	4.0	7.0			350.0	0.0	1.0							5.0	0.0	0.0	0.0	400.0	1.0	6.0	5.0	5.0	1.0	part_2
232	1.0	7.0			400.0	0.0	0.0							6.0	0.0	0.49011855834396556	6.0	400.0	4.0	1.0	4.0	8.0	0.0	part_2
233	4.0	7.0			400.0	0.0	1.0							5.0	0.0	0.0	0.0	400.0	4.0	7.0	8.0	1.0	1.0	part_2
234	4.0	7.0			450.0	0.0	1.0							5.0	0.0	0.0	0.0	400.0	2.0	5.0	6.0	4.0	1.0	part_2
235	3.0	7.0			500.0	0.0	1.0							6.0	0.0	0.48162267031148076	6.0	400.0	3.0	8.0	7.0	2.0	1.0	part_2
236	1.0	7.0			500.0	0.0	1.0							6.0	0.0	0.6275554379681125	6.0	350.0	1.0	6.0	5.0	5.0	0.0	part_2
237	1.0	7.0			500.0	0.0	0.0							6.0	0.0	0.6962523706206412	6.0	350.0	4.0	1.0	4.0	8.0	0.0	part_2
238	4.0	7.0			500.0	0.0	1.0							6.0	0.0	0.0	0.0	350.0	1.0	6.0	5.0	5.0	1.0	part_2
239	1.0	7.0			500.0	0.0	0.0							6.0	0.0	0.7436121940008888	6.0	400.0	2.0	2.0	2.0	7.0	0.0	part_2
240	1.0	7.0			500.0	0.0	1.0							5.0	0.0	0.677538611656928	5.0	400.0	2.0	5.0	6.0	4.0	0.0	part_2
241	4.0	7.0			500.0	0.0	1.0							6.0	0.0	0.0	0.0	400.0	2.0	5.0	6.0	4.0	1.0	part_2
242	1.0	7.0			500.0	0.0	0.0							5.0	0.0	0.5315245332785707	5.0	450.0	4.0	1.0	4.0	8.0	0.0	part_2
243	4.0	7.0			500.0	0.0	1.0							6.0	0.0	0.0	0.0	450.0	3.0	8.0	7.0	2.0	1.0	part_2
244	1.0	7.0			500.0	0.0	0.0							5.0	0.0	0.5443042912811507	5.0	500.0	1.0	4.0	1.0	3.0	0.0	part_2
245	4.0	7.0			500.0	0.0	1.0							5.0	0.0	0.0	0.0	500.0	4.0	7.0	8.0	1.0	1.0	part_2
246	4.0	7.0			550.0	0.0	1.0							6.0	0.0	0.0	0.0	500.0	2.0	5.0	6.0	4.0	1.0	part_2
247	1.0	7.0			550.0	0.0	1.0							6.0	0.0	0.6475050272820226	6.0	550.0	3.0	8.0	7.0	2.0	0.0	part_2
248	1.0	7.0			550.0	0.0	0.0							6.0	0.0	0.5245572499989066	6.0	550.0	1.0	4.0	1.0	3.0	0.0	part_2
249	3.0	7.0			550.0	0.0	1.0							5.0	0.0	0.5147014839676558	5.0	550.0	4.0	7.0	8.0	1.0	1.0	part_2
250	1.0	7.0			500.0	0.0	0.0							6.0	0.0	0.7625249222801358	6.0	550.0	3.0	3.0	3.0	6.0	0.0	part_2
251	1.0	7.0			500.0	0.0	0.0							5.0	0.0	0.6409444906239514	5.0	550.0	1.0	4.0	1.0	3.0	0.0	part_2
252	1.0	8.0			500.0	0.0	1.0							6.0	0.0	0.6896469669045473	6.0	550.0	1.0	6.0	5.0	5.0	0.0	part_2
253	1.0	8.0			500.0	0.0	0.0							5.0	0.0	0.6683802432817174	5.0	550.0	4.0	1.0	4.0	8.0	0.0	part_2
254	1.0	8.0			500.0	0.0	0.0							5.0	0.0	0.6923248579332721	5.0	550.0	2.0	2.0	2.0	7.0	0.0	part_2
255	1.0	8.0			500.0	0.0	0.0							6.0	0.0	0.6483277249681123	6.0	550.0	4.0	1.0	4.0	8.0	0.0	part_2
256	1.0	8.0			500.0	0.0	0.0							5.0	0.0	0.6581812306576467	5.0	550.0	4.0	1.0	4.0	8.0	0.0	part_2
257	3.0	8.0			500.0	0.0	1.0							5.0	0.0	0.6026956542809785	5.0	550.0	3.0	8.0	7.0	2.0	1.0	part_2
258	4.0	8.0			450.0	0.0	1.0							5.0	0.0	0.0	0.0	550.0	4.0	7.0	8.0	1.0	1.0	part_2
259	1.0	8.0			500.0	0.0	0.0							5.0	0.0	0.943388610969123	5.0	550.0	1.0	4.0	1.0	3.0	0.0	part_2
260	1.0	8.0			500.0	0.0	1.0							5.0	0.0	0.7628489356247883	5.0	550.0	1.0	6.0	5.0	5.0	0.0	part_2
261	1.0	8.0			500.0	0.0	0.0							6.0	0.0	0.46021964262399706	6.0	550.0	1.0	4.0	1.0	3.0	0.0	part_2
262	3.0	8.0			500.0	0.0	1.0							5.0	0.0	0.2938018286222359	5.0	550.0	3.0	8.0	7.0	2.0	1.0	part_2
263	1.0	8.0			450.0	0.0	0.0							5.0	0.0	0.5294843542797025	5.0	550.0	4.0	1.0	4.0	8.0	0.0	part_2
264	3.0	8.0			450.0	0.0	1.0							6.0	0.0	0.47428214403043967	6.0	550.0	1.0	6.0	5.0	5.0	1.0	part_2
265	1.0	8.0			450.0	0.0	1.0							5.0	0.0	0.9698212043113017	5.0	500.0	1.0	6.0	5.0	5.0	0.0	part_2
266	1.0	8.0			450.0	0.0	0.0							5.0	0.0	0.769600261690357	5.0	500.0	2.0	2.0	2.0	7.0	0.0	part_2
267	4.0	8.0			450.0	0.0	1.0							5.0	0.0	0.0	0.0	500.0	4.0	7.0	8.0	1.0	1.0	part_2
268	1.0	8.0			500.0	0.0	0.0							6.0	0.0	0.9276322482801334	6.0	500.0	4.0	1.0	4.0	8.0	0.0	part_2
269	1.0	8.0			500.0	0.0	0.0							6.0	0.0	0.8718213970532815	6.0	500.0	3.0	3.0	3.0	6.0	0.0	part_2
270	4.0	8.0			500.0	0.0	1.0							6.0	0.0	0.0	0.0	500.0	4.0	7.0	8.0	1.0	1.0	part_2
271	4.0	8.0			500.0	0.0	1.0							5.0	0.0	0.0	0.0	550.0	2.0	5.0	6.0	4.0	1.0	part_2
272	4.0	8.0			550.0	0.0	1.0							5.0	0.0	0.0	0.0	550.0	2.0	5.0	6.0	4.0	1.0	part_2
273	1.0	8.0			600.0	0.0	0.0							6.0	0.0	0.8635784602811327	6.0	550.0	2.0	2.0	2.0	7.0	0.0	part_2
274	4.0	8.0			600.0	0.0	1.0							6.0	0.0	0.0	0.0	550.0	1.0	6.0	5.0	5.0	1.0	part_2
275	1.0	8.0			600.0	0.0	0.0							6.0	0.0	0.7987921956264472	6.0	600.0	1.0	4.0	1.0	3.0	0.0	part_2
276	1.0	8.0			600.0	0.0	0.0							6.0	0.0	0.6861689317775017	6.0	600.0	4.0	1.0	4.0	8.0	0.0	part_2
277	3.0	8.0			600.0	0.0	1.0							5.0	0.0	0.6995478449680377	5.0	600.0	3.0	8.0	7.0	2.0	1.0	part_2
278	1.0	8.0			550.0	0.0	0.0							5.0	0.0	0.9354678007439361	5.0	600.0	1.0	4.0	1.0	3.0	0.0	part_2
279	1.0	8.0			550.0	0.0	0.0							6.0	0.0	0.9937042969322647	6.0	600.0	2.0	2.0	2.0	7.0	0.0	part_2
280	1.0	8.0			550.0	0.0	0.0							6.0	0.0	0.9715163532491715	6.0	600.0	2.0	2.0	2.0	7.0	0.0	part_2
281	4.0	8.0			550.0	0.0	1.0							6.0	0.0	0.0	0.0	600.0	2.0	5.0	6.0	4.0	1.0	part_2
282	4.0	8.0			550.0	0.0	1.0							6.0	0.0	0.0	0.0	650.0	1.0	6.0	5.0	5.0	1.0	part_2
283	1.0	8.0			550.0	0.0	0.0							6.0	0.0	1.0861861119665264	6.0	700.0	3.0	3.0	3.0	6.0	0.0	part_2
284	1.0	8.0			550.0	0.0	0.0							5.0	0.0	0.8501422797417035	5.0	700.0	3.0	3.0	3.0	6.0	0.0	part_2
285	3.0	8.0			550.0	0.0	1.0							6.0	0.0	0.7726058949665457	6.0	700.0	2.0	5.0	6.0	4.0	1.0	part_2
286	4.0	8.0			550.0	0.0	1.0							6.0	0.0	0.0	0.0	650.0	1.0	6.0	5.0	5.0	1.0	part_2
287	4.0	8.0			550.0	0.0	1.0							6.0	0.0	0.0	0.0	700.0	1.0	6.0	5.0	5.0	1.0	part_2
0	0.0	1.0	270.0	5.0	0.0	1.0	1.0	54.0	162.0	270.0	324.0	216.0	108.0	7.0	0.0	4.278836282770499	3.0	0.0	2.0	5.0	6.0	4.0	0.0	part_3
1	0.0	1.0	98.0	2.0	0.0	1.0	1.0	49.0	147.0	294.0	98.0	245.0	196.0	7.0	0.0	2.2486722151625145	4.0	0.0	1.0	6.0	5.0	5.0	0.0	part_3
2	0.0	1.0	170.0	5.0	0.0	1.0	1.0	204.0	68.0	102.0	34.0	170.0	136.0	7.0	0.0	1.8442700803861953	5.0	0.0	2.0	5.0	6.0	4.0	0.0	part_3
3	0.0	1.0	195.0	5.0	0.0	1.0	0.0	195.0	39.0	234.0	117.0	78.0	156.0	7.0	0.0	2.814345401548053	1.0	0.0	4.0	1.0	4.0	8.0	0.0	part_3
4	0.0	1.0	117.0	3.0	0.0	1.0	1.0	195.0	117.0	156.0	78.0	234.0	39.0	7.0	0.0	2.0820320060011	2.0	0.0	4.0	7.0	8.0	1.0	0.0	part_3
5	0.0	1.0	176.0	4.0	0.0	1.0	0.0	132.0	220.0	264.0	176.0	88.0	44.0	7.0	0.0	2.5917076980877027	4.0	0.0	1.0	4.0	1.0	3.0	0.0	part_3
6	0.0	1.0	195.0	5.0	0.0	1.0	0.0	78.0	234.0	156.0	117.0	195.0	39.0	7.0	0.0	3.5020265580897103	5.0	0.0	3.0	3.0	3.0	6.0	0.0	part_3
7	0.0	1.0	196.0	4.0	0.0	1.0	1.0	196.0	294.0	245.0	147.0	98.0	49.0	7.0	0.0	2.15435678339054	1.0	0.0	2.0	5.0	6.0	4.0	0.0	part_3
8	0.0	1.0	170.0	5.0	0.0	1.0	1.0	34.0	170.0	136.0	204.0	68.0	102.0	7.0	0.0	2.5162123453883396	2.0	0.0	1.0	6.0	5.0	5.0	0.0	part_3
9	0.0	1.0	270.0	5.0	0.0	1.0	1.0	108.0	54.0	162.0	270.0	216.0	324.0	7.0	0.0	1.4592821163205372	4.0	0.0	4.0	7.0	8.0	1.0	0.0	part_3
10	0.0	1.0	220.0	5.0	0.0	1.0	0.0	264.0	44.0	88.0	132.0	176.0	220.0	7.0	0.0	1.6949378957724548	6.0	0.0	1.0	4.0	1.0	3.0	0.0	part_3
11	0.0	1.0	234.0	6.0	0.0	1.0	1.0	78.0	234.0	156.0	117.0	195.0	39.0	7.0	0.0	1.7075950217731588	2.0	0.0	4.0	7.0	8.0	1.0	0.0	part_3
12	0.0	1.0	264.0	6.0	0.0	1.0	0.0	88.0	264.0	132.0	44.0	220.0	176.0	7.0	0.0	1.3835977070921217	2.0	0.0	3.0	3.0	3.0	6.0	0.0	part_3
13	0.0	1.0	294.0	6.0	0.0	1.0	0.0	294.0	98.0	245.0	49.0	147.0	196.0	7.0	0.0	1.7791639015449618	1.0	0.0	4.0	1.0	4.0	8.0	0.0	part_3
14	0.0	1.0	195.0	5.0	0.0	1.0	0.0	156.0	195.0	39.0	117.0	234.0	78.0	7.0	0.0	1.3739056813901698	2.0	0.0	3.0	3.0	3.0	6.0	0.0	part_3
15	0.0	1.0	204.0	6.0	0.0	1.0	0.0	170.0	204.0	68.0	102.0	136.0	34.0	7.0	0.0	3.7831013441609684	2.0	0.0	4.0	1.0	4.0	8.0	0.0	part_3
16	0.0	1.0	220.0	5.0	0.0	1.0	0.0	132.0	220.0	264.0	88.0	44.0	176.0	7.0	0.0	3.4136937897746975	2.0	0.0	3.0	3.0	3.0	6.0	0.0	part_3
17	0.0	1.0	245.0	5.0	0.0	1.0	1.0	98.0	147.0	196.0	49.0	294.0	245.0	7.0	0.0	2.1993051644785737	6.0	0.0	2.0	5.0	6.0	4.0	0.0	part_3
18	0.0	1.0	170.0	5.0	0.0	1.0	1.0	68.0	136.0	170.0	34.0	102.0	204.0	7.0	0.0	2.9208404651617457	3.0	0.0	2.0	5.0	6.0	4.0	0.0	part_3
19	0.0	1.0	170.0	5.0	0.0	1.0	1.0	68.0	102.0	170.0	136.0	34.0	204.0	7.0	0.0	2.898615367092134	3.0	0.0	3.0	8.0	7.0	2.0	0.0	part_3
20	0.0	2.0	264.0	6.0	0.0	1.0	0.0	220.0	264.0	132.0	44.0	88.0	176.0	7.0	0.0	1.6728635973195196	2.0	0.0	4.0	1.0	4.0	8.0	0.0	part_3
21	0.0	2.0	196.0	4.0	0.0	1.0	1.0	196.0	294.0	49.0	245.0	147.0	98.0	7.0	0.0	4.036072005936148	1.0	0.0	4.0	7.0	8.0	1.0	0.0	part_3
22	0.0	2.0	132.0	3.0	0.0	1.0	0.0	176.0	264.0	132.0	88.0	44.0	220.0	7.0	0.0	4.6571141117710795	3.0	0.0	2.0	2.0	2.0	7.0	0.0	part_3
23	0.0	2.0	136.0	4.0	0.0	1.0	0.0	170.0	34.0	136.0	204.0	102.0	68.0	7.0	0.0	1.2520079713176528	3.0	0.0	2.0	2.0	2.0	7.0	0.0	part_3
24	0.0	2.0	264.0	6.0	0.0	1.0	1.0	176.0	88.0	220.0	132.0	44.0	264.0	7.0	0.0	3.807449982770777	6.0	0.0	2.0	5.0	6.0	4.0	0.0	part_3
25	0.0	2.0	98.0	2.0	0.0	1.0	0.0	245.0	49.0	294.0	98.0	196.0	147.0	7.0	0.0	4.314086907772435	4.0	0.0	2.0	2.0	2.0	7.0	0.0	part_3
26	0.0	2.0	78.0	2.0	0.0	2.0	0.0	78.0	234.0	195.0	156.0	117.0	39.0	7.0	0.0	1.3693561001600756	1.0	0.0	1.0	4.0	1.0	3.0	0.0	part_3
27	0.0	2.0	108.0	2.0	0.0	1.0	0.0	270.0	108.0	54.0	216.0	324.0	162.0	7.0	0.0	1.876450335548725	2.0	0.0	2.0	2.0	2.0	7.0	0.0	part_3
28	0.0	2.0	204.0	6.0	0.0	1.0	1.0	34.0	102.0	170.0	136.0	204.0	68.0	7.0	0.0	1.6524445393188216	5.0	0.0	3.0	8.0	7.0	2.0	0.0	part_3
29	0.0	2.0	204.0	6.0	0.0	1.0	1.0	136.0	68.0	102.0	204.0	170.0	34.0	7.0	0.0	2.194214226317854	4.0	0.0	1.0	6.0	5.0	5.0	0.0	part_3
30	0.0	2.0	147.0	3.0	0.0	1.0	1.0	98.0	245.0	196.0	294.0	147.0	49.0	7.0	0.0	3.1732984169357223	5.0	0.0	3.0	8.0	7.0	2.0	0.0	part_3
31	0.0	2.0	216.0	4.0	0.0	1.0	0.0	108.0	270.0	216.0	54.0	162.0	324.0	7.0	0.0	3.466862246092205	3.0	0.0	4.0	1.0	4.0	8.0	0.0	part_3
32	0.0	2.0	216.0	4.0	0.0	1.0	1.0	324.0	270.0	162.0	54.0	216.0	108.0	7.0	0.0	2.1299156189343194	5.0	0.0	1.0	6.0	5.0	5.0	0.0	part_3
33	0.0	2.0	156.0	4.0	0.0	1.0	0.0	117.0	78.0	195.0	39.0	156.0	234.0	7.0	0.0	2.940427154317149	5.0	0.0	4.0	1.0	4.0	8.0	0.0	part_3
34	0.0	2.0	176.0	4.0	0.0	1.0	1.0	88.0	220.0	44.0	264.0	176.0	132.0	7.0	0.0	3.4828805804791045	5.0	0.0	3.0	8.0	7.0	2.0	0.0	part_3
35	0.0	2.0	102.0	3.0	0.0	1.0	0.0	34.0	102.0	68.0	136.0	204.0	170.0	7.0	0.0	3.021134439317393	2.0	0.0	2.0	2.0	2.0	7.0	0.0	part_3
36	0.0	2.0	216.0	4.0	0.0	1.0	1.0	216.0	324.0	54.0	270.0	108.0	162.0	7.0	0.0	1.7850767571617325	1.0	0.0	4.0	7.0	8.0	1.0	0.0	part_3
37	0.0	2.0	245.0	5.0	0.0	1.0	1.0	98.0	294.0	147.0	196.0	49.0	245.0	7.0	0.0	3.2705329540913226	6.0	0.0	1.0	6.0	5.0	5.0	0.0	part_3
38	0.0	2.0	117.0	3.0	0.0	1.0	0.0	78.0	234.0	117.0	39.0	195.0	156.0	7.0	0.0	2.259698904090328	3.0	0.0	2.0	2.0	2.0	7.0	0.0	part_3
39	0.0	2.0	147.0	3.0	0.0	1.0	0.0	98.0	49.0	196.0	147.0	294.0	245.0	7.0	0.0	2.94605335554661	4.0	0.0	1.0	4.0	1.0	3.0	0.0	part_3
40	0.0	3.0	294.0	6.0	0.0	1.0	0.0	98.0	196.0	245.0	294.0	147.0	49.0	7.0	0.0	1.979122238160926	4.0	0.0	3.0	3.0	3.0	6.0	0.0	part_3
41	0.0	3.0	264.0	6.0	0.0	1.0	0.0	176.0	220.0	264.0	88.0	44.0	132.0	7.0	0.0	1.9811992179347726	3.0	0.0	4.0	1.0	4.0	8.0	0.0	part_3
42	0.0	3.0	162.0	3.0	0.0	1.0	0.0	270.0	216.0	162.0	54.0	108.0	324.0	7.0	0.0	2.6468875139325974	3.0	0.0	3.0	3.0	3.0	6.0	0.0	part_3
43	0.0	3.0	170.0	5.0	0.0	1.0	1.0	204.0	170.0	102.0	68.0	136.0	34.0	7.0	0.0	2.061783316930814	2.0	0.0	4.0	7.0	8.0	1.0	0.0	part_3
44	0.0	3.0	162.0	3.0	0.0	1.0	1.0	54.0	216.0	270.0	108.0	162.0	324.0	7.0	0.0	1.7473877640877618	5.0	0.0	3.0	8.0	7.0	2.0	0.0	part_3
45	0.0	3.0	108.0	2.0	0.0	1.0	0.0	270.0	54.0	216.0	324.0	162.0	108.0	7.0	0.0	2.873745080389199	6.0	0.0	2.0	2.0	2.0	7.0	0.0	part_3
46	0.0	3.0	270.0	5.0	0.0	1.0	0.0	216.0	162.0	324.0	270.0	108.0	54.0	7.0	0.0	1.7729017266137816	4.0	0.0	3.0	3.0	3.0	6.0	0.0	part_3
47	0.0	3.0	98.0	2.0	0.0	1.0	0.0	98.0	294.0	49.0	245.0	147.0	196.0	7.0	0.0	3.203155664159567	1.0	0.0	1.0	4.0	1.0	3.0	0.0	part_3
48	0.0	3.0	88.0	2.0	0.0	1.0	1.0	44.0	264.0	220.0	88.0	132.0	176.0	7.0	0.0	1.9086532017063291	4.0	0.0	4.0	7.0	8.0	1.0	0.0	part_3
49	0.0	3.0	117.0	3.0	0.0	1.0	1.0	195.0	117.0	39.0	234.0	156.0	78.0	7.0	0.0	3.362455500089709	2.0	0.0	3.0	8.0	7.0	2.0	0.0	part_3
50	0.0	3.0	220.0	5.0	0.0	1.0	1.0	264.0	44.0	176.0	88.0	220.0	132.0	7.0	0.0	1.2134615090908483	5.0	0.0	1.0	6.0	5.0	5.0	0.0	part_3
51	0.0	3.0	196.0	4.0	0.0	1.0	0.0	98.0	294.0	196.0	49.0	245.0	147.0	7.0	0.0	2.6665376319360803	3.0	0.0	4.0	1.0	4.0	8.0	0.0	part_3
52	0.0	3.0	196.0	4.0	0.0	1.0	1.0	147.0	294.0	49.0	196.0	245.0	98.0	7.0	0.0	2.240923705161549	4.0	0.0	3.0	8.0	7.0	2.0	0.0	part_3
53	0.0	3.0	132.0	3.0	0.0	1.0	1.0	88.0	132.0	176.0	264.0	220.0	44.0	7.0	0.0	1.7229116333874117	2.0	0.0	2.0	5.0	6.0	4.0	0.0	part_3
54	0.0	3.0	216.0	4.0	0.0	1.0	1.0	270.0	54.0	216.0	324.0	162.0	108.0	7.0	0.0	3.06328560838665	3.0	0.0	3.0	8.0	7.0	2.0	0.0	part_3
55	0.0	3.0	170.0	5.0	0.0	1.0	0.0	68.0	204.0	102.0	136.0	34.0	170.0	7.0	0.0	2.658702806547808	6.0	0.0	4.0	1.0	4.0	8.0	0.0	part_3
56	0.0	3.0	78.0	2.0	0.0	1.0	0.0	117.0	78.0	39.0	234.0	195.0	156.0	7.0	0.0	2.9653503853878647	2.0	0.0	1.0	4.0	1.0	3.0	0.0	part_3
57	0.0	3.0	176.0	4.0	0.0	1.0	1.0	220.0	264.0	88.0	132.0	44.0	176.0	7.0	0.0	1.3794818821588706	6.0	0.0	1.0	6.0	5.0	5.0	0.0	part_3
58	0.0	3.0	156.0	4.0	0.0	1.0	1.0	117.0	39.0	195.0	78.0	234.0	156.0	7.0	0.0	2.6969258194803842	6.0	0.0	3.0	8.0	7.0	2.0	0.0	part_3
59	0.0	3.0	195.0	5.0	0.0	1.0	1.0	195.0	156.0	78.0	234.0	39.0	117.0	7.0	0.0	3.699975284318498	1.0	0.0	2.0	5.0	6.0	4.0	0.0	part_3
60	0.0	4.0	147.0	3.0	0.0	1.0	0.0	49.0	147.0	294.0	98.0	196.0	245.0	7.0	0.0	2.190104830388009	2.0	0.0	2.0	2.0	2.0	7.0	0.0	part_3
61	0.0	4.0	204.0	6.0	0.0	1.0	1.0	102.0	170.0	136.0	204.0	34.0	68.0	7.0	0.0	2.4176531620905735	4.0	0.0	4.0	7.0	8.0	1.0	0.0	part_3
62	0.0	4.0	108.0	2.0	0.0	1.0	0.0	324.0	108.0	216.0	54.0	162.0	270.0	7.0	0.0	1.6088729279326799	2.0	0.0	1.0	4.0	1.0	3.0	0.0	part_3
63	0.0	4.0	132.0	3.0	0.0	1.0	1.0	220.0	88.0	132.0	264.0	176.0	44.0	7.0	0.0	2.047559074093442	3.0	0.0	3.0	8.0	7.0	2.0	0.0	part_3
64	0.0	4.0	162.0	3.0	0.0	1.0	0.0	270.0	162.0	54.0	324.0	108.0	216.0	7.0	0.0	2.43024517215963	2.0	0.0	4.0	1.0	4.0	8.0	0.0	part_3
65	0.0	4.0	170.0	5.0	0.0	1.0	0.0	136.0	68.0	34.0	204.0	102.0	170.0	7.0	0.0	2.6022584947713767	6.0	0.0	3.0	3.0	3.0	6.0	0.0	part_3
66	0.0	4.0	156.0	4.0	0.0	1.0	1.0	78.0	195.0	117.0	156.0	39.0	234.0	7.0	0.0	2.725079757547064	4.0	0.0	2.0	5.0	6.0	4.0	0.0	part_3
67	0.0	4.0	170.0	5.0	0.0	1.0	0.0	68.0	136.0	102.0	170.0	204.0	34.0	7.0	0.0	2.5352475811596378	4.0	0.0	3.0	3.0	3.0	6.0	0.0	part_3
68	0.0	4.0	156.0	4.0	0.0	1.0	1.0	39.0	234.0	117.0	156.0	78.0	195.0	7.0	0.0	2.1759695187720354	4.0	0.0	1.0	6.0	5.0	5.0	0.0	part_3
69	0.0	4.0	108.0	2.0	0.0	1.0	1.0	54.0	216.0	324.0	108.0	270.0	162.0	7.0	0.0	2.7508959775477706	4.0	0.0	2.0	5.0	6.0	4.0	0.0	part_3
70	0.0	4.0	136.0	4.0	0.0	1.0	0.0	102.0	34.0	136.0	68.0	204.0	170.0	7.0	0.0	1.7865441433896194	3.0	0.0	1.0	4.0	1.0	3.0	0.0	part_3
71	0.0	4.0	132.0	3.0	0.0	1.0	0.0	132.0	88.0	264.0	176.0	220.0	44.0	7.0	0.0	1.808610631389456	1.0	0.0	2.0	2.0	2.0	7.0	0.0	part_3
72	0.0	4.0	117.0	3.0	0.0	1.0	0.0	156.0	78.0	39.0	195.0	117.0	234.0	7.0	0.0	2.123978103933041	5.0	0.0	2.0	2.0	2.0	7.0	0.0	part_3
73	0.0	4.0	136.0	4.0	0.0	1.0	0.0	34.0	136.0	68.0	170.0	102.0	204.0	7.0	0.0	2.8584306113189086	2.0	0.0	1.0	4.0	1.0	3.0	0.0	part_3
74	0.0	4.0	147.0	3.0	0.0	1.0	1.0	245.0	98.0	196.0	147.0	49.0	294.0	7.0	0.0	2.2845379762256925	4.0	0.0	4.0	7.0	8.0	1.0	0.0	part_3
75	0.0	4.0	216.0	4.0	0.0	1.0	1.0	162.0	216.0	108.0	54.0	270.0	324.0	7.0	0.0	1.879714741546195	2.0	0.0	1.0	6.0	5.0	5.0	0.0	part_3
76	0.0	4.0	156.0	4.0	0.0	1.0	1.0	234.0	195.0	78.0	156.0	117.0	39.0	7.0	0.0	1.4425178479359602	4.0	0.0	1.0	6.0	5.0	5.0	0.0	part_3
77	0.0	4.0	147.0	3.0	0.0	1.0	0.0	245.0	294.0	98.0	147.0	49.0	196.0	7.0	0.0	3.1310044607707823	4.0	0.0	3.0	3.0	3.0	6.0	0.0	part_3
78	0.0	4.0	162.0	3.0	0.0	1.0	0.0	216.0	108.0	162.0	324.0	270.0	54.0	7.0	0.0	2.0314477049323614	3.0	0.0	1.0	4.0	1.0	3.0	0.0	part_3
79	0.0	4.0	132.0	3.0	0.0	1.0	1.0	132.0	264.0	220.0	176.0	44.0	88.0	7.0	0.0	2.9532029825459176	1.0	0.0	4.0	7.0	8.0	1.0	0.0	part_3
