	accuracy	block	chosen_bidding_amount	chosen_bidding_level	left_SSD	num_trial_presentations	paired_with_stopping	possible_bid_1	possible_bid_2	possible_bid_3	possible_bid_4	possible_bid_5	possible_bid_6	quadrant	raw_reward_magnitude	reaction_time	response	right_SSD	stepwise_reward_magnitude	stim_color	stim_reward	stim_shape	stop_signal_trial_type	which_part
0		1.0				1.0	0.0							4.0	92.0	0.3560794133170475	4.0		2.0	1.0	2.0	2.0		part_1
1		1.0				1.0	0.0							3.0	389.0	0.2886036720001357	3.0		4.0	3.0	4.0	4.0		part_1
2		1.0				1.0	0.0							4.0	120.0	0.345803985475186	4.0		2.0	1.0	2.0	2.0		part_1
3		1.0				1.0	1.0							1.0	389.0	0.29253463139593805	1.0		4.0	2.0	8.0	8.0		part_1
4		1.0				1.0	1.0							2.0	0.0	0.2917843631582855	2.0		0.0	7.0	7.0	1.0		part_1
5		1.0				1.0	1.0							3.0	65.0	0.27970344171285433	3.0		1.0	5.0	5.0	7.0		part_1
6		1.0				1.0	1.0							1.0	378.0	0.28110407563349327	1.0		4.0	2.0	8.0	8.0		part_1
7		1.0				2.0	1.0							4.0	208.0	0.41830195031684525	4.0		3.0	7.0	7.0	1.0		part_1
8		1.0				1.0	0.0							3.0	416.0	0.34034147415832194	3.0		4.0	3.0	4.0	4.0		part_1
9		1.0				1.0	0.0							2.0	110.0	0.29535519839623703	2.0		2.0	1.0	2.0	2.0		part_1
10		1.0				1.0	0.0							2.0	66.0	0.34176355439603867	2.0		1.0	4.0	1.0	3.0		part_1
11		1.0				1.0	0.0							2.0	0.0	0.3185815491583526	2.0		0.0	8.0	3.0	6.0		part_1
12		1.0				1.0	1.0							3.0	413.0	0.24029726623757597	3.0		4.0	2.0	8.0	8.0		part_1
13		1.0				1.0	1.0							4.0	96.0	0.3191564193962222	4.0		2.0	6.0	6.0	5.0		part_1
14		1.0				1.0	1.0							4.0	193.0	0.33116337563342313	4.0		3.0	7.0	7.0	1.0		part_1
15		1.0				1.0	0.0							1.0	0.0	0.2647707850792358	1.0		0.0	4.0	1.0	3.0		part_1
16		1.0				1.0	0.0							3.0	185.0	0.3566615160791571	3.0		3.0	8.0	3.0	6.0		part_1
17		1.0				1.0	1.0							1.0	0.0	0.41157631307919473	1.0		0.0	5.0	5.0	7.0		part_1
18		1.0				1.0	1.0							3.0	211.0	0.3101972368415318	3.0		3.0	7.0	7.0	1.0		part_1
19		1.0				1.0	0.0							3.0	380.0	0.3895736829999805	3.0		4.0	3.0	4.0	4.0		part_1
20		1.0				1.0	0.0							2.0	68.0	0.39044862523746815	2.0		1.0	4.0	1.0	3.0		part_1
21		1.0				1.0	1.0							1.0	36.0	0.3927806301583132	1.0		1.0	5.0	5.0	7.0		part_1
22		1.0				1.0	0.0							1.0	0.0	0.3366069236335534	1.0		0.0	1.0	2.0	2.0		part_1
23		1.0				1.0	0.0							4.0	93.0	0.26983959523749945	4.0		2.0	1.0	2.0	2.0		part_1
24		1.0				1.0	1.0							1.0	180.0	0.28010011255423706	1.0		3.0	7.0	7.0	1.0		part_1
25		1.0				1.0	1.0							2.0	125.0	0.3837336851584041	2.0		2.0	6.0	6.0	5.0		part_1
26		1.0				1.0	0.0							3.0	112.0	0.25963868363373876	3.0		2.0	1.0	2.0	2.0		part_1
27		1.0				1.0	1.0							1.0	59.0	0.2598709104752288	1.0		1.0	5.0	5.0	7.0		part_1
28		1.0				1.0	0.0							4.0	188.0	0.2816893863960104	4.0		3.0	8.0	3.0	6.0		part_1
29		1.0				1.0	1.0							3.0	32.0	0.26005269931692965	3.0		1.0	5.0	5.0	7.0		part_1
30		1.0				1.0	0.0							3.0	0.0	0.362927640633643	3.0		0.0	8.0	3.0	6.0		part_1
31		1.0				1.0	0.0							4.0	85.0	0.3528969892374789	4.0		2.0	1.0	2.0	2.0		part_1
32		1.0				1.0	1.0							4.0	185.0	0.3301371142374592	4.0		3.0	7.0	7.0	1.0		part_1
33		1.0				1.0	0.0							3.0	63.0	0.2735111762374345	3.0		1.0	4.0	1.0	3.0		part_1
34		1.0				1.0	0.0							1.0	187.0	0.2857267722376946	1.0		3.0	8.0	3.0	6.0		part_1
35		1.0				1.0	1.0							2.0	407.0	0.3442843842374259	2.0		4.0	2.0	8.0	8.0		part_1
36		1.0				1.0	1.0							2.0	62.0	0.3101687556336401	2.0		1.0	5.0	5.0	7.0		part_1
37		1.0				1.0	0.0							3.0	120.0	0.2753201414752766	3.0		2.0	1.0	2.0	2.0		part_1
38		1.0				1.0	1.0							4.0	380.0	0.4004246084753049	4.0		4.0	2.0	8.0	8.0		part_1
39		1.0				1.0	0.0							2.0	424.0	0.28842217715850893	2.0		4.0	3.0	4.0	4.0		part_1
40		1.0				2.0	0.0							2.0	0.0	0.2790311189999102	2.0		0.0	1.0	2.0	2.0		part_1
41		1.0				1.0	1.0							2.0	116.0	0.35766144647527653	2.0		2.0	6.0	6.0	5.0		part_1
42		1.0				1.0	0.0							4.0	0.0	0.36994851047529664	4.0		0.0	8.0	3.0	6.0		part_1
43		1.0				1.0	1.0							2.0	89.0	0.370317687079023	2.0		2.0	6.0	6.0	5.0		part_1
44		1.0				1.0	1.0							4.0	75.0	0.3476621860791056	4.0		1.0	5.0	5.0	7.0		part_1
45		1.0				1.0	0.0							2.0	208.0	0.40515486831691305	2.0		3.0	8.0	3.0	6.0		part_1
46		1.0				1.0	0.0							3.0	395.0	0.4052029393169505	3.0		4.0	3.0	4.0	4.0		part_1
47		1.0				1.0	0.0							1.0	85.0	0.32856299407899314	1.0		2.0	1.0	2.0	2.0		part_1
48		1.0				1.0	1.0							3.0	89.0	0.42843825763361565	3.0		2.0	6.0	6.0	5.0		part_1
49		1.0				1.0	1.0							1.0	188.0	0.3636532883961081	1.0		3.0	7.0	7.0	1.0		part_1
50		1.0				1.0	0.0							2.0	97.0	0.41939932884179143	2.0		2.0	1.0	2.0	2.0		part_1
51		1.0				1.0	0.0							2.0	27.0	0.3519896972375136	2.0		1.0	4.0	1.0	3.0		part_1
52		1.0				1.0	0.0							4.0	107.0	0.3203641160794177	4.0		2.0	1.0	2.0	2.0		part_1
53		1.0				1.0	1.0							1.0	220.0	0.30882086139627063	1.0		3.0	7.0	7.0	1.0		part_1
54		1.0				1.0	0.0							3.0	26.0	0.29793553339595746	3.0		1.0	4.0	1.0	3.0		part_1
55		1.0				1.0	1.0							4.0	92.0	0.3085284399999182	4.0		2.0	6.0	6.0	5.0		part_1
56		1.0				1.0	0.0							4.0	201.0	0.35482581163387295	4.0		3.0	8.0	3.0	6.0		part_1
57		1.0				1.0	0.0							2.0	116.0	0.3214884286335291	2.0		2.0	1.0	2.0	2.0		part_1
58		1.0				1.0	1.0							4.0	0.0	0.34509693107929706	4.0		0.0	2.0	8.0	8.0		part_1
59		1.0				1.0	0.0							2.0	120.0	0.3334009524751309	2.0		2.0	1.0	2.0	2.0		part_1
60		1.0				1.0	1.0							3.0	213.0	0.2885443632380884	3.0		3.0	7.0	7.0	1.0		part_1
61		1.0				1.0	1.0							3.0	70.0	0.41422779931690457	3.0		1.0	5.0	5.0	7.0		part_1
62		1.0				1.0	1.0							1.0	114.0	0.4377181091581406	1.0		2.0	6.0	6.0	5.0		part_1
63		1.0				1.0	0.0							2.0	183.0	0.3600114550795297	2.0		3.0	8.0	3.0	6.0		part_1
64		1.0				1.0	1.0							3.0	199.0	0.28089618463400257	3.0		3.0	7.0	7.0	1.0		part_1
65		1.0				1.0	1.0							3.0	425.0	0.4375350621585312	3.0		4.0	2.0	8.0	8.0		part_1
66		1.0				1.0	1.0							2.0	411.0	0.40669200863385413	2.0		4.0	2.0	8.0	8.0		part_1
67		1.0				1.0	0.0							4.0	31.0	0.574797220237997	4.0		1.0	4.0	1.0	3.0		part_1
68		1.0				2.0	1.0							3.0	196.0	0.41796193255459	3.0		3.0	7.0	7.0	1.0		part_1
69		1.0				1.0	0.0							4.0	0.0	0.6114113749999888	4.0		0.0	4.0	1.0	3.0		part_1
70		1.0				1.0	1.0							1.0	0.0	0.4976436912374993	1.0		0.0	7.0	7.0	1.0		part_1
71		1.0				1.0	0.0							2.0	209.0	0.4198380876337069	2.0		3.0	8.0	3.0	6.0		part_1
72		1.0				1.0	1.0							3.0	221.0	0.3305648954751632	3.0		3.0	7.0	7.0	1.0		part_1
73		1.0				1.0	1.0							2.0	27.0	0.4114977420795185	2.0		1.0	5.0	5.0	7.0		part_1
74		1.0				1.0	1.0							3.0	0.0	0.35527261847482805	3.0		0.0	5.0	5.0	7.0		part_1
75		1.0				1.0	1.0							3.0	403.0	0.4224582874749103	3.0		4.0	2.0	8.0	8.0		part_1
76		1.0				1.0	0.0							4.0	90.0	0.3778480933960964	4.0		2.0	1.0	2.0	2.0		part_1
77		1.0				1.0	1.0							2.0	30.0	0.4136030170002414	2.0		1.0	5.0	5.0	7.0		part_1
78		1.0				1.0	0.0							1.0	389.0	0.3683272875541661	1.0		4.0	3.0	4.0	4.0		part_1
79		1.0				1.0	0.0							4.0	419.0	0.37916682839613713	4.0		4.0	3.0	4.0	4.0		part_1
80		1.0				1.0	0.0							3.0	208.0	0.3023917953169075	3.0		3.0	8.0	3.0	6.0		part_1
81		1.0				1.0	1.0							1.0	0.0	0.4927353163166117	1.0		0.0	5.0	5.0	7.0		part_1
82		1.0				1.0	0.0							1.0	27.0	0.4837924011585528	1.0		1.0	4.0	1.0	3.0		part_1
83		1.0				1.0	1.0							1.0	0.0	0.40521410563360405	1.0		0.0	2.0	8.0	8.0		part_1
84		1.0				1.0	1.0							2.0	0.0	0.3828698033166802	2.0		0.0	6.0	6.0	5.0		part_1
85		1.0				1.0	0.0							3.0	196.0	0.42738783307913764	3.0		3.0	8.0	3.0	6.0		part_1
86		1.0				1.0	0.0							3.0	418.0	0.28141327623779944	3.0		4.0	3.0	4.0	4.0		part_1
87		1.0				1.0	0.0							2.0	0.0	0.40605704939571297	2.0		0.0	8.0	3.0	6.0		part_1
88		1.0				1.0	0.0							1.0	394.0	0.29560753923760785	1.0		4.0	3.0	4.0	4.0		part_1
89		1.0				1.0	0.0							2.0	199.0	0.3734422312377319	2.0		3.0	8.0	3.0	6.0		part_1
90		1.0				1.0	1.0							1.0	49.0	0.5089889817127187	1.0		1.0	5.0	5.0	7.0		part_1
91		1.0				1.0	0.0							4.0	30.0	0.5544728202671649	4.0		1.0	4.0	1.0	3.0		part_1
92		1.0				1.0	1.0							4.0	35.0	0.3863510320793466	4.0		1.0	5.0	5.0	7.0		part_1
93		1.0				1.0	0.0							2.0	65.0	0.41095076631700067	2.0		1.0	4.0	1.0	3.0		part_1
94		1.0				1.0	1.0							2.0	217.0	0.37813178323767715	2.0		3.0	7.0	7.0	1.0		part_1
95		1.0				1.0	1.0							1.0	55.0	0.4234202730795005	1.0		1.0	5.0	5.0	7.0		part_1
96		1.0				1.0	1.0							3.0	72.0	0.3090538452374858	3.0		1.0	5.0	5.0	7.0		part_1
97		1.0				1.0	1.0							3.0	76.0	0.4004636404752091	3.0		2.0	6.0	6.0	5.0		part_1
98		1.0				1.0	1.0							3.0	94.0	0.34515311131690396	3.0		2.0	6.0	6.0	5.0		part_1
99		1.0				1.0	0.0							3.0	0.0	0.4349669093958255	3.0		0.0	8.0	3.0	6.0		part_1
100		2.0				1.0	1.0							4.0	0.0	0.3368258752375368	4.0		0.0	6.0	6.0	5.0		part_1
101		2.0				1.0	1.0							2.0	125.0	0.4174153771582496	2.0		2.0	6.0	6.0	5.0		part_1
102		2.0				1.0	1.0							2.0	182.0	0.4384792610794648	2.0		3.0	7.0	7.0	1.0		part_1
103		2.0				1.0	1.0							2.0	58.0	0.37165646455423484	2.0		1.0	5.0	5.0	7.0		part_1
104		2.0				1.0	1.0							2.0	107.0	0.28281078639611223	2.0		2.0	6.0	6.0	5.0		part_1
105		2.0				1.0	1.0							3.0	0.0	0.2828215327131147	3.0		0.0	7.0	7.0	1.0		part_1
106		2.0				1.0	1.0							2.0	119.0	0.4195787672379083	2.0		2.0	6.0	6.0	5.0		part_1
107		2.0				1.0	0.0							3.0	175.0	0.273580577316352	3.0		3.0	8.0	3.0	6.0		part_1
108		2.0				1.0	0.0							4.0	217.0	0.3296550653963095	4.0		3.0	8.0	3.0	6.0		part_1
109		2.0				1.0	0.0							3.0	89.0	0.31863688355451814	3.0		2.0	1.0	2.0	2.0		part_1
110		2.0				1.0	0.0							1.0	193.0	0.32000676331654176	1.0		3.0	8.0	3.0	6.0		part_1
111		2.0				1.0	1.0							2.0	201.0	0.3088204370792482	2.0		3.0	7.0	7.0	1.0		part_1
112		2.0				1.0	0.0							1.0	379.0	0.3220715063166608	1.0		4.0	3.0	4.0	4.0		part_1
113		2.0				1.0	1.0							2.0	77.0	0.3212437251581832	2.0		2.0	6.0	6.0	5.0		part_1
114		2.0				1.0	0.0							4.0	394.0	0.2881838303164841	4.0		4.0	3.0	4.0	4.0		part_1
115		2.0				1.0	1.0							4.0	0.0	0.34596804147531657	4.0		0.0	5.0	5.0	7.0		part_1
116		2.0				1.0	1.0							4.0	175.0	0.49118807931654374	4.0		3.0	7.0	7.0	1.0		part_1
117		2.0				1.0	1.0							4.0	116.0	0.3014157361585603	4.0		2.0	6.0	6.0	5.0		part_1
118		2.0				1.0	0.0							3.0	182.0	0.4247891206341592	3.0		3.0	8.0	3.0	6.0		part_1
119		2.0				1.0	1.0							4.0	215.0	0.3125941904750107	4.0		3.0	7.0	7.0	1.0		part_1
120		2.0				1.0	1.0							2.0	0.0	0.3146747123964815	2.0		0.0	7.0	7.0	1.0		part_1
121		2.0				1.0	1.0							4.0	80.0	0.2802623990792199	4.0		2.0	6.0	6.0	5.0		part_1
122		2.0				1.0	1.0							1.0	90.0	0.31590140507978504	1.0		2.0	6.0	6.0	5.0		part_1
123		2.0				1.0	0.0							3.0	384.0	0.2693608530794336	3.0		4.0	3.0	4.0	4.0		part_1
124		2.0				1.0	0.0							3.0	415.0	0.39485716431681794	3.0		4.0	3.0	4.0	4.0		part_1
125		2.0				1.0	1.0							4.0	391.0	0.3054838305542944	4.0		4.0	2.0	8.0	8.0		part_1
126		2.0				1.0	0.0							1.0	0.0	0.3182124233962895	1.0		0.0	1.0	2.0	2.0		part_1
127		2.0				1.0	1.0							2.0	0.0	0.3060335013169606	2.0		0.0	7.0	7.0	1.0		part_1
128		2.0				1.0	1.0							4.0	78.0	0.2614938243168581	4.0		2.0	6.0	6.0	5.0		part_1
129		2.0				1.0	0.0							1.0	211.0	0.2862300454748947	1.0		3.0	8.0	3.0	6.0		part_1
130		2.0				1.0	1.0							4.0	411.0	0.363585257079194	4.0		4.0	2.0	8.0	8.0		part_1
131		2.0				1.0	1.0							4.0	210.0	0.2970238125544711	4.0		3.0	7.0	7.0	1.0		part_1
132		2.0				1.0	0.0							1.0	32.0	0.29911449355449804	1.0		1.0	4.0	1.0	3.0		part_1
133		2.0				1.0	1.0							2.0	93.0	0.3429256093168078	2.0		2.0	6.0	6.0	5.0		part_1
134		2.0				1.0	0.0							1.0	0.0	0.41235560439599794	1.0		0.0	1.0	2.0	2.0		part_1
135		2.0				1.0	1.0							2.0	382.0	0.35728720631686883	2.0		4.0	2.0	8.0	8.0		part_1
136		2.0				1.0	1.0							1.0	215.0	0.3237667493963272	1.0		3.0	7.0	7.0	1.0		part_1
137		2.0				1.0	1.0							4.0	200.0	0.3342262501582809	4.0		3.0	7.0	7.0	1.0		part_1
138		2.0				1.0	0.0							4.0	207.0	0.4370156385543851	4.0		3.0	8.0	3.0	6.0		part_1
139		2.0				1.0	0.0							1.0	211.0	0.31266750923805375	1.0		3.0	8.0	3.0	6.0		part_1
140		2.0				1.0	0.0							3.0	76.0	0.3594233381581944	3.0		2.0	1.0	2.0	2.0		part_1
141		2.0				1.0	0.0							4.0	387.0	0.32531070815821295	4.0		4.0	3.0	4.0	4.0		part_1
142		2.0				1.0	1.0							3.0	182.0	0.439041023158552	3.0		3.0	7.0	7.0	1.0		part_1
143		2.0				1.0	0.0							3.0	59.0	0.32684800647484735	3.0		1.0	4.0	1.0	3.0		part_1
144		2.0				1.0	0.0							2.0	0.0	0.5068341267128744	2.0		0.0	3.0	4.0	4.0		part_1
145		2.0				1.0	1.0							4.0	59.0	0.3058447621583582	4.0		1.0	5.0	5.0	7.0		part_1
146		2.0				1.0	0.0							1.0	94.0	0.4067126331583495	1.0		2.0	1.0	2.0	2.0		part_1
147		2.0				1.0	1.0							4.0	0.0	0.35132045007912893	4.0		0.0	2.0	8.0	8.0		part_1
148		2.0				1.0	1.0							3.0	51.0	0.4753271144750215	3.0		1.0	5.0	5.0	7.0		part_1
149		2.0				1.0	0.0							4.0	58.0	0.38708338815831667	4.0		1.0	4.0	1.0	3.0		part_1
150		2.0				1.0	1.0							3.0	399.0	0.4987124323165517	3.0		4.0	2.0	8.0	8.0		part_1
151		2.0				1.0	0.0							2.0	38.0	0.364518913237589	2.0		1.0	4.0	1.0	3.0		part_1
152		2.0				1.0	0.0							4.0	0.0	0.3867621280792264	4.0		0.0	8.0	3.0	6.0		part_1
153		2.0				1.0	1.0							2.0	413.0	0.4216590504747728	2.0		4.0	2.0	8.0	8.0		part_1
154		2.0				1.0	0.0							3.0	215.0	0.5125756814750275	3.0		3.0	8.0	3.0	6.0		part_1
155		2.0				1.0	1.0							1.0	221.0	0.3213117461582442	1.0		3.0	7.0	7.0	1.0		part_1
156		2.0				1.0	0.0							2.0	0.0	0.6038826573958431	2.0		0.0	4.0	1.0	3.0		part_1
157		2.0				1.0	0.0							3.0	63.0	0.3109344754752783	3.0		1.0	4.0	1.0	3.0		part_1
158		2.0				1.0	1.0							1.0	0.0	0.4824661182374257	1.0		0.0	7.0	7.0	1.0		part_1
159		2.0				1.0	0.0							3.0	83.0	0.41417801215857253	3.0		2.0	1.0	2.0	2.0		part_1
160		2.0				1.0	1.0							1.0	379.0	0.3023224696339639	1.0		4.0	2.0	8.0	8.0		part_1
161		2.0				1.0	0.0							2.0	72.0	0.3248379046340233	2.0		1.0	4.0	1.0	3.0		part_1
162		2.0				1.0	1.0							4.0	389.0	0.31394190439641534	4.0		4.0	2.0	8.0	8.0		part_1
163		2.0				1.0	0.0							4.0	70.0	0.4606917833962143	4.0		1.0	4.0	1.0	3.0		part_1
164		2.0				1.0	0.0							1.0	78.0	0.38388596423783383	1.0		2.0	1.0	2.0	2.0		part_1
165		2.0				1.0	1.0							4.0	30.0	0.4055748546338691	4.0		1.0	5.0	5.0	7.0		part_1
166		2.0				1.0	1.0							2.0	183.0	0.37207686547526464	2.0		3.0	7.0	7.0	1.0		part_1
167		2.0				1.0	0.0							1.0	0.0	0.3389691300794766	1.0		0.0	8.0	3.0	6.0		part_1
168		2.0				1.0	1.0							1.0	112.0	0.4522407073168324	1.0		2.0	6.0	6.0	5.0		part_1
169		2.0				1.0	1.0							4.0	424.0	0.38551278931663546	4.0		4.0	2.0	8.0	8.0		part_1
170		2.0				1.0	0.0							2.0	424.0	0.4877096570003232	2.0		4.0	3.0	4.0	4.0		part_1
171		2.0				1.0	0.0							4.0	37.0	0.37579360823747265	4.0		1.0	4.0	1.0	3.0		part_1
172		2.0				1.0	1.0							1.0	384.0	0.6026431861582751	1.0		4.0	2.0	8.0	8.0		part_1
173		2.0				1.0	1.0							1.0	209.0	0.45639387971277756	1.0		3.0	7.0	7.0	1.0		part_1
174		2.0				1.0	0.0							3.0	0.0	0.4791873553958794	3.0		0.0	4.0	1.0	3.0		part_1
175		2.0				1.0	0.0							1.0	216.0	0.36776452823778527	1.0		3.0	8.0	3.0	6.0		part_1
176		2.0				1.0	0.0							2.0	100.0	0.4008078444749117	2.0		2.0	1.0	2.0	2.0		part_1
177		2.0				1.0	0.0							4.0	123.0	0.39023315239592193	4.0		2.0	1.0	2.0	2.0		part_1
178		2.0				1.0	0.0							4.0	32.0	0.35686568231676574	4.0		1.0	4.0	1.0	3.0		part_1
179		2.0				1.0	1.0							2.0	196.0	0.41460264147508497	2.0		3.0	7.0	7.0	1.0		part_1
180		2.0				1.0	1.0							1.0	40.0	0.44743048647478645	1.0		1.0	5.0	5.0	7.0		part_1
181		2.0				1.0	1.0							4.0	424.0	0.425978965000013	4.0		4.0	2.0	8.0	8.0		part_1
182		2.0				1.0	1.0							3.0	207.0	0.4155279860792689	3.0		3.0	7.0	7.0	1.0		part_1
183		2.0				1.0	1.0							1.0	387.0	0.38376443939614546	1.0		4.0	2.0	8.0	8.0		part_1
184		2.0				1.0	0.0							4.0	118.0	0.36028300123780355	4.0		2.0	1.0	2.0	2.0		part_1
185		2.0				1.0	1.0							4.0	0.0	0.4499255582377373	4.0		0.0	5.0	5.0	7.0		part_1
186		2.0				1.0	0.0							2.0	213.0	0.49661209015812346	2.0		3.0	8.0	3.0	6.0		part_1
187		2.0				1.0	1.0							3.0	52.0	0.4748174876340272	3.0		1.0	5.0	5.0	7.0		part_1
188		2.0				1.0	1.0							3.0	0.0	0.37242021171277884	3.0		0.0	7.0	7.0	1.0		part_1
189		2.0				1.0	0.0							3.0	0.0	0.31795158015847846	3.0		0.0	8.0	3.0	6.0		part_1
190		2.0				1.0	1.0							3.0	0.0	0.3176644430795932	3.0		0.0	2.0	8.0	8.0		part_1
191		2.0				1.0	1.0							4.0	178.0	0.40896204739647146	4.0		3.0	7.0	7.0	1.0		part_1
192		2.0				1.0	0.0							2.0	0.0	0.3321216944750631	2.0		0.0	1.0	2.0	2.0		part_1
193		2.0				1.0	0.0							4.0	0.0	0.34259863531679	4.0		0.0	3.0	4.0	4.0		part_1
194		2.0				1.0	1.0							4.0	123.0	0.3773973526340342	4.0		2.0	6.0	6.0	5.0		part_1
195		2.0				1.0	0.0							1.0	0.0	0.546586163000029	1.0		0.0	1.0	2.0	2.0		part_1
196		2.0				1.0	0.0							1.0	71.0	0.42336177239621975	1.0		1.0	4.0	1.0	3.0		part_1
197		2.0				1.0	0.0							2.0	77.0	0.3895026372379107	2.0		2.0	1.0	2.0	2.0		part_1
198		2.0				1.0	0.0							4.0	220.0	0.36904839792077837	4.0		3.0	8.0	3.0	6.0		part_1
199		2.0				1.0	0.0							3.0	200.0	0.5599982893963897	3.0		3.0	8.0	3.0	6.0		part_1
200		3.0				1.0	1.0							1.0	32.0	0.3083895163958914	1.0		1.0	5.0	5.0	7.0		part_1
201		3.0				1.0	1.0							3.0	66.0	0.29584546007936297	3.0		1.0	5.0	5.0	7.0		part_1
202		3.0				1.0	0.0							4.0	407.0	0.31898643623799217	4.0		4.0	3.0	4.0	4.0		part_1
203		3.0				1.0	1.0							1.0	0.0	0.4676377456339651	1.0		0.0	5.0	5.0	7.0		part_1
204		3.0				1.0	1.0							1.0	0.0	0.35404992731628226	1.0		0.0	5.0	5.0	7.0		part_1
205		3.0				1.0	1.0							2.0	0.0	0.36679398507976657	2.0		0.0	2.0	8.0	8.0		part_1
206		3.0				1.0	0.0							4.0	411.0	0.3108165202379496	4.0		4.0	3.0	4.0	4.0		part_1
207		3.0				1.0	1.0							1.0	85.0	0.2999428713960697	1.0		2.0	6.0	6.0	5.0		part_1
208		3.0				1.0	0.0							3.0	417.0	0.3684466925542438	3.0		4.0	3.0	4.0	4.0		part_1
209		3.0				1.0	0.0							1.0	413.0	0.4033596733165723	1.0		4.0	3.0	4.0	4.0		part_1
210		3.0				1.0	1.0							3.0	110.0	0.3910807385541375	3.0		2.0	6.0	6.0	5.0		part_1
211		3.0				2.0	1.0							1.0	83.0	0.3490101783168029	1.0		2.0	6.0	6.0	5.0		part_1
212		3.0				1.0	0.0							2.0	0.0	0.338204254316679	2.0		0.0	3.0	4.0	4.0		part_1
213		3.0				1.0	0.0							3.0	380.0	0.3491112770793734	3.0		4.0	3.0	4.0	4.0		part_1
214		3.0				1.0	0.0							3.0	88.0	0.37176065063385977	3.0		2.0	1.0	2.0	2.0		part_1
215		3.0				1.0	1.0							1.0	27.0	0.3279098233961122	1.0		1.0	5.0	5.0	7.0		part_1
216		3.0				1.0	1.0							1.0	120.0	0.27248502031670796	1.0		2.0	6.0	6.0	5.0		part_1
217		3.0				1.0	1.0							1.0	0.0	0.35277092263368104	1.0		0.0	2.0	8.0	8.0		part_1
218		3.0				1.0	1.0							2.0	424.0	0.363406337158267	2.0		4.0	2.0	8.0	8.0		part_1
219		3.0				1.0	0.0							2.0	80.0	0.4533913003961061	2.0		2.0	1.0	2.0	2.0		part_1
220		3.0				2.0	1.0							1.0	200.0	0.4318631926339549	1.0		3.0	7.0	7.0	1.0		part_1
221		3.0				1.0	1.0							1.0	109.0	0.4213390953959788	1.0		2.0	6.0	6.0	5.0		part_1
222		3.0				1.0	0.0							3.0	100.0	0.37699909339607984	3.0		2.0	1.0	2.0	2.0		part_1
223		3.0				1.0	1.0							2.0	49.0	0.4454922242380235	2.0		1.0	5.0	5.0	7.0		part_1
224		3.0				1.0	0.0							4.0	35.0	0.4125489710795591	4.0		1.0	4.0	1.0	3.0		part_1
225		3.0				1.0	0.0							3.0	0.0	0.3893835883168322	3.0		0.0	4.0	1.0	3.0		part_1
226		3.0				1.0	1.0							1.0	395.0	0.3353809911582175	1.0		4.0	2.0	8.0	8.0		part_1
227		3.0				1.0	1.0							2.0	380.0	0.44701314639632983	2.0		4.0	2.0	8.0	8.0		part_1
228		3.0				1.0	1.0							3.0	120.0	0.3341479142377466	3.0		2.0	6.0	6.0	5.0		part_1
229		3.0				1.0	1.0							4.0	178.0	0.31269345263399373	4.0		3.0	7.0	7.0	1.0		part_1
230		3.0				1.0	0.0							2.0	61.0	0.37164451915850805	2.0		1.0	4.0	1.0	3.0		part_1
231		3.0				1.0	0.0							4.0	195.0	0.36963247863377546	4.0		3.0	8.0	3.0	6.0		part_1
232		3.0				1.0	0.0							3.0	27.0	0.3588641823166654	3.0		1.0	4.0	1.0	3.0		part_1
233		3.0				1.0	1.0							3.0	214.0	0.3039050693164427	3.0		3.0	7.0	7.0	1.0		part_1
234		3.0				1.0	1.0							3.0	387.0	0.32835686647513285	3.0		4.0	2.0	8.0	8.0		part_1
235		3.0				1.0	1.0							1.0	221.0	0.4626534413960144	1.0		3.0	7.0	7.0	1.0		part_1
236		3.0				1.0	1.0							4.0	68.0	0.5639934605546841	4.0		1.0	5.0	5.0	7.0		part_1
237		3.0				1.0	0.0							3.0	63.0	0.4628604990793974	3.0		1.0	4.0	1.0	3.0		part_1
238		3.0				1.0	0.0							2.0	399.0	0.42063166607931635	2.0		4.0	3.0	4.0	4.0		part_1
239		3.0				1.0	0.0							1.0	96.0	0.42042014715843834	1.0		2.0	1.0	2.0	2.0		part_1
240		3.0				1.0	0.0							2.0	179.0	0.47622470739588607	2.0		3.0	8.0	3.0	6.0		part_1
241		3.0				1.0	0.0							3.0	49.0	0.3309755793957265	3.0		1.0	4.0	1.0	3.0		part_1
242		3.0				1.0	1.0							3.0	208.0	0.3428024831582661	3.0		3.0	7.0	7.0	1.0		part_1
243		3.0				1.0	0.0							4.0	387.0	0.3884174393961075	4.0		4.0	3.0	4.0	4.0		part_1
244		3.0				1.0	0.0							1.0	114.0	0.35694497615850196	1.0		2.0	1.0	2.0	2.0		part_1
245		3.0				1.0	1.0							4.0	0.0	0.4130969173165795	4.0		0.0	7.0	7.0	1.0		part_1
246		3.0				1.0	1.0							3.0	0.0	0.4689280916336429	3.0		0.0	6.0	6.0	5.0		part_1
247		3.0				1.0	1.0							1.0	100.0	0.3805578256337867	1.0		2.0	6.0	6.0	5.0		part_1
248		3.0				1.0	0.0							3.0	59.0	0.34537750039635284	3.0		1.0	4.0	1.0	3.0		part_1
249		3.0				1.0	0.0							2.0	425.0	0.4701170971584361	2.0		4.0	3.0	4.0	4.0		part_1
250		3.0				1.0	0.0							3.0	215.0	0.3801480484748936	3.0		3.0	8.0	3.0	6.0		part_1
251		3.0				1.0	1.0							2.0	418.0	0.472776504238027	2.0		4.0	2.0	8.0	8.0		part_1
252		3.0				1.0	0.0							4.0	0.0	0.437989378634029	4.0		0.0	3.0	4.0	4.0		part_1
253		3.0				1.0	0.0							1.0	0.0	0.34866094915832946	1.0		0.0	3.0	4.0	4.0		part_1
254		3.0				1.0	1.0							4.0	0.0	0.3957527690790812	4.0		0.0	7.0	7.0	1.0		part_1
255		3.0				1.0	1.0							4.0	40.0	0.3381656821584329	4.0		1.0	5.0	5.0	7.0		part_1
256		3.0				2.0	0.0							1.0	221.0	0.39602481239626286	1.0		3.0	8.0	3.0	6.0		part_1
257		3.0				1.0	1.0							2.0	70.0	0.4640618093167177	2.0		1.0	5.0	5.0	7.0		part_1
258		3.0				1.0	1.0							3.0	417.0	0.36528413063388143	3.0		4.0	2.0	8.0	8.0		part_1
259		3.0				1.0	1.0							3.0	96.0	0.3413656001584968	3.0		2.0	6.0	6.0	5.0		part_1
260		3.0				1.0	0.0							4.0	0.0	0.4536839781585513	4.0		0.0	4.0	1.0	3.0		part_1
261		3.0				1.0	0.0							1.0	40.0	0.3552627993963142	1.0		1.0	4.0	1.0	3.0		part_1
262		3.0				1.0	0.0							1.0	376.0	0.3772398653959499	1.0		4.0	3.0	4.0	4.0		part_1
263		3.0				1.0	0.0							4.0	379.0	0.43289996255452934	4.0		4.0	3.0	4.0	4.0		part_1
264		3.0				1.0	1.0							4.0	0.0	0.47884609747507056	4.0		0.0	6.0	6.0	5.0		part_1
265		3.0				1.0	0.0							2.0	214.0	0.37900742447482116	2.0		3.0	8.0	3.0	6.0		part_1
266		3.0				1.0	0.0							3.0	125.0	0.4246504863167502	3.0		2.0	1.0	2.0	2.0		part_1
267		3.0				1.0	1.0							2.0	216.0	0.4253497900790535	2.0		3.0	7.0	7.0	1.0		part_1
268		3.0				1.0	0.0							1.0	89.0	0.39092803339599413	1.0		2.0	1.0	2.0	2.0		part_1
269		3.0				1.0	0.0							3.0	109.0	0.42635882355443755	3.0		2.0	1.0	2.0	2.0		part_1
270		3.0				1.0	1.0							3.0	31.0	0.49413387439608414	3.0		1.0	5.0	5.0	7.0		part_1
271		3.0				1.0	0.0							2.0	391.0	0.3929539913165172	2.0		4.0	3.0	4.0	4.0		part_1
272		3.0				1.0	0.0							3.0	0.0	0.3714580782379926	3.0		0.0	4.0	1.0	3.0		part_1
273		3.0				1.0	0.0							4.0	413.0	0.5406176593164673	4.0		4.0	3.0	4.0	4.0		part_1
274		3.0				1.0	1.0							2.0	63.0	0.43910949439623437	2.0		1.0	5.0	5.0	7.0		part_1
275		3.0				1.0	0.0							4.0	96.0	0.37356266055439846	4.0		2.0	1.0	2.0	2.0		part_1
276		3.0				1.0	1.0							1.0	417.0	0.3746584204750434	1.0		4.0	2.0	8.0	8.0		part_1
277		3.0				1.0	1.0							2.0	400.0	0.4317628326339218	2.0		4.0	2.0	8.0	8.0		part_1
278		3.0				1.0	1.0							4.0	39.0	0.33006951947481866	4.0		1.0	5.0	5.0	7.0		part_1
279		3.0				1.0	0.0							2.0	398.0	0.37473250131688474	2.0		4.0	3.0	4.0	4.0		part_1
280		3.0				1.0	0.0							3.0	116.0	0.3987617915545343	3.0		2.0	1.0	2.0	2.0		part_1
281		3.0				1.0	1.0							3.0	179.0	0.4661925286341102	3.0		3.0	7.0	7.0	1.0		part_1
282		3.0				1.0	1.0							4.0	77.0	0.566919266316745	4.0		2.0	6.0	6.0	5.0		part_1
283		3.0				1.0	0.0							3.0	196.0	0.42128178507937264	3.0		3.0	8.0	3.0	6.0		part_1
284		3.0				1.0	1.0							3.0	412.0	0.4227385417129881	3.0		4.0	2.0	8.0	8.0		part_1
285		3.0				1.0	1.0							1.0	0.0	0.7287112014746526	1.0		0.0	2.0	8.0	8.0		part_1
286		3.0				1.0	1.0							3.0	398.0	0.3902199940794162	3.0		4.0	2.0	8.0	8.0		part_1
287		3.0				1.0	1.0							2.0	85.0	0.5155276863961262	2.0		2.0	6.0	6.0	5.0		part_1
288		3.0				1.0	1.0							1.0	27.0	0.4476768403960705	1.0		1.0	5.0	5.0	7.0		part_1
289		3.0				1.0	0.0							1.0	182.0	0.45945113847528773	1.0		3.0	8.0	3.0	6.0		part_1
290		3.0				1.0	0.0							4.0	424.0	0.35975446807924527	4.0		4.0	3.0	4.0	4.0		part_1
291		3.0				1.0	1.0							4.0	376.0	0.3479665096338067	4.0		4.0	2.0	8.0	8.0		part_1
292		3.0				1.0	1.0							3.0	0.0	0.4494951224255601	3.0		0.0	2.0	8.0	8.0		part_1
293		3.0				1.0	0.0							3.0	49.0	0.4044045113168977	3.0		1.0	4.0	1.0	3.0		part_1
294		3.0				1.0	1.0							3.0	55.0	0.3370373204252246	3.0		1.0	5.0	5.0	7.0		part_1
295		3.0				1.0	1.0							3.0	0.0	0.32781753339577335	3.0		0.0	5.0	5.0	7.0		part_1
296		3.0				1.0	1.0							2.0	96.0	0.33921956115864305	2.0		2.0	6.0	6.0	5.0		part_1
297		3.0				1.0	0.0							1.0	380.0	0.374001628158112	1.0		4.0	3.0	4.0	4.0		part_1
298		3.0				1.0	0.0							4.0	83.0	0.31794952455447856	4.0		2.0	1.0	2.0	2.0		part_1
299		3.0				1.0	1.0							4.0	68.0	0.45393036223777017	4.0		1.0	5.0	5.0	7.0		part_1
300		4.0				1.0	1.0							3.0	118.0	0.30705419855439686	3.0		2.0	6.0	6.0	5.0		part_1
301		4.0				1.0	1.0							1.0	379.0	0.4100038621581916	1.0		4.0	2.0	8.0	8.0		part_1
302		4.0				1.0	1.0							4.0	211.0	0.2969391754750177	4.0		3.0	7.0	7.0	1.0		part_1
303		4.0				1.0	0.0							1.0	62.0	0.321018436079612	1.0		1.0	4.0	1.0	3.0		part_1
304		4.0				1.0	1.0							1.0	94.0	0.2766478772377923	1.0		2.0	6.0	6.0	5.0		part_1
305		4.0				1.0	0.0							1.0	116.0	0.27641917700020713	1.0		2.0	1.0	2.0	2.0		part_1
306		4.0				1.0	1.0							1.0	71.0	0.23288490439608722	1.0		1.0	5.0	5.0	7.0		part_1
307		4.0				1.0	1.0							1.0	0.0	0.33434306255412594	1.0		0.0	6.0	6.0	5.0		part_1
308		4.0				1.0	0.0							1.0	0.0	0.30000090707926574	1.0		0.0	1.0	2.0	2.0		part_1
309		4.0				2.0	1.0							3.0	0.0	0.35677398847519726	3.0		0.0	6.0	6.0	5.0		part_1
310		4.0				1.0	1.0							4.0	0.0	0.4815977152375126	4.0		0.0	6.0	6.0	5.0		part_1
311		4.0				1.0	0.0							4.0	0.0	0.35904186207926614	4.0		0.0	8.0	3.0	6.0		part_1
312		4.0				1.0	0.0							2.0	206.0	0.3810622141586464	2.0		3.0	8.0	3.0	6.0		part_1
313		4.0				1.0	0.0							2.0	70.0	0.40528492323755927	2.0		1.0	4.0	1.0	3.0		part_1
314		4.0				1.0	0.0							2.0	0.0	0.3608972404749693	2.0		0.0	4.0	1.0	3.0		part_1
315		4.0				1.0	1.0							3.0	386.0	0.35130499523756953	3.0		4.0	2.0	8.0	8.0		part_1
316		4.0				1.0	0.0							1.0	412.0	0.2714626492379466	1.0		4.0	3.0	4.0	4.0		part_1
317		4.0				1.0	0.0							4.0	180.0	0.2945912061582021	4.0		3.0	8.0	3.0	6.0		part_1
318		4.0				1.0	1.0							4.0	37.0	0.32967461355428895	4.0		1.0	5.0	5.0	7.0		part_1
319		4.0				1.0	1.0							4.0	0.0	0.47604566415839145	4.0		0.0	2.0	8.0	8.0		part_1
320		4.0				1.0	1.0							2.0	195.0	0.32992800023748714	2.0		3.0	7.0	7.0	1.0		part_1
321		4.0				1.0	1.0							2.0	61.0	0.3876965297126844	2.0		1.0	5.0	5.0	7.0		part_1
322		4.0				1.0	0.0							2.0	0.0	0.31975140907934474	2.0		0.0	3.0	4.0	4.0		part_1
323		4.0				1.0	0.0							1.0	0.0	0.45519224407917136	1.0		0.0	3.0	4.0	4.0		part_1
324		4.0				1.0	1.0							3.0	116.0	0.28653463363389164	3.0		2.0	6.0	6.0	5.0		part_1
325		4.0				1.0	0.0							2.0	200.0	0.34545450884161255	2.0		3.0	8.0	3.0	6.0		part_1
326		4.0				1.0	0.0							1.0	39.0	0.5021375771580097	1.0		1.0	4.0	1.0	3.0		part_1
327		4.0				1.0	1.0							1.0	390.0	0.3568105733961602	1.0		4.0	2.0	8.0	8.0		part_1
328		4.0				1.0	1.0							2.0	29.0	0.3688073513162635	2.0		1.0	5.0	5.0	7.0		part_1
329		4.0				1.0	0.0							3.0	0.0	0.3007709932380749	3.0		0.0	4.0	1.0	3.0		part_1
330		4.0				1.0	0.0							3.0	68.0	0.5726750871581316	3.0		1.0	4.0	1.0	3.0		part_1
331		4.0				1.0	0.0							3.0	0.0	0.4028022517127283	3.0		0.0	4.0	1.0	3.0		part_1
332		4.0				1.0	0.0							1.0	417.0	0.38141678747524566	1.0		4.0	3.0	4.0	4.0		part_1
333		4.0				1.0	1.0							3.0	97.0	0.3255259123961878	3.0		2.0	6.0	6.0	5.0		part_1
334		4.0				1.0	1.0							4.0	63.0	0.38299138055435833	4.0		1.0	5.0	5.0	7.0		part_1
335		4.0				1.0	0.0							4.0	221.0	0.41771783947524455	4.0		3.0	8.0	3.0	6.0		part_1
336		4.0				1.0	1.0							4.0	394.0	0.29360317207965636	4.0		4.0	2.0	8.0	8.0		part_1
337		4.0				1.0	0.0							2.0	55.0	0.32959633215841677	2.0		1.0	4.0	1.0	3.0		part_1
338		4.0				1.0	1.0							3.0	416.0	0.35042775463398357	3.0		4.0	2.0	8.0	8.0		part_1
339		4.0				2.0	0.0							4.0	29.0	0.38512907723770695	4.0		1.0	4.0	1.0	3.0		part_1
340		4.0				1.0	0.0							2.0	0.0	0.37526179547512584	2.0		0.0	1.0	2.0	2.0		part_1
341		4.0				1.0	1.0							1.0	0.0	0.37609948663384785	1.0		0.0	6.0	6.0	5.0		part_1
342		4.0				1.0	1.0							2.0	394.0	0.3425790243168194	2.0		4.0	2.0	8.0	8.0		part_1
343		4.0				1.0	1.0							4.0	405.0	0.3217294763167047	4.0		4.0	2.0	8.0	8.0		part_1
344		4.0				1.0	0.0							1.0	96.0	0.2880366396334466	1.0		2.0	1.0	2.0	2.0		part_1
345		4.0				1.0	0.0							4.0	55.0	0.3550679834747825	4.0		1.0	4.0	1.0	3.0		part_1
346		4.0				1.0	1.0							2.0	0.0	0.3110065713167387	2.0		0.0	6.0	6.0	5.0		part_1
347		4.0				1.0	0.0							4.0	403.0	0.33575207363401205	4.0		4.0	3.0	4.0	4.0		part_1
348		4.0				1.0	1.0							2.0	206.0	0.3246875401582656	2.0		3.0	7.0	7.0	1.0		part_1
349		4.0				1.0	0.0							2.0	193.0	0.3909669511585889	2.0		3.0	8.0	3.0	6.0		part_1
350		4.0				1.0	1.0							2.0	0.0	0.3708943694750815	2.0		0.0	5.0	5.0	7.0		part_1
351		4.0				1.0	1.0							4.0	100.0	0.2690300694753205	4.0		2.0	6.0	6.0	5.0		part_1
352		4.0				1.0	0.0							1.0	411.0	0.3488903116340225	1.0		4.0	3.0	4.0	4.0		part_1
353		4.0				1.0	0.0							2.0	94.0	0.39350302355433087	2.0		2.0	1.0	2.0	2.0		part_1
354		4.0				1.0	0.0							4.0	180.0	0.3152365236337573	4.0		3.0	8.0	3.0	6.0		part_1
355		4.0				1.0	1.0							3.0	120.0	0.3275449193165514	3.0		2.0	6.0	6.0	5.0		part_1
356		4.0				1.0	0.0							1.0	0.0	0.2730381203164143	1.0		0.0	3.0	4.0	4.0		part_1
357		4.0				1.0	0.0							4.0	0.0	0.3069029929206408	4.0		0.0	8.0	3.0	6.0		part_1
358		4.0				1.0	0.0							1.0	221.0	0.34038609299977907	1.0		3.0	8.0	3.0	6.0		part_1
359		4.0				1.0	1.0							1.0	180.0	0.4192491001581402	1.0		3.0	7.0	7.0	1.0		part_1
360		4.0				1.0	1.0							2.0	38.0	0.409894868079391	2.0		1.0	5.0	5.0	7.0		part_1
361		4.0				1.0	0.0							2.0	0.0	0.30814441439588336	2.0		0.0	3.0	4.0	4.0		part_1
362		4.0				1.0	1.0							2.0	193.0	0.4325970734753355	2.0		3.0	7.0	7.0	1.0		part_1
363		4.0				1.0	1.0							2.0	419.0	0.2987851096340819	2.0		4.0	2.0	8.0	8.0		part_1
364		4.0				1.0	1.0							1.0	415.0	0.3774123696339302	1.0		4.0	2.0	8.0	8.0		part_1
365		4.0				1.0	0.0							1.0	36.0	0.47994052755439043	1.0		1.0	4.0	1.0	3.0		part_1
366		4.0				1.0	0.0							1.0	0.0	0.5148328532377491	1.0		0.0	1.0	2.0	2.0		part_1
367		4.0				1.0	0.0							1.0	75.0	0.39098458839634986	1.0		1.0	4.0	1.0	3.0		part_1
368		4.0				1.0	0.0							2.0	390.0	0.4483158685543458	2.0		4.0	3.0	4.0	4.0		part_1
369		4.0				1.0	1.0							3.0	26.0	0.4697567673165395	3.0		1.0	5.0	5.0	7.0		part_1
370		4.0				1.0	0.0							2.0	100.0	0.5713618741583559	2.0		2.0	1.0	2.0	2.0		part_1
371		4.0				1.0	0.0							2.0	52.0	0.4274386826336922	2.0		1.0	4.0	1.0	3.0		part_1
372		4.0				1.0	0.0							1.0	40.0	0.3600740541583036	1.0		1.0	4.0	1.0	3.0		part_1
373		4.0				1.0	0.0							1.0	0.0	0.4735396205546749	1.0		0.0	3.0	4.0	4.0		part_1
374		4.0				1.0	1.0							4.0	88.0	0.43872108131654386	4.0		2.0	6.0	6.0	5.0		part_1
375		4.0				1.0	1.0							1.0	187.0	0.4624268613961249	1.0		3.0	7.0	7.0	1.0		part_1
376		4.0				1.0	1.0							4.0	83.0	0.4180252313162782	4.0		2.0	6.0	6.0	5.0		part_1
377		4.0				1.0	0.0							2.0	119.0	0.4178558793164484	2.0		2.0	1.0	2.0	2.0		part_1
378		4.0				1.0	1.0							1.0	63.0	0.3630907602378102	1.0		1.0	5.0	5.0	7.0		part_1
379		4.0				1.0	0.0							1.0	125.0	0.37586310423739633	1.0		2.0	1.0	2.0	2.0		part_1
380		4.0				1.0	0.0							3.0	178.0	0.3963014212381495	3.0		3.0	8.0	3.0	6.0		part_1
381		4.0				1.0	1.0							1.0	0.0	0.37452315915834333	1.0		0.0	5.0	5.0	7.0		part_1
382		4.0				1.0	1.0							3.0	0.0	0.40983798223805934	3.0		0.0	6.0	6.0	5.0		part_1
383		4.0				1.0	1.0							4.0	380.0	0.44340703807938553	4.0		4.0	2.0	8.0	8.0		part_1
384		4.0				1.0	0.0							1.0	77.0	0.4103846067127961	1.0		2.0	1.0	2.0	2.0		part_1
385		4.0				1.0	0.0							2.0	405.0	0.4445653160000802	2.0		4.0	3.0	4.0	4.0		part_1
386		4.0				1.0	0.0							3.0	386.0	0.4343304722378889	3.0		4.0	3.0	4.0	4.0		part_1
387		4.0				1.0	0.0							1.0	0.0	0.46841676992062276	1.0		0.0	1.0	2.0	2.0		part_1
388		4.0				1.0	1.0							1.0	100.0	0.4237863893163194	1.0		2.0	6.0	6.0	5.0		part_1
389		4.0				1.0	0.0							1.0	178.0	0.35703224971302916	1.0		3.0	8.0	3.0	6.0		part_1
390		4.0				1.0	0.0							2.0	382.0	0.4022349944752932	2.0		4.0	3.0	4.0	4.0		part_1
391		4.0				1.0	1.0							3.0	0.0	0.3574903875542077	3.0		0.0	7.0	7.0	1.0		part_1
392		4.0				1.0	0.0							4.0	210.0	0.3701985122379483	4.0		3.0	8.0	3.0	6.0		part_1
393		4.0				1.0	0.0							2.0	378.0	0.4153112645544752	2.0		4.0	3.0	4.0	4.0		part_1
394		4.0				1.0	1.0							3.0	0.0	0.39248016947522046	3.0		0.0	2.0	8.0	8.0		part_1
395		4.0				1.0	0.0							1.0	400.0	0.4049588823168051	1.0		4.0	3.0	4.0	4.0		part_1
396		4.0				1.0	0.0							1.0	219.0	0.49558030323805724	1.0		3.0	8.0	3.0	6.0		part_1
397		4.0				1.0	0.0							4.0	30.0	0.3843591396339434	4.0		1.0	4.0	1.0	3.0		part_1
398		4.0				1.0	1.0							2.0	219.0	0.4968020543960847	2.0		3.0	7.0	7.0	1.0		part_1
399		4.0				1.0	0.0							1.0	51.0	0.4295244314748743	1.0		1.0	4.0	1.0	3.0		part_1
0	1.0	1.0			250.0	0.0	0.0							5.0	0.0	0.641712223671675	5.0	250.0	3.0	8.0	3.0	6.0	0.0	part_2
1	1.0	1.0			250.0	0.0	0.0							6.0	0.0	0.7439330873748986	6.0	250.0	2.0	1.0	2.0	2.0	0.0	part_2
2	1.0	1.0			250.0	0.0	0.0							6.0	0.0	0.7909377473438326	6.0	250.0	1.0	4.0	1.0	3.0	0.0	part_2
3	1.0	1.0			250.0	0.0	0.0							5.0	0.0	0.9481855683279719	5.0	250.0	2.0	1.0	2.0	2.0	0.0	part_2
4	4.0	1.0			250.0	0.0	1.0							5.0	0.0	0.0	0.0	250.0	4.0	2.0	8.0	8.0	1.0	part_2
5	1.0	1.0			300.0	0.0	1.0							5.0	0.0	0.792221284687912	5.0	250.0	3.0	7.0	7.0	1.0	0.0	part_2
6	4.0	1.0			300.0	0.0	1.0							5.0	0.0	0.0	0.0	250.0	4.0	2.0	8.0	8.0	1.0	part_2
7	1.0	1.0			350.0	0.0	1.0							5.0	0.0	0.5688477013441116	5.0	250.0	2.0	6.0	6.0	5.0	0.0	part_2
8	1.0	1.0			350.0	0.0	0.0							6.0	0.0	0.7607313850312494	6.0	250.0	3.0	8.0	3.0	6.0	0.0	part_2
9	1.0	1.0			350.0	0.0	0.0							5.0	0.0	0.6608233460156043	5.0	250.0	2.0	1.0	2.0	2.0	0.0	part_2
10	1.0	1.0			350.0	0.0	0.0							6.0	0.0	0.7417506606875577	6.0	250.0	3.0	8.0	3.0	6.0	0.0	part_2
11	4.0	1.0			350.0	0.0	1.0							5.0	0.0	0.0	0.0	250.0	4.0	2.0	8.0	8.0	1.0	part_2
12	1.0	1.0			400.0	0.0	0.0							5.0	0.0	0.6416188167031578	5.0	250.0	2.0	1.0	2.0	2.0	0.0	part_2
13	4.0	1.0			400.0	0.0	1.0							6.0	0.0	0.0	0.0	250.0	3.0	7.0	7.0	1.0	1.0	part_2
14	1.0	1.0			400.0	0.0	1.0							6.0	0.0	0.7432298520311633	6.0	300.0	1.0	5.0	5.0	7.0	0.0	part_2
15	4.0	1.0			400.0	0.0	1.0							6.0	0.0	0.0	0.0	300.0	1.0	5.0	5.0	7.0	1.0	part_2
16	1.0	1.0			400.0	0.0	0.0							5.0	0.0	0.9586572370158137	5.0	350.0	4.0	3.0	4.0	4.0	0.0	part_2
17	4.0	1.0			400.0	0.0	1.0							5.0	0.0	0.0	0.0	350.0	3.0	7.0	7.0	1.0	1.0	part_2
18	4.0	1.0			450.0	0.0	1.0							6.0	0.0	0.0	0.0	350.0	1.0	5.0	5.0	7.0	1.0	part_2
19	4.0	1.0			450.0	0.0	1.0							5.0	0.0	0.0	0.0	400.0	2.0	6.0	6.0	5.0	1.0	part_2
20	1.0	1.0			500.0	0.0	0.0							5.0	0.0	0.5911609120312278	5.0	400.0	1.0	4.0	1.0	3.0	0.0	part_2
21	1.0	1.0			500.0	0.0	0.0							6.0	0.0	0.7606175133437318	6.0	400.0	1.0	4.0	1.0	3.0	0.0	part_2
22	4.0	1.0			500.0	0.0	1.0							6.0	0.0	0.0	0.0	400.0	3.0	7.0	7.0	1.0	1.0	part_2
23	4.0	1.0			500.0	0.0	1.0							5.0	0.0	0.0	0.0	450.0	4.0	2.0	8.0	8.0	1.0	part_2
24	1.0	1.0			550.0	0.0	0.0							5.0	0.0	0.8095846753440128	5.0	450.0	3.0	8.0	3.0	6.0	0.0	part_2
25	1.0	1.0			550.0	0.0	0.0							6.0	0.0	0.7862456170937548	6.0	450.0	3.0	8.0	3.0	6.0	0.0	part_2
26	1.0	1.0			550.0	0.0	0.0							5.0	0.0	0.7197040200312586	5.0	450.0	1.0	4.0	1.0	3.0	0.0	part_2
27	1.0	1.0			550.0	0.0	1.0							6.0	0.0	0.7103318980311997	6.0	450.0	3.0	7.0	7.0	1.0	0.0	part_2
28	1.0	1.0			550.0	0.0	0.0							5.0	0.0	0.6088301756717556	5.0	450.0	3.0	8.0	3.0	6.0	0.0	part_2
29	3.0	1.0			550.0	0.0	1.0							5.0	0.0	0.6675626643441319	5.0	450.0	3.0	7.0	7.0	1.0	1.0	part_2
30	4.0	1.0			500.0	0.0	1.0							6.0	0.0	0.0	0.0	450.0	2.0	6.0	6.0	5.0	1.0	part_2
31	1.0	1.0			500.0	0.0	0.0							5.0	0.0	0.5341741796878523	5.0	500.0	2.0	1.0	2.0	2.0	0.0	part_2
32	3.0	1.0			500.0	0.0	1.0							5.0	0.0	0.8033654099999694	5.0	500.0	3.0	7.0	7.0	1.0	1.0	part_2
33	3.0	1.0			450.0	0.0	1.0							5.0	0.0	0.9845812523440145	5.0	500.0	2.0	6.0	6.0	5.0	1.0	part_2
34	1.0	1.0			400.0	0.0	1.0							5.0	0.0	0.6598423973282479	5.0	500.0	3.0	7.0	7.0	1.0	0.0	part_2
35	1.0	1.0			400.0	0.0	0.0							5.0	0.0	0.7493106640158658	5.0	500.0	1.0	4.0	1.0	3.0	0.0	part_2
36	1.0	2.0			400.0	0.0	0.0							6.0	0.0	0.42612794068782023	6.0	500.0	1.0	4.0	1.0	3.0	0.0	part_2
37	1.0	2.0			400.0	0.0	0.0							5.0	0.0	0.5732853853437518	5.0	500.0	4.0	3.0	4.0	4.0	0.0	part_2
38	3.0	2.0			400.0	0.0	1.0							5.0	0.0	0.37127516834380003	5.0	500.0	1.0	5.0	5.0	7.0	1.0	part_2
39	1.0	2.0			350.0	0.0	0.0							6.0	0.0	0.49671427634393694	6.0	500.0	1.0	4.0	1.0	3.0	0.0	part_2
40	3.0	2.0			350.0	0.0	1.0							6.0	0.0	0.37379884437496	6.0	500.0	2.0	6.0	6.0	5.0	1.0	part_2
41	1.0	2.0			350.0	0.0	0.0							6.0	0.0	0.5546203900312321	6.0	450.0	3.0	8.0	3.0	6.0	0.0	part_2
42	1.0	2.0			350.0	0.0	0.0							6.0	0.0	0.39827836267204475	6.0	450.0	4.0	3.0	4.0	4.0	0.0	part_2
43	1.0	2.0			350.0	0.0	0.0							5.0	0.0	0.6336908856719674	5.0	450.0	2.0	1.0	2.0	2.0	0.0	part_2
44	3.0	2.0			350.0	0.0	1.0							6.0	0.0	0.703675249031221	6.0	450.0	4.0	2.0	8.0	8.0	1.0	part_2
45	4.0	2.0			350.0	0.0	1.0							5.0	0.0	0.0	0.0	400.0	3.0	7.0	7.0	1.0	1.0	part_2
46	3.0	2.0			400.0	0.0	1.0							6.0	0.0	0.49073986534403957	6.0	400.0	3.0	7.0	7.0	1.0	1.0	part_2
47	1.0	2.0			400.0	0.0	0.0							5.0	0.0	0.5152251403596892	5.0	350.0	1.0	4.0	1.0	3.0	0.0	part_2
48	1.0	2.0			400.0	0.0	0.0							5.0	0.0	0.6271160030000829	5.0	350.0	2.0	1.0	2.0	2.0	0.0	part_2
49	1.0	2.0			400.0	0.0	1.0							5.0	0.0	0.4043577643437857	5.0	350.0	2.0	6.0	6.0	5.0	0.0	part_2
50	4.0	2.0			400.0	0.0	1.0							6.0	0.0	0.0	0.0	350.0	2.0	6.0	6.0	5.0	1.0	part_2
51	1.0	2.0			400.0	0.0	0.0							6.0	0.0	0.4713677220470345	6.0	400.0	1.0	4.0	1.0	3.0	0.0	part_2
52	1.0	2.0			400.0	0.0	0.0							6.0	0.0	0.5189694907030571	6.0	400.0	3.0	8.0	3.0	6.0	0.0	part_2
53	1.0	2.0			400.0	0.0	1.0							5.0	0.0	0.4753049563437344	5.0	400.0	4.0	2.0	8.0	8.0	0.0	part_2
54	1.0	2.0			400.0	0.0	0.0							6.0	0.0	0.6879275516721464	6.0	400.0	1.0	4.0	1.0	3.0	0.0	part_2
55	3.0	2.0			400.0	0.0	1.0							5.0	0.0	0.5556412680157337	5.0	400.0	1.0	5.0	5.0	7.0	1.0	part_2
56	1.0	2.0			350.0	0.0	0.0							6.0	0.0	0.5551381570312515	6.0	400.0	2.0	1.0	2.0	2.0	0.0	part_2
57	1.0	2.0			350.0	0.0	0.0							6.0	0.0	0.7710327443746792	6.0	400.0	2.0	1.0	2.0	2.0	0.0	part_2
58	1.0	2.0			350.0	0.0	0.0							5.0	0.0	0.4119760280159426	5.0	400.0	2.0	1.0	2.0	2.0	0.0	part_2
59	4.0	2.0			350.0	0.0	1.0							5.0	0.0	0.0	0.0	400.0	1.0	5.0	5.0	7.0	1.0	part_2
60	3.0	2.0			400.0	0.0	1.0							6.0	0.0	0.45798192299980656	6.0	400.0	4.0	2.0	8.0	8.0	1.0	part_2
61	1.0	2.0			400.0	0.0	1.0							6.0	0.0	0.5487442540311349	6.0	350.0	3.0	7.0	7.0	1.0	0.0	part_2
62	1.0	2.0			400.0	0.0	0.0							6.0	0.0	0.7279495423595108	6.0	350.0	4.0	3.0	4.0	4.0	0.0	part_2
63	1.0	2.0			400.0	0.0	1.0							6.0	0.0	0.3914650753595197	6.0	350.0	1.0	5.0	5.0	7.0	0.0	part_2
64	4.0	2.0			400.0	0.0	1.0							5.0	0.0	0.0	0.0	350.0	4.0	2.0	8.0	8.0	1.0	part_2
65	1.0	2.0			450.0	0.0	0.0							5.0	0.0	0.45018969901593664	5.0	350.0	2.0	1.0	2.0	2.0	0.0	part_2
66	1.0	2.0			450.0	0.0	1.0							6.0	0.0	0.5296089023750028	6.0	350.0	4.0	2.0	8.0	8.0	0.0	part_2
67	4.0	2.0			450.0	0.0	1.0							6.0	0.0	0.0	0.0	350.0	1.0	5.0	5.0	7.0	1.0	part_2
68	1.0	2.0			450.0	0.0	1.0							5.0	0.0	0.49764660800019556	5.0	400.0	2.0	6.0	6.0	5.0	0.0	part_2
69	1.0	2.0			450.0	0.0	0.0							6.0	0.0	0.5884844720003457	6.0	400.0	4.0	3.0	4.0	4.0	0.0	part_2
70	1.0	2.0			450.0	0.0	1.0							6.0	0.0	0.5903622690002521	6.0	400.0	4.0	2.0	8.0	8.0	0.0	part_2
71	1.0	2.0			450.0	0.0	0.0							5.0	0.0	0.3536055293438949	5.0	400.0	1.0	4.0	1.0	3.0	0.0	part_2
72	1.0	3.0			450.0	0.0	0.0							6.0	0.0	0.348955847374782	6.0	400.0	3.0	8.0	3.0	6.0	0.0	part_2
73	1.0	3.0			450.0	0.0	0.0							6.0	0.0	0.3849459383436624	6.0	400.0	1.0	4.0	1.0	3.0	0.0	part_2
74	1.0	3.0			450.0	0.0	1.0							6.0	0.0	0.39760448770311996	6.0	400.0	4.0	2.0	8.0	8.0	0.0	part_2
75	3.0	3.0			450.0	0.0	1.0							6.0	0.0	0.5651546496719675	6.0	400.0	2.0	6.0	6.0	5.0	1.0	part_2
76	4.0	3.0			450.0	0.0	1.0							5.0	0.0	0.0	0.0	350.0	4.0	2.0	8.0	8.0	1.0	part_2
77	1.0	3.0			500.0	0.0	0.0							6.0	0.0	0.3081927973439633	6.0	350.0	1.0	4.0	1.0	3.0	0.0	part_2
78	4.0	3.0			500.0	0.0	1.0							6.0	0.0	0.0	0.0	350.0	2.0	6.0	6.0	5.0	1.0	part_2
79	4.0	3.0			500.0	0.0	1.0							6.0	0.0	0.0	0.0	400.0	3.0	7.0	7.0	1.0	1.0	part_2
80	1.0	3.0			500.0	0.0	0.0							5.0	0.0	0.6948033830158238	5.0	450.0	4.0	3.0	4.0	4.0	0.0	part_2
81	1.0	3.0			500.0	0.0	0.0							5.0	0.0	0.38086024800031737	5.0	450.0	4.0	3.0	4.0	4.0	0.0	part_2
82	1.0	3.0			500.0	0.0	0.0							5.0	0.0	0.7737413953441319	5.0	450.0	4.0	3.0	4.0	4.0	0.0	part_2
83	1.0	3.0			500.0	0.0	0.0							6.0	0.0	0.6731491723598992	6.0	450.0	1.0	4.0	1.0	3.0	0.0	part_2
84	3.0	3.0			500.0	0.0	1.0							6.0	0.0	0.4167622590002793	6.0	450.0	4.0	2.0	8.0	8.0	1.0	part_2
85	1.0	3.0			500.0	0.0	1.0							6.0	0.0	0.33786403903104656	6.0	400.0	1.0	5.0	5.0	7.0	0.0	part_2
86	3.0	3.0			500.0	0.0	1.0							6.0	0.0	0.37249295932815585	6.0	400.0	4.0	2.0	8.0	8.0	1.0	part_2
87	4.0	3.0			500.0	0.0	1.0							6.0	0.0	0.0	0.0	350.0	3.0	7.0	7.0	1.0	1.0	part_2
88	1.0	3.0			500.0	0.0	0.0							5.0	0.0	0.5653939099843228	5.0	400.0	3.0	8.0	3.0	6.0	0.0	part_2
89	1.0	3.0			500.0	0.0	0.0							5.0	0.0	0.5888445057034914	5.0	400.0	3.0	8.0	3.0	6.0	0.0	part_2
90	3.0	3.0			500.0	0.0	1.0							6.0	0.0	0.5338726453751406	6.0	400.0	2.0	6.0	6.0	5.0	1.0	part_2
91	1.0	3.0			500.0	0.0	0.0							6.0	0.0	0.7476106600161074	6.0	350.0	4.0	3.0	4.0	4.0	0.0	part_2
92	4.0	3.0			500.0	0.0	1.0							6.0	0.0	0.0	0.0	350.0	3.0	7.0	7.0	1.0	1.0	part_2
93	4.0	3.0			500.0	0.0	1.0							6.0	0.0	0.0	0.0	400.0	1.0	5.0	5.0	7.0	1.0	part_2
94	1.0	3.0			500.0	0.0	0.0							6.0	0.0	0.7274346813596821	6.0	450.0	2.0	1.0	2.0	2.0	0.0	part_2
95	1.0	3.0			500.0	0.0	0.0							5.0	0.0	0.6383427350160673	5.0	450.0	3.0	8.0	3.0	6.0	0.0	part_2
96	1.0	3.0			500.0	0.0	1.0							5.0	0.0	0.5498041576720425	5.0	450.0	1.0	5.0	5.0	7.0	0.0	part_2
97	1.0	3.0			500.0	0.0	0.0							5.0	0.0	0.42652503442195666	5.0	450.0	1.0	4.0	1.0	3.0	0.0	part_2
98	1.0	3.0			500.0	0.0	0.0							6.0	0.0	0.471590682031092	6.0	450.0	1.0	4.0	1.0	3.0	0.0	part_2
99	1.0	3.0			500.0	0.0	1.0							6.0	0.0	0.32687432465627353	6.0	450.0	2.0	6.0	6.0	5.0	0.0	part_2
100	1.0	3.0			500.0	0.0	0.0							5.0	0.0	0.49648852101563534	5.0	450.0	1.0	4.0	1.0	3.0	0.0	part_2
101	3.0	3.0			500.0	0.0	1.0							5.0	0.0	0.5550178833436803	5.0	450.0	1.0	5.0	5.0	7.0	1.0	part_2
102	1.0	3.0			450.0	0.0	1.0							5.0	0.0	0.6328419793599096	5.0	450.0	3.0	7.0	7.0	1.0	0.0	part_2
103	1.0	3.0			450.0	0.0	0.0							5.0	0.0	0.5101354226721924	5.0	450.0	4.0	3.0	4.0	4.0	0.0	part_2
104	3.0	3.0			450.0	0.0	1.0							5.0	0.0	0.41124651034397175	5.0	450.0	2.0	6.0	6.0	5.0	1.0	part_2
105	1.0	3.0			400.0	0.0	0.0							6.0	0.0	0.9063189570156283	6.0	450.0	1.0	4.0	1.0	3.0	0.0	part_2
106	1.0	3.0			400.0	0.0	0.0							6.0	0.0	0.46749338534391427	6.0	450.0	3.0	8.0	3.0	6.0	0.0	part_2
107	1.0	3.0			400.0	0.0	0.0							5.0	0.0	0.7397667026875752	5.0	450.0	2.0	1.0	2.0	2.0	0.0	part_2
108	1.0	4.0			400.0	0.0	0.0							5.0	0.0	0.44201371335975637	5.0	450.0	1.0	4.0	1.0	3.0	0.0	part_2
109	3.0	4.0			400.0	0.0	1.0							5.0	0.0	0.31789706103108983	5.0	450.0	3.0	7.0	7.0	1.0	1.0	part_2
110	3.0	4.0			350.0	0.0	1.0							5.0	0.0	0.3970231439998315	5.0	450.0	2.0	6.0	6.0	5.0	1.0	part_2
111	1.0	4.0			300.0	0.0	0.0							6.0	0.0	0.6568640386717561	6.0	450.0	3.0	8.0	3.0	6.0	0.0	part_2
112	3.0	4.0			300.0	0.0	1.0							6.0	0.0	0.399777533015822	6.0	450.0	4.0	2.0	8.0	8.0	1.0	part_2
113	1.0	4.0			300.0	0.0	0.0							5.0	0.0	0.6375258586876953	5.0	400.0	4.0	3.0	4.0	4.0	0.0	part_2
114	3.0	4.0			300.0	0.0	1.0							6.0	0.0	0.4457334996723148	6.0	400.0	1.0	5.0	5.0	7.0	1.0	part_2
115	1.0	4.0			300.0	0.0	0.0							5.0	0.0	0.6727332460313846	5.0	350.0	2.0	1.0	2.0	2.0	0.0	part_2
116	1.0	4.0			300.0	0.0	0.0							5.0	0.0	0.49285647070291816	5.0	350.0	2.0	1.0	2.0	2.0	0.0	part_2
117	1.0	4.0			300.0	0.0	0.0							5.0	0.0	0.5490760596721884	5.0	350.0	3.0	8.0	3.0	6.0	0.0	part_2
118	4.0	4.0			300.0	0.0	1.0							5.0	0.0	0.0	0.0	350.0	4.0	2.0	8.0	8.0	1.0	part_2
119	1.0	4.0			350.0	0.0	0.0							6.0	0.0	0.6178854217032494	6.0	350.0	4.0	3.0	4.0	4.0	0.0	part_2
120	3.0	4.0			350.0	0.0	1.0							6.0	0.0	0.48383361037485884	6.0	350.0	3.0	7.0	7.0	1.0	1.0	part_2
121	1.0	4.0			350.0	0.0	0.0							6.0	0.0	0.7434046273751846	6.0	300.0	4.0	3.0	4.0	4.0	0.0	part_2
122	1.0	4.0			350.0	0.0	0.0							5.0	0.0	0.6664536907028378	5.0	300.0	3.0	8.0	3.0	6.0	0.0	part_2
123	4.0	4.0			350.0	0.0	1.0							5.0	0.0	0.0	0.0	300.0	4.0	2.0	8.0	8.0	1.0	part_2
124	1.0	4.0			400.0	0.0	0.0							6.0	0.0	0.622077423015071	6.0	300.0	2.0	1.0	2.0	2.0	0.0	part_2
125	1.0	4.0			400.0	0.0	0.0							5.0	0.0	0.6682955583592047	5.0	300.0	2.0	1.0	2.0	2.0	0.0	part_2
126	1.0	4.0			400.0	0.0	0.0							6.0	0.0	0.545125685687708	6.0	300.0	4.0	3.0	4.0	4.0	0.0	part_2
127	1.0	4.0			400.0	0.0	0.0							6.0	0.0	0.5570147560156329	6.0	300.0	3.0	8.0	3.0	6.0	0.0	part_2
128	1.0	4.0			400.0	0.0	0.0							5.0	0.0	0.41362440003103984	5.0	300.0	4.0	3.0	4.0	4.0	0.0	part_2
129	3.0	4.0			400.0	0.0	1.0							6.0	0.0	0.3689163213757638	6.0	300.0	2.0	6.0	6.0	5.0	1.0	part_2
130	1.0	4.0			400.0	0.0	0.0							5.0	0.0	0.5722695959993871	5.0	250.0	2.0	1.0	2.0	2.0	0.0	part_2
131	4.0	4.0			400.0	0.0	1.0							5.0	0.0	0.0	0.0	250.0	1.0	5.0	5.0	7.0	1.0	part_2
132	4.0	4.0			450.0	0.0	1.0							6.0	0.0	0.0	0.0	250.0	2.0	6.0	6.0	5.0	1.0	part_2
133	1.0	4.0			450.0	0.0	0.0							5.0	0.0	0.5288853366873809	5.0	300.0	4.0	3.0	4.0	4.0	0.0	part_2
134	1.0	4.0			450.0	0.0	0.0							6.0	0.0	0.7103724080316169	6.0	300.0	3.0	8.0	3.0	6.0	0.0	part_2
135	4.0	4.0			450.0	0.0	1.0							6.0	0.0	0.0	0.0	300.0	4.0	2.0	8.0	8.0	1.0	part_2
136	1.0	4.0			450.0	0.0	0.0							6.0	0.0	0.5767442143587687	6.0	350.0	2.0	1.0	2.0	2.0	0.0	part_2
137	1.0	4.0			450.0	0.0	0.0							6.0	0.0	0.6905796380151514	6.0	350.0	3.0	8.0	3.0	6.0	0.0	part_2
138	1.0	4.0			450.0	0.0	0.0							6.0	0.0	0.45483096201587614	6.0	350.0	3.0	8.0	3.0	6.0	0.0	part_2
139	3.0	4.0			450.0	0.0	1.0							5.0	0.0	0.44405404535882553	5.0	350.0	3.0	7.0	7.0	1.0	1.0	part_2
140	1.0	4.0			400.0	0.0	0.0							6.0	0.0	0.4911786000466236	6.0	350.0	1.0	4.0	1.0	3.0	0.0	part_2
141	4.0	4.0			400.0	0.0	1.0							5.0	0.0	0.0	0.0	350.0	4.0	2.0	8.0	8.0	1.0	part_2
142	4.0	4.0			450.0	0.0	1.0							6.0	0.0	0.0	0.0	350.0	1.0	5.0	5.0	7.0	1.0	part_2
143	1.0	4.0			450.0	0.0	0.0							5.0	0.0	0.41434037201543106	5.0	400.0	4.0	3.0	4.0	4.0	0.0	part_2
144	3.0	5.0			450.0	0.0	1.0							6.0	0.0	0.3458638263755347	6.0	400.0	1.0	5.0	5.0	7.0	1.0	part_2
145	1.0	5.0			450.0	0.0	0.0							5.0	0.0	0.436712063046798	5.0	350.0	1.0	4.0	1.0	3.0	0.0	part_2
146	1.0	5.0			450.0	0.0	0.0							5.0	0.0	0.5259175453438729	5.0	350.0	4.0	3.0	4.0	4.0	0.0	part_2
147	1.0	5.0			450.0	0.0	1.0							6.0	0.0	0.7177079736720771	6.0	350.0	1.0	5.0	5.0	7.0	0.0	part_2
148	3.0	5.0			450.0	0.0	1.0							5.0	0.0	0.5159130883284888	5.0	350.0	1.0	5.0	5.0	7.0	1.0	part_2
149	1.0	5.0			400.0	0.0	0.0							5.0	0.0	0.49469518870319007	5.0	350.0	4.0	3.0	4.0	4.0	0.0	part_2
150	1.0	5.0			400.0	0.0	0.0							6.0	0.0	0.49509454437520617	6.0	350.0	2.0	1.0	2.0	2.0	0.0	part_2
151	1.0	5.0			400.0	0.0	0.0							5.0	0.0	0.47351229537525796	5.0	350.0	3.0	8.0	3.0	6.0	0.0	part_2
152	1.0	5.0			400.0	0.0	0.0							6.0	0.0	0.3634728589850056	6.0	350.0	4.0	3.0	4.0	4.0	0.0	part_2
153	4.0	5.0			400.0	0.0	1.0							6.0	0.0	0.0	0.0	350.0	1.0	5.0	5.0	7.0	1.0	part_2
154	1.0	5.0			400.0	0.0	0.0							6.0	0.0	0.4990472450317611	6.0	400.0	2.0	1.0	2.0	2.0	0.0	part_2
155	1.0	5.0			400.0	0.0	1.0							5.0	0.0	0.6812163460317606	5.0	400.0	2.0	6.0	6.0	5.0	0.0	part_2
156	4.0	5.0			400.0	0.0	1.0							6.0	0.0	0.0	0.0	400.0	2.0	6.0	6.0	5.0	1.0	part_2
157	3.0	5.0			400.0	0.0	1.0							5.0	0.0	0.32173202337617113	5.0	450.0	3.0	7.0	7.0	1.0	1.0	part_2
158	4.0	5.0			350.0	0.0	1.0							5.0	0.0	0.0	0.0	450.0	4.0	2.0	8.0	8.0	1.0	part_2
159	1.0	5.0			400.0	0.0	0.0							5.0	0.0	0.4819925266710925	5.0	450.0	4.0	3.0	4.0	4.0	0.0	part_2
160	3.0	5.0			400.0	0.0	1.0							5.0	0.0	0.38025780203133763	5.0	450.0	3.0	7.0	7.0	1.0	1.0	part_2
161	1.0	5.0			350.0	0.0	0.0							5.0	0.0	0.40419806368845457	5.0	450.0	3.0	8.0	3.0	6.0	0.0	part_2
162	1.0	5.0			350.0	0.0	0.0							5.0	0.0	0.4718434880151108	5.0	450.0	1.0	4.0	1.0	3.0	0.0	part_2
163	1.0	5.0			350.0	0.0	0.0							6.0	0.0	0.4840853297027934	6.0	450.0	2.0	1.0	2.0	2.0	0.0	part_2
164	1.0	5.0			350.0	0.0	0.0							5.0	0.0	0.5763577113439169	5.0	450.0	1.0	4.0	1.0	3.0	0.0	part_2
165	3.0	5.0			350.0	0.0	1.0							5.0	0.0	0.45310706201507855	5.0	450.0	1.0	5.0	5.0	7.0	1.0	part_2
166	1.0	5.0			300.0	0.0	1.0							5.0	0.0	0.7220143186714267	5.0	450.0	4.0	2.0	8.0	8.0	0.0	part_2
167	3.0	5.0			300.0	0.0	1.0							6.0	0.0	0.5335876360149996	6.0	450.0	1.0	5.0	5.0	7.0	1.0	part_2
168	1.0	5.0			300.0	0.0	0.0							6.0	0.0	0.4875627967030596	6.0	400.0	2.0	1.0	2.0	2.0	0.0	part_2
169	4.0	5.0			300.0	0.0	1.0							5.0	0.0	0.0	0.0	400.0	1.0	5.0	5.0	7.0	1.0	part_2
170	1.0	5.0			350.0	0.0	0.0							6.0	0.0	0.4787207533754554	6.0	400.0	3.0	8.0	3.0	6.0	0.0	part_2
171	4.0	5.0			350.0	0.0	1.0							5.0	0.0	0.0	0.0	400.0	2.0	6.0	6.0	5.0	1.0	part_2
172	1.0	5.0			400.0	0.0	0.0							5.0	0.0	0.6605476826871381	5.0	400.0	1.0	4.0	1.0	3.0	0.0	part_2
173	1.0	5.0			400.0	0.0	0.0							6.0	0.0	0.5141508173292095	6.0	400.0	2.0	1.0	2.0	2.0	0.0	part_2
174	1.0	5.0			400.0	0.0	0.0							5.0	0.0	0.5041692403756315	5.0	400.0	1.0	4.0	1.0	3.0	0.0	part_2
175	3.0	5.0			400.0	0.0	1.0							6.0	0.0	0.41041605145255744	6.0	400.0	3.0	7.0	7.0	1.0	1.0	part_2
176	1.0	5.0			400.0	0.0	0.0							5.0	0.0	0.46081516035974346	5.0	350.0	2.0	1.0	2.0	2.0	0.0	part_2
177	3.0	5.0			400.0	0.0	1.0							5.0	0.0	0.38230476667195035	5.0	350.0	2.0	6.0	6.0	5.0	1.0	part_2
178	4.0	5.0			350.0	0.0	1.0							5.0	0.0	0.0	0.0	350.0	3.0	7.0	7.0	1.0	1.0	part_2
179	1.0	5.0			400.0	0.0	0.0							5.0	0.0	0.5200323983435737	5.0	350.0	3.0	8.0	3.0	6.0	0.0	part_2
180	1.0	6.0			400.0	0.0	0.0							6.0	0.0	0.5415234470319774	6.0	350.0	4.0	3.0	4.0	4.0	0.0	part_2
181	4.0	6.0			400.0	0.0	1.0							5.0	0.0	0.0	0.0	350.0	3.0	7.0	7.0	1.0	1.0	part_2
182	4.0	6.0			450.0	0.0	1.0							6.0	0.0	0.0	0.0	350.0	4.0	2.0	8.0	8.0	1.0	part_2
183	1.0	6.0			450.0	0.0	1.0							6.0	0.0	0.6569926056718032	6.0	400.0	4.0	2.0	8.0	8.0	0.0	part_2
184	4.0	6.0			450.0	0.0	1.0							6.0	0.0	0.0	0.0	400.0	4.0	2.0	8.0	8.0	1.0	part_2
185	1.0	6.0			450.0	0.0	0.0							6.0	0.0	0.5688898746711857	6.0	450.0	4.0	3.0	4.0	4.0	0.0	part_2
186	3.0	6.0			450.0	0.0	1.0							6.0	0.0	0.6024392863591856	6.0	450.0	3.0	7.0	7.0	1.0	1.0	part_2
187	1.0	6.0			450.0	0.0	0.0							6.0	0.0	0.5027616490151559	6.0	400.0	1.0	4.0	1.0	3.0	0.0	part_2
188	1.0	6.0			450.0	0.0	1.0							5.0	0.0	0.964550869031882	5.0	400.0	3.0	7.0	7.0	1.0	0.0	part_2
189	4.0	6.0			450.0	0.0	1.0							6.0	0.0	0.0	0.0	400.0	2.0	6.0	6.0	5.0	1.0	part_2
190	4.0	6.0			450.0	0.0	1.0							5.0	0.0	0.0	0.0	450.0	2.0	6.0	6.0	5.0	1.0	part_2
191	1.0	6.0			500.0	0.0	0.0							6.0	0.0	0.5409300010314837	6.0	450.0	3.0	8.0	3.0	6.0	0.0	part_2
192	4.0	6.0			500.0	0.0	1.0							6.0	0.0	0.0	0.0	450.0	4.0	2.0	8.0	8.0	1.0	part_2
193	4.0	6.0			500.0	0.0	1.0							6.0	0.0	0.0	0.0	500.0	3.0	7.0	7.0	1.0	1.0	part_2
194	1.0	6.0			500.0	0.0	0.0							6.0	0.0	0.41904322067148314	6.0	550.0	4.0	3.0	4.0	4.0	0.0	part_2
195	4.0	6.0			500.0	0.0	1.0							5.0	0.0	0.0	0.0	550.0	2.0	6.0	6.0	5.0	1.0	part_2
196	1.0	6.0			550.0	0.0	0.0							6.0	0.0	0.5112806133438426	6.0	550.0	1.0	4.0	1.0	3.0	0.0	part_2
197	1.0	6.0			550.0	0.0	0.0							6.0	0.0	0.5230865937037379	6.0	550.0	4.0	3.0	4.0	4.0	0.0	part_2
198	4.0	6.0			550.0	0.0	1.0							5.0	0.0	0.0	0.0	550.0	2.0	6.0	6.0	5.0	1.0	part_2
199	1.0	6.0			600.0	0.0	1.0							6.0	0.0	1.0201223156873311	6.0	550.0	3.0	7.0	7.0	1.0	0.0	part_2
200	3.0	6.0			600.0	0.0	1.0							5.0	0.0	0.46908187735880347	5.0	550.0	3.0	7.0	7.0	1.0	1.0	part_2
201	1.0	6.0			550.0	0.0	0.0							6.0	0.0	0.4461860053443161	6.0	550.0	3.0	8.0	3.0	6.0	0.0	part_2
202	4.0	6.0			550.0	0.0	1.0							5.0	0.0	0.0	0.0	550.0	1.0	5.0	5.0	7.0	1.0	part_2
203	4.0	6.0			600.0	0.0	1.0							5.0	0.0	0.0	0.0	550.0	2.0	6.0	6.0	5.0	1.0	part_2
204	3.0	6.0			650.0	0.0	1.0							6.0	0.0	0.7320221403442702	6.0	550.0	2.0	6.0	6.0	5.0	1.0	part_2
205	1.0	6.0			650.0	0.0	0.0							6.0	0.0	0.3605213820155768	6.0	500.0	1.0	4.0	1.0	3.0	0.0	part_2
206	1.0	6.0			650.0	0.0	0.0							6.0	0.0	0.5968401713598723	6.0	500.0	2.0	1.0	2.0	2.0	0.0	part_2
207	1.0	6.0			650.0	0.0	1.0							5.0	0.0	0.8351346290000947	5.0	500.0	2.0	6.0	6.0	5.0	0.0	part_2
208	1.0	6.0			650.0	0.0	0.0							6.0	0.0	0.47455518332844804	6.0	500.0	4.0	3.0	4.0	4.0	0.0	part_2
209	3.0	6.0			650.0	0.0	1.0							5.0	0.0	0.690087948359178	5.0	500.0	4.0	2.0	8.0	8.0	1.0	part_2
210	1.0	6.0			600.0	0.0	0.0							5.0	0.0	0.5226407950312932	5.0	500.0	1.0	4.0	1.0	3.0	0.0	part_2
211	3.0	6.0			600.0	0.0	1.0							5.0	0.0	0.48895457734397496	5.0	500.0	3.0	7.0	7.0	1.0	1.0	part_2
212	1.0	6.0			550.0	0.0	0.0							5.0	0.0	0.422269430671804	5.0	500.0	4.0	3.0	4.0	4.0	0.0	part_2
213	4.0	6.0			550.0	0.0	1.0							5.0	0.0	0.0	0.0	500.0	4.0	2.0	8.0	8.0	1.0	part_2
214	1.0	6.0			600.0	0.0	0.0							6.0	0.0	0.4689821570473214	6.0	500.0	4.0	3.0	4.0	4.0	0.0	part_2
215	1.0	6.0			600.0	0.0	0.0							5.0	0.0	0.4583270936873305	5.0	500.0	1.0	4.0	1.0	3.0	0.0	part_2
216	3.0	7.0			600.0	0.0	1.0							6.0	0.0	0.6602219870319459	6.0	500.0	1.0	5.0	5.0	7.0	1.0	part_2
217	4.0	7.0			600.0	0.0	1.0							5.0	0.0	0.0	0.0	450.0	1.0	5.0	5.0	7.0	1.0	part_2
218	1.0	7.0			650.0	0.0	0.0							5.0	0.0	0.5278677030291874	5.0	450.0	1.0	4.0	1.0	3.0	0.0	part_2
219	1.0	7.0			650.0	0.0	0.0							6.0	0.0	0.4932162110317222	6.0	450.0	4.0	3.0	4.0	4.0	0.0	part_2
220	1.0	7.0			650.0	0.0	0.0							5.0	0.0	0.5516003607026505	5.0	450.0	4.0	3.0	4.0	4.0	0.0	part_2
221	4.0	7.0			650.0	0.0	1.0							5.0	0.0	0.0	0.0	450.0	4.0	2.0	8.0	8.0	1.0	part_2
222	1.0	7.0			700.0	0.0	0.0							5.0	0.0	0.5876062689840182	5.0	450.0	1.0	4.0	1.0	3.0	0.0	part_2
223	1.0	7.0			700.0	0.0	0.0							5.0	0.0	0.4965913266878488	5.0	450.0	3.0	8.0	3.0	6.0	0.0	part_2
224	1.0	7.0			700.0	0.0	1.0							6.0	0.0	0.48733040004663053	6.0	450.0	3.0	7.0	7.0	1.0	0.0	part_2
225	1.0	7.0			700.0	0.0	0.0							5.0	0.0	0.4648338653587416	5.0	450.0	2.0	1.0	2.0	2.0	0.0	part_2
226	1.0	7.0			700.0	0.0	1.0							5.0	0.0	0.9506795196875828	5.0	450.0	1.0	5.0	5.0	7.0	0.0	part_2
227	4.0	7.0			700.0	0.0	1.0							6.0	0.0	0.0	0.0	450.0	2.0	6.0	6.0	5.0	1.0	part_2
228	4.0	7.0			700.0	0.0	1.0							6.0	0.0	0.0	0.0	500.0	4.0	2.0	8.0	8.0	1.0	part_2
229	1.0	7.0			700.0	0.0	0.0							6.0	0.0	0.6263295643757374	6.0	550.0	1.0	4.0	1.0	3.0	0.0	part_2
230	1.0	7.0			700.0	0.0	1.0							6.0	0.0	0.8286912087023666	6.0	550.0	1.0	5.0	5.0	7.0	0.0	part_2
231	1.0	7.0			700.0	0.0	0.0							5.0	0.0	0.4586335510002755	5.0	550.0	3.0	8.0	3.0	6.0	0.0	part_2
232	1.0	7.0			700.0	0.0	0.0							5.0	0.0	0.4145542520318486	5.0	550.0	3.0	8.0	3.0	6.0	0.0	part_2
233	1.0	7.0			700.0	0.0	0.0							5.0	0.0	0.48287757570233225	5.0	550.0	4.0	3.0	4.0	4.0	0.0	part_2
234	3.0	7.0			700.0	0.0	1.0							6.0	0.0	0.7098434946710768	6.0	550.0	2.0	6.0	6.0	5.0	1.0	part_2
235	1.0	7.0			700.0	0.0	0.0							6.0	0.0	0.5758113430320009	6.0	500.0	2.0	1.0	2.0	2.0	0.0	part_2
236	3.0	7.0			700.0	0.0	1.0							5.0	0.0	0.6769361480319276	5.0	500.0	3.0	7.0	7.0	1.0	1.0	part_2
237	1.0	7.0			650.0	0.0	1.0							6.0	0.0	0.91452131799997	6.0	500.0	4.0	2.0	8.0	8.0	0.0	part_2
238	1.0	7.0			650.0	0.0	0.0							6.0	0.0	0.4526407943594677	6.0	500.0	2.0	1.0	2.0	2.0	0.0	part_2
239	1.0	7.0			650.0	0.0	0.0							5.0	0.0	0.4882746323282845	5.0	500.0	4.0	3.0	4.0	4.0	0.0	part_2
240	4.0	7.0			650.0	0.0	1.0							6.0	0.0	0.0	0.0	500.0	4.0	2.0	8.0	8.0	1.0	part_2
241	4.0	7.0			650.0	0.0	1.0							5.0	0.0	0.0	0.0	550.0	4.0	2.0	8.0	8.0	1.0	part_2
242	1.0	7.0			700.0	0.0	0.0							6.0	0.0	0.5476753886559891	6.0	550.0	2.0	1.0	2.0	2.0	0.0	part_2
243	4.0	7.0			700.0	0.0	1.0							6.0	0.0	0.0	0.0	550.0	2.0	6.0	6.0	5.0	1.0	part_2
244	4.0	7.0			700.0	0.0	1.0							5.0	0.0	0.0	0.0	600.0	4.0	2.0	8.0	8.0	1.0	part_2
245	1.0	7.0			750.0	0.0	1.0							5.0	0.0	0.7979622540315177	5.0	600.0	3.0	7.0	7.0	1.0	0.0	part_2
246	1.0	7.0			750.0	0.0	0.0							6.0	0.0	0.573187718344343	6.0	600.0	3.0	8.0	3.0	6.0	0.0	part_2
247	1.0	7.0			750.0	0.0	0.0							6.0	0.0	0.5071245050003199	6.0	600.0	3.0	8.0	3.0	6.0	0.0	part_2
248	3.0	7.0			750.0	0.0	1.0							6.0	0.0	0.7204184683751009	6.0	600.0	3.0	7.0	7.0	1.0	1.0	part_2
249	4.0	7.0			750.0	0.0	1.0							6.0	0.0	0.0	0.0	550.0	2.0	6.0	6.0	5.0	1.0	part_2
250	1.0	7.0			750.0	0.0	0.0							6.0	0.0	0.7007457936715582	6.0	600.0	2.0	1.0	2.0	2.0	0.0	part_2
251	1.0	7.0			750.0	0.0	0.0							5.0	0.0	0.6216605216714015	5.0	600.0	3.0	8.0	3.0	6.0	0.0	part_2
252	1.0	8.0			750.0	0.0	0.0							5.0	0.0	0.6536842593595793	5.0	600.0	3.0	8.0	3.0	6.0	0.0	part_2
253	3.0	8.0			750.0	0.0	1.0							5.0	0.0	0.7776703326881034	5.0	600.0	1.0	5.0	5.0	7.0	1.0	part_2
254	1.0	8.0			700.0	0.0	0.0							6.0	0.0	0.5201730550152206	6.0	600.0	4.0	3.0	4.0	4.0	0.0	part_2
255	1.0	8.0			700.0	0.0	0.0							5.0	0.0	0.5777732803444451	5.0	600.0	4.0	3.0	4.0	4.0	0.0	part_2
256	1.0	8.0			700.0	0.0	1.0							6.0	0.0	0.869440537328046	6.0	600.0	4.0	2.0	8.0	8.0	0.0	part_2
257	1.0	8.0			700.0	0.0	0.0							5.0	0.0	0.4205001273285234	5.0	600.0	3.0	8.0	3.0	6.0	0.0	part_2
258	1.0	8.0			700.0	0.0	1.0							5.0	0.0	1.018142913671909	5.0	600.0	2.0	6.0	6.0	5.0	0.0	part_2
259	3.0	8.0			700.0	0.0	1.0							6.0	0.0	0.7598947770147788	6.0	600.0	3.0	7.0	7.0	1.0	1.0	part_2
260	4.0	8.0			700.0	0.0	1.0							5.0	0.0	0.0	0.0	550.0	1.0	5.0	5.0	7.0	1.0	part_2
261	4.0	8.0			750.0	0.0	1.0							5.0	0.0	0.0	0.0	550.0	1.0	5.0	5.0	7.0	1.0	part_2
262	1.0	8.0			800.0	0.0	0.0							6.0	0.0	0.5150280617817771	6.0	550.0	4.0	3.0	4.0	4.0	0.0	part_2
263	4.0	8.0			800.0	0.0	1.0							6.0	0.0	0.0	0.0	550.0	1.0	5.0	5.0	7.0	1.0	part_2
264	1.0	8.0			800.0	0.0	0.0							6.0	0.0	0.49368770934324857	6.0	600.0	4.0	3.0	4.0	4.0	0.0	part_2
265	1.0	8.0			800.0	0.0	0.0							6.0	0.0	0.4851953710149246	6.0	600.0	2.0	1.0	2.0	2.0	0.0	part_2
266	1.0	8.0			800.0	0.0	0.0							6.0	0.0	0.5081682053596523	6.0	600.0	3.0	8.0	3.0	6.0	0.0	part_2
267	1.0	8.0			800.0	0.0	1.0							5.0	0.0	0.9019160276875482	5.0	600.0	2.0	6.0	6.0	5.0	0.0	part_2
268	3.0	8.0			800.0	0.0	1.0							6.0	0.0	0.5982523843440504	6.0	600.0	2.0	6.0	6.0	5.0	1.0	part_2
269	4.0	8.0			800.0	0.0	1.0							5.0	0.0	0.0	0.0	550.0	1.0	5.0	5.0	7.0	1.0	part_2
270	4.0	8.0			850.0	0.0	1.0							6.0	0.0	0.0	0.0	550.0	1.0	5.0	5.0	7.0	1.0	part_2
271	1.0	8.0			850.0	0.0	0.0							5.0	0.0	0.4773228453432239	5.0	600.0	3.0	8.0	3.0	6.0	0.0	part_2
272	1.0	8.0			850.0	0.0	1.0							5.0	0.0	0.9277909663760511	5.0	600.0	1.0	5.0	5.0	7.0	0.0	part_2
273	1.0	8.0			850.0	0.0	1.0							6.0	0.0	0.8627881940310544	6.0	600.0	1.0	5.0	5.0	7.0	0.0	part_2
274	1.0	8.0			850.0	0.0	0.0							5.0	0.0	0.5032499073759027	5.0	600.0	2.0	1.0	2.0	2.0	0.0	part_2
275	1.0	8.0			850.0	0.0	0.0							5.0	0.0	0.36785403368776315	5.0	600.0	2.0	1.0	2.0	2.0	0.0	part_2
276	3.0	8.0			850.0	0.0	1.0							5.0	0.0	0.6735636386711121	5.0	600.0	1.0	5.0	5.0	7.0	1.0	part_2
277	1.0	8.0			800.0	0.0	0.0							5.0	0.0	0.516648046359478	5.0	600.0	2.0	1.0	2.0	2.0	0.0	part_2
278	4.0	8.0			800.0	0.0	1.0							6.0	0.0	0.0	0.0	600.0	4.0	2.0	8.0	8.0	1.0	part_2
279	4.0	8.0			800.0	0.0	1.0							6.0	0.0	0.0	0.0	650.0	3.0	7.0	7.0	1.0	1.0	part_2
280	1.0	8.0			800.0	0.0	0.0							6.0	0.0	0.5293503456559847	6.0	700.0	1.0	4.0	1.0	3.0	0.0	part_2
281	1.0	8.0			800.0	0.0	1.0							5.0	0.0	0.9124828886879186	5.0	700.0	2.0	6.0	6.0	5.0	0.0	part_2
282	1.0	8.0			800.0	0.0	0.0							6.0	0.0	0.6098659446715828	6.0	700.0	2.0	1.0	2.0	2.0	0.0	part_2
283	3.0	8.0			800.0	0.0	1.0							6.0	0.0	0.6905977546875874	6.0	700.0	2.0	6.0	6.0	5.0	1.0	part_2
284	1.0	8.0			800.0	0.0	1.0							5.0	0.0	0.9728682573431797	5.0	650.0	4.0	2.0	8.0	8.0	0.0	part_2
285	1.0	8.0			800.0	0.0	0.0							5.0	0.0	0.5229323193443633	5.0	650.0	1.0	4.0	1.0	3.0	0.0	part_2
286	3.0	8.0			800.0	0.0	1.0							6.0	0.0	0.5922130197022852	6.0	650.0	3.0	7.0	7.0	1.0	1.0	part_2
287	1.0	8.0			800.0	0.0	0.0							6.0	0.0	0.5351706833753269	6.0	600.0	1.0	4.0	1.0	3.0	0.0	part_2
0	0.0	1.0	245.0	5.0	0.0	2.0	1.0	196.0	147.0	245.0	294.0	98.0	49.0	7.0	0.0	0.8750439628829554	3.0	0.0	1.0	5.0	5.0	7.0	0.0	part_3
1	0.0	1.0	49.0	1.0	0.0	1.0	0.0	294.0	49.0	147.0	98.0	245.0	196.0	7.0	0.0	2.472472743441358	2.0	0.0	1.0	4.0	1.0	3.0	0.0	part_3
2	0.0	1.0	324.0	6.0	0.0	1.0	1.0	216.0	162.0	108.0	324.0	270.0	54.0	7.0	0.0	2.4755596750519544	4.0	0.0	4.0	2.0	8.0	8.0	0.0	part_3
3	0.0	1.0	234.0	6.0	0.0	1.0	1.0	234.0	195.0	156.0	117.0	78.0	39.0	7.0	0.0	2.296046358052081	1.0	0.0	1.0	5.0	5.0	7.0	0.0	part_3
4	0.0	1.0	88.0	2.0	0.0	1.0	0.0	132.0	220.0	88.0	264.0	44.0	176.0	7.0	0.0	2.7129120268309634	3.0	0.0	4.0	3.0	4.0	4.0	0.0	part_3
5	0.0	1.0	204.0	6.0	0.0	1.0	1.0	170.0	204.0	68.0	102.0	136.0	34.0	7.0	0.0	2.0608389444923887	2.0	0.0	3.0	7.0	7.0	1.0	0.0	part_3
6	0.0	1.0	264.0	6.0	0.0	1.0	1.0	264.0	176.0	132.0	88.0	220.0	44.0	7.0	0.0	2.074383018051776	1.0	0.0	4.0	2.0	8.0	8.0	0.0	part_3
7	0.0	1.0	34.0	1.0	0.0	1.0	0.0	102.0	136.0	68.0	34.0	170.0	204.0	7.0	0.0	1.9055187896610732	4.0	0.0	2.0	1.0	2.0	2.0	0.0	part_3
8	0.0	1.0	44.0	1.0	0.0	1.0	0.0	176.0	220.0	132.0	264.0	44.0	88.0	7.0	0.0	1.9743158734409008	5.0	0.0	1.0	4.0	1.0	3.0	0.0	part_3
9	0.0	1.0	78.0	2.0	0.0	1.0	0.0	234.0	117.0	39.0	195.0	78.0	156.0	7.0	0.0	1.9978644232205625	5.0	0.0	4.0	3.0	4.0	4.0	0.0	part_3
10	0.0	1.0	234.0	6.0	0.0	1.0	1.0	117.0	195.0	39.0	156.0	78.0	234.0	7.0	0.0	2.4937558506608184	6.0	0.0	4.0	2.0	8.0	8.0	0.0	part_3
11	0.0	1.0	196.0	4.0	0.0	1.0	1.0	98.0	294.0	245.0	49.0	147.0	196.0	7.0	0.0	2.3147298782714643	6.0	0.0	2.0	6.0	6.0	5.0	0.0	part_3
12	0.0	1.0	88.0	2.0	0.0	1.0	0.0	88.0	132.0	220.0	44.0	264.0	176.0	7.0	0.0	1.5295374494407952	1.0	0.0	2.0	1.0	2.0	2.0	0.0	part_3
13	0.0	1.0	88.0	2.0	0.0	1.0	0.0	220.0	264.0	44.0	132.0	88.0	176.0	7.0	0.0	2.361701200882635	5.0	0.0	1.0	4.0	1.0	3.0	0.0	part_3
14	0.0	1.0	132.0	3.0	0.0	1.0	1.0	132.0	88.0	264.0	44.0	220.0	176.0	7.0	0.0	3.343371376831783	1.0	0.0	3.0	7.0	7.0	1.0	0.0	part_3
15	0.0	1.0	324.0	6.0	0.0	1.0	1.0	162.0	216.0	54.0	108.0	324.0	270.0	7.0	0.0	2.0488370018820206	5.0	0.0	2.0	6.0	6.0	5.0	0.0	part_3
16	0.0	1.0	294.0	6.0	0.0	1.0	1.0	196.0	294.0	147.0	98.0	245.0	49.0	7.0	0.0	1.5778492408826423	2.0	0.0	1.0	5.0	5.0	7.0	0.0	part_3
17	0.0	1.0	68.0	2.0	0.0	1.0	0.0	102.0	204.0	68.0	170.0	136.0	34.0	7.0	0.0	2.0292263864412234	3.0	0.0	1.0	4.0	1.0	3.0	0.0	part_3
18	0.0	1.0	49.0	1.0	0.0	1.0	0.0	294.0	196.0	245.0	147.0	49.0	98.0	7.0	0.0	1.9305464862718509	5.0	0.0	3.0	8.0	3.0	6.0	0.0	part_3
19	0.0	1.0	204.0	6.0	0.0	1.0	1.0	170.0	136.0	204.0	34.0	102.0	68.0	7.0	0.0	2.1324312934411864	3.0	0.0	2.0	6.0	6.0	5.0	0.0	part_3
20	0.0	2.0	294.0	6.0	0.0	1.0	1.0	98.0	245.0	294.0	49.0	147.0	196.0	7.0	0.0	1.3998817102710746	3.0	0.0	4.0	2.0	8.0	8.0	0.0	part_3
21	0.0	2.0	98.0	2.0	0.0	1.0	0.0	196.0	98.0	245.0	147.0	49.0	294.0	7.0	0.0	1.4472045728816738	2.0	0.0	2.0	1.0	2.0	2.0	0.0	part_3
22	0.0	2.0	162.0	3.0	0.0	1.0	0.0	270.0	324.0	108.0	162.0	54.0	216.0	7.0	0.0	1.4810709380517437	4.0	0.0	3.0	8.0	3.0	6.0	0.0	part_3
23	0.0	2.0	245.0	5.0	0.0	1.0	1.0	98.0	147.0	49.0	196.0	245.0	294.0	7.0	0.0	1.8760153516614082	5.0	0.0	3.0	7.0	7.0	1.0	0.0	part_3
24	0.0	2.0	234.0	6.0	0.0	1.0	1.0	195.0	117.0	156.0	234.0	78.0	39.0	7.0	0.0	1.923140772492843	4.0	0.0	2.0	6.0	6.0	5.0	0.0	part_3
25	0.0	2.0	88.0	2.0	0.0	1.0	0.0	220.0	44.0	88.0	132.0	176.0	264.0	7.0	0.0	1.3259380304416482	3.0	0.0	3.0	8.0	3.0	6.0	0.0	part_3
26	0.0	2.0	264.0	6.0	0.0	1.0	1.0	132.0	88.0	264.0	220.0	176.0	44.0	7.0	0.0	1.4974557588311654	3.0	0.0	4.0	2.0	8.0	8.0	0.0	part_3
27	0.0	2.0	39.0	1.0	0.0	1.0	0.0	234.0	117.0	78.0	156.0	195.0	39.0	7.0	0.0	1.7692003366100835	6.0	0.0	4.0	3.0	4.0	4.0	0.0	part_3
28	0.0	2.0	34.0	1.0	0.0	1.0	0.0	68.0	102.0	204.0	170.0	136.0	34.0	7.0	0.0	1.6673721434926847	6.0	0.0	4.0	3.0	4.0	4.0	0.0	part_3
29	0.0	2.0	54.0	1.0	0.0	1.0	0.0	162.0	54.0	216.0	270.0	108.0	324.0	7.0	0.0	2.298611351492582	2.0	0.0	2.0	1.0	2.0	2.0	0.0	part_3
30	0.0	2.0	78.0	2.0	0.0	1.0	0.0	234.0	156.0	39.0	117.0	195.0	78.0	7.0	0.0	1.9742693528314703	6.0	0.0	1.0	4.0	1.0	3.0	0.0	part_3
31	0.0	2.0	54.0	1.0	0.0	1.0	0.0	162.0	216.0	270.0	108.0	54.0	324.0	7.0	0.0	1.918548978441322	5.0	0.0	1.0	4.0	1.0	3.0	0.0	part_3
32	0.0	2.0	216.0	4.0	0.0	1.0	1.0	324.0	270.0	216.0	162.0	108.0	54.0	7.0	0.0	2.143748516492451	3.0	0.0	1.0	5.0	5.0	7.0	0.0	part_3
33	0.0	2.0	324.0	6.0	0.0	1.0	1.0	162.0	108.0	324.0	54.0	270.0	216.0	7.0	0.0	1.4927542438827004	3.0	0.0	2.0	6.0	6.0	5.0	0.0	part_3
34	0.0	2.0	170.0	5.0	0.0	1.0	1.0	170.0	102.0	68.0	204.0	34.0	136.0	7.0	0.0	2.5069656548821513	1.0	0.0	4.0	2.0	8.0	8.0	0.0	part_3
35	0.0	2.0	88.0	2.0	0.0	1.0	0.0	132.0	44.0	264.0	220.0	176.0	88.0	7.0	0.0	2.260151089831197	6.0	0.0	2.0	1.0	2.0	2.0	0.0	part_3
36	0.0	2.0	54.0	1.0	0.0	1.0	0.0	324.0	216.0	162.0	108.0	270.0	54.0	7.0	0.0	3.21878069783088	6.0	0.0	3.0	8.0	3.0	6.0	0.0	part_3
37	0.0	2.0	98.0	2.0	0.0	1.0	0.0	245.0	49.0	196.0	98.0	147.0	294.0	7.0	0.0	2.814868761493017	4.0	0.0	1.0	4.0	1.0	3.0	0.0	part_3
38	0.0	2.0	98.0	2.0	0.0	1.0	1.0	98.0	147.0	49.0	245.0	196.0	294.0	7.0	0.0	1.1717171018826775	1.0	0.0	4.0	2.0	8.0	8.0	0.0	part_3
39	0.0	2.0	204.0	6.0	0.0	1.0	1.0	102.0	34.0	136.0	170.0	68.0	204.0	7.0	0.0	1.5665290478309544	6.0	0.0	1.0	5.0	5.0	7.0	0.0	part_3
40	0.0	3.0	204.0	6.0	0.0	1.0	1.0	34.0	102.0	68.0	136.0	170.0	204.0	7.0	0.0	2.3703422382723147	6.0	0.0	3.0	7.0	7.0	1.0	0.0	part_3
41	0.0	3.0	102.0	3.0	0.0	1.0	0.0	68.0	34.0	102.0	204.0	170.0	136.0	7.0	0.0	1.0998504162716927	3.0	0.0	4.0	3.0	4.0	4.0	0.0	part_3
42	0.0	3.0	147.0	3.0	0.0	1.0	0.0	147.0	245.0	49.0	98.0	294.0	196.0	7.0	0.0	1.719296125830624	1.0	0.0	4.0	3.0	4.0	4.0	0.0	part_3
43	0.0	3.0	147.0	3.0	0.0	1.0	0.0	196.0	294.0	49.0	98.0	245.0	147.0	7.0	0.0	2.6425106234410123	6.0	0.0	2.0	1.0	2.0	2.0	0.0	part_3
44	0.0	3.0	294.0	6.0	0.0	1.0	1.0	49.0	245.0	147.0	98.0	196.0	294.0	7.0	0.0	2.18294903027072	6.0	0.0	2.0	6.0	6.0	5.0	0.0	part_3
45	0.0	3.0	108.0	2.0	0.0	1.0	0.0	162.0	108.0	270.0	216.0	54.0	324.0	7.0	0.0	1.7233736540520113	2.0	0.0	2.0	1.0	2.0	2.0	0.0	part_3
46	0.0	3.0	102.0	3.0	0.0	1.0	0.0	102.0	34.0	204.0	136.0	170.0	68.0	7.0	0.0	1.9943287560508907	1.0	0.0	2.0	1.0	2.0	2.0	0.0	part_3
47	0.0	3.0	324.0	6.0	0.0	1.0	1.0	162.0	54.0	108.0	216.0	270.0	324.0	7.0	0.0	0.9820836544931808	6.0	0.0	3.0	7.0	7.0	1.0	0.0	part_3
48	0.0	3.0	170.0	5.0	0.0	1.0	1.0	170.0	136.0	204.0	102.0	34.0	68.0	7.0	0.0	2.277049956220253	1.0	0.0	2.0	6.0	6.0	5.0	0.0	part_3
49	0.0	3.0	162.0	3.0	0.0	1.0	0.0	54.0	324.0	270.0	108.0	216.0	162.0	7.0	0.0	2.953668054220543	6.0	0.0	1.0	4.0	1.0	3.0	0.0	part_3
50	0.0	3.0	264.0	6.0	0.0	1.0	1.0	176.0	44.0	264.0	132.0	220.0	88.0	7.0	0.0	2.707576388051166	3.0	0.0	2.0	6.0	6.0	5.0	0.0	part_3
51	0.0	3.0	204.0	6.0	0.0	1.0	1.0	102.0	136.0	204.0	170.0	68.0	34.0	7.0	0.0	2.0883885118819308	3.0	0.0	4.0	2.0	8.0	8.0	0.0	part_3
52	0.0	3.0	324.0	6.0	0.0	1.0	1.0	108.0	324.0	216.0	54.0	162.0	270.0	7.0	0.0	1.8329185098309608	2.0	0.0	3.0	7.0	7.0	1.0	0.0	part_3
53	0.0	3.0	234.0	6.0	0.0	1.0	1.0	234.0	78.0	39.0	195.0	117.0	156.0	7.0	0.0	2.08169697383164	1.0	0.0	3.0	7.0	7.0	1.0	0.0	part_3
54	0.0	3.0	136.0	4.0	0.0	1.0	1.0	68.0	102.0	34.0	170.0	136.0	204.0	7.0	0.0	3.252401172219834	5.0	0.0	1.0	5.0	5.0	7.0	0.0	part_3
55	0.0	3.0	54.0	1.0	0.0	1.0	0.0	216.0	54.0	162.0	108.0	270.0	324.0	7.0	0.0	1.2832511980504933	2.0	0.0	4.0	3.0	4.0	4.0	0.0	part_3
56	0.0	3.0	49.0	1.0	0.0	1.0	0.0	196.0	245.0	147.0	49.0	98.0	294.0	7.0	0.0	2.6122921154919823	4.0	0.0	3.0	8.0	3.0	6.0	0.0	part_3
57	0.0	3.0	294.0	6.0	0.0	1.0	1.0	196.0	245.0	294.0	49.0	98.0	147.0	7.0	0.0	1.8259722354414407	3.0	0.0	3.0	7.0	7.0	1.0	0.0	part_3
58	0.0	3.0	195.0	5.0	0.0	1.0	1.0	195.0	156.0	39.0	234.0	117.0	78.0	7.0	0.0	2.4898909158309834	1.0	0.0	3.0	7.0	7.0	1.0	0.0	part_3
59	0.0	3.0	39.0	1.0	0.0	1.0	0.0	78.0	156.0	39.0	234.0	195.0	117.0	7.0	0.0	2.5937439186100164	3.0	0.0	2.0	1.0	2.0	2.0	0.0	part_3
60	0.0	4.0	54.0	1.0	0.0	1.0	0.0	162.0	108.0	270.0	54.0	324.0	216.0	7.0	0.0	1.1687231772202722	4.0	0.0	4.0	3.0	4.0	4.0	0.0	part_3
61	0.0	4.0	234.0	6.0	0.0	1.0	1.0	39.0	195.0	117.0	156.0	234.0	78.0	7.0	0.0	1.5289045826621077	5.0	0.0	4.0	2.0	8.0	8.0	0.0	part_3
62	0.0	4.0	34.0	1.0	0.0	1.0	0.0	204.0	34.0	102.0	170.0	68.0	136.0	7.0	0.0	1.3950418876102049	2.0	0.0	3.0	8.0	3.0	6.0	0.0	part_3
63	0.0	4.0	234.0	6.0	0.0	1.0	1.0	234.0	117.0	39.0	78.0	195.0	156.0	7.0	0.0	2.050437721220078	1.0	0.0	2.0	6.0	6.0	5.0	0.0	part_3
64	0.0	4.0	44.0	1.0	0.0	1.0	0.0	220.0	176.0	44.0	264.0	132.0	88.0	7.0	0.0	1.0501574968311616	3.0	0.0	4.0	3.0	4.0	4.0	0.0	part_3
65	0.0	4.0	68.0	2.0	0.0	1.0	0.0	204.0	170.0	34.0	136.0	68.0	102.0	7.0	0.0	2.377234168610812	5.0	0.0	1.0	4.0	1.0	3.0	0.0	part_3
66	0.0	4.0	34.0	1.0	0.0	1.0	0.0	136.0	68.0	170.0	102.0	34.0	204.0	7.0	0.0	1.793440143830594	5.0	0.0	3.0	8.0	3.0	6.0	0.0	part_3
67	0.0	4.0	78.0	2.0	0.0	1.0	0.0	78.0	195.0	117.0	156.0	234.0	39.0	7.0	0.0	3.697154192441303	1.0	0.0	2.0	1.0	2.0	2.0	0.0	part_3
68	0.0	4.0	88.0	2.0	0.0	1.0	0.0	44.0	132.0	176.0	220.0	88.0	264.0	7.0	0.0	2.5385098523902343	5.0	0.0	3.0	8.0	3.0	6.0	0.0	part_3
69	0.0	4.0	264.0	6.0	0.0	1.0	1.0	132.0	176.0	264.0	44.0	220.0	88.0	7.0	0.0	1.8201587262201429	3.0	0.0	1.0	5.0	5.0	7.0	0.0	part_3
70	0.0	4.0	39.0	1.0	0.0	1.0	0.0	39.0	195.0	156.0	234.0	117.0	78.0	7.0	0.0	1.7092137813906447	1.0	0.0	3.0	8.0	3.0	6.0	0.0	part_3
71	0.0	4.0	270.0	5.0	0.0	1.0	1.0	162.0	270.0	108.0	54.0	216.0	324.0	7.0	0.0	2.0355292668828042	2.0	0.0	1.0	5.0	5.0	7.0	0.0	part_3
72	0.0	4.0	98.0	2.0	0.0	1.0	0.0	98.0	294.0	245.0	49.0	196.0	147.0	7.0	0.0	3.365453917051127	1.0	0.0	4.0	3.0	4.0	4.0	0.0	part_3
73	0.0	4.0	264.0	6.0	0.0	1.0	1.0	176.0	264.0	132.0	220.0	44.0	88.0	7.0	0.0	2.003633205661572	2.0	0.0	2.0	6.0	6.0	5.0	0.0	part_3
74	0.0	4.0	39.0	1.0	0.0	1.0	0.0	78.0	156.0	39.0	234.0	195.0	117.0	7.0	0.0	2.5108839032200194	3.0	0.0	1.0	4.0	1.0	3.0	0.0	part_3
75	0.0	4.0	234.0	6.0	0.0	1.0	1.0	117.0	39.0	195.0	156.0	234.0	78.0	7.0	0.0	1.330829584831008	5.0	0.0	1.0	5.0	5.0	7.0	0.0	part_3
76	0.0	4.0	78.0	2.0	0.0	1.0	0.0	117.0	156.0	39.0	234.0	78.0	195.0	7.0	0.0	1.625781857272159	5.0	0.0	3.0	8.0	3.0	6.0	0.0	part_3
77	0.0	4.0	216.0	4.0	0.0	1.0	1.0	324.0	108.0	162.0	216.0	270.0	54.0	7.0	0.0	3.2903347098817903	4.0	0.0	4.0	2.0	8.0	8.0	0.0	part_3
78	0.0	4.0	264.0	6.0	0.0	1.0	1.0	132.0	44.0	264.0	88.0	220.0	176.0	7.0	0.0	2.054328448271008	3.0	0.0	1.0	5.0	5.0	7.0	0.0	part_3
79	0.0	4.0	264.0	6.0	0.0	1.0	1.0	44.0	176.0	264.0	220.0	132.0	88.0	7.0	0.0	1.6723475172202598	3.0	0.0	3.0	7.0	7.0	1.0	0.0	part_3
