	accuracy	block	chosen_bidding_amount	chosen_bidding_level	left_SSD	num_trial_presentations	paired_with_stopping	possible_bid_1	possible_bid_2	possible_bid_3	possible_bid_4	possible_bid_5	possible_bid_6	quadrant	raw_reward_magnitude	reaction_time	response	right_SSD	stepwise_reward_magnitude	stim_color	stim_reward	stim_shape	stop_signal_trial_type	which_part
0		1.0				1.0	1.0							4.0	412.0	0.3575903452001512	4.0		4.0	5.0	8.0	8.0		part_1
1		1.0				1.0	0.0							4.0	43.0	0.3236180456588045	4.0		1.0	6.0	1.0	2.0		part_1
2		1.0				1.0	1.0							3.0	32.0	0.32635690085589886	3.0		1.0	7.0	5.0	1.0		part_1
3		1.0				1.0	0.0							3.0	123.0	0.3583413712331094	3.0		2.0	4.0	2.0	4.0		part_1
4		1.0				2.0	0.0							3.0	384.0	0.32711464300518855	3.0		4.0	2.0	4.0	3.0		part_1
5		1.0				1.0	0.0							4.0	55.0	0.32786384219070897	4.0		1.0	6.0	1.0	2.0		part_1
6		1.0				1.0	0.0							4.0	187.0	0.3268222806509584	4.0		3.0	1.0	3.0	6.0		part_1
7		1.0				1.0	0.0							4.0	98.0	0.3053130182088353	4.0		2.0	4.0	2.0	4.0		part_1
8		1.0				1.0	1.0							4.0	0.0	0.305513332656119	4.0		0.0	3.0	7.0	7.0		part_1
9		1.0				1.0	1.0							4.0	36.0	0.3076602452201769	4.0		1.0	7.0	5.0	1.0		part_1
10		1.0				1.0	0.0							3.0	0.0	0.30734649125952274	3.0		0.0	4.0	2.0	4.0		part_1
11		1.0				1.0	1.0							3.0	417.0	0.3067911292309873	3.0		4.0	5.0	8.0	8.0		part_1
12		1.0				1.0	0.0							1.0	404.0	0.32995356019819155	1.0		4.0	2.0	4.0	3.0		part_1
13		1.0				1.0	0.0							1.0	114.0	0.2865644312114455	1.0		2.0	4.0	2.0	4.0		part_1
14		1.0				1.0	0.0							3.0	104.0	0.29674101498676464	3.0		2.0	4.0	2.0	4.0		part_1
15		1.0				1.0	0.0							2.0	412.0	0.2656415808596648	2.0		4.0	2.0	4.0	3.0		part_1
16		1.0				1.0	1.0							2.0	207.0	0.32156998285790905	2.0		3.0	3.0	7.0	7.0		part_1
17		1.0				1.0	0.0							3.0	379.0	0.29862040700390935	3.0		4.0	2.0	4.0	3.0		part_1
18		1.0				1.0	1.0							4.0	28.0	0.3014564788318239	4.0		1.0	7.0	5.0	1.0		part_1
19		1.0				1.0	0.0							1.0	57.0	0.27977942541474476	1.0		1.0	6.0	1.0	2.0		part_1
20		1.0				1.0	0.0							3.0	195.0	0.2783559204544872	3.0		3.0	1.0	3.0	6.0		part_1
21		1.0				1.0	0.0							4.0	413.0	0.2897220854065381	4.0		4.0	2.0	4.0	3.0		part_1
22		1.0				1.0	0.0							3.0	0.0	0.31353211303940043	3.0		0.0	4.0	2.0	4.0		part_1
23		1.0				1.0	0.0							2.0	216.0	0.3028534420300275	2.0		3.0	1.0	3.0	6.0		part_1
24		1.0				1.0	0.0							1.0	120.0	0.26962316618300974	1.0		2.0	4.0	2.0	4.0		part_1
25		1.0				1.0	1.0							1.0	404.0	0.29271290346514434	1.0		4.0	5.0	8.0	8.0		part_1
26		1.0				1.0	1.0							2.0	201.0	0.2949680653982796	2.0		3.0	3.0	7.0	7.0		part_1
27		1.0				1.0	0.0							2.0	197.0	0.29391430114628747	2.0		3.0	1.0	3.0	6.0		part_1
28		1.0				1.0	1.0							1.0	414.0	0.23845664988039061	1.0		4.0	5.0	8.0	8.0		part_1
29		1.0				1.0	1.0							4.0	67.0	0.327674935630057	4.0		1.0	7.0	5.0	1.0		part_1
30		1.0				1.0	1.0							3.0	0.0	0.29614541941555217	3.0		0.0	5.0	8.0	8.0		part_1
31		1.0				1.0	0.0							2.0	0.0	0.2737298078718595	2.0		0.0	2.0	4.0	3.0		part_1
32		1.0				2.0	0.0							4.0	379.0	0.31945958343567327	4.0		4.0	2.0	4.0	3.0		part_1
33		1.0				1.0	0.0							1.0	53.0	0.34298321418464184	1.0		1.0	6.0	1.0	2.0		part_1
34		1.0				2.0	1.0							3.0	82.0	0.32155888801207766	3.0		2.0	8.0	6.0	5.0		part_1
35		1.0				1.0	1.0							3.0	124.0	0.31059814983746037	3.0		2.0	8.0	6.0	5.0		part_1
36		1.0				1.0	1.0							1.0	53.0	0.3345035436213948	1.0		1.0	7.0	5.0	1.0		part_1
37		1.0				1.0	0.0							2.0	412.0	0.2791876211995259	2.0		4.0	2.0	4.0	3.0		part_1
38		1.0				1.0	1.0							2.0	0.0	0.30084006703691557	2.0		0.0	8.0	6.0	5.0		part_1
39		1.0				1.0	0.0							3.0	0.0	0.33616633783094585	3.0		0.0	2.0	4.0	3.0		part_1
40		1.0				1.0	1.0							4.0	205.0	0.3246528214076534	4.0		3.0	3.0	7.0	7.0		part_1
41		1.0				1.0	0.0							1.0	208.0	0.2810341586591676	1.0		3.0	1.0	3.0	6.0		part_1
42		1.0				1.0	1.0							1.0	195.0	0.27993535139830783	1.0		3.0	3.0	7.0	7.0		part_1
43		1.0				1.0	0.0							4.0	0.0	0.2919564973562956	4.0		0.0	6.0	1.0	2.0		part_1
44		1.0				1.0	1.0							1.0	382.0	0.29452647222205997	1.0		4.0	5.0	8.0	8.0		part_1
45		1.0				1.0	0.0							3.0	91.0	0.292380056635011	3.0		2.0	4.0	2.0	4.0		part_1
46		1.0				1.0	1.0							1.0	125.0	0.2501569892046973	1.0		2.0	8.0	6.0	5.0		part_1
47		1.0				1.0	1.0							3.0	88.0	0.29408242338104174	3.0		2.0	8.0	6.0	5.0		part_1
48		1.0				1.0	1.0							3.0	44.0	0.2838547471910715	3.0		1.0	7.0	5.0	1.0		part_1
49		1.0				1.0	1.0							2.0	89.0	0.30727837927406654	2.0		2.0	8.0	6.0	5.0		part_1
50		1.0				1.0	1.0							2.0	60.0	0.2976348082302138	2.0		1.0	7.0	5.0	1.0		part_1
51		1.0				1.0	1.0							2.0	398.0	0.3086227420135401	2.0		4.0	5.0	8.0	8.0		part_1
52		1.0				1.0	1.0							1.0	29.0	0.2861932669766247	1.0		1.0	7.0	5.0	1.0		part_1
53		1.0				1.0	0.0							2.0	177.0	0.27567990438546985	2.0		3.0	1.0	3.0	6.0		part_1
54		1.0				1.0	0.0							1.0	32.0	0.26431000320008025	1.0		1.0	6.0	1.0	2.0		part_1
55		1.0				1.0	1.0							4.0	0.0	0.32231740263523534	4.0		0.0	3.0	7.0	7.0		part_1
56		1.0				1.0	0.0							1.0	63.0	0.26749899034621194	1.0		1.0	6.0	1.0	2.0		part_1
57		1.0				1.0	1.0							2.0	405.0	0.23247633001301438	2.0		4.0	5.0	8.0	8.0		part_1
58		1.0				1.0	0.0							2.0	200.0	0.26801865524612367	2.0		3.0	1.0	3.0	6.0		part_1
59		1.0				2.0	0.0							4.0	0.0	0.30142129119485617	4.0		0.0	1.0	3.0	6.0		part_1
60		1.0				1.0	1.0							3.0	51.0	0.30299616942647845	3.0		1.0	7.0	5.0	1.0		part_1
61		1.0				1.0	0.0							4.0	216.0	0.29280897602438927	4.0		3.0	1.0	3.0	6.0		part_1
62		1.0				1.0	0.0							4.0	188.0	0.29236721381312236	4.0		3.0	1.0	3.0	6.0		part_1
63		1.0				1.0	0.0							1.0	220.0	0.27193814038764685	1.0		3.0	1.0	3.0	6.0		part_1
64		1.0				1.0	0.0							3.0	40.0	0.3266352569917217	3.0		1.0	6.0	1.0	2.0		part_1
65		1.0				1.0	1.0							1.0	0.0	0.27136060182238	1.0		0.0	7.0	5.0	1.0		part_1
66		1.0				1.0	1.0							4.0	416.0	0.2614088776172139	4.0		4.0	5.0	8.0	8.0		part_1
67		1.0				1.0	1.0							4.0	205.0	0.2840317718219012	4.0		3.0	3.0	7.0	7.0		part_1
68		1.0				1.0	0.0							2.0	36.0	0.26346387836383656	2.0		1.0	6.0	1.0	2.0		part_1
69		1.0				1.0	1.0							4.0	0.0	0.2973937626229599	4.0		0.0	8.0	6.0	5.0		part_1
70		1.0				1.0	0.0							3.0	0.0	0.28620651841629297	3.0		0.0	2.0	4.0	3.0		part_1
71		1.0				1.0	1.0							3.0	104.0	0.29613681364571676	3.0		2.0	8.0	6.0	5.0		part_1
72		1.0				1.0	0.0							1.0	382.0	0.3088755648350343	1.0		4.0	2.0	4.0	3.0		part_1
73		1.0				1.0	0.0							1.0	0.0	0.36533312138635665	1.0		0.0	6.0	1.0	2.0		part_1
74		1.0				1.0	1.0							4.0	0.0	0.2642201522248797	4.0		0.0	3.0	7.0	7.0		part_1
75		1.0				1.0	0.0							2.0	96.0	0.27666351944208145	2.0		2.0	4.0	2.0	4.0		part_1
76		1.0				1.0	1.0							4.0	114.0	0.27675615024054423	4.0		2.0	8.0	6.0	5.0		part_1
77		1.0				1.0	0.0							1.0	206.0	0.24400444782804698	1.0		3.0	1.0	3.0	6.0		part_1
78		1.0				1.0	1.0							4.0	0.0	0.2779625688563101	4.0		0.0	5.0	8.0	8.0		part_1
79		1.0				1.0	0.0							4.0	72.0	0.26681897963862866	4.0		1.0	6.0	1.0	2.0		part_1
80		1.0				1.0	1.0							3.0	98.0	0.3039142758352682	3.0		2.0	8.0	6.0	5.0		part_1
81		1.0				1.0	0.0							4.0	116.0	0.3029596038395539	4.0		2.0	4.0	2.0	4.0		part_1
82		1.0				1.0	1.0							2.0	84.0	0.28135770320659503	2.0		2.0	8.0	6.0	5.0		part_1
83		1.0				1.0	1.0							1.0	63.0	0.30488182697445154	1.0		1.0	7.0	5.0	1.0		part_1
84		1.0				1.0	0.0							3.0	0.0	0.30527800088748336	3.0		0.0	4.0	2.0	4.0		part_1
85		1.0				2.0	0.0							4.0	60.0	0.33891236665658653	4.0		1.0	6.0	1.0	2.0		part_1
86		1.0				1.0	1.0							4.0	423.0	0.4195789140067063	4.0		4.0	5.0	8.0	8.0		part_1
87		1.0				1.0	1.0							4.0	407.0	0.3407713284250349	4.0		4.0	5.0	8.0	8.0		part_1
88		1.0				1.0	0.0							4.0	67.0	0.25047467596596107	4.0		1.0	6.0	1.0	2.0		part_1
89		1.0				1.0	1.0							4.0	398.0	0.2622702023945749	4.0		4.0	5.0	8.0	8.0		part_1
90		1.0				1.0	1.0							1.0	63.0	0.39836433064192533	1.0		1.0	7.0	5.0	1.0		part_1
91		1.0				1.0	0.0							4.0	410.0	0.3100621538469568	4.0		4.0	2.0	4.0	3.0		part_1
92		1.0				1.0	1.0							2.0	74.0	0.2877515866421163	2.0		1.0	7.0	5.0	1.0		part_1
93		1.0				1.0	0.0							1.0	0.0	0.29999401222448796	1.0		0.0	1.0	3.0	6.0		part_1
94		1.0				1.0	1.0							3.0	216.0	0.3104390042135492	3.0		3.0	3.0	7.0	7.0		part_1
95		1.0				1.0	1.0							3.0	90.0	0.3568232511752285	3.0		2.0	8.0	6.0	5.0		part_1
96		1.0				1.0	0.0							3.0	224.0	0.3226924493792467	3.0		3.0	1.0	3.0	6.0		part_1
97		1.0				1.0	1.0							2.0	0.0	0.390285667963326	2.0		0.0	8.0	6.0	5.0		part_1
98		1.0				1.0	0.0							3.0	217.0	0.3338250241940841	3.0		3.0	1.0	3.0	6.0		part_1
99		1.0				1.0	0.0							3.0	0.0	0.30080002441536635	3.0		0.0	2.0	4.0	3.0		part_1
100		2.0				1.0	0.0							3.0	388.0	0.3725489328498952	3.0		4.0	2.0	4.0	3.0		part_1
101		2.0				1.0	0.0							1.0	391.0	0.3063774225884117	1.0		4.0	2.0	4.0	3.0		part_1
102		2.0				1.0	0.0							4.0	416.0	0.2832109410664998	4.0		4.0	2.0	4.0	3.0		part_1
103		2.0				1.0	1.0							1.0	96.0	0.30886811920208856	1.0		2.0	8.0	6.0	5.0		part_1
104		2.0				1.0	1.0							4.0	39.0	0.31993629067437723	4.0		1.0	7.0	5.0	1.0		part_1
105		2.0				1.0	1.0							2.0	58.0	0.319285893230699	2.0		1.0	7.0	5.0	1.0		part_1
106		2.0				1.0	1.0							4.0	0.0	0.2855020546121523	4.0		0.0	8.0	6.0	5.0		part_1
107		2.0				1.0	0.0							4.0	391.0	0.32032836484722793	4.0		4.0	2.0	4.0	3.0		part_1
108		2.0				1.0	1.0							4.0	388.0	0.32223230763338506	4.0		4.0	5.0	8.0	8.0		part_1
109		2.0				1.0	1.0							4.0	0.0	0.2875652146176435	4.0		0.0	7.0	5.0	1.0		part_1
110		2.0				1.0	0.0							3.0	407.0	0.3121215886203572	3.0		4.0	2.0	4.0	3.0		part_1
111		2.0				1.0	0.0							3.0	213.0	0.36669503623852506	3.0		3.0	1.0	3.0	6.0		part_1
112		2.0				1.0	1.0							4.0	39.0	0.3352626314153895	4.0		1.0	7.0	5.0	1.0		part_1
113		2.0				1.0	1.0							1.0	94.0	0.2683268536347896	1.0		2.0	8.0	6.0	5.0		part_1
114		2.0				1.0	0.0							4.0	201.0	0.29089575621765107	4.0		3.0	1.0	3.0	6.0		part_1
115		2.0				1.0	1.0							1.0	116.0	0.2922540028230287	1.0		2.0	8.0	6.0	5.0		part_1
116		2.0				1.0	0.0							3.0	411.0	0.31439974706154317	3.0		4.0	2.0	4.0	3.0		part_1
117		2.0				1.0	1.0							2.0	101.0	0.3155722672236152	2.0		2.0	8.0	6.0	5.0		part_1
118		2.0				1.0	0.0							4.0	103.0	0.2925872826599516	4.0		2.0	4.0	2.0	4.0		part_1
119		2.0				1.0	0.0							4.0	183.0	0.338881972245872	4.0		3.0	1.0	3.0	6.0		part_1
120		2.0				1.0	1.0							3.0	53.0	0.3613034670124762	3.0		1.0	7.0	5.0	1.0		part_1
121		2.0				1.0	0.0							1.0	398.0	0.2615279212477617	1.0		4.0	2.0	4.0	3.0		part_1
122		2.0				1.0	0.0							1.0	192.0	0.34009986999444664	1.0		3.0	1.0	3.0	6.0		part_1
123		2.0				1.0	1.0							2.0	379.0	0.3640455632121302	2.0		4.0	5.0	8.0	8.0		part_1
124		2.0				1.0	1.0							4.0	416.0	0.28523714642506093	4.0		4.0	5.0	8.0	8.0		part_1
125		2.0				1.0	1.0							2.0	0.0	0.3091893266537227	2.0		0.0	3.0	7.0	7.0		part_1
126		2.0				1.0	0.0							1.0	382.0	0.2970982161932625	1.0		4.0	2.0	4.0	3.0		part_1
127		2.0				1.0	1.0							1.0	213.0	0.3213588368380442	1.0		3.0	3.0	7.0	7.0		part_1
128		2.0				1.0	1.0							1.0	69.0	0.2866098316735588	1.0		1.0	7.0	5.0	1.0		part_1
129		2.0				1.0	0.0							1.0	87.0	0.29873389180283993	1.0		2.0	4.0	2.0	4.0		part_1
130		2.0				1.0	0.0							2.0	386.0	0.3222813366446644	2.0		4.0	2.0	4.0	3.0		part_1
131		2.0				1.0	1.0							1.0	179.0	0.2663958031916991	1.0		3.0	3.0	7.0	7.0		part_1
132		2.0				1.0	1.0							1.0	391.0	0.32301830704091117	1.0		4.0	5.0	8.0	8.0		part_1
133		2.0				1.0	0.0							2.0	66.0	0.34550315543310717	2.0		1.0	6.0	1.0	2.0		part_1
134		2.0				1.0	1.0							1.0	0.0	0.30143032607156783	1.0		0.0	5.0	8.0	8.0		part_1
135		2.0				1.0	1.0							2.0	0.0	0.2911758749978617	2.0		0.0	8.0	6.0	5.0		part_1
136		2.0				1.0	1.0							3.0	377.0	0.3244405990699306	3.0		4.0	5.0	8.0	8.0		part_1
137		2.0				1.0	1.0							1.0	390.0	0.3250935760443099	1.0		4.0	5.0	8.0	8.0		part_1
138		2.0				2.0	1.0							3.0	410.0	0.326141465222463	3.0		4.0	5.0	8.0	8.0		part_1
139		2.0				1.0	0.0							4.0	223.0	0.2726521751610562	4.0		3.0	1.0	3.0	6.0		part_1
140		2.0				1.0	1.0							2.0	180.0	0.31606869236566126	2.0		3.0	3.0	7.0	7.0		part_1
141		2.0				1.0	0.0							2.0	34.0	0.5761620823759586	2.0		1.0	6.0	1.0	2.0		part_1
142		2.0				1.0	0.0							2.0	391.0	0.3288430857937783	2.0		4.0	2.0	4.0	3.0		part_1
143		2.0				1.0	0.0							2.0	105.0	0.3182826560223475	2.0		2.0	4.0	2.0	4.0		part_1
144		2.0				1.0	0.0							3.0	0.0	0.36472113168565556	3.0		0.0	4.0	2.0	4.0		part_1
145		2.0				1.0	0.0							1.0	39.0	0.3086914971936494	1.0		1.0	6.0	1.0	2.0		part_1
146		2.0				1.0	1.0							4.0	0.0	0.2876432793564163	4.0		0.0	5.0	8.0	8.0		part_1
147		2.0				1.0	0.0							4.0	220.0	0.28631165699334815	4.0		3.0	1.0	3.0	6.0		part_1
148		2.0				1.0	1.0							4.0	177.0	0.32077144022332504	4.0		3.0	3.0	7.0	7.0		part_1
149		2.0				1.0	1.0							1.0	0.0	0.31155503704212606	1.0		0.0	7.0	5.0	1.0		part_1
150		2.0				1.0	0.0							3.0	186.0	0.3327169062104076	3.0		3.0	1.0	3.0	6.0		part_1
151		2.0				1.0	0.0							4.0	377.0	0.2996394531801343	4.0		4.0	2.0	4.0	3.0		part_1
152		2.0				1.0	0.0							1.0	417.0	0.2905283314175904	1.0		4.0	2.0	4.0	3.0		part_1
153		2.0				1.0	0.0							4.0	404.0	0.2686903838184662	4.0		4.0	2.0	4.0	3.0		part_1
154		2.0				1.0	1.0							3.0	413.0	0.3459064472699538	3.0		4.0	5.0	8.0	8.0		part_1
155		2.0				1.0	0.0							1.0	115.0	0.3037429682444781	1.0		2.0	4.0	2.0	4.0		part_1
156		2.0				1.0	0.0							2.0	423.0	0.3480948001961224	2.0		4.0	2.0	4.0	3.0		part_1
157		2.0				1.0	1.0							4.0	0.0	0.3262522059958428	4.0		0.0	7.0	5.0	1.0		part_1
158		2.0				1.0	0.0							3.0	123.0	0.25992114219116047	3.0		2.0	4.0	2.0	4.0		part_1
159		2.0				2.0	1.0							4.0	213.0	0.30488261685241014	4.0		3.0	3.0	7.0	7.0		part_1
160		2.0				1.0	1.0							3.0	399.0	0.32854117115493864	3.0		4.0	5.0	8.0	8.0		part_1
161		2.0				1.0	1.0							2.0	0.0	0.3294117492623627	2.0		0.0	3.0	7.0	7.0		part_1
162		2.0				1.0	0.0							2.0	31.0	0.3290698048658669	2.0		1.0	6.0	1.0	2.0		part_1
163		2.0				1.0	0.0							4.0	46.0	0.34042189561296254	4.0		1.0	6.0	1.0	2.0		part_1
164		2.0				1.0	1.0							3.0	105.0	0.3645541792502627	3.0		2.0	8.0	6.0	5.0		part_1
165		2.0				1.0	1.0							4.0	0.0	0.43200760817853734	4.0		0.0	3.0	7.0	7.0		part_1
166		2.0				1.0	1.0							3.0	55.0	0.3420744172181003	3.0		1.0	7.0	5.0	1.0		part_1
167		2.0				1.0	1.0							2.0	0.0	0.3330607946263626	2.0		0.0	7.0	5.0	1.0		part_1
168		2.0				1.0	1.0							3.0	27.0	0.2988746645860374	3.0		1.0	7.0	5.0	1.0		part_1
169		2.0				1.0	1.0							1.0	412.0	0.28750568901887164	1.0		4.0	5.0	8.0	8.0		part_1
170		2.0				2.0	1.0							2.0	122.0	0.3245584406540729	2.0		2.0	8.0	6.0	5.0		part_1
171		2.0				1.0	1.0							2.0	382.0	0.33487390365917236	2.0		4.0	5.0	8.0	8.0		part_1
172		2.0				1.0	0.0							3.0	88.0	0.3128203459782526	3.0		2.0	4.0	2.0	4.0		part_1
173		2.0				1.0	0.0							4.0	51.0	0.31357382104033604	4.0		1.0	6.0	1.0	2.0		part_1
174		2.0				2.0	0.0							2.0	82.0	0.41536892886506394	2.0		2.0	4.0	2.0	4.0		part_1
175		2.0				1.0	1.0							3.0	218.0	0.3498636908479966	3.0		3.0	3.0	7.0	7.0		part_1
176		2.0				1.0	1.0							4.0	34.0	0.35032020101789385	4.0		1.0	7.0	5.0	1.0		part_1
177		2.0				1.0	1.0							4.0	187.0	0.3384103316348046	4.0		3.0	3.0	7.0	7.0		part_1
178		2.0				1.0	0.0							2.0	55.0	0.3630358068039641	2.0		1.0	6.0	1.0	2.0		part_1
179		2.0				1.0	0.0							2.0	414.0	0.330083477369044	2.0		4.0	2.0	4.0	3.0		part_1
180		2.0				1.0	0.0							1.0	87.0	0.3641294146073051	1.0		2.0	4.0	2.0	4.0		part_1
181		2.0				1.0	0.0							1.0	0.0	0.34229701885487884	1.0		0.0	1.0	3.0	6.0		part_1
182		2.0				1.0	1.0							2.0	54.0	0.3538353376206942	2.0		1.0	7.0	5.0	1.0		part_1
183		2.0				1.0	1.0							3.0	217.0	0.3644217878463678	3.0		3.0	3.0	7.0	7.0		part_1
184		2.0				1.0	0.0							1.0	176.0	0.3428432918153703	1.0		3.0	1.0	3.0	6.0		part_1
185		2.0				1.0	1.0							3.0	223.0	0.3884803896653466	3.0		3.0	3.0	7.0	7.0		part_1
186		2.0				1.0	0.0							1.0	205.0	0.33333402819698676	1.0		3.0	1.0	3.0	6.0		part_1
187		2.0				1.0	1.0							1.0	176.0	0.3007532891933806	1.0		3.0	3.0	7.0	7.0		part_1
188		2.0				1.0	1.0							2.0	0.0	0.31134712940547615	2.0		0.0	5.0	8.0	8.0		part_1
189		2.0				1.0	0.0							1.0	191.0	0.2885461148689501	1.0		3.0	1.0	3.0	6.0		part_1
190		2.0				1.0	0.0							3.0	29.0	0.3686455928836949	3.0		1.0	6.0	1.0	2.0		part_1
191		2.0				1.0	1.0							2.0	0.0	0.31432419503107667	2.0		0.0	5.0	8.0	8.0		part_1
192		2.0				1.0	1.0							2.0	414.0	0.3033111084369011	2.0		4.0	5.0	8.0	8.0		part_1
193		2.0				1.0	1.0							2.0	377.0	0.27938924386398867	2.0		4.0	5.0	8.0	8.0		part_1
194		2.0				1.0	0.0							1.0	27.0	0.37219465035013855	1.0		1.0	6.0	1.0	2.0		part_1
195		2.0				1.0	1.0							1.0	92.0	0.33801198739092797	1.0		2.0	8.0	6.0	5.0		part_1
196		2.0				1.0	0.0							1.0	0.0	0.28119410981889814	1.0		0.0	1.0	3.0	6.0		part_1
197		2.0				1.0	1.0							3.0	196.0	0.3604546958231367	3.0		3.0	3.0	7.0	7.0		part_1
198		2.0				1.0	1.0							3.0	208.0	0.33824111719150096	3.0		3.0	3.0	7.0	7.0		part_1
199		2.0				1.0	1.0							1.0	71.0	0.31863030121894553	1.0		1.0	7.0	5.0	1.0		part_1
200		3.0				1.0	0.0							3.0	29.0	0.3393215510295704	3.0		1.0	6.0	1.0	2.0		part_1
201		3.0				1.0	0.0							2.0	97.0	0.3175193898496218	2.0		2.0	4.0	2.0	4.0		part_1
202		3.0				1.0	1.0							3.0	123.0	0.31770589761435986	3.0		2.0	8.0	6.0	5.0		part_1
203		3.0				1.0	1.0							2.0	0.0	0.34241043066140264	2.0		0.0	5.0	8.0	8.0		part_1
204		3.0				1.0	0.0							2.0	0.0	0.2958812798024155	2.0		0.0	6.0	1.0	2.0		part_1
205		3.0				1.0	1.0							1.0	123.0	0.33163954300107434	1.0		2.0	8.0	6.0	5.0		part_1
206		3.0				1.0	1.0							4.0	87.0	0.32116935803787783	4.0		2.0	8.0	6.0	5.0		part_1
207		3.0				1.0	1.0							2.0	0.0	0.32072120369412005	2.0		0.0	3.0	7.0	7.0		part_1
208		3.0				1.0	0.0							4.0	221.0	0.389433974865824	4.0		3.0	1.0	3.0	6.0		part_1
209		3.0				1.0	1.0							3.0	420.0	0.37825079826870933	3.0		4.0	5.0	8.0	8.0		part_1
210		3.0				1.0	1.0							4.0	82.0	0.34593568835407495	4.0		2.0	8.0	6.0	5.0		part_1
211		3.0				1.0	0.0							1.0	190.0	0.32226469920715317	1.0		3.0	1.0	3.0	6.0		part_1
212		3.0				1.0	1.0							2.0	0.0	0.3124281266354956	2.0		0.0	3.0	7.0	7.0		part_1
213		3.0				1.0	1.0							4.0	0.0	0.3129043919616379	4.0		0.0	7.0	5.0	1.0		part_1
214		3.0				1.0	0.0							2.0	0.0	0.3486020836280659	2.0		0.0	1.0	3.0	6.0		part_1
215		3.0				1.0	0.0							4.0	71.0	0.3252649598871358	4.0		1.0	6.0	1.0	2.0		part_1
216		3.0				1.0	1.0							4.0	0.0	0.34751782863168046	4.0		0.0	8.0	6.0	5.0		part_1
217		3.0				1.0	0.0							2.0	47.0	0.31555195339024067	2.0		1.0	6.0	1.0	2.0		part_1
218		3.0				1.0	1.0							1.0	190.0	0.2940825237892568	1.0		3.0	3.0	7.0	7.0		part_1
219		3.0				1.0	1.0							2.0	50.0	0.3042485342011787	2.0		1.0	7.0	5.0	1.0		part_1
220		3.0				1.0	0.0							2.0	0.0	0.3496416778070852	2.0		0.0	1.0	3.0	6.0		part_1
221		3.0				1.0	1.0							4.0	0.0	0.36173729022266343	4.0		0.0	8.0	6.0	5.0		part_1
222		3.0				1.0	0.0							1.0	0.0	0.3631611880264245	1.0		0.0	2.0	4.0	3.0		part_1
223		3.0				1.0	1.0							4.0	107.0	0.328402346232906	4.0		2.0	8.0	6.0	5.0		part_1
224		3.0				1.0	1.0							4.0	46.0	0.3308907970204018	4.0		1.0	7.0	5.0	1.0		part_1
225		3.0				1.0	1.0							1.0	221.0	0.37529900181107223	1.0		3.0	3.0	7.0	7.0		part_1
226		3.0				1.0	0.0							1.0	64.0	0.36562800663523376	1.0		1.0	6.0	1.0	2.0		part_1
227		3.0				1.0	0.0							3.0	190.0	0.34241369465598837	3.0		3.0	1.0	3.0	6.0		part_1
228		3.0				1.0	1.0							3.0	0.0	0.35484686883864924	3.0		0.0	5.0	8.0	8.0		part_1
229		3.0				1.0	0.0							2.0	107.0	0.3444940418121405	2.0		2.0	4.0	2.0	4.0		part_1
230		3.0				1.0	1.0							3.0	0.0	0.36715405265567824	3.0		0.0	5.0	8.0	8.0		part_1
231		3.0				1.0	0.0							2.0	44.0	0.39151139481691644	2.0		1.0	6.0	1.0	2.0		part_1
232		3.0				1.0	0.0							3.0	189.0	0.32403556181816384	3.0		3.0	1.0	3.0	6.0		part_1
233		3.0				1.0	0.0							2.0	404.0	0.31185837381053716	2.0		4.0	2.0	4.0	3.0		part_1
234		3.0				1.0	0.0							4.0	416.0	0.3484587113489397	4.0		4.0	2.0	4.0	3.0		part_1
235		3.0				1.0	0.0							2.0	0.0	0.3472130369627848	2.0		0.0	4.0	2.0	4.0		part_1
236		3.0				1.0	0.0							1.0	0.0	0.3154433144372888	1.0		0.0	1.0	3.0	6.0		part_1
237		3.0				1.0	1.0							3.0	183.0	0.34711169998627156	3.0		3.0	3.0	7.0	7.0		part_1
238		3.0				1.0	1.0							3.0	398.0	0.3256699191988446	3.0		4.0	5.0	8.0	8.0		part_1
239		3.0				1.0	0.0							2.0	377.0	0.34908909461228177	2.0		4.0	2.0	4.0	3.0		part_1
240		3.0				1.0	0.0							4.0	97.0	0.3722465966711752	4.0		2.0	4.0	2.0	4.0		part_1
241		3.0				1.0	0.0							2.0	94.0	0.30722703464562073	2.0		2.0	4.0	2.0	4.0		part_1
242		3.0				1.0	1.0							3.0	407.0	0.3391749522415921	3.0		4.0	5.0	8.0	8.0		part_1
243		3.0				1.0	0.0							3.0	0.0	0.5213440006482415	3.0		0.0	6.0	1.0	2.0		part_1
244		3.0				1.0	1.0							3.0	223.0	0.37474287586519495	3.0		3.0	3.0	7.0	7.0		part_1
245		3.0				1.0	0.0							2.0	180.0	0.3091636936296709	2.0		3.0	1.0	3.0	6.0		part_1
246		3.0				1.0	1.0							4.0	190.0	0.36555169243365526	4.0		3.0	3.0	7.0	7.0		part_1
247		3.0				1.0	0.0							2.0	0.0	0.320374493021518	2.0		0.0	4.0	2.0	4.0		part_1
248		3.0				1.0	0.0							4.0	0.0	0.33256743766833097	4.0		0.0	2.0	4.0	3.0		part_1
249		3.0				1.0	1.0							1.0	200.0	0.3563544534263201	1.0		3.0	3.0	7.0	7.0		part_1
250		3.0				1.0	1.0							3.0	43.0	0.3324514527921565	3.0		1.0	7.0	5.0	1.0		part_1
251		3.0				1.0	0.0							2.0	0.0	0.28846579004311934	2.0		0.0	6.0	1.0	2.0		part_1
252		3.0				1.0	0.0							4.0	57.0	0.27909447404090315	4.0		1.0	6.0	1.0	2.0		part_1
253		3.0				1.0	0.0							1.0	0.0	0.28919711883645505	1.0		0.0	4.0	2.0	4.0		part_1
254		3.0				1.0	0.0							3.0	204.0	0.3461336173932068	3.0		3.0	1.0	3.0	6.0		part_1
255		3.0				1.0	0.0							2.0	0.0	0.3031738736317493	2.0		0.0	6.0	1.0	2.0		part_1
256		3.0				1.0	1.0							2.0	199.0	0.3486839348333888	2.0		3.0	3.0	7.0	7.0		part_1
257		3.0				1.0	1.0							2.0	55.0	0.31421195837901905	2.0		1.0	7.0	5.0	1.0		part_1
258		3.0				1.0	0.0							2.0	89.0	0.27014019718626514	2.0		2.0	4.0	2.0	4.0		part_1
259		3.0				1.0	1.0							4.0	224.0	0.3390150522463955	4.0		3.0	3.0	7.0	7.0		part_1
260		3.0				1.0	0.0							2.0	28.0	0.30612622963963076	2.0		1.0	6.0	1.0	2.0		part_1
261		3.0				1.0	0.0							4.0	0.0	0.29403293202631176	4.0		0.0	1.0	3.0	6.0		part_1
262		3.0				1.0	1.0							1.0	395.0	0.3292044626432471	1.0		4.0	5.0	8.0	8.0		part_1
263		3.0				1.0	1.0							1.0	0.0	0.2952507513691671	1.0		0.0	3.0	7.0	7.0		part_1
264		3.0				1.0	0.0							2.0	423.0	0.29658521618694067	2.0		4.0	2.0	4.0	3.0		part_1
265		3.0				1.0	0.0							3.0	92.0	0.3288235434447415	3.0		2.0	4.0	2.0	4.0		part_1
266		3.0				2.0	1.0							3.0	82.0	0.3530594342155382	3.0		2.0	8.0	6.0	5.0		part_1
267		3.0				1.0	0.0							2.0	196.0	0.4106698961695656	2.0		3.0	1.0	3.0	6.0		part_1
268		3.0				1.0	1.0							4.0	377.0	0.33207315066829324	4.0		4.0	5.0	8.0	8.0		part_1
269		3.0				1.0	1.0							1.0	72.0	0.33433859003707767	1.0		1.0	7.0	5.0	1.0		part_1
270		3.0				1.0	0.0							1.0	53.0	0.2992676160065457	1.0		1.0	6.0	1.0	2.0		part_1
271		3.0				2.0	1.0							4.0	47.0	0.33351886237505823	4.0		1.0	7.0	5.0	1.0		part_1
272		3.0				1.0	1.0							3.0	120.0	0.34691919502802193	3.0		2.0	8.0	6.0	5.0		part_1
273		3.0				2.0	0.0							2.0	120.0	0.3361748162424192	2.0		2.0	4.0	2.0	4.0		part_1
274		3.0				1.0	0.0							1.0	114.0	0.5055071418173611	1.0		2.0	4.0	2.0	4.0		part_1
275		3.0				1.0	0.0							2.0	0.0	0.3813594423700124	2.0		0.0	2.0	4.0	3.0		part_1
276		3.0				1.0	0.0							3.0	43.0	0.38167905097361654	3.0		1.0	6.0	1.0	2.0		part_1
277		3.0				1.0	0.0							2.0	74.0	0.35074386739870533	2.0		1.0	6.0	1.0	2.0		part_1
278		3.0				1.0	0.0							3.0	50.0	0.38362098118523136	3.0		1.0	6.0	1.0	2.0		part_1
279		3.0				1.0	1.0							1.0	204.0	0.3618198766489513	1.0		3.0	3.0	7.0	7.0		part_1
280		3.0				1.0	1.0							4.0	189.0	0.30709747661603615	4.0		3.0	3.0	7.0	7.0		part_1
281		3.0				1.0	1.0							2.0	391.0	0.3418992052320391	2.0		4.0	5.0	8.0	8.0		part_1
282		3.0				1.0	1.0							3.0	404.0	0.3526782318367623	3.0		4.0	5.0	8.0	8.0		part_1
283		3.0				1.0	0.0							3.0	0.0	0.4323262916877866	3.0		0.0	6.0	1.0	2.0		part_1
284		3.0				1.0	1.0							2.0	216.0	0.3098959706258029	2.0		3.0	3.0	7.0	7.0		part_1
285		3.0				1.0	0.0							4.0	213.0	0.3192478324053809	4.0		3.0	1.0	3.0	6.0		part_1
286		3.0				1.0	0.0							1.0	107.0	0.3100127196521498	1.0		2.0	4.0	2.0	4.0		part_1
287		3.0				1.0	1.0							4.0	197.0	0.42172625806415454	4.0		3.0	3.0	7.0	7.0		part_1
288		3.0				1.0	1.0							4.0	0.0	0.3322050043498166	4.0		0.0	8.0	6.0	5.0		part_1
289		3.0				1.0	0.0							3.0	38.0	0.36722518817987293	3.0		1.0	6.0	1.0	2.0		part_1
290		3.0				1.0	0.0							1.0	377.0	0.35745905683143064	1.0		4.0	2.0	4.0	3.0		part_1
291		3.0				1.0	0.0							3.0	0.0	0.3785170258488506	3.0		0.0	6.0	1.0	2.0		part_1
292		3.0				1.0	1.0							1.0	77.0	0.33500384143553674	1.0		2.0	8.0	6.0	5.0		part_1
293		3.0				1.0	1.0							4.0	0.0	0.325798402831424	4.0		0.0	5.0	8.0	8.0		part_1
294		3.0				1.0	0.0							2.0	398.0	0.32524032366927713	2.0		4.0	2.0	4.0	3.0		part_1
295		3.0				1.0	0.0							3.0	109.0	0.32474865298718214	3.0		2.0	4.0	2.0	4.0		part_1
296		3.0				1.0	0.0							4.0	390.0	0.36037252738606185	4.0		4.0	2.0	4.0	3.0		part_1
297		3.0				1.0	1.0							3.0	0.0	0.39366825768956915	3.0		0.0	8.0	6.0	5.0		part_1
298		3.0				1.0	0.0							3.0	0.0	0.35997332603437826	3.0		0.0	1.0	3.0	6.0		part_1
299		3.0				1.0	1.0							2.0	75.0	0.3732624386320822	2.0		2.0	8.0	6.0	5.0		part_1
300		4.0				1.0	0.0							1.0	77.0	0.3659481646027416	1.0		2.0	4.0	2.0	4.0		part_1
301		4.0				1.0	1.0							4.0	386.0	0.37798070965800434	4.0		4.0	5.0	8.0	8.0		part_1
302		4.0				1.0	1.0							4.0	115.0	0.345114114228636	4.0		2.0	8.0	6.0	5.0		part_1
303		4.0				1.0	1.0							2.0	85.0	0.3675745546352118	2.0		2.0	8.0	6.0	5.0		part_1
304		4.0				1.0	1.0							3.0	64.0	0.40317368565592915	3.0		1.0	7.0	5.0	1.0		part_1
305		4.0				1.0	0.0							4.0	101.0	0.3574523422284983	4.0		2.0	4.0	2.0	4.0		part_1
306		4.0				1.0	0.0							1.0	63.0	0.29204801586456597	1.0		1.0	6.0	1.0	2.0		part_1
307		4.0				1.0	0.0							3.0	414.0	0.34836880437796935	3.0		4.0	2.0	4.0	3.0		part_1
308		4.0				1.0	0.0							2.0	218.0	0.32699663942912593	2.0		3.0	1.0	3.0	6.0		part_1
309		4.0				1.0	1.0							4.0	97.0	0.2924703491735272	4.0		2.0	8.0	6.0	5.0		part_1
310		4.0				1.0	0.0							3.0	405.0	0.37083141738548875	3.0		4.0	2.0	4.0	3.0		part_1
311		4.0				1.0	1.0							2.0	57.0	0.29318179766414687	2.0		1.0	7.0	5.0	1.0		part_1
312		4.0				1.0	0.0							4.0	39.0	0.32775547401979566	4.0		1.0	6.0	1.0	2.0		part_1
313		4.0				1.0	0.0							4.0	122.0	0.29374747263500467	4.0		2.0	4.0	2.0	4.0		part_1
314		4.0				1.0	0.0							4.0	114.0	0.30748928315006196	4.0		2.0	4.0	2.0	4.0		part_1
315		4.0				1.0	0.0							1.0	179.0	0.3087427958380431	1.0		3.0	1.0	3.0	6.0		part_1
316		4.0				1.0	1.0							1.0	186.0	0.29680609464412555	1.0		3.0	3.0	7.0	7.0		part_1
317		4.0				1.0	1.0							2.0	198.0	0.34210235183127224	2.0		3.0	3.0	7.0	7.0		part_1
318		4.0				1.0	0.0							2.0	198.0	0.3536239480599761	2.0		3.0	1.0	3.0	6.0		part_1
319		4.0				1.0	1.0							3.0	384.0	0.5560070334468037	3.0		4.0	5.0	8.0	8.0		part_1
320		4.0				1.0	1.0							3.0	206.0	0.37816002062754706	3.0		3.0	3.0	7.0	7.0		part_1
321		4.0				1.0	1.0							1.0	109.0	0.3563316076179035	1.0		2.0	8.0	6.0	5.0		part_1
322		4.0				1.0	1.0							2.0	404.0	0.41256356780650094	2.0		4.0	5.0	8.0	8.0		part_1
323		4.0				1.0	0.0							4.0	0.0	0.38000548363197595	4.0		0.0	2.0	4.0	3.0		part_1
324		4.0				1.0	0.0							2.0	0.0	0.335693814617116	2.0		0.0	6.0	1.0	2.0		part_1
325		4.0				1.0	1.0							1.0	0.0	0.3140454270178452	1.0		0.0	7.0	5.0	1.0		part_1
326		4.0				1.0	0.0							1.0	124.0	0.38099288899684325	1.0		2.0	4.0	2.0	4.0		part_1
327		4.0				1.0	0.0							2.0	36.0	0.3691974116372876	2.0		1.0	6.0	1.0	2.0		part_1
328		4.0				1.0	1.0							2.0	420.0	0.32518833759240806	2.0		4.0	5.0	8.0	8.0		part_1
329		4.0				1.0	1.0							1.0	391.0	0.3935091581661254	1.0		4.0	5.0	8.0	8.0		part_1
330		4.0				1.0	1.0							2.0	188.0	0.3492304243845865	2.0		3.0	3.0	7.0	7.0		part_1
331		4.0				1.0	0.0							3.0	395.0	0.5750582866603509	3.0		4.0	2.0	4.0	3.0		part_1
332		4.0				1.0	1.0							1.0	66.0	0.4630393821862526	1.0		1.0	7.0	5.0	1.0		part_1
333		4.0				1.0	0.0							1.0	0.0	0.3523371986229904	1.0		0.0	2.0	4.0	3.0		part_1
334		4.0				1.0	0.0							4.0	207.0	0.4533326454111375	4.0		3.0	1.0	3.0	6.0		part_1
335		4.0				1.0	0.0							1.0	0.0	0.3517705902340822	1.0		0.0	4.0	2.0	4.0		part_1
336		4.0				1.0	0.0							4.0	75.0	0.3521888220566325	4.0		2.0	4.0	2.0	4.0		part_1
337		4.0				1.0	1.0							2.0	220.0	0.29619253863347694	2.0		3.0	3.0	7.0	7.0		part_1
338		4.0				1.0	1.0							2.0	67.0	0.3756507451762445	2.0		1.0	7.0	5.0	1.0		part_1
339		4.0				1.0	0.0							1.0	407.0	0.35447899001883343	1.0		4.0	2.0	4.0	3.0		part_1
340		4.0				1.0	1.0							1.0	0.0	0.3438370883814059	1.0		0.0	8.0	6.0	5.0		part_1
341		4.0				1.0	0.0							2.0	0.0	0.3325082994415425	2.0		0.0	6.0	1.0	2.0		part_1
342		4.0				1.0	1.0							1.0	31.0	0.31213273416506127	1.0		1.0	7.0	5.0	1.0		part_1
343		4.0				1.0	0.0							2.0	0.0	0.31132368702674285	2.0		0.0	2.0	4.0	3.0		part_1
344		4.0				1.0	1.0							2.0	120.0	0.3119360550190322	2.0		2.0	8.0	6.0	5.0		part_1
345		4.0				1.0	0.0							2.0	82.0	0.34601975639816374	2.0		2.0	4.0	2.0	4.0		part_1
346		4.0				1.0	0.0							4.0	81.0	0.4018774706637487	4.0		2.0	4.0	2.0	4.0		part_1
347		4.0				1.0	0.0							4.0	398.0	0.39277700020466	4.0		4.0	2.0	4.0	3.0		part_1
348		4.0				1.0	0.0							4.0	0.0	0.39307454304071143	4.0		0.0	4.0	2.0	4.0		part_1
349		4.0				1.0	1.0							4.0	0.0	0.42710033600451425	4.0		0.0	7.0	5.0	1.0		part_1
350		4.0				1.0	1.0							3.0	0.0	0.42762646661140025	3.0		0.0	3.0	7.0	7.0		part_1
351		4.0				1.0	0.0							1.0	183.0	0.33844876335933805	1.0		3.0	1.0	3.0	6.0		part_1
352		4.0				1.0	0.0							3.0	85.0	0.4967122804373503	3.0		2.0	4.0	2.0	4.0		part_1
353		4.0				1.0	0.0							3.0	67.0	0.36143141239881516	3.0		1.0	6.0	1.0	2.0		part_1
354		4.0				1.0	1.0							3.0	192.0	0.45303404866717756	3.0		3.0	3.0	7.0	7.0		part_1
355		4.0				1.0	1.0							2.0	81.0	0.43012853985419497	2.0		2.0	8.0	6.0	5.0		part_1
356		4.0				1.0	0.0							3.0	0.0	0.37496986315818503	3.0		0.0	1.0	3.0	6.0		part_1
357		4.0				1.0	0.0							4.0	125.0	0.35218872886616737	4.0		2.0	4.0	2.0	4.0		part_1
358		4.0				1.0	1.0							4.0	379.0	0.3208157858462073	4.0		4.0	5.0	8.0	8.0		part_1
359		4.0				1.0	1.0							4.0	0.0	0.321075857616961	4.0		0.0	7.0	5.0	1.0		part_1
360		4.0				1.0	0.0							2.0	177.0	0.40032416523899883	2.0		3.0	1.0	3.0	6.0		part_1
361		4.0				1.0	0.0							3.0	223.0	0.3438505583908409	3.0		3.0	1.0	3.0	6.0		part_1
362		4.0				1.0	0.0							3.0	399.0	0.4225472810212523	3.0		4.0	2.0	4.0	3.0		part_1
363		4.0				1.0	1.0							1.0	66.0	0.3453229907900095	1.0		1.0	7.0	5.0	1.0		part_1
364		4.0				1.0	1.0							2.0	38.0	0.35813555162167177	2.0		1.0	7.0	5.0	1.0		part_1
365		4.0				1.0	0.0							3.0	58.0	0.4022810328169726	3.0		1.0	6.0	1.0	2.0		part_1
366		4.0				1.0	1.0							4.0	103.0	0.46014986862428486	4.0		2.0	8.0	6.0	5.0		part_1
367		4.0				1.0	0.0							1.0	420.0	0.3804976179962978	1.0		4.0	2.0	4.0	3.0		part_1
368		4.0				1.0	1.0							2.0	400.0	0.3583280278253369	2.0		4.0	5.0	8.0	8.0		part_1
369		4.0				1.0	1.0							2.0	87.0	0.36974212882341817	2.0		2.0	8.0	6.0	5.0		part_1
370		4.0				1.0	1.0							1.0	423.0	0.3705048548290506	1.0		4.0	5.0	8.0	8.0		part_1
371		4.0				1.0	0.0							1.0	90.0	0.37135902704903856	1.0		2.0	4.0	2.0	4.0		part_1
372		4.0				1.0	0.0							3.0	54.0	0.3938502288656309	3.0		1.0	6.0	1.0	2.0		part_1
373		4.0				1.0	1.0							2.0	107.0	0.3613329064100981	2.0		2.0	8.0	6.0	5.0		part_1
374		4.0				1.0	1.0							2.0	183.0	0.32884740026202053	2.0		3.0	3.0	7.0	7.0		part_1
375		4.0				1.0	1.0							2.0	191.0	0.31729562784312293	2.0		3.0	3.0	7.0	7.0		part_1
376		4.0				1.0	1.0							1.0	177.0	0.35263702645897865	1.0		3.0	3.0	7.0	7.0		part_1
377		4.0				1.0	1.0							4.0	43.0	0.34098574868403375	4.0		1.0	7.0	5.0	1.0		part_1
378		4.0				1.0	0.0							1.0	69.0	0.29779940942535177	1.0		1.0	6.0	1.0	2.0		part_1
379		4.0				1.0	1.0							1.0	411.0	0.29717367311241105	1.0		4.0	5.0	8.0	8.0		part_1
380		4.0				1.0	1.0							1.0	97.0	0.297788193449378	1.0		2.0	8.0	6.0	5.0		part_1
381		4.0				1.0	1.0							1.0	94.0	0.2985230758204125	1.0		2.0	8.0	6.0	5.0		part_1
382		4.0				1.0	0.0							3.0	94.0	0.43391492718365043	3.0		2.0	4.0	2.0	4.0		part_1
383		4.0				1.0	0.0							3.0	199.0	0.3432291712379083	3.0		3.0	1.0	3.0	6.0		part_1
384		4.0				1.0	1.0							4.0	0.0	0.3443508390337229	4.0		0.0	7.0	5.0	1.0		part_1
385		4.0				1.0	0.0							3.0	66.0	0.42522219981765375	3.0		1.0	6.0	1.0	2.0		part_1
386		4.0				1.0	1.0							4.0	91.0	0.35718918568454683	4.0		2.0	8.0	6.0	5.0		part_1
387		4.0				1.0	0.0							2.0	84.0	0.36845683481078595	2.0		2.0	4.0	2.0	4.0		part_1
388		4.0				1.0	1.0							3.0	29.0	0.4265575212193653	3.0		1.0	7.0	5.0	1.0		part_1
389		4.0				1.0	1.0							4.0	220.0	0.3366471286281012	4.0		3.0	3.0	7.0	7.0		part_1
390		4.0				1.0	0.0							3.0	400.0	0.3376432986697182	3.0		4.0	2.0	4.0	3.0		part_1
391		4.0				1.0	0.0							2.0	205.0	0.42754825617885217	2.0		3.0	1.0	3.0	6.0		part_1
392		4.0				1.0	1.0							4.0	57.0	0.339256958803162	4.0		1.0	7.0	5.0	1.0		part_1
393		4.0				1.0	0.0							3.0	82.0	0.30492461821995676	3.0		2.0	4.0	2.0	4.0		part_1
394		4.0				1.0	0.0							1.0	0.0	0.39653376635396853	1.0		0.0	4.0	2.0	4.0		part_1
395		4.0				1.0	1.0							4.0	114.0	0.340885732031893	4.0		2.0	8.0	6.0	5.0		part_1
396		4.0				1.0	1.0							4.0	114.0	0.5984308376791887	4.0		2.0	8.0	6.0	5.0		part_1
397		4.0				1.0	1.0							2.0	40.0	0.4650893448269926	2.0		1.0	7.0	5.0	1.0		part_1
398		4.0				1.0	0.0							1.0	420.0	0.34289245220134035	1.0		4.0	2.0	4.0	3.0		part_1
399		4.0				1.0	1.0							3.0	36.0	0.3529877360560931	3.0		1.0	7.0	5.0	1.0		part_1
0	1.0	1.0			250.0	0.0	0.0							6.0	0.0	0.46463575441157445	6.0	250.0	2.0	4.0	2.0	4.0	0.0	part_2
1	1.0	1.0			250.0	0.0	1.0							5.0	0.0	0.4452915620058775	5.0	250.0	4.0	5.0	8.0	8.0	0.0	part_2
2	1.0	1.0			250.0	0.0	1.0							6.0	0.0	0.6032576080178842	6.0	250.0	2.0	8.0	6.0	5.0	0.0	part_2
3	4.0	1.0			250.0	0.0	1.0							6.0	0.0	0.0	0.0	250.0	1.0	7.0	5.0	1.0	1.0	part_2
4	3.0	1.0			250.0	0.0	1.0							6.0	0.0	0.4907499793334864	6.0	300.0	2.0	8.0	6.0	5.0	1.0	part_2
5	1.0	1.0			250.0	0.0	0.0							5.0	0.0	0.3568647796055302	5.0	250.0	1.0	6.0	1.0	2.0	0.0	part_2
6	1.0	1.0			250.0	0.0	0.0							5.0	0.0	0.5499379358952865	5.0	250.0	3.0	1.0	3.0	6.0	0.0	part_2
7	4.0	1.0			250.0	0.0	1.0							5.0	0.0	0.0	0.0	250.0	1.0	7.0	5.0	1.0	1.0	part_2
8	1.0	1.0			300.0	0.0	0.0							6.0	0.0	0.7533912784419954	6.0	250.0	4.0	2.0	4.0	3.0	0.0	part_2
9	4.0	1.0			300.0	0.0	1.0							6.0	0.0	0.0	0.0	250.0	4.0	5.0	8.0	8.0	1.0	part_2
10	4.0	1.0			300.0	0.0	1.0							6.0	0.0	0.0	0.0	300.0	4.0	5.0	8.0	8.0	1.0	part_2
11	4.0	1.0			300.0	0.0	1.0							6.0	0.0	0.0	0.0	350.0	2.0	8.0	6.0	5.0	1.0	part_2
12	1.0	1.0			300.0	0.0	0.0							5.0	0.0	0.7579831023467705	5.0	400.0	1.0	6.0	1.0	2.0	0.0	part_2
13	4.0	1.0			300.0	0.0	1.0							5.0	0.0	0.0	0.0	400.0	2.0	8.0	6.0	5.0	1.0	part_2
14	1.0	1.0			350.0	0.0	0.0							5.0	0.0	0.6338339258800261	5.0	400.0	3.0	1.0	3.0	6.0	0.0	part_2
15	1.0	1.0			350.0	0.0	0.0							5.0	0.0	0.6136428758618422	5.0	400.0	2.0	4.0	2.0	4.0	0.0	part_2
16	1.0	1.0			350.0	0.0	0.0							5.0	0.0	0.42311219580005854	5.0	400.0	1.0	6.0	1.0	2.0	0.0	part_2
17	4.0	1.0			350.0	0.0	1.0							5.0	0.0	0.0	0.0	400.0	4.0	5.0	8.0	8.0	1.0	part_2
18	1.0	1.0			400.0	0.0	0.0							5.0	0.0	0.6151582798920572	5.0	400.0	2.0	4.0	2.0	4.0	0.0	part_2
19	3.0	1.0			400.0	0.0	1.0							5.0	0.0	0.34685305185848847	5.0	400.0	3.0	3.0	7.0	7.0	1.0	part_2
20	1.0	1.0			350.0	0.0	0.0							5.0	0.0	0.3694503082660958	5.0	400.0	2.0	4.0	2.0	4.0	0.0	part_2
21	1.0	1.0			350.0	0.0	1.0							6.0	0.0	0.8200450572767295	6.0	400.0	1.0	7.0	5.0	1.0	0.0	part_2
22	4.0	1.0			350.0	0.0	1.0							6.0	0.0	0.0	0.0	400.0	1.0	7.0	5.0	1.0	1.0	part_2
23	4.0	1.0			350.0	0.0	1.0							6.0	0.0	0.0	0.0	450.0	4.0	5.0	8.0	8.0	1.0	part_2
24	4.0	1.0			350.0	0.0	1.0							6.0	0.0	0.0	0.0	500.0	4.0	5.0	8.0	8.0	1.0	part_2
25	1.0	1.0			350.0	0.0	0.0							5.0	0.0	0.744636419985909	5.0	550.0	2.0	4.0	2.0	4.0	0.0	part_2
26	4.0	1.0			350.0	0.0	1.0							5.0	0.0	0.0	0.0	550.0	2.0	8.0	6.0	5.0	1.0	part_2
27	4.0	1.0			400.0	0.0	1.0							5.0	0.0	0.0	0.0	550.0	2.0	8.0	6.0	5.0	1.0	part_2
28	4.0	1.0			450.0	0.0	1.0							6.0	0.0	0.0	0.0	550.0	4.0	5.0	8.0	8.0	1.0	part_2
29	1.0	1.0			450.0	0.0	0.0							6.0	0.0	0.5114943473017775	6.0	600.0	4.0	2.0	4.0	3.0	0.0	part_2
30	1.0	1.0			450.0	0.0	0.0							6.0	0.0	0.4691277079982683	6.0	600.0	4.0	2.0	4.0	3.0	0.0	part_2
31	1.0	1.0			450.0	0.0	0.0							5.0	0.0	0.5710280842031352	5.0	600.0	1.0	6.0	1.0	2.0	0.0	part_2
32	1.0	1.0			450.0	0.0	0.0							5.0	0.0	0.4481142436270602	5.0	600.0	2.0	4.0	2.0	4.0	0.0	part_2
33	4.0	1.0			450.0	0.0	1.0							5.0	0.0	0.0	0.0	600.0	2.0	8.0	6.0	5.0	1.0	part_2
34	3.0	1.0			500.0	0.0	1.0							6.0	0.0	0.5608592840144411	6.0	600.0	1.0	7.0	5.0	1.0	1.0	part_2
35	1.0	1.0			500.0	0.0	0.0							6.0	0.0	0.5168137511354871	6.0	550.0	1.0	6.0	1.0	2.0	0.0	part_2
36	3.0	2.0			500.0	0.0	1.0							6.0	0.0	0.4233973058871925	6.0	550.0	1.0	7.0	5.0	1.0	1.0	part_2
37	1.0	2.0			500.0	0.0	0.0							5.0	0.0	0.43478716985555366	5.0	500.0	1.0	6.0	1.0	2.0	0.0	part_2
38	1.0	2.0			500.0	0.0	0.0							6.0	0.0	0.5598999007488601	6.0	500.0	4.0	2.0	4.0	3.0	0.0	part_2
39	1.0	2.0			500.0	0.0	0.0							5.0	0.0	0.40300799533724785	5.0	500.0	4.0	2.0	4.0	3.0	0.0	part_2
40	1.0	2.0			500.0	0.0	0.0							6.0	0.0	0.41659676685230806	6.0	500.0	1.0	6.0	1.0	2.0	0.0	part_2
41	4.0	2.0			500.0	0.0	1.0							5.0	0.0	0.0	0.0	500.0	4.0	5.0	8.0	8.0	1.0	part_2
42	1.0	2.0			550.0	0.0	0.0							5.0	0.0	0.4161290323245339	5.0	500.0	1.0	6.0	1.0	2.0	0.0	part_2
43	4.0	2.0			550.0	0.0	1.0							5.0	0.0	0.0	0.0	500.0	1.0	7.0	5.0	1.0	1.0	part_2
44	1.0	2.0			600.0	0.0	1.0							6.0	0.0	1.0485629918402992	6.0	500.0	4.0	5.0	8.0	8.0	0.0	part_2
45	4.0	2.0			600.0	0.0	1.0							6.0	0.0	0.0	0.0	500.0	1.0	7.0	5.0	1.0	1.0	part_2
46	1.0	2.0			600.0	0.0	0.0							6.0	0.0	0.5437728507095017	6.0	550.0	3.0	1.0	3.0	6.0	0.0	part_2
47	4.0	2.0			600.0	0.0	1.0							6.0	0.0	0.0	0.0	550.0	1.0	7.0	5.0	1.0	1.0	part_2
48	1.0	2.0			600.0	0.0	0.0							6.0	0.0	0.5464643347077072	6.0	600.0	1.0	6.0	1.0	2.0	0.0	part_2
49	3.0	2.0			600.0	0.0	1.0							5.0	0.0	0.7600108679034747	5.0	600.0	1.0	7.0	5.0	1.0	1.0	part_2
50	1.0	2.0			550.0	0.0	1.0							6.0	0.0	0.7605704003362916	6.0	600.0	2.0	8.0	6.0	5.0	0.0	part_2
51	1.0	2.0			550.0	0.0	0.0							5.0	0.0	0.6036623594700359	5.0	600.0	4.0	2.0	4.0	3.0	0.0	part_2
52	4.0	2.0			550.0	0.0	1.0							5.0	0.0	0.0	0.0	600.0	2.0	8.0	6.0	5.0	1.0	part_2
53	4.0	2.0			600.0	0.0	1.0							5.0	0.0	0.0	0.0	600.0	3.0	3.0	7.0	7.0	1.0	part_2
54	1.0	2.0			650.0	0.0	0.0							5.0	0.0	0.820119671872817	5.0	600.0	1.0	6.0	1.0	2.0	0.0	part_2
55	1.0	2.0			650.0	0.0	0.0							6.0	0.0	0.798216245311778	6.0	600.0	2.0	4.0	2.0	4.0	0.0	part_2
56	4.0	2.0			650.0	0.0	1.0							5.0	0.0	0.0	0.0	600.0	2.0	8.0	6.0	5.0	1.0	part_2
57	1.0	2.0			700.0	0.0	0.0							6.0	0.0	0.6874337012995966	6.0	600.0	4.0	2.0	4.0	3.0	0.0	part_2
58	1.0	2.0			700.0	0.0	0.0							5.0	0.0	1.0052767763263546	5.0	600.0	2.0	4.0	2.0	4.0	0.0	part_2
59	4.0	2.0			700.0	0.0	1.0							5.0	0.0	0.0	0.0	600.0	2.0	8.0	6.0	5.0	1.0	part_2
60	1.0	2.0			750.0	0.0	0.0							6.0	0.0	0.6113130902522244	6.0	600.0	3.0	1.0	3.0	6.0	0.0	part_2
61	4.0	2.0			750.0	0.0	1.0							5.0	0.0	0.0	0.0	600.0	4.0	5.0	8.0	8.0	1.0	part_2
62	3.0	2.0			800.0	0.0	1.0							5.0	0.0	0.8265863617416471	5.0	600.0	4.0	5.0	8.0	8.0	1.0	part_2
63	1.0	2.0			750.0	0.0	1.0							5.0	0.0	1.0530352630303241	5.0	600.0	1.0	7.0	5.0	1.0	0.0	part_2
64	1.0	2.0			750.0	0.0	0.0							5.0	0.0	0.5022828288492747	5.0	600.0	4.0	2.0	4.0	3.0	0.0	part_2
65	4.0	2.0			750.0	0.0	1.0							6.0	0.0	0.0	0.0	600.0	3.0	3.0	7.0	7.0	1.0	part_2
66	1.0	2.0			750.0	0.0	1.0							5.0	0.0	0.9428431838750839	5.0	650.0	1.0	7.0	5.0	1.0	0.0	part_2
67	1.0	2.0			750.0	0.0	0.0							6.0	0.0	0.5731099388794973	6.0	650.0	1.0	6.0	1.0	2.0	0.0	part_2
68	1.0	2.0			750.0	0.0	0.0							6.0	0.0	0.7537074864376336	6.0	650.0	1.0	6.0	1.0	2.0	0.0	part_2
69	1.0	2.0			750.0	0.0	0.0							6.0	0.0	0.8676197514287196	6.0	650.0	4.0	2.0	4.0	3.0	0.0	part_2
70	1.0	2.0			750.0	0.0	0.0							6.0	0.0	0.9027656168909743	6.0	650.0	1.0	6.0	1.0	2.0	0.0	part_2
71	1.0	2.0			750.0	0.0	0.0							5.0	0.0	1.003395301522687	5.0	650.0	1.0	6.0	1.0	2.0	0.0	part_2
72	3.0	3.0			750.0	0.0	1.0							5.0	0.0	0.4675507068168372	5.0	650.0	2.0	8.0	6.0	5.0	1.0	part_2
73	1.0	3.0			700.0	0.0	0.0							6.0	0.0	0.3662007675739005	6.0	650.0	3.0	1.0	3.0	6.0	0.0	part_2
74	1.0	3.0			700.0	0.0	0.0							6.0	0.0	0.33545260172104463	6.0	650.0	2.0	4.0	2.0	4.0	0.0	part_2
75	1.0	3.0			700.0	0.0	0.0							5.0	0.0	0.41348039265722036	5.0	650.0	1.0	6.0	1.0	2.0	0.0	part_2
76	3.0	3.0			700.0	0.0	1.0							6.0	0.0	0.3921165533247404	6.0	650.0	4.0	5.0	8.0	8.0	1.0	part_2
77	1.0	3.0			700.0	0.0	1.0							6.0	0.0	0.6957838959060609	6.0	600.0	2.0	8.0	6.0	5.0	0.0	part_2
78	3.0	3.0			700.0	0.0	1.0							5.0	0.0	0.6972271563136019	5.0	600.0	1.0	7.0	5.0	1.0	1.0	part_2
79	1.0	3.0			650.0	0.0	0.0							6.0	0.0	0.4055339444312267	6.0	600.0	2.0	4.0	2.0	4.0	0.0	part_2
80	3.0	3.0			650.0	0.0	1.0							6.0	0.0	0.4399317618808709	6.0	600.0	3.0	3.0	7.0	7.0	1.0	part_2
81	1.0	3.0			650.0	0.0	0.0							5.0	0.0	0.46490958699723706	5.0	550.0	4.0	2.0	4.0	3.0	0.0	part_2
82	4.0	3.0			650.0	0.0	1.0							5.0	0.0	0.0	0.0	550.0	4.0	5.0	8.0	8.0	1.0	part_2
83	4.0	3.0			700.0	0.0	1.0							6.0	0.0	0.0	0.0	550.0	4.0	5.0	8.0	8.0	1.0	part_2
84	1.0	3.0			700.0	0.0	1.0							6.0	0.0	0.6920079031260684	6.0	600.0	2.0	8.0	6.0	5.0	0.0	part_2
85	4.0	3.0			700.0	0.0	1.0							5.0	0.0	0.0	0.0	600.0	1.0	7.0	5.0	1.0	1.0	part_2
86	1.0	3.0			750.0	0.0	0.0							5.0	0.0	0.48040471744025126	5.0	600.0	1.0	6.0	1.0	2.0	0.0	part_2
87	1.0	3.0			750.0	0.0	1.0							5.0	0.0	0.9068170008249581	5.0	600.0	4.0	5.0	8.0	8.0	0.0	part_2
88	4.0	3.0			750.0	0.0	1.0							6.0	0.0	0.0	0.0	600.0	3.0	3.0	7.0	7.0	1.0	part_2
89	1.0	3.0			750.0	0.0	0.0							6.0	0.0	0.5487803394789807	6.0	650.0	4.0	2.0	4.0	3.0	0.0	part_2
90	4.0	3.0			750.0	0.0	1.0							6.0	0.0	0.0	0.0	650.0	1.0	7.0	5.0	1.0	1.0	part_2
91	1.0	3.0			750.0	0.0	1.0							5.0	0.0	0.8103155659046024	5.0	700.0	1.0	7.0	5.0	1.0	0.0	part_2
92	1.0	3.0			750.0	0.0	0.0							5.0	0.0	0.41759151802398264	5.0	700.0	4.0	2.0	4.0	3.0	0.0	part_2
93	1.0	3.0			750.0	0.0	0.0							5.0	0.0	0.44110002380330116	5.0	700.0	4.0	2.0	4.0	3.0	0.0	part_2
94	1.0	3.0			750.0	0.0	0.0							6.0	0.0	0.4963215008028783	6.0	700.0	1.0	6.0	1.0	2.0	0.0	part_2
95	1.0	3.0			750.0	0.0	0.0							5.0	0.0	0.3637444415362552	5.0	700.0	3.0	1.0	3.0	6.0	0.0	part_2
96	3.0	3.0			750.0	0.0	1.0							5.0	0.0	0.3759061772725545	5.0	700.0	2.0	8.0	6.0	5.0	1.0	part_2
97	3.0	3.0			700.0	0.0	1.0							5.0	0.0	0.46628217946272343	5.0	700.0	3.0	3.0	7.0	7.0	1.0	part_2
98	1.0	3.0			650.0	0.0	0.0							5.0	0.0	0.5462182247429155	5.0	700.0	1.0	6.0	1.0	2.0	0.0	part_2
99	4.0	3.0			650.0	0.0	1.0							5.0	0.0	0.0	0.0	700.0	3.0	3.0	7.0	7.0	1.0	part_2
100	1.0	3.0			700.0	0.0	0.0							5.0	0.0	0.5934399644611403	5.0	700.0	2.0	4.0	2.0	4.0	0.0	part_2
101	1.0	3.0			700.0	0.0	0.0							6.0	0.0	0.44713422330096364	6.0	700.0	2.0	4.0	2.0	4.0	0.0	part_2
102	1.0	3.0			700.0	0.0	0.0							5.0	0.0	0.4375557042658329	5.0	700.0	3.0	1.0	3.0	6.0	0.0	part_2
103	1.0	3.0			700.0	0.0	0.0							6.0	0.0	0.4476503638434224	6.0	700.0	1.0	6.0	1.0	2.0	0.0	part_2
104	1.0	3.0			700.0	0.0	0.0							5.0	0.0	0.35835359792690724	5.0	700.0	4.0	2.0	4.0	3.0	0.0	part_2
105	1.0	3.0			700.0	0.0	0.0							5.0	0.0	0.37205574684776366	5.0	700.0	2.0	4.0	2.0	4.0	0.0	part_2
106	3.0	3.0			700.0	0.0	1.0							5.0	0.0	0.39473954832646996	5.0	700.0	3.0	3.0	7.0	7.0	1.0	part_2
107	1.0	3.0			650.0	0.0	0.0							5.0	0.0	0.5302274459390901	5.0	700.0	2.0	4.0	2.0	4.0	0.0	part_2
108	1.0	4.0			650.0	0.0	0.0							6.0	0.0	0.42499393527396023	6.0	700.0	3.0	1.0	3.0	6.0	0.0	part_2
109	1.0	4.0			650.0	0.0	0.0							6.0	0.0	0.3919338246341795	6.0	700.0	2.0	4.0	2.0	4.0	0.0	part_2
110	3.0	4.0			650.0	0.0	1.0							5.0	0.0	0.7059412724338472	5.0	700.0	4.0	5.0	8.0	8.0	1.0	part_2
111	1.0	4.0			600.0	0.0	1.0							5.0	0.0	0.8986377153196372	5.0	700.0	3.0	3.0	7.0	7.0	0.0	part_2
112	3.0	4.0			600.0	0.0	1.0							6.0	0.0	0.8548355062957853	6.0	700.0	1.0	7.0	5.0	1.0	1.0	part_2
113	1.0	4.0			600.0	0.0	1.0							5.0	0.0	0.9127198133501224	5.0	650.0	1.0	7.0	5.0	1.0	0.0	part_2
114	1.0	4.0			600.0	0.0	0.0							5.0	0.0	0.46227005118271336	5.0	650.0	1.0	6.0	1.0	2.0	0.0	part_2
115	3.0	4.0			600.0	0.0	1.0							6.0	0.0	0.9144144443562254	6.0	650.0	1.0	7.0	5.0	1.0	1.0	part_2
116	1.0	4.0			600.0	0.0	0.0							6.0	0.0	0.45303528767544776	6.0	600.0	4.0	2.0	4.0	3.0	0.0	part_2
117	1.0	4.0			600.0	0.0	0.0							6.0	0.0	0.3967595146968961	6.0	600.0	1.0	6.0	1.0	2.0	0.0	part_2
118	1.0	4.0			600.0	0.0	0.0							6.0	0.0	0.36487636010861024	6.0	600.0	2.0	4.0	2.0	4.0	0.0	part_2
119	1.0	4.0			600.0	0.0	0.0							5.0	0.0	0.43318198941415176	5.0	600.0	4.0	2.0	4.0	3.0	0.0	part_2
120	1.0	4.0			600.0	0.0	0.0							6.0	0.0	0.4674969376064837	6.0	600.0	3.0	1.0	3.0	6.0	0.0	part_2
121	1.0	4.0			600.0	0.0	0.0							5.0	0.0	0.35542837070534006	5.0	600.0	4.0	2.0	4.0	3.0	0.0	part_2
122	1.0	4.0			600.0	0.0	0.0							6.0	0.0	0.401197059371043	6.0	600.0	1.0	6.0	1.0	2.0	0.0	part_2
123	1.0	4.0			600.0	0.0	0.0							5.0	0.0	0.36887248913990334	5.0	600.0	3.0	1.0	3.0	6.0	0.0	part_2
124	4.0	4.0			600.0	0.0	1.0							6.0	0.0	0.0	0.0	600.0	3.0	3.0	7.0	7.0	1.0	part_2
125	1.0	4.0			600.0	0.0	1.0							5.0	0.0	1.1029158316669054	5.0	650.0	1.0	7.0	5.0	1.0	0.0	part_2
126	1.0	4.0			600.0	0.0	1.0							6.0	0.0	1.069773074821569	6.0	650.0	2.0	8.0	6.0	5.0	0.0	part_2
127	1.0	4.0			600.0	0.0	1.0							6.0	0.0	0.9471093531465158	6.0	650.0	3.0	3.0	7.0	7.0	0.0	part_2
128	4.0	4.0			600.0	0.0	1.0							6.0	0.0	0.0	0.0	650.0	2.0	8.0	6.0	5.0	1.0	part_2
129	4.0	4.0			600.0	0.0	1.0							5.0	0.0	0.0	0.0	700.0	2.0	8.0	6.0	5.0	1.0	part_2
130	4.0	4.0			650.0	0.0	1.0							5.0	0.0	0.0	0.0	700.0	4.0	5.0	8.0	8.0	1.0	part_2
131	1.0	4.0			700.0	0.0	1.0							6.0	0.0	0.8832322878879495	6.0	700.0	2.0	8.0	6.0	5.0	0.0	part_2
132	3.0	4.0			700.0	0.0	1.0							5.0	0.0	0.7488778934348375	5.0	700.0	4.0	5.0	8.0	8.0	1.0	part_2
133	4.0	4.0			650.0	0.0	1.0							5.0	0.0	0.0	0.0	700.0	3.0	3.0	7.0	7.0	1.0	part_2
134	1.0	4.0			700.0	0.0	0.0							5.0	0.0	0.5796269976999611	5.0	700.0	3.0	1.0	3.0	6.0	0.0	part_2
135	1.0	4.0			700.0	0.0	0.0							6.0	0.0	0.3902601500158198	6.0	700.0	4.0	2.0	4.0	3.0	0.0	part_2
136	1.0	4.0			700.0	0.0	0.0							6.0	0.0	0.3808532867114991	6.0	700.0	2.0	4.0	2.0	4.0	0.0	part_2
137	3.0	4.0			700.0	0.0	1.0							5.0	0.0	0.8425572153064422	5.0	700.0	1.0	7.0	5.0	1.0	1.0	part_2
138	1.0	4.0			650.0	0.0	0.0							6.0	0.0	0.3939676293521188	6.0	700.0	1.0	6.0	1.0	2.0	0.0	part_2
139	1.0	4.0			650.0	0.0	0.0							6.0	0.0	0.3818600427475758	6.0	700.0	4.0	2.0	4.0	3.0	0.0	part_2
140	1.0	4.0			650.0	0.0	0.0							6.0	0.0	0.36018491885624826	6.0	700.0	4.0	2.0	4.0	3.0	0.0	part_2
141	1.0	4.0			650.0	0.0	0.0							5.0	0.0	0.4972726997220889	5.0	700.0	1.0	6.0	1.0	2.0	0.0	part_2
142	3.0	4.0			650.0	0.0	1.0							6.0	0.0	0.8120405632653274	6.0	700.0	1.0	7.0	5.0	1.0	1.0	part_2
143	4.0	4.0			650.0	0.0	1.0							6.0	0.0	0.0	0.0	650.0	2.0	8.0	6.0	5.0	1.0	part_2
144	4.0	5.0			650.0	0.0	1.0							6.0	0.0	0.0	0.0	700.0	4.0	5.0	8.0	8.0	1.0	part_2
145	1.0	5.0			650.0	0.0	1.0							5.0	0.0	0.9947746654506773	5.0	750.0	1.0	7.0	5.0	1.0	0.0	part_2
146	1.0	5.0			650.0	0.0	0.0							6.0	0.0	0.42143133090576157	6.0	750.0	3.0	1.0	3.0	6.0	0.0	part_2
147	1.0	5.0			650.0	0.0	0.0							6.0	0.0	0.40151735837571323	6.0	750.0	1.0	6.0	1.0	2.0	0.0	part_2
148	1.0	5.0			650.0	0.0	0.0							5.0	0.0	0.36759669601451606	5.0	750.0	3.0	1.0	3.0	6.0	0.0	part_2
149	1.0	5.0			650.0	0.0	1.0							5.0	0.0	0.8870827792561613	5.0	750.0	3.0	3.0	7.0	7.0	0.0	part_2
150	1.0	5.0			650.0	0.0	0.0							6.0	0.0	0.4021118439268321	6.0	750.0	2.0	4.0	2.0	4.0	0.0	part_2
151	4.0	5.0			650.0	0.0	1.0							5.0	0.0	0.0	0.0	750.0	3.0	3.0	7.0	7.0	1.0	part_2
152	4.0	5.0			700.0	0.0	1.0							6.0	0.0	0.0	0.0	750.0	3.0	3.0	7.0	7.0	1.0	part_2
153	1.0	5.0			700.0	0.0	0.0							5.0	0.0	0.4951670451555401	5.0	800.0	1.0	6.0	1.0	2.0	0.0	part_2
154	1.0	5.0			700.0	0.0	0.0							6.0	0.0	0.4281931888544932	6.0	800.0	3.0	1.0	3.0	6.0	0.0	part_2
155	4.0	5.0			700.0	0.0	1.0							5.0	0.0	0.0	0.0	800.0	3.0	3.0	7.0	7.0	1.0	part_2
156	3.0	5.0			750.0	0.0	1.0							6.0	0.0	0.9379657028475776	6.0	800.0	3.0	3.0	7.0	7.0	1.0	part_2
157	1.0	5.0			750.0	0.0	0.0							5.0	0.0	0.5221061774645932	5.0	750.0	1.0	6.0	1.0	2.0	0.0	part_2
158	1.0	5.0			750.0	0.0	1.0							6.0	0.0	1.0069011796731502	6.0	750.0	4.0	5.0	8.0	8.0	0.0	part_2
159	1.0	5.0			750.0	0.0	0.0							6.0	0.0	0.4326958177261986	6.0	750.0	3.0	1.0	3.0	6.0	0.0	part_2
160	3.0	5.0			750.0	0.0	1.0							5.0	0.0	0.39937368885148317	5.0	750.0	3.0	3.0	7.0	7.0	1.0	part_2
161	4.0	5.0			700.0	0.0	1.0							5.0	0.0	0.0	0.0	750.0	1.0	7.0	5.0	1.0	1.0	part_2
162	1.0	5.0			750.0	0.0	0.0							5.0	0.0	0.5254845968447626	5.0	750.0	1.0	6.0	1.0	2.0	0.0	part_2
163	4.0	5.0			750.0	0.0	1.0							5.0	0.0	0.0	0.0	750.0	3.0	3.0	7.0	7.0	1.0	part_2
164	1.0	5.0			800.0	0.0	0.0							6.0	0.0	0.30331811448559165	6.0	750.0	1.0	6.0	1.0	2.0	0.0	part_2
165	1.0	5.0			800.0	0.0	0.0							6.0	0.0	0.33598058635834605	6.0	750.0	1.0	6.0	1.0	2.0	0.0	part_2
166	1.0	5.0			800.0	0.0	0.0							6.0	0.0	0.3384432304301299	6.0	750.0	2.0	4.0	2.0	4.0	0.0	part_2
167	3.0	5.0			800.0	0.0	1.0							6.0	0.0	0.3381651903036982	6.0	750.0	3.0	3.0	7.0	7.0	1.0	part_2
168	1.0	5.0			800.0	0.0	0.0							5.0	0.0	0.3612873496604152	5.0	700.0	4.0	2.0	4.0	3.0	0.0	part_2
169	1.0	5.0			800.0	0.0	0.0							5.0	0.0	0.4746571918367408	5.0	700.0	1.0	6.0	1.0	2.0	0.0	part_2
170	1.0	5.0			800.0	0.0	0.0							5.0	0.0	0.3980839928262867	5.0	700.0	3.0	1.0	3.0	6.0	0.0	part_2
171	4.0	5.0			800.0	0.0	1.0							6.0	0.0	0.0	0.0	700.0	1.0	7.0	5.0	1.0	1.0	part_2
172	1.0	5.0			800.0	0.0	0.0							5.0	0.0	0.4554819565382786	5.0	750.0	3.0	1.0	3.0	6.0	0.0	part_2
173	3.0	5.0			800.0	0.0	1.0							6.0	0.0	0.8281188948894851	6.0	750.0	4.0	5.0	8.0	8.0	1.0	part_2
174	1.0	5.0			800.0	0.0	0.0							6.0	0.0	0.46706435427768156	6.0	700.0	4.0	2.0	4.0	3.0	0.0	part_2
175	4.0	5.0			800.0	0.0	1.0							5.0	0.0	0.0	0.0	700.0	2.0	8.0	6.0	5.0	1.0	part_2
176	1.0	5.0			850.0	0.0	0.0							6.0	0.0	0.4025927499169484	6.0	700.0	3.0	1.0	3.0	6.0	0.0	part_2
177	1.0	5.0			850.0	0.0	0.0							6.0	0.0	0.3361892018583603	6.0	700.0	2.0	4.0	2.0	4.0	0.0	part_2
178	1.0	5.0			850.0	0.0	0.0							5.0	0.0	0.4041063610929996	5.0	700.0	3.0	1.0	3.0	6.0	0.0	part_2
179	3.0	5.0			850.0	0.0	1.0							5.0	0.0	0.8992428912897594	5.0	700.0	1.0	7.0	5.0	1.0	1.0	part_2
180	1.0	6.0			800.0	0.0	1.0							5.0	0.0	1.0278268323163502	5.0	700.0	1.0	7.0	5.0	1.0	0.0	part_2
181	1.0	6.0			800.0	0.0	0.0							6.0	0.0	0.42007906932849437	6.0	700.0	3.0	1.0	3.0	6.0	0.0	part_2
182	1.0	6.0			800.0	0.0	0.0							5.0	0.0	0.3771350688766688	5.0	700.0	4.0	2.0	4.0	3.0	0.0	part_2
183	3.0	6.0			800.0	0.0	1.0							6.0	0.0	0.8937331450288184	6.0	700.0	3.0	3.0	7.0	7.0	1.0	part_2
184	1.0	6.0			800.0	0.0	0.0							5.0	0.0	0.332862198993098	5.0	650.0	3.0	1.0	3.0	6.0	0.0	part_2
185	4.0	6.0			800.0	0.0	1.0							5.0	0.0	0.0	0.0	650.0	1.0	7.0	5.0	1.0	1.0	part_2
186	1.0	6.0			850.0	0.0	0.0							5.0	0.0	0.45731836633058265	5.0	650.0	3.0	1.0	3.0	6.0	0.0	part_2
187	1.0	6.0			850.0	0.0	1.0							5.0	0.0	1.326531060913112	5.0	650.0	3.0	3.0	7.0	7.0	0.0	part_2
188	4.0	6.0			850.0	0.0	1.0							6.0	0.0	0.0	0.0	650.0	1.0	7.0	5.0	1.0	1.0	part_2
189	1.0	6.0			850.0	0.0	0.0							6.0	0.0	0.46028470288729295	6.0	700.0	4.0	2.0	4.0	3.0	0.0	part_2
190	4.0	6.0			850.0	0.0	1.0							5.0	0.0	0.0	0.0	700.0	4.0	5.0	8.0	8.0	1.0	part_2
191	1.0	6.0			900.0	0.0	0.0							5.0	0.0	0.4522075055865571	5.0	700.0	2.0	4.0	2.0	4.0	0.0	part_2
192	4.0	6.0			900.0	0.0	1.0							5.0	0.0	0.0	0.0	700.0	4.0	5.0	8.0	8.0	1.0	part_2
193	1.0	6.0			950.0	0.0	0.0							5.0	0.0	0.40761193144135177	5.0	700.0	4.0	2.0	4.0	3.0	0.0	part_2
194	1.0	6.0			950.0	0.0	0.0							6.0	0.0	0.34015860076760873	6.0	700.0	3.0	1.0	3.0	6.0	0.0	part_2
195	1.0	6.0			950.0	0.0	1.0							6.0	0.0	1.1625489658326842	6.0	700.0	1.0	7.0	5.0	1.0	0.0	part_2
196	1.0	6.0			950.0	0.0	0.0							6.0	0.0	0.48964573041303083	6.0	700.0	1.0	6.0	1.0	2.0	0.0	part_2
197	4.0	6.0			950.0	0.0	1.0							6.0	0.0	0.0	0.0	700.0	1.0	7.0	5.0	1.0	1.0	part_2
198	1.0	6.0			950.0	0.0	0.0							6.0	0.0	0.491641583328601	6.0	750.0	2.0	4.0	2.0	4.0	0.0	part_2
199	1.0	6.0			950.0	0.0	0.0							5.0	0.0	0.356604769884143	5.0	750.0	4.0	2.0	4.0	3.0	0.0	part_2
200	1.0	6.0			950.0	0.0	0.0							6.0	0.0	0.42595171614084393	6.0	750.0	1.0	6.0	1.0	2.0	0.0	part_2
201	1.0	6.0			950.0	0.0	0.0							6.0	0.0	0.370433043804951	6.0	750.0	4.0	2.0	4.0	3.0	0.0	part_2
202	4.0	6.0			950.0	0.0	1.0							6.0	0.0	0.0	0.0	750.0	1.0	7.0	5.0	1.0	1.0	part_2
203	1.0	6.0			950.0	0.0	0.0							6.0	0.0	0.4503477033576928	6.0	800.0	2.0	4.0	2.0	4.0	0.0	part_2
204	4.0	6.0			950.0	0.0	1.0							6.0	0.0	0.0	0.0	800.0	2.0	8.0	6.0	5.0	1.0	part_2
205	1.0	6.0			950.0	0.0	1.0							5.0	0.0	1.227369419299066	5.0	850.0	4.0	5.0	8.0	8.0	0.0	part_2
206	3.0	6.0			950.0	0.0	1.0							5.0	0.0	1.0925956583232619	5.0	850.0	2.0	8.0	6.0	5.0	1.0	part_2
207	1.0	6.0			900.0	0.0	0.0							6.0	0.0	0.4183546088752337	6.0	850.0	3.0	1.0	3.0	6.0	0.0	part_2
208	1.0	6.0			900.0	0.0	0.0							6.0	0.0	0.443564745655749	6.0	850.0	1.0	6.0	1.0	2.0	0.0	part_2
209	1.0	6.0			900.0	0.0	0.0							6.0	0.0	0.3430103816790506	6.0	850.0	4.0	2.0	4.0	3.0	0.0	part_2
210	1.0	6.0			900.0	0.0	0.0							6.0	0.0	0.3535941834561527	6.0	850.0	2.0	4.0	2.0	4.0	0.0	part_2
211	1.0	6.0			900.0	0.0	1.0							6.0	0.0	1.0187611848814413	6.0	850.0	2.0	8.0	6.0	5.0	0.0	part_2
212	1.0	6.0			900.0	0.0	0.0							5.0	0.0	0.42286758829141036	5.0	850.0	3.0	1.0	3.0	6.0	0.0	part_2
213	1.0	6.0			900.0	0.0	0.0							6.0	0.0	0.4122061859234236	6.0	850.0	2.0	4.0	2.0	4.0	0.0	part_2
214	4.0	6.0			900.0	0.0	1.0							6.0	0.0	0.0	0.0	850.0	4.0	5.0	8.0	8.0	1.0	part_2
215	4.0	6.0			900.0	0.0	1.0							6.0	0.0	0.0	0.0	900.0	1.0	7.0	5.0	1.0	1.0	part_2
216	3.0	7.0			900.0	0.0	1.0							5.0	0.0	0.9095764050143771	5.0	950.0	4.0	5.0	8.0	8.0	1.0	part_2
217	1.0	7.0			850.0	0.0	1.0							5.0	0.0	1.1294838038738817	5.0	950.0	2.0	8.0	6.0	5.0	0.0	part_2
218	4.0	7.0			850.0	0.0	1.0							6.0	0.0	0.0	0.0	950.0	3.0	3.0	7.0	7.0	1.0	part_2
219	1.0	7.0			850.0	0.0	1.0							5.0	0.0	0.7131703184568323	5.0	1000.0	2.0	8.0	6.0	5.0	0.0	part_2
220	4.0	7.0			850.0	0.0	1.0							6.0	0.0	0.0	0.0	1000.0	2.0	8.0	6.0	5.0	1.0	part_2
221	4.0	7.0			850.0	0.0	1.0							6.0	0.0	0.0	0.0	1050.0	2.0	8.0	6.0	5.0	1.0	part_2
222	1.0	7.0			850.0	0.0	0.0							5.0	0.0	0.4687562328763306	5.0	1100.0	3.0	1.0	3.0	6.0	0.0	part_2
223	3.0	7.0			850.0	0.0	1.0							5.0	0.0	0.9527957801474258	5.0	1100.0	4.0	5.0	8.0	8.0	1.0	part_2
224	1.0	7.0			800.0	0.0	1.0							6.0	0.0	1.1344631360843778	6.0	1100.0	3.0	3.0	7.0	7.0	0.0	part_2
225	4.0	7.0			800.0	0.0	1.0							5.0	0.0	0.0	0.0	1100.0	1.0	7.0	5.0	1.0	1.0	part_2
226	1.0	7.0			850.0	0.0	0.0							6.0	0.0	0.42635311814956367	6.0	1100.0	3.0	1.0	3.0	6.0	0.0	part_2
227	1.0	7.0			850.0	0.0	0.0							5.0	0.0	0.44042416830779985	5.0	1100.0	2.0	4.0	2.0	4.0	0.0	part_2
228	1.0	7.0			850.0	0.0	0.0							6.0	0.0	0.3852197658852674	6.0	1100.0	2.0	4.0	2.0	4.0	0.0	part_2
229	3.0	7.0			850.0	0.0	1.0							6.0	0.0	0.3736643719021231	6.0	1100.0	1.0	7.0	5.0	1.0	1.0	part_2
230	3.0	7.0			850.0	0.0	1.0							6.0	0.0	0.3304548262967728	6.0	1050.0	4.0	5.0	8.0	8.0	1.0	part_2
231	1.0	7.0			850.0	0.0	0.0							5.0	0.0	0.397723033442162	5.0	1000.0	2.0	4.0	2.0	4.0	0.0	part_2
232	1.0	7.0			850.0	0.0	1.0							6.0	0.0	0.984551080793608	6.0	1000.0	4.0	5.0	8.0	8.0	0.0	part_2
233	3.0	7.0			850.0	0.0	1.0							5.0	0.0	0.9290507498080842	5.0	1000.0	3.0	3.0	7.0	7.0	1.0	part_2
234	4.0	7.0			800.0	0.0	1.0							5.0	0.0	0.0	0.0	1000.0	3.0	3.0	7.0	7.0	1.0	part_2
235	3.0	7.0			850.0	0.0	1.0							6.0	0.0	1.1317105190246366	6.0	1000.0	3.0	3.0	7.0	7.0	1.0	part_2
236	1.0	7.0			850.0	0.0	0.0							6.0	0.0	0.5032749914680608	6.0	950.0	3.0	1.0	3.0	6.0	0.0	part_2
237	1.0	7.0			850.0	0.0	0.0							6.0	0.0	0.41451335343299434	6.0	950.0	3.0	1.0	3.0	6.0	0.0	part_2
238	1.0	7.0			850.0	0.0	0.0							5.0	0.0	0.44843431533081457	5.0	950.0	1.0	6.0	1.0	2.0	0.0	part_2
239	3.0	7.0			850.0	0.0	1.0							5.0	0.0	0.35868452570866793	5.0	950.0	4.0	5.0	8.0	8.0	1.0	part_2
240	4.0	7.0			800.0	0.0	1.0							5.0	0.0	0.0	0.0	950.0	2.0	8.0	6.0	5.0	1.0	part_2
241	1.0	7.0			850.0	0.0	0.0							5.0	0.0	0.49609900458017364	5.0	950.0	2.0	4.0	2.0	4.0	0.0	part_2
242	4.0	7.0			850.0	0.0	1.0							6.0	0.0	0.0	0.0	950.0	2.0	8.0	6.0	5.0	1.0	part_2
243	4.0	7.0			850.0	0.0	1.0							6.0	0.0	0.0	0.0	1000.0	4.0	5.0	8.0	8.0	1.0	part_2
244	1.0	7.0			850.0	0.0	0.0							5.0	0.0	0.4084570197155699	5.0	1050.0	3.0	1.0	3.0	6.0	0.0	part_2
245	1.0	7.0			850.0	0.0	1.0							6.0	0.0	1.1286194792483002	6.0	1050.0	3.0	3.0	7.0	7.0	0.0	part_2
246	1.0	7.0			850.0	0.0	0.0							6.0	0.0	0.43263495614519343	6.0	1050.0	3.0	1.0	3.0	6.0	0.0	part_2
247	1.0	7.0			850.0	0.0	1.0							5.0	0.0	0.8155360675300471	5.0	1050.0	3.0	3.0	7.0	7.0	0.0	part_2
248	1.0	7.0			850.0	0.0	0.0							5.0	0.0	0.4005906815873459	5.0	1050.0	2.0	4.0	2.0	4.0	0.0	part_2
249	1.0	7.0			850.0	0.0	0.0							5.0	0.0	0.355799125158228	5.0	1050.0	4.0	2.0	4.0	3.0	0.0	part_2
250	1.0	7.0			850.0	0.0	0.0							5.0	0.0	0.34609907411504537	5.0	1050.0	3.0	1.0	3.0	6.0	0.0	part_2
251	3.0	7.0			850.0	0.0	1.0							6.0	0.0	1.0659749133046716	6.0	1050.0	3.0	3.0	7.0	7.0	1.0	part_2
252	1.0	8.0			850.0	0.0	0.0							5.0	0.0	0.3750217698398046	5.0	1000.0	2.0	4.0	2.0	4.0	0.0	part_2
253	1.0	8.0			850.0	0.0	1.0							6.0	0.0	0.9593544538365677	6.0	1000.0	3.0	3.0	7.0	7.0	0.0	part_2
254	1.0	8.0			850.0	0.0	0.0							6.0	0.0	0.3988995646359399	6.0	1000.0	1.0	6.0	1.0	2.0	0.0	part_2
255	1.0	8.0			850.0	0.0	0.0							5.0	0.0	0.3313175688381307	5.0	1000.0	3.0	1.0	3.0	6.0	0.0	part_2
256	1.0	8.0			850.0	0.0	0.0							5.0	0.0	0.35472120688064024	5.0	1000.0	4.0	2.0	4.0	3.0	0.0	part_2
257	1.0	8.0			850.0	0.0	0.0							5.0	0.0	0.35627536522224545	5.0	1000.0	4.0	2.0	4.0	3.0	0.0	part_2
258	1.0	8.0			850.0	0.0	1.0							6.0	0.0	0.7157275511417538	6.0	1000.0	4.0	5.0	8.0	8.0	0.0	part_2
259	4.0	8.0			850.0	0.0	1.0							5.0	0.0	0.0	0.0	1000.0	1.0	7.0	5.0	1.0	1.0	part_2
260	1.0	8.0			900.0	0.0	0.0							5.0	0.0	0.4022146628703922	5.0	1000.0	2.0	4.0	2.0	4.0	0.0	part_2
261	3.0	8.0			900.0	0.0	1.0							5.0	0.0	0.39349852059967816	5.0	1000.0	2.0	8.0	6.0	5.0	1.0	part_2
262	1.0	8.0			850.0	0.0	0.0							6.0	0.0	0.4942900603637099	6.0	1000.0	2.0	4.0	2.0	4.0	0.0	part_2
263	1.0	8.0			850.0	0.0	0.0							6.0	0.0	0.3487096214084886	6.0	1000.0	4.0	2.0	4.0	3.0	0.0	part_2
264	3.0	8.0			850.0	0.0	1.0							6.0	0.0	0.7563653167453595	6.0	1000.0	2.0	8.0	6.0	5.0	1.0	part_2
265	1.0	8.0			850.0	0.0	1.0							6.0	0.0	1.2618471542955376	6.0	950.0	4.0	5.0	8.0	8.0	0.0	part_2
266	4.0	8.0			850.0	0.0	1.0							5.0	0.0	0.0	0.0	950.0	2.0	8.0	6.0	5.0	1.0	part_2
267	1.0	8.0			900.0	0.0	0.0							6.0	0.0	0.37456933554494753	6.0	950.0	3.0	1.0	3.0	6.0	0.0	part_2
268	1.0	8.0			900.0	0.0	1.0							6.0	0.0	1.0622909151716158	6.0	950.0	4.0	5.0	8.0	8.0	0.0	part_2
269	3.0	8.0			900.0	0.0	1.0							5.0	0.0	0.5223239792976528	5.0	950.0	3.0	3.0	7.0	7.0	1.0	part_2
270	3.0	8.0			850.0	0.0	1.0							6.0	0.0	0.9413534397026524	6.0	950.0	3.0	3.0	7.0	7.0	1.0	part_2
271	4.0	8.0			850.0	0.0	1.0							5.0	0.0	0.0	0.0	900.0	4.0	5.0	8.0	8.0	1.0	part_2
272	1.0	8.0			900.0	0.0	0.0							6.0	0.0	0.4916508552269079	6.0	900.0	2.0	4.0	2.0	4.0	0.0	part_2
273	1.0	8.0			900.0	0.0	0.0							6.0	0.0	0.39116588432807475	6.0	900.0	4.0	2.0	4.0	3.0	0.0	part_2
274	1.0	8.0			900.0	0.0	0.0							5.0	0.0	0.3934181982767768	5.0	900.0	2.0	4.0	2.0	4.0	0.0	part_2
275	4.0	8.0			900.0	0.0	1.0							6.0	0.0	0.0	0.0	900.0	3.0	3.0	7.0	7.0	1.0	part_2
276	4.0	8.0			900.0	0.0	1.0							5.0	0.0	0.0	0.0	950.0	4.0	5.0	8.0	8.0	1.0	part_2
277	1.0	8.0			950.0	0.0	0.0							6.0	0.0	0.5292413182905875	6.0	950.0	3.0	1.0	3.0	6.0	0.0	part_2
278	1.0	8.0			950.0	0.0	0.0							5.0	0.0	0.37297751719597727	5.0	950.0	4.0	2.0	4.0	3.0	0.0	part_2
279	3.0	8.0			950.0	0.0	1.0							5.0	0.0	0.36294883844675496	5.0	950.0	3.0	3.0	7.0	7.0	1.0	part_2
280	4.0	8.0			900.0	0.0	1.0							6.0	0.0	0.0	0.0	950.0	2.0	8.0	6.0	5.0	1.0	part_2
281	1.0	8.0			900.0	0.0	0.0							5.0	0.0	0.4888075708877295	5.0	1000.0	3.0	1.0	3.0	6.0	0.0	part_2
282	1.0	8.0			900.0	0.0	0.0							5.0	0.0	0.38644925772678107	5.0	1000.0	4.0	2.0	4.0	3.0	0.0	part_2
283	1.0	8.0			900.0	0.0	0.0							5.0	0.0	0.3442423311062157	5.0	1000.0	2.0	4.0	2.0	4.0	0.0	part_2
284	1.0	8.0			900.0	0.0	0.0							6.0	0.0	0.42197407968342304	6.0	1000.0	4.0	2.0	4.0	3.0	0.0	part_2
285	1.0	8.0			900.0	0.0	1.0							6.0	0.0	1.199574571393896	6.0	1000.0	3.0	3.0	7.0	7.0	0.0	part_2
286	4.0	8.0			900.0	0.0	1.0							5.0	0.0	0.0	0.0	1000.0	2.0	8.0	6.0	5.0	1.0	part_2
287	4.0	8.0			950.0	0.0	1.0							6.0	0.0	0.0	0.0	1000.0	2.0	8.0	6.0	5.0	1.0	part_2
0	0.0	1.0	196.0	4.0	0.0	1.0	1.0	49.0	294.0	196.0	98.0	245.0	147.0	7.0	0.0	4.3003617115318775	3.0	0.0	1.0	7.0	5.0	1.0	0.0	part_3
1	0.0	1.0	147.0	3.0	0.0	1.0	0.0	245.0	98.0	294.0	147.0	196.0	49.0	7.0	0.0	4.7947505376068875	4.0	0.0	1.0	6.0	1.0	2.0	0.0	part_3
2	0.0	1.0	220.0	5.0	0.0	1.0	0.0	44.0	88.0	264.0	176.0	220.0	132.0	7.0	0.0	2.9114763128454797	5.0	0.0	4.0	2.0	4.0	3.0	0.0	part_3
3	0.0	1.0	196.0	4.0	0.0	1.0	0.0	196.0	49.0	147.0	294.0	98.0	245.0	7.0	0.0	2.1923202002071775	1.0	0.0	4.0	2.0	4.0	3.0	0.0	part_3
4	0.0	1.0	68.0	2.0	0.0	1.0	1.0	68.0	102.0	204.0	170.0	34.0	136.0	7.0	0.0	3.1726443138322793	1.0	0.0	4.0	5.0	8.0	8.0	0.0	part_3
5	0.0	1.0	264.0	6.0	0.0	2.0	0.0	220.0	176.0	264.0	44.0	132.0	88.0	7.0	0.0	0.9420733301667497	3.0	0.0	4.0	2.0	4.0	3.0	0.0	part_3
6	0.0	1.0	98.0	2.0	0.0	1.0	0.0	245.0	98.0	147.0	49.0	196.0	294.0	7.0	0.0	2.169407075154595	2.0	0.0	2.0	4.0	2.0	4.0	0.0	part_3
7	0.0	1.0	98.0	2.0	0.0	1.0	0.0	196.0	294.0	49.0	147.0	98.0	245.0	7.0	0.0	1.3141681453562342	5.0	0.0	2.0	4.0	2.0	4.0	0.0	part_3
8	0.0	1.0	108.0	2.0	0.0	1.0	1.0	270.0	216.0	108.0	54.0	324.0	162.0	7.0	0.0	1.8107585084508173	3.0	0.0	1.0	7.0	5.0	1.0	0.0	part_3
9	0.0	1.0	39.0	1.0	0.0	1.0	0.0	39.0	195.0	78.0	117.0	156.0	234.0	7.0	0.0	2.0925355079816654	1.0	0.0	2.0	4.0	2.0	4.0	0.0	part_3
10	0.0	1.0	78.0	2.0	0.0	1.0	1.0	156.0	195.0	117.0	39.0	234.0	78.0	7.0	0.0	1.5207823035889305	6.0	0.0	1.0	7.0	5.0	1.0	0.0	part_3
11	0.0	1.0	88.0	2.0	0.0	1.0	0.0	176.0	44.0	88.0	132.0	264.0	220.0	7.0	0.0	2.0395844022277743	3.0	0.0	1.0	6.0	1.0	2.0	0.0	part_3
12	0.0	1.0	170.0	5.0	0.0	1.0	0.0	204.0	34.0	136.0	170.0	68.0	102.0	7.0	0.0	2.016982102068141	4.0	0.0	4.0	2.0	4.0	3.0	0.0	part_3
13	0.0	1.0	68.0	2.0	0.0	1.0	1.0	34.0	68.0	136.0	204.0	170.0	102.0	7.0	0.0	1.9730086122290231	2.0	0.0	2.0	8.0	6.0	5.0	0.0	part_3
14	0.0	1.0	108.0	2.0	0.0	1.0	0.0	270.0	54.0	108.0	162.0	216.0	324.0	7.0	0.0	2.5950778127880767	3.0	0.0	3.0	1.0	3.0	6.0	0.0	part_3
15	0.0	1.0	39.0	1.0	0.0	1.0	1.0	78.0	195.0	156.0	39.0	117.0	234.0	7.0	0.0	1.1782662047771737	4.0	0.0	1.0	7.0	5.0	1.0	0.0	part_3
16	0.0	1.0	49.0	1.0	0.0	1.0	1.0	98.0	147.0	294.0	245.0	49.0	196.0	7.0	0.0	1.1678158593713306	5.0	0.0	1.0	7.0	5.0	1.0	0.0	part_3
17	0.0	1.0	147.0	3.0	0.0	1.0	1.0	196.0	245.0	147.0	98.0	294.0	49.0	7.0	0.0	2.6529509221436456	3.0	0.0	3.0	3.0	7.0	7.0	0.0	part_3
18	0.0	1.0	204.0	6.0	0.0	1.0	0.0	34.0	68.0	170.0	204.0	136.0	102.0	7.0	0.0	1.4621124916011468	4.0	0.0	4.0	2.0	4.0	3.0	0.0	part_3
19	0.0	1.0	245.0	5.0	0.0	1.0	1.0	196.0	294.0	245.0	49.0	147.0	98.0	7.0	0.0	1.4735645542968996	3.0	0.0	4.0	5.0	8.0	8.0	0.0	part_3
20	0.0	2.0	170.0	5.0	0.0	1.0	0.0	170.0	102.0	136.0	34.0	204.0	68.0	7.0	0.0	1.5713872764608823	1.0	0.0	1.0	6.0	1.0	2.0	0.0	part_3
21	0.0	2.0	34.0	1.0	0.0	1.0	0.0	170.0	204.0	102.0	68.0	34.0	136.0	7.0	0.0	1.213151917734649	5.0	0.0	2.0	4.0	2.0	4.0	0.0	part_3
22	0.0	2.0	39.0	1.0	0.0	1.0	1.0	117.0	156.0	195.0	78.0	39.0	234.0	7.0	0.0	1.0893308353843167	5.0	0.0	2.0	8.0	6.0	5.0	0.0	part_3
23	0.0	2.0	68.0	2.0	0.0	1.0	1.0	102.0	170.0	68.0	136.0	34.0	204.0	7.0	0.0	1.0691829338902608	3.0	0.0	1.0	7.0	5.0	1.0	0.0	part_3
24	0.0	2.0	108.0	2.0	0.0	1.0	0.0	54.0	216.0	162.0	270.0	108.0	324.0	7.0	0.0	1.3497890164726414	5.0	0.0	2.0	4.0	2.0	4.0	0.0	part_3
25	0.0	2.0	49.0	1.0	0.0	1.0	0.0	98.0	196.0	147.0	49.0	294.0	245.0	7.0	0.0	1.1488308158586733	4.0	0.0	3.0	1.0	3.0	6.0	0.0	part_3
26	0.0	2.0	54.0	1.0	0.0	1.0	0.0	324.0	162.0	270.0	216.0	108.0	54.0	7.0	0.0	0.9025110367801972	6.0	0.0	3.0	1.0	3.0	6.0	0.0	part_3
27	0.0	2.0	68.0	2.0	0.0	1.0	1.0	136.0	68.0	34.0	170.0	102.0	204.0	7.0	0.0	0.803322892752476	2.0	0.0	3.0	3.0	7.0	7.0	0.0	part_3
28	0.0	2.0	234.0	6.0	0.0	1.0	0.0	78.0	195.0	117.0	156.0	39.0	234.0	7.0	0.0	1.052303412288893	6.0	0.0	4.0	2.0	4.0	3.0	0.0	part_3
29	0.0	2.0	54.0	1.0	0.0	1.0	1.0	108.0	324.0	216.0	270.0	54.0	162.0	7.0	0.0	0.873128148377873	5.0	0.0	3.0	3.0	7.0	7.0	0.0	part_3
30	0.0	2.0	34.0	1.0	0.0	1.0	1.0	136.0	170.0	204.0	68.0	102.0	34.0	7.0	0.0	0.8728555472916923	6.0	0.0	2.0	8.0	6.0	5.0	0.0	part_3
31	0.0	2.0	270.0	5.0	0.0	1.0	0.0	270.0	162.0	324.0	54.0	108.0	216.0	7.0	0.0	1.3933360012015328	1.0	0.0	4.0	2.0	4.0	3.0	0.0	part_3
32	0.0	2.0	78.0	2.0	0.0	1.0	1.0	234.0	195.0	78.0	39.0	156.0	117.0	7.0	0.0	0.8756300377426669	3.0	0.0	3.0	3.0	7.0	7.0	0.0	part_3
33	0.0	2.0	68.0	2.0	0.0	1.0	0.0	136.0	102.0	204.0	68.0	170.0	34.0	7.0	0.0	1.327341936645098	4.0	0.0	3.0	1.0	3.0	6.0	0.0	part_3
34	0.0	2.0	220.0	5.0	0.0	1.0	1.0	220.0	88.0	264.0	44.0	132.0	176.0	7.0	0.0	1.2708040341967717	1.0	0.0	4.0	5.0	8.0	8.0	0.0	part_3
35	0.0	2.0	68.0	2.0	0.0	1.0	0.0	204.0	170.0	136.0	68.0	34.0	102.0	7.0	0.0	0.8333492612000555	4.0	0.0	3.0	1.0	3.0	6.0	0.0	part_3
36	0.0	2.0	220.0	5.0	0.0	1.0	1.0	220.0	176.0	44.0	132.0	264.0	88.0	7.0	0.0	1.262051506957505	1.0	0.0	4.0	5.0	8.0	8.0	0.0	part_3
37	0.0	2.0	54.0	1.0	0.0	1.0	0.0	216.0	108.0	162.0	270.0	324.0	54.0	7.0	0.0	1.5899434424936771	6.0	0.0	1.0	6.0	1.0	2.0	0.0	part_3
38	0.0	2.0	49.0	1.0	0.0	1.0	1.0	49.0	98.0	294.0	245.0	147.0	196.0	7.0	0.0	1.0171102932654321	1.0	0.0	2.0	8.0	6.0	5.0	0.0	part_3
39	0.0	2.0	234.0	6.0	0.0	1.0	0.0	39.0	117.0	195.0	156.0	78.0	234.0	7.0	0.0	1.1766705685877241	6.0	0.0	1.0	6.0	1.0	2.0	0.0	part_3
40	0.0	3.0	88.0	2.0	0.0	1.0	1.0	88.0	264.0	132.0	176.0	220.0	44.0	7.0	0.0	1.4806080984999426	1.0	0.0	2.0	8.0	6.0	5.0	0.0	part_3
41	0.0	3.0	39.0	1.0	0.0	1.0	1.0	39.0	117.0	78.0	156.0	234.0	195.0	7.0	0.0	1.246984108351171	1.0	0.0	3.0	3.0	7.0	7.0	0.0	part_3
42	0.0	3.0	88.0	2.0	0.0	1.0	0.0	264.0	220.0	88.0	176.0	44.0	132.0	7.0	0.0	1.641671562276315	3.0	0.0	3.0	1.0	3.0	6.0	0.0	part_3
43	0.0	3.0	108.0	2.0	0.0	1.0	0.0	162.0	108.0	54.0	270.0	216.0	324.0	7.0	0.0	1.551456549204886	2.0	0.0	2.0	4.0	2.0	4.0	0.0	part_3
44	0.0	3.0	132.0	3.0	0.0	1.0	1.0	132.0	44.0	176.0	264.0	88.0	220.0	7.0	0.0	1.4071915664244443	1.0	0.0	3.0	3.0	7.0	7.0	0.0	part_3
45	0.0	3.0	78.0	2.0	0.0	1.0	0.0	234.0	78.0	39.0	195.0	117.0	156.0	7.0	0.0	1.0583508345880546	2.0	0.0	2.0	4.0	2.0	4.0	0.0	part_3
46	0.0	3.0	78.0	2.0	0.0	1.0	0.0	39.0	195.0	234.0	156.0	78.0	117.0	7.0	0.0	1.3859163431916386	5.0	0.0	3.0	1.0	3.0	6.0	0.0	part_3
47	0.0	3.0	176.0	4.0	0.0	1.0	0.0	264.0	176.0	132.0	44.0	220.0	88.0	7.0	0.0	2.230931549507659	2.0	0.0	2.0	4.0	2.0	4.0	0.0	part_3
48	0.0	3.0	44.0	1.0	0.0	1.0	1.0	264.0	176.0	88.0	220.0	132.0	44.0	7.0	0.0	1.186047090392094	6.0	0.0	2.0	8.0	6.0	5.0	0.0	part_3
49	0.0	3.0	195.0	5.0	0.0	1.0	1.0	39.0	195.0	156.0	234.0	78.0	117.0	7.0	0.0	1.7957252942724153	2.0	0.0	4.0	5.0	8.0	8.0	0.0	part_3
50	0.0	3.0	54.0	1.0	0.0	1.0	1.0	108.0	162.0	54.0	324.0	216.0	270.0	7.0	0.0	1.3355669965967536	3.0	0.0	2.0	8.0	6.0	5.0	0.0	part_3
51	0.0	3.0	270.0	5.0	0.0	1.0	1.0	54.0	270.0	108.0	216.0	324.0	162.0	7.0	0.0	2.5726109907845967	2.0	0.0	4.0	5.0	8.0	8.0	0.0	part_3
52	0.0	3.0	39.0	1.0	0.0	1.0	0.0	117.0	195.0	39.0	234.0	78.0	156.0	7.0	0.0	0.9758986418601125	3.0	0.0	1.0	6.0	1.0	2.0	0.0	part_3
53	0.0	3.0	49.0	1.0	0.0	1.0	1.0	245.0	294.0	98.0	196.0	147.0	49.0	7.0	0.0	1.147576434421353	6.0	0.0	2.0	8.0	6.0	5.0	0.0	part_3
54	0.0	3.0	98.0	2.0	0.0	1.0	0.0	294.0	147.0	245.0	98.0	49.0	196.0	7.0	0.0	1.0576194796012715	4.0	0.0	3.0	1.0	3.0	6.0	0.0	part_3
55	0.0	3.0	34.0	1.0	0.0	1.0	0.0	34.0	136.0	170.0	102.0	68.0	204.0	7.0	0.0	1.317367093754001	1.0	0.0	1.0	6.0	1.0	2.0	0.0	part_3
56	0.0	3.0	195.0	5.0	0.0	1.0	0.0	78.0	117.0	39.0	156.0	195.0	234.0	7.0	0.0	1.5330334504833445	5.0	0.0	4.0	2.0	4.0	3.0	0.0	part_3
57	0.0	3.0	170.0	5.0	0.0	1.0	1.0	102.0	34.0	204.0	68.0	170.0	136.0	7.0	0.0	0.9814885533414781	5.0	0.0	4.0	5.0	8.0	8.0	0.0	part_3
58	0.0	3.0	195.0	5.0	0.0	1.0	1.0	156.0	195.0	234.0	117.0	78.0	39.0	7.0	0.0	1.0175409438670613	2.0	0.0	4.0	5.0	8.0	8.0	0.0	part_3
59	0.0	3.0	136.0	4.0	0.0	1.0	1.0	204.0	34.0	68.0	136.0	170.0	102.0	7.0	0.0	1.3104979914496653	4.0	0.0	3.0	3.0	7.0	7.0	0.0	part_3
60	0.0	4.0	88.0	2.0	0.0	1.0	0.0	132.0	88.0	176.0	264.0	220.0	44.0	7.0	0.0	0.7144384605926462	2.0	0.0	1.0	6.0	1.0	2.0	0.0	part_3
61	0.0	4.0	196.0	4.0	0.0	1.0	1.0	294.0	49.0	98.0	196.0	245.0	147.0	7.0	0.0	0.9757887059822679	4.0	0.0	4.0	5.0	8.0	8.0	0.0	part_3
62	0.0	4.0	132.0	3.0	0.0	1.0	1.0	132.0	264.0	220.0	176.0	44.0	88.0	7.0	0.0	1.2462643762119114	1.0	0.0	1.0	7.0	5.0	1.0	0.0	part_3
63	0.0	4.0	39.0	1.0	0.0	1.0	1.0	195.0	117.0	156.0	39.0	78.0	234.0	7.0	0.0	1.2589332928764634	4.0	0.0	2.0	8.0	6.0	5.0	0.0	part_3
64	0.0	4.0	88.0	2.0	0.0	1.0	1.0	220.0	44.0	88.0	264.0	132.0	176.0	7.0	0.0	1.2380086503690109	3.0	0.0	3.0	3.0	7.0	7.0	0.0	part_3
65	0.0	4.0	170.0	5.0	0.0	1.0	1.0	170.0	204.0	34.0	68.0	136.0	102.0	7.0	0.0	1.114684005617164	1.0	0.0	1.0	7.0	5.0	1.0	0.0	part_3
66	0.0	4.0	44.0	1.0	0.0	1.0	0.0	220.0	88.0	264.0	176.0	44.0	132.0	7.0	0.0	0.9594283655751497	5.0	0.0	2.0	4.0	2.0	4.0	0.0	part_3
67	0.0	4.0	49.0	1.0	0.0	1.0	1.0	49.0	196.0	294.0	147.0	98.0	245.0	7.0	0.0	0.9257337424205616	1.0	0.0	3.0	3.0	7.0	7.0	0.0	part_3
68	0.0	4.0	54.0	1.0	0.0	1.0	1.0	162.0	324.0	216.0	108.0	54.0	270.0	7.0	0.0	0.7687567048706114	5.0	0.0	3.0	3.0	7.0	7.0	0.0	part_3
69	0.0	4.0	108.0	2.0	0.0	1.0	1.0	216.0	324.0	54.0	162.0	108.0	270.0	7.0	0.0	2.1537269126274623	5.0	0.0	1.0	7.0	5.0	1.0	0.0	part_3
70	0.0	4.0	294.0	6.0	0.0	1.0	0.0	196.0	98.0	245.0	294.0	147.0	49.0	7.0	0.0	1.0193532420671545	4.0	0.0	4.0	2.0	4.0	3.0	0.0	part_3
71	0.0	4.0	78.0	2.0	0.0	1.0	0.0	195.0	39.0	156.0	234.0	78.0	117.0	7.0	0.0	1.0546460508485325	5.0	0.0	3.0	1.0	3.0	6.0	0.0	part_3
72	0.0	4.0	49.0	1.0	0.0	1.0	0.0	49.0	294.0	147.0	98.0	245.0	196.0	7.0	0.0	1.223561578837689	1.0	0.0	1.0	6.0	1.0	2.0	0.0	part_3
73	0.0	4.0	324.0	6.0	0.0	1.0	0.0	270.0	108.0	162.0	216.0	324.0	54.0	7.0	0.0	1.3156224708654918	5.0	0.0	4.0	2.0	4.0	3.0	0.0	part_3
74	0.0	4.0	54.0	1.0	0.0	1.0	1.0	108.0	270.0	216.0	324.0	54.0	162.0	7.0	0.0	0.7075459894258529	5.0	0.0	2.0	8.0	6.0	5.0	0.0	part_3
75	0.0	4.0	102.0	3.0	0.0	1.0	0.0	68.0	102.0	136.0	34.0	170.0	204.0	7.0	0.0	1.0028507587267086	2.0	0.0	2.0	4.0	2.0	4.0	0.0	part_3
76	0.0	4.0	132.0	3.0	0.0	1.0	1.0	264.0	220.0	132.0	88.0	44.0	176.0	7.0	0.0	1.5433353708940558	3.0	0.0	1.0	7.0	5.0	1.0	0.0	part_3
77	0.0	4.0	270.0	5.0	0.0	1.0	1.0	270.0	54.0	162.0	324.0	216.0	108.0	7.0	0.0	2.612113232840784	1.0	0.0	4.0	5.0	8.0	8.0	0.0	part_3
78	0.0	4.0	162.0	3.0	0.0	1.0	0.0	162.0	54.0	216.0	324.0	270.0	108.0	7.0	0.0	1.433018120646011	1.0	0.0	1.0	6.0	1.0	2.0	0.0	part_3
79	0.0	4.0	44.0	1.0	0.0	1.0	0.0	220.0	88.0	132.0	176.0	44.0	264.0	7.0	0.0	1.1186706515727565	5.0	0.0	3.0	1.0	3.0	6.0	0.0	part_3
