	accuracy	block	chosen_bidding_amount	chosen_bidding_level	left_SSD	num_trial_presentations	paired_with_stopping	possible_bid_1	possible_bid_2	possible_bid_3	possible_bid_4	possible_bid_5	possible_bid_6	quadrant	raw_reward_magnitude	reaction_time	response	right_SSD	stepwise_reward_magnitude	stim_color	stim_reward	stim_shape	stop_signal_trial_type	which_part
0		1.0				1.0	0.0							1.0	0.0	0.40716855553910136	1.0		0.0	5.0	2.0	6.0		part_1
1		1.0				1.0	1.0							4.0	223.0	0.45205049286596477	4.0		3.0	6.0	7.0	4.0		part_1
2		1.0				1.0	0.0							3.0	420.0	0.39813055098056793	3.0		4.0	8.0	4.0	2.0		part_1
3		1.0				1.0	1.0							2.0	421.0	0.3530326869804412	2.0		4.0	3.0	8.0	8.0		part_1
4		1.0				1.0	1.0							1.0	46.0	0.42017586599104106	1.0		1.0	7.0	5.0	5.0		part_1
5		1.0				1.0	0.0							3.0	0.0	0.3874206943437457	3.0		0.0	4.0	3.0	3.0		part_1
6		1.0				1.0	0.0							1.0	398.0	0.37702785013243556	1.0		4.0	8.0	4.0	2.0		part_1
7		1.0				1.0	0.0							2.0	0.0	0.35575916222296655	2.0		0.0	8.0	4.0	2.0		part_1
8		1.0				1.0	1.0							4.0	398.0	0.3340305113233626	4.0		4.0	3.0	8.0	8.0		part_1
9		1.0				1.0	1.0							2.0	213.0	0.3793319601099938	2.0		3.0	6.0	7.0	4.0		part_1
10		1.0				1.0	1.0							1.0	0.0	0.3453891952522099	1.0		0.0	7.0	5.0	5.0		part_1
11		1.0				1.0	0.0							4.0	215.0	0.3003988629207015	4.0		3.0	4.0	3.0	3.0		part_1
12		1.0				1.0	1.0							4.0	0.0	0.3931522089987993	4.0		0.0	6.0	7.0	4.0		part_1
13		1.0				1.0	0.0							1.0	180.0	0.31288494006730616	1.0		3.0	4.0	3.0	3.0		part_1
14		1.0				1.0	1.0							3.0	0.0	0.336068878415972	3.0		0.0	2.0	6.0	7.0		part_1
15		1.0				1.0	0.0							4.0	0.0	0.3713715528137982	4.0		0.0	8.0	4.0	2.0		part_1
16		1.0				1.0	0.0							1.0	35.0	0.31648268760181963	1.0		1.0	1.0	1.0	1.0		part_1
17		1.0				1.0	1.0							3.0	197.0	0.32548870937898755	3.0		3.0	6.0	7.0	4.0		part_1
18		1.0				1.0	0.0							2.0	215.0	0.3154353208374232	2.0		3.0	4.0	3.0	3.0		part_1
19		1.0				1.0	1.0							2.0	42.0	0.3611526284366846	2.0		1.0	7.0	5.0	5.0		part_1
20		1.0				1.0	0.0							1.0	0.0	0.4179490697570145	1.0		0.0	8.0	4.0	2.0		part_1
21		1.0				1.0	1.0							2.0	0.0	0.2952160919085145	2.0		0.0	7.0	5.0	5.0		part_1
22		1.0				1.0	0.0							4.0	110.0	0.3292697803117335	4.0		2.0	5.0	2.0	6.0		part_1
23		1.0				1.0	0.0							2.0	112.0	0.8263548095710576	2.0		2.0	5.0	2.0	6.0		part_1
24		1.0				1.0	0.0							2.0	38.0	0.35344128613360226	2.0		1.0	1.0	1.0	1.0		part_1
25		1.0				1.0	1.0							3.0	0.0	0.3419075084384531	3.0		0.0	6.0	7.0	4.0		part_1
26		1.0				1.0	0.0							3.0	417.0	0.332239881856367	3.0		4.0	8.0	4.0	2.0		part_1
27		1.0				1.0	1.0							1.0	0.0	0.2983399403747171	1.0		0.0	3.0	8.0	8.0		part_1
28		1.0				1.0	0.0							3.0	0.0	0.343762069940567	3.0		0.0	5.0	2.0	6.0		part_1
29		1.0				1.0	0.0							1.0	95.0	0.29920342890545726	1.0		2.0	5.0	2.0	6.0		part_1
30		1.0				1.0	1.0							1.0	179.0	0.3460955354385078	1.0		3.0	6.0	7.0	4.0		part_1
31		1.0				1.0	1.0							3.0	0.0	0.33493441133759916	3.0		0.0	6.0	7.0	4.0		part_1
32		1.0				1.0	1.0							4.0	204.0	0.35660183685831726	4.0		3.0	6.0	7.0	4.0		part_1
33		1.0				1.0	0.0							4.0	0.0	0.35728194611147046	4.0		0.0	1.0	1.0	1.0		part_1
34		1.0				1.0	0.0							3.0	109.0	0.3362329669762403	3.0		2.0	5.0	2.0	6.0		part_1
35		1.0				1.0	0.0							1.0	101.0	0.2806656190659851	1.0		2.0	5.0	2.0	6.0		part_1
36		1.0				1.0	1.0							2.0	95.0	0.29349444061517715	2.0		2.0	2.0	6.0	7.0		part_1
37		1.0				1.0	1.0							3.0	113.0	0.3036108878441155	3.0		2.0	2.0	6.0	7.0		part_1
38		1.0				1.0	1.0							2.0	47.0	0.31735095800831914	2.0		1.0	7.0	5.0	5.0		part_1
39		1.0				1.0	0.0							3.0	400.0	0.35013270704075694	3.0		4.0	8.0	4.0	2.0		part_1
40		1.0				1.0	1.0							4.0	176.0	0.32979730097576976	4.0		3.0	6.0	7.0	4.0		part_1
41		1.0				1.0	0.0							3.0	0.0	0.35002462286502123	3.0		0.0	1.0	1.0	1.0		part_1
42		1.0				1.0	1.0							2.0	418.0	0.3408013537991792	2.0		4.0	3.0	8.0	8.0		part_1
43		1.0				1.0	1.0							1.0	97.0	0.2960367139894515	1.0		2.0	2.0	6.0	7.0		part_1
44		1.0				1.0	0.0							4.0	34.0	0.39835701836273074	4.0		1.0	1.0	1.0	1.0		part_1
45		1.0				1.0	1.0							2.0	28.0	0.3547848060261458	2.0		1.0	7.0	5.0	5.0		part_1
46		1.0				1.0	0.0							4.0	395.0	0.3528091683983803	4.0		4.0	8.0	4.0	2.0		part_1
47		1.0				1.0	0.0							4.0	0.0	0.3546353681012988	4.0		0.0	1.0	1.0	1.0		part_1
48		1.0				1.0	0.0							1.0	60.0	0.3671363366302103	1.0		1.0	1.0	1.0	1.0		part_1
49		1.0				1.0	1.0							4.0	44.0	0.3567786398343742	4.0		1.0	7.0	5.0	5.0		part_1
50		1.0				1.0	1.0							3.0	215.0	0.3211830414365977	3.0		3.0	6.0	7.0	4.0		part_1
51		1.0				1.0	1.0							3.0	381.0	0.32248282595537603	3.0		4.0	3.0	8.0	8.0		part_1
52		1.0				1.0	0.0							1.0	109.0	0.3006963685620576	1.0		2.0	5.0	2.0	6.0		part_1
53		1.0				1.0	1.0							1.0	71.0	0.3366067549213767	1.0		1.0	7.0	5.0	5.0		part_1
54		1.0				1.0	1.0							3.0	60.0	0.3134532819967717	3.0		1.0	7.0	5.0	5.0		part_1
55		1.0				1.0	1.0							2.0	205.0	0.3477728117723018	2.0		3.0	6.0	7.0	4.0		part_1
56		1.0				1.0	1.0							4.0	0.0	0.34896636405028403	4.0		0.0	2.0	6.0	7.0		part_1
57		1.0				1.0	1.0							1.0	180.0	0.3032948912587017	1.0		3.0	6.0	7.0	4.0		part_1
58		1.0				1.0	1.0							1.0	201.0	0.36051786225289106	1.0		3.0	6.0	7.0	4.0		part_1
59		1.0				1.0	0.0							4.0	0.0	0.32831292296759784	4.0		0.0	1.0	1.0	1.0		part_1
60		1.0				1.0	0.0							4.0	394.0	0.35033976240083575	4.0		4.0	8.0	4.0	2.0		part_1
61		1.0				1.0	1.0							1.0	52.0	0.30735438130795956	1.0		1.0	7.0	5.0	5.0		part_1
62		1.0				1.0	1.0							3.0	400.0	0.29462693468667567	3.0		4.0	3.0	8.0	8.0		part_1
63		1.0				1.0	1.0							1.0	180.0	0.2745417049154639	1.0		3.0	6.0	7.0	4.0		part_1
64		1.0				1.0	0.0							3.0	424.0	0.2970230176579207	3.0		4.0	8.0	4.0	2.0		part_1
65		1.0				1.0	1.0							3.0	199.0	0.30759488651528955	3.0		3.0	6.0	7.0	4.0		part_1
66		1.0				1.0	1.0							4.0	0.0	0.29807338188402355	4.0		0.0	6.0	7.0	4.0		part_1
67		1.0				1.0	1.0							1.0	121.0	0.32167051546275616	1.0		2.0	2.0	6.0	7.0		part_1
68		1.0				1.0	0.0							4.0	59.0	0.3433750045951456	4.0		1.0	1.0	1.0	1.0		part_1
69		1.0				2.0	1.0							2.0	418.0	0.3908051287289709	2.0		4.0	3.0	8.0	8.0		part_1
70		1.0				1.0	0.0							3.0	392.0	0.3796069270465523	3.0		4.0	8.0	4.0	2.0		part_1
71		1.0				1.0	0.0							1.0	192.0	0.3122254202608019	1.0		3.0	4.0	3.0	3.0		part_1
72		1.0				1.0	0.0							4.0	59.0	0.3794859927147627	4.0		1.0	1.0	1.0	1.0		part_1
73		1.0				1.0	1.0							3.0	392.0	0.3681429165881127	3.0		4.0	3.0	8.0	8.0		part_1
74		1.0				1.0	1.0							4.0	78.0	0.4481855914928019	4.0		2.0	2.0	6.0	7.0		part_1
75		1.0				1.0	0.0							2.0	414.0	0.3257886217907071	2.0		4.0	8.0	4.0	2.0		part_1
76		1.0				1.0	0.0							2.0	411.0	0.4279543512966484	2.0		4.0	8.0	4.0	2.0		part_1
77		1.0				1.0	0.0							4.0	414.0	0.5295979690272361	4.0		4.0	8.0	4.0	2.0		part_1
78		1.0				1.0	1.0							3.0	0.0	0.36186478147283196	3.0		0.0	7.0	5.0	5.0		part_1
79		1.0				1.0	0.0							2.0	206.0	0.3958807208109647	2.0		3.0	4.0	3.0	3.0		part_1
80		1.0				1.0	0.0							2.0	51.0	0.36108361976221204	2.0		1.0	1.0	1.0	1.0		part_1
81		1.0				1.0	0.0							4.0	82.0	0.46325289364904165	4.0		2.0	5.0	2.0	6.0		part_1
82		1.0				1.0	1.0							2.0	403.0	0.373674183152616	2.0		4.0	3.0	8.0	8.0		part_1
83		1.0				1.0	0.0							1.0	0.0	0.3538208350073546	1.0		0.0	1.0	1.0	1.0		part_1
84		1.0				1.0	0.0							4.0	0.0	0.47662677499465644	4.0		0.0	1.0	1.0	1.0		part_1
85		1.0				1.0	0.0							4.0	121.0	0.5562080945819616	4.0		2.0	5.0	2.0	6.0		part_1
86		1.0				1.0	0.0							4.0	123.0	0.39870433672331274	4.0		2.0	5.0	2.0	6.0		part_1
87		1.0				1.0	0.0							4.0	421.0	0.39856257499195635	4.0		4.0	8.0	4.0	2.0		part_1
88		1.0				1.0	0.0							4.0	0.0	0.41225374140776694	4.0		0.0	1.0	1.0	1.0		part_1
89		1.0				1.0	0.0							4.0	39.0	0.41182422265410423	4.0		1.0	1.0	1.0	1.0		part_1
90		1.0				1.0	1.0							3.0	394.0	0.4006667935755104	3.0		4.0	3.0	8.0	8.0		part_1
91		1.0				1.0	1.0							4.0	379.0	0.4138830127194524	4.0		4.0	3.0	8.0	8.0		part_1
92		1.0				1.0	0.0							3.0	218.0	0.378638980910182	3.0		3.0	4.0	3.0	3.0		part_1
93		1.0				1.0	0.0							2.0	179.0	0.3798702545464039	2.0		3.0	4.0	3.0	3.0		part_1
94		1.0				1.0	1.0							1.0	385.0	0.35881045553833246	1.0		4.0	3.0	8.0	8.0		part_1
95		1.0				1.0	1.0							3.0	74.0	0.3584848374594003	3.0		1.0	7.0	5.0	5.0		part_1
96		1.0				1.0	1.0							3.0	34.0	0.35890936641953886	3.0		1.0	7.0	5.0	5.0		part_1
97		1.0				1.0	1.0							3.0	0.0	0.41563960746861994	3.0		0.0	2.0	6.0	7.0		part_1
98		1.0				1.0	1.0							1.0	0.0	0.36134035186842084	1.0		0.0	2.0	6.0	7.0		part_1
99		1.0				1.0	1.0							3.0	402.0	0.35018229065462947	3.0		4.0	3.0	8.0	8.0		part_1
100		2.0				1.0	0.0							4.0	176.0	0.3991476404480636	4.0		3.0	4.0	3.0	3.0		part_1
101		2.0				1.0	1.0							3.0	192.0	0.3204783087130636	3.0		3.0	6.0	7.0	4.0		part_1
102		2.0				1.0	1.0							2.0	83.0	0.3348672667052597	2.0		2.0	2.0	6.0	7.0		part_1
103		2.0				1.0	1.0							3.0	60.0	0.35634654806926847	3.0		1.0	7.0	5.0	5.0		part_1
104		2.0				1.0	0.0							3.0	214.0	0.36812590435147285	3.0		3.0	4.0	3.0	3.0		part_1
105		2.0				2.0	0.0							3.0	197.0	0.39121031016111374	3.0		3.0	4.0	3.0	3.0		part_1
106		2.0				1.0	1.0							3.0	376.0	0.3913662191480398	3.0		4.0	3.0	8.0	8.0		part_1
107		2.0				1.0	0.0							1.0	393.0	0.47329974407330155	1.0		4.0	8.0	4.0	2.0		part_1
108		2.0				1.0	0.0							4.0	193.0	0.4283580225892365	4.0		3.0	4.0	3.0	3.0		part_1
109		2.0				1.0	1.0							4.0	206.0	0.5732019194401801	4.0		3.0	6.0	7.0	4.0		part_1
110		2.0				1.0	0.0							3.0	74.0	0.4163568641524762	3.0		1.0	1.0	1.0	1.0		part_1
111		2.0				1.0	1.0							1.0	222.0	0.5078794113360345	1.0		3.0	6.0	7.0	4.0		part_1
112		2.0				1.0	1.0							4.0	0.0	0.3959523669909686	4.0		0.0	7.0	5.0	5.0		part_1
113		2.0				1.0	0.0							4.0	85.0	0.4187622149474919	4.0		2.0	5.0	2.0	6.0		part_1
114		2.0				1.0	1.0							1.0	39.0	0.4530186776537448	1.0		1.0	7.0	5.0	5.0		part_1
115		2.0				1.0	0.0							2.0	418.0	0.3412058399990201	2.0		4.0	8.0	4.0	2.0		part_1
116		2.0				1.0	1.0							3.0	0.0	0.4320963006466627	3.0		0.0	7.0	5.0	5.0		part_1
117		2.0				1.0	0.0							4.0	70.0	0.5563363959081471	4.0		1.0	1.0	1.0	1.0		part_1
118		2.0				1.0	0.0							4.0	223.0	0.5780179565772414	4.0		3.0	4.0	3.0	3.0		part_1
119		2.0				1.0	1.0							1.0	109.0	0.41190252895466983	1.0		2.0	2.0	6.0	7.0		part_1
120		2.0				1.0	0.0							4.0	0.0	0.44601136539131403	4.0		0.0	5.0	2.0	6.0		part_1
121		2.0				1.0	1.0							3.0	417.0	0.4916207520291209	3.0		4.0	3.0	8.0	8.0		part_1
122		2.0				1.0	1.0							2.0	103.0	0.42538905004039407	2.0		2.0	2.0	6.0	7.0		part_1
123		2.0				1.0	1.0							1.0	404.0	0.4357361113652587	1.0		4.0	3.0	8.0	8.0		part_1
124		2.0				1.0	0.0							2.0	39.0	0.42481203516945243	2.0		1.0	1.0	1.0	1.0		part_1
125		2.0				1.0	1.0							3.0	96.0	0.43763668229803443	3.0		2.0	2.0	6.0	7.0		part_1
126		2.0				1.0	1.0							2.0	123.0	0.44956157449632883	2.0		2.0	2.0	6.0	7.0		part_1
127		2.0				1.0	1.0							2.0	108.0	0.41550287138670683	2.0		2.0	2.0	6.0	7.0		part_1
128		2.0				1.0	0.0							3.0	0.0	0.3821349749341607	3.0		0.0	8.0	4.0	2.0		part_1
129		2.0				1.0	0.0							2.0	75.0	0.40584289166145027	2.0		1.0	1.0	1.0	1.0		part_1
130		2.0				1.0	0.0							1.0	74.0	0.4277898729778826	1.0		1.0	1.0	1.0	1.0		part_1
131		2.0				1.0	1.0							4.0	220.0	0.41831438383087516	4.0		3.0	6.0	7.0	4.0		part_1
132		2.0				1.0	0.0							2.0	31.0	0.3617800639476627	2.0		1.0	1.0	1.0	1.0		part_1
133		2.0				1.0	1.0							4.0	414.0	0.39707358786836267	4.0		4.0	3.0	8.0	8.0		part_1
134		2.0				1.0	0.0							1.0	207.0	0.5315839143004268	1.0		3.0	4.0	3.0	3.0		part_1
135		2.0				1.0	1.0							4.0	70.0	0.7456252363044769	4.0		1.0	7.0	5.0	5.0		part_1
136		2.0				1.0	0.0							4.0	44.0	0.6448682791087776	4.0		1.0	1.0	1.0	1.0		part_1
137		2.0				1.0	0.0							3.0	84.0	0.588287360034883	3.0		2.0	5.0	2.0	6.0		part_1
138		2.0				1.0	0.0							4.0	378.0	0.5102687431499362	4.0		4.0	8.0	4.0	2.0		part_1
139		2.0				1.0	1.0							3.0	0.0	0.42089287005364895	3.0		0.0	3.0	8.0	8.0		part_1
140		2.0				1.0	1.0							3.0	214.0	0.41099621169269085	3.0		3.0	6.0	7.0	4.0		part_1
141		2.0				1.0	0.0							3.0	0.0	0.38813140732236207	3.0		0.0	5.0	2.0	6.0		part_1
142		2.0				1.0	1.0							3.0	101.0	0.4013353786431253	3.0		2.0	2.0	6.0	7.0		part_1
143		2.0				1.0	1.0							2.0	109.0	0.37927910196594894	2.0		2.0	2.0	6.0	7.0		part_1
144		2.0				1.0	1.0							1.0	0.0	0.3798892479389906	1.0		0.0	3.0	8.0	8.0		part_1
145		2.0				1.0	1.0							2.0	186.0	0.4038484168704599	2.0		3.0	6.0	7.0	4.0		part_1
146		2.0				1.0	1.0							1.0	0.0	0.44846998644061387	1.0		0.0	3.0	8.0	8.0		part_1
147		2.0				1.0	1.0							1.0	57.0	0.5174549417570233	1.0		1.0	7.0	5.0	5.0		part_1
148		2.0				1.0	1.0							1.0	82.0	0.4390356163494289	1.0		2.0	2.0	6.0	7.0		part_1
149		2.0				1.0	0.0							4.0	0.0	0.42796440818347037	4.0		0.0	8.0	4.0	2.0		part_1
150		2.0				1.0	0.0							3.0	0.0	0.43916857172735035	3.0		0.0	8.0	4.0	2.0		part_1
151		2.0				1.0	1.0							2.0	121.0	0.4187449007295072	2.0		2.0	2.0	6.0	7.0		part_1
152		2.0				1.0	0.0							3.0	41.0	0.36127217789180577	3.0		1.0	1.0	1.0	1.0		part_1
153		2.0				1.0	0.0							2.0	92.0	0.4078357983380556	2.0		2.0	5.0	2.0	6.0		part_1
154		2.0				1.0	0.0							3.0	42.0	0.4296992577146739	3.0		1.0	1.0	1.0	1.0		part_1
155		2.0				1.0	0.0							2.0	220.0	0.3986856685951352	2.0		3.0	4.0	3.0	3.0		part_1
156		2.0				1.0	0.0							1.0	0.0	0.3184723199810833	1.0		0.0	1.0	1.0	1.0		part_1
157		2.0				1.0	1.0							3.0	0.0	0.48764223069883883	3.0		0.0	6.0	7.0	4.0		part_1
158		2.0				1.0	0.0							2.0	198.0	0.4094736010301858	2.0		3.0	4.0	3.0	3.0		part_1
159		2.0				1.0	1.0							4.0	57.0	0.5567104606889188	4.0		1.0	7.0	5.0	5.0		part_1
160		2.0				1.0	1.0							3.0	92.0	0.39925209106877446	3.0		2.0	2.0	6.0	7.0		part_1
161		2.0				1.0	0.0							3.0	108.0	0.38886541896499693	3.0		2.0	5.0	2.0	6.0		part_1
162		2.0				1.0	0.0							1.0	46.0	0.3237425237894058	1.0		1.0	1.0	1.0	1.0		part_1
163		2.0				1.0	0.0							1.0	0.0	0.4027920654043555	1.0		0.0	4.0	3.0	3.0		part_1
164		2.0				1.0	1.0							3.0	84.0	0.35750723513774574	3.0		2.0	2.0	6.0	7.0		part_1
165		2.0				1.0	0.0							1.0	0.0	0.3922403394244611	1.0		0.0	8.0	4.0	2.0		part_1
166		2.0				1.0	1.0							2.0	111.0	0.39154068008065224	2.0		2.0	2.0	6.0	7.0		part_1
167		2.0				1.0	0.0							2.0	418.0	0.3937514736317098	2.0		4.0	8.0	4.0	2.0		part_1
168		2.0				1.0	0.0							2.0	96.0	0.32601428451016545	2.0		2.0	5.0	2.0	6.0		part_1
169		2.0				1.0	0.0							1.0	60.0	0.4046221747994423	1.0		1.0	1.0	1.0	1.0		part_1
170		2.0				1.0	1.0							4.0	222.0	0.4051240379922092	4.0		3.0	6.0	7.0	4.0		part_1
171		2.0				1.0	0.0							2.0	0.0	0.32803458464331925	2.0		0.0	4.0	3.0	3.0		part_1
172		2.0				1.0	0.0							1.0	0.0	0.30503796273842454	1.0		0.0	5.0	2.0	6.0		part_1
173		2.0				1.0	1.0							2.0	0.0	0.3385224549565464	2.0		0.0	6.0	7.0	4.0		part_1
174		2.0				1.0	0.0							1.0	213.0	0.3513874406926334	1.0		3.0	4.0	3.0	3.0		part_1
175		2.0				1.0	0.0							3.0	392.0	0.39662961987778544	3.0		4.0	8.0	4.0	2.0		part_1
176		2.0				1.0	0.0							1.0	189.0	0.3295820369385183	1.0		3.0	4.0	3.0	3.0		part_1
177		2.0				1.0	0.0							4.0	108.0	0.4756801889743656	4.0		2.0	5.0	2.0	6.0		part_1
178		2.0				1.0	0.0							4.0	201.0	0.40986708272248507	4.0		3.0	4.0	3.0	3.0		part_1
179		2.0				1.0	1.0							2.0	30.0	0.3759915803093463	2.0		1.0	7.0	5.0	5.0		part_1
180		2.0				1.0	1.0							2.0	74.0	0.38979630707763135	2.0		1.0	7.0	5.0	5.0		part_1
181		2.0				1.0	0.0							4.0	210.0	0.4572651828639209	4.0		3.0	4.0	3.0	3.0		part_1
182		2.0				1.0	0.0							1.0	376.0	0.35506394505500793	1.0		4.0	8.0	4.0	2.0		part_1
183		2.0				1.0	0.0							4.0	96.0	0.41206484008580446	4.0		2.0	5.0	2.0	6.0		part_1
184		2.0				1.0	1.0							4.0	0.0	0.4589393779169768	4.0		0.0	6.0	7.0	4.0		part_1
185		2.0				1.0	0.0							2.0	86.0	0.6611755043268204	2.0		2.0	5.0	2.0	6.0		part_1
186		2.0				1.0	1.0							1.0	179.0	0.3592783189378679	1.0		3.0	6.0	7.0	4.0		part_1
187		2.0				1.0	1.0							1.0	108.0	0.45980502129532397	1.0		2.0	2.0	6.0	7.0		part_1
188		2.0				1.0	0.0							1.0	424.0	0.47136349184438586	1.0		4.0	8.0	4.0	2.0		part_1
189		2.0				1.0	1.0							3.0	85.0	0.38141071633435786	3.0		2.0	2.0	6.0	7.0		part_1
190		2.0				1.0	1.0							2.0	51.0	0.3820026954635978	2.0		1.0	7.0	5.0	5.0		part_1
191		2.0				1.0	0.0							1.0	421.0	0.5850861519575119	1.0		4.0	8.0	4.0	2.0		part_1
192		2.0				1.0	1.0							3.0	0.0	0.45159685984253883	3.0		0.0	7.0	5.0	5.0		part_1
193		2.0				1.0	0.0							1.0	111.0	0.41791407740674913	1.0		2.0	5.0	2.0	6.0		part_1
194		2.0				1.0	0.0							2.0	0.0	0.3738914099521935	2.0		0.0	1.0	1.0	1.0		part_1
195		2.0				1.0	0.0							3.0	225.0	0.38693175185471773	3.0		3.0	4.0	3.0	3.0		part_1
196		2.0				1.0	1.0							3.0	67.0	0.4190866609569639	3.0		1.0	7.0	5.0	5.0		part_1
197		2.0				1.0	1.0							1.0	79.0	0.4207470619585365	1.0		2.0	2.0	6.0	7.0		part_1
198		2.0				1.0	0.0							2.0	402.0	0.42172794602811337	2.0		4.0	8.0	4.0	2.0		part_1
199		2.0				1.0	1.0							1.0	0.0	0.48887224751524627	1.0		0.0	2.0	6.0	7.0		part_1
200		3.0				1.0	0.0							2.0	57.0	0.4676600194070488	2.0		1.0	1.0	1.0	1.0		part_1
201		3.0				1.0	1.0							1.0	0.0	0.47926698671653867	1.0		0.0	6.0	7.0	4.0		part_1
202		3.0				1.0	0.0							4.0	115.0	0.41304654930718243	4.0		2.0	5.0	2.0	6.0		part_1
203		3.0				1.0	0.0							4.0	199.0	0.3913435216527432	4.0		3.0	4.0	3.0	3.0		part_1
204		3.0				1.0	0.0							2.0	114.0	0.3699630214832723	2.0		2.0	5.0	2.0	6.0		part_1
205		3.0				1.0	1.0							1.0	392.0	0.46121675125323236	1.0		4.0	3.0	8.0	8.0		part_1
206		3.0				1.0	0.0							3.0	179.0	0.3250991040840745	3.0		3.0	4.0	3.0	3.0		part_1
207		3.0				1.0	0.0							1.0	201.0	0.34856149461120367	1.0		3.0	4.0	3.0	3.0		part_1
208		3.0				1.0	0.0							3.0	108.0	0.370983648346737	3.0		2.0	5.0	2.0	6.0		part_1
209		3.0				1.0	0.0							4.0	31.0	0.4181619919836521	4.0		1.0	1.0	1.0	1.0		part_1
210		3.0				1.0	0.0							2.0	113.0	0.38359415298327804	2.0		2.0	5.0	2.0	6.0		part_1
211		3.0				1.0	1.0							4.0	408.0	0.441599560668692	4.0		4.0	3.0	8.0	8.0		part_1
212		3.0				1.0	1.0							2.0	424.0	0.5761360882315785	2.0		4.0	3.0	8.0	8.0		part_1
213		3.0				1.0	0.0							2.0	79.0	0.5088573745451868	2.0		2.0	5.0	2.0	6.0		part_1
214		3.0				1.0	0.0							3.0	205.0	0.38752984860911965	3.0		3.0	4.0	3.0	3.0		part_1
215		3.0				1.0	1.0							1.0	392.0	0.44360435055568814	1.0		4.0	3.0	8.0	8.0		part_1
216		3.0				1.0	1.0							1.0	110.0	0.5122316961642355	1.0		2.0	2.0	6.0	7.0		part_1
217		3.0				1.0	1.0							3.0	29.0	0.39755709865130484	3.0		1.0	7.0	5.0	5.0		part_1
218		3.0				1.0	1.0							4.0	114.0	0.42196787474676967	4.0		2.0	2.0	6.0	7.0		part_1
219		3.0				1.0	1.0							4.0	31.0	0.39894376834854484	4.0		1.0	7.0	5.0	5.0		part_1
220		3.0				1.0	0.0							4.0	186.0	0.44552448159083724	4.0		3.0	4.0	3.0	3.0		part_1
221		3.0				1.0	0.0							4.0	0.0	0.4021205292083323	4.0		0.0	5.0	2.0	6.0		part_1
222		3.0				1.0	1.0							1.0	31.0	0.45916401711292565	1.0		1.0	7.0	5.0	5.0		part_1
223		3.0				1.0	0.0							3.0	0.0	0.37995322118513286	3.0		0.0	4.0	3.0	3.0		part_1
224		3.0				1.0	1.0							4.0	114.0	0.41450182045809925	4.0		2.0	2.0	6.0	7.0		part_1
225		3.0				1.0	0.0							1.0	0.0	0.415825116680935	1.0		0.0	1.0	1.0	1.0		part_1
226		3.0				1.0	0.0							1.0	176.0	0.4165468420833349	1.0		3.0	4.0	3.0	3.0		part_1
227		3.0				1.0	0.0							4.0	415.0	0.42747200070880353	4.0		4.0	8.0	4.0	2.0		part_1
228		3.0				1.0	1.0							2.0	176.0	0.41651046369224787	2.0		3.0	6.0	7.0	4.0		part_1
229		3.0				1.0	1.0							4.0	0.0	0.359921958995983	4.0		0.0	7.0	5.0	5.0		part_1
230		3.0				1.0	0.0							2.0	0.0	0.4187478846870363	2.0		0.0	5.0	2.0	6.0		part_1
231		3.0				1.0	0.0							3.0	57.0	0.3961215273011476	3.0		1.0	1.0	1.0	1.0		part_1
232		3.0				1.0	0.0							4.0	187.0	0.5212514351587743	4.0		3.0	4.0	3.0	3.0		part_1
233		3.0				1.0	0.0							3.0	378.0	0.3855057042092085	3.0		4.0	8.0	4.0	2.0		part_1
234		3.0				1.0	0.0							3.0	34.0	0.36330730561167	3.0		1.0	1.0	1.0	1.0		part_1
235		3.0				1.0	0.0							3.0	0.0	0.37478664168156683	3.0		0.0	8.0	4.0	2.0		part_1
236		3.0				1.0	0.0							1.0	29.0	0.37535828608088195	1.0		1.0	1.0	1.0	1.0		part_1
237		3.0				1.0	1.0							3.0	44.0	0.38824716745875776	3.0		1.0	7.0	5.0	5.0		part_1
238		3.0				1.0	1.0							4.0	60.0	0.38762047328054905	4.0		1.0	7.0	5.0	5.0		part_1
239		3.0				1.0	1.0							1.0	59.0	0.4783150781877339	1.0		1.0	7.0	5.0	5.0		part_1
240		3.0				1.0	0.0							3.0	0.0	0.3776297078002244	3.0		0.0	5.0	2.0	6.0		part_1
241		3.0				1.0	0.0							4.0	114.0	0.5142762940376997	4.0		2.0	5.0	2.0	6.0		part_1
242		3.0				1.0	0.0							1.0	386.0	0.4015909796580672	1.0		4.0	8.0	4.0	2.0		part_1
243		3.0				1.0	1.0							4.0	39.0	0.41208401205949485	4.0		1.0	7.0	5.0	5.0		part_1
244		3.0				1.0	0.0							2.0	95.0	0.425824026344344	2.0		2.0	5.0	2.0	6.0		part_1
245		3.0				1.0	0.0							4.0	379.0	0.3918556161224842	4.0		4.0	8.0	4.0	2.0		part_1
246		3.0				1.0	0.0							1.0	44.0	0.4034033489879221	1.0		1.0	1.0	1.0	1.0		part_1
247		3.0				1.0	1.0							1.0	123.0	0.4370368476957083	1.0		2.0	2.0	6.0	7.0		part_1
248		3.0				1.0	1.0							3.0	35.0	0.4276131740771234	3.0		1.0	7.0	5.0	5.0		part_1
249		3.0				1.0	0.0							1.0	408.0	0.46165855741128325	1.0		4.0	8.0	4.0	2.0		part_1
250		3.0				1.0	1.0							4.0	0.0	0.438725738087669	4.0		0.0	3.0	8.0	8.0		part_1
251		3.0				1.0	1.0							4.0	0.0	0.3834248629864305	4.0		0.0	3.0	8.0	8.0		part_1
252		3.0				1.0	1.0							3.0	186.0	0.3956731487996876	3.0		3.0	6.0	7.0	4.0		part_1
253		3.0				1.0	1.0							4.0	218.0	0.4292118714656681	4.0		3.0	6.0	7.0	4.0		part_1
254		3.0				1.0	1.0							4.0	53.0	0.3281606880482286	4.0		1.0	7.0	5.0	5.0		part_1
255		3.0				1.0	0.0							1.0	97.0	0.34112248523160815	1.0		2.0	5.0	2.0	6.0		part_1
256		3.0				1.0	1.0							1.0	94.0	0.3993359769228846	1.0		2.0	2.0	6.0	7.0		part_1
257		3.0				1.0	1.0							3.0	95.0	0.3418126970063895	3.0		2.0	2.0	6.0	7.0		part_1
258		3.0				1.0	0.0							3.0	204.0	0.3652159299235791	3.0		3.0	4.0	3.0	3.0		part_1
259		3.0				1.0	0.0							2.0	383.0	0.4776662616059184	2.0		4.0	8.0	4.0	2.0		part_1
260		3.0				1.0	1.0							2.0	204.0	0.38833155180327594	2.0		3.0	6.0	7.0	4.0		part_1
261		3.0				1.0	0.0							1.0	94.0	0.345731986919418	1.0		2.0	5.0	2.0	6.0		part_1
262		3.0				1.0	1.0							1.0	0.0	0.4120935997925699	1.0		0.0	7.0	5.0	5.0		part_1
263		3.0				1.0	0.0							3.0	0.0	0.38979435339570045	3.0		0.0	8.0	4.0	2.0		part_1
264		3.0				1.0	1.0							1.0	421.0	0.3454662400763482	1.0		4.0	3.0	8.0	8.0		part_1
265		3.0				1.0	0.0							1.0	95.0	0.39168319292366505	1.0		2.0	5.0	2.0	6.0		part_1
266		3.0				1.0	0.0							3.0	123.0	0.40431092283688486	3.0		2.0	5.0	2.0	6.0		part_1
267		3.0				1.0	1.0							2.0	70.0	0.4158545029349625	2.0		1.0	7.0	5.0	5.0		part_1
268		3.0				1.0	1.0							1.0	378.0	0.43895251560024917	1.0		4.0	3.0	8.0	8.0		part_1
269		3.0				1.0	0.0							2.0	181.0	0.473825671011582	2.0		3.0	4.0	3.0	3.0		part_1
270		3.0				1.0	1.0							3.0	380.0	0.8100967409554869	3.0		4.0	3.0	8.0	8.0		part_1
271		3.0				1.0	1.0							2.0	210.0	0.4405502318404615	2.0		3.0	6.0	7.0	4.0		part_1
272		3.0				1.0	0.0							4.0	53.0	0.3843188986647874	4.0		1.0	1.0	1.0	1.0		part_1
273		3.0				1.0	1.0							4.0	115.0	0.3838320199865848	4.0		2.0	2.0	6.0	7.0		part_1
274		3.0				1.0	0.0							3.0	60.0	0.5083337596151978	3.0		1.0	1.0	1.0	1.0		part_1
275		3.0				1.0	1.0							2.0	50.0	0.4875209510792047	2.0		1.0	7.0	5.0	5.0		part_1
276		3.0				1.0	0.0							3.0	192.0	0.4205075653735548	3.0		3.0	4.0	3.0	3.0		part_1
277		3.0				1.0	1.0							3.0	198.0	0.37504067039117217	3.0		3.0	6.0	7.0	4.0		part_1
278		3.0				1.0	1.0							1.0	37.0	0.3875298660714179	1.0		1.0	7.0	5.0	5.0		part_1
279		3.0				1.0	1.0							2.0	395.0	0.4108039310667664	2.0		4.0	3.0	8.0	8.0		part_1
280		3.0				1.0	0.0							3.0	30.0	0.4100717732217163	3.0		1.0	1.0	1.0	1.0		part_1
281		3.0				1.0	1.0							4.0	59.0	0.41234752908349037	4.0		1.0	7.0	5.0	5.0		part_1
282		3.0				1.0	1.0							1.0	200.0	0.5242555600125343	1.0		3.0	6.0	7.0	4.0		part_1
283		3.0				1.0	0.0							1.0	186.0	0.3797890329733491	1.0		3.0	4.0	3.0	3.0		part_1
284		3.0				1.0	1.0							1.0	411.0	0.37898387713357806	1.0		4.0	3.0	8.0	8.0		part_1
285		3.0				1.0	0.0							3.0	67.0	0.36753065697848797	3.0		1.0	1.0	1.0	1.0		part_1
286		3.0				1.0	1.0							2.0	34.0	0.41424677334725857	2.0		1.0	7.0	5.0	5.0		part_1
287		3.0				1.0	1.0							2.0	86.0	0.41398667520843446	2.0		2.0	2.0	6.0	7.0		part_1
288		3.0				1.0	0.0							1.0	0.0	0.4160574576817453	1.0		0.0	4.0	3.0	3.0		part_1
289		3.0				1.0	0.0							3.0	381.0	0.5619760104455054	3.0		4.0	8.0	4.0	2.0		part_1
290		3.0				1.0	0.0							3.0	0.0	0.40483184228651226	3.0		0.0	4.0	3.0	3.0		part_1
291		3.0				1.0	1.0							4.0	393.0	0.5178406327031553	4.0		4.0	3.0	8.0	8.0		part_1
292		3.0				1.0	0.0							2.0	37.0	0.39583803224377334	2.0		1.0	1.0	1.0	1.0		part_1
293		3.0				1.0	1.0							2.0	189.0	0.42889196891337633	2.0		3.0	6.0	7.0	4.0		part_1
294		3.0				1.0	1.0							1.0	38.0	0.38542250939644873	1.0		1.0	7.0	5.0	5.0		part_1
295		3.0				1.0	0.0							2.0	380.0	0.4420561450533569	2.0		4.0	8.0	4.0	2.0		part_1
296		3.0				1.0	1.0							3.0	192.0	0.36357520055025816	3.0		3.0	6.0	7.0	4.0		part_1
297		3.0				1.0	0.0							1.0	423.0	0.3305026632733643	1.0		4.0	8.0	4.0	2.0		part_1
298		3.0				1.0	1.0							3.0	125.0	0.41059369104914367	3.0		2.0	2.0	6.0	7.0		part_1
299		3.0				1.0	1.0							4.0	86.0	0.387148821959272	4.0		2.0	2.0	6.0	7.0		part_1
300		4.0				1.0	1.0							3.0	0.0	0.4103954506572336	3.0		0.0	6.0	7.0	4.0		part_1
301		4.0				1.0	0.0							1.0	0.0	0.41186467790976167	1.0		0.0	4.0	3.0	3.0		part_1
302		4.0				1.0	0.0							4.0	218.0	0.6041343261022121	4.0		3.0	4.0	3.0	3.0		part_1
303		4.0				1.0	1.0							1.0	75.0	0.49255770980380476	1.0		1.0	7.0	5.0	5.0		part_1
304		4.0				1.0	0.0							2.0	82.0	0.42581804492510855	2.0		2.0	5.0	2.0	6.0		part_1
305		4.0				1.0	1.0							3.0	420.0	0.3581724183168262	3.0		4.0	3.0	8.0	8.0		part_1
306		4.0				1.0	0.0							1.0	0.0	0.35920096072368324	1.0		0.0	4.0	3.0	3.0		part_1
307		4.0				1.0	1.0							3.0	108.0	0.44839866226539016	3.0		2.0	2.0	6.0	7.0		part_1
308		4.0				1.0	1.0							2.0	46.0	0.3480687958654016	2.0		1.0	7.0	5.0	5.0		part_1
309		4.0				1.0	1.0							2.0	77.0	0.3820464420132339	2.0		2.0	2.0	6.0	7.0		part_1
310		4.0				1.0	0.0							3.0	77.0	0.4056506466586143	3.0		2.0	5.0	2.0	6.0		part_1
311		4.0				1.0	1.0							3.0	395.0	0.4619584120810032	3.0		4.0	3.0	8.0	8.0		part_1
312		4.0				1.0	1.0							1.0	218.0	0.3390794068109244	1.0		3.0	6.0	7.0	4.0		part_1
313		4.0				1.0	0.0							3.0	0.0	0.36142486217431724	3.0		0.0	5.0	2.0	6.0		part_1
314		4.0				1.0	1.0							2.0	0.0	0.45206311298534274	2.0		0.0	2.0	6.0	7.0		part_1
315		4.0				1.0	1.0							1.0	225.0	0.3528665399644524	1.0		3.0	6.0	7.0	4.0		part_1
316		4.0				1.0	0.0							3.0	404.0	0.42013489129021764	3.0		4.0	8.0	4.0	2.0		part_1
317		4.0				1.0	0.0							1.0	377.0	0.5450546867214143	1.0		4.0	8.0	4.0	2.0		part_1
318		4.0				1.0	1.0							3.0	202.0	0.41991368192248046	3.0		3.0	6.0	7.0	4.0		part_1
319		4.0				1.0	0.0							4.0	387.0	0.4210561958607286	4.0		4.0	8.0	4.0	2.0		part_1
320		4.0				1.0	1.0							1.0	193.0	0.3774119997397065	1.0		3.0	6.0	7.0	4.0		part_1
321		4.0				1.0	0.0							4.0	395.0	0.4116672200616449	4.0		4.0	8.0	4.0	2.0		part_1
322		4.0				1.0	1.0							4.0	93.0	0.44631552300415933	4.0		2.0	2.0	6.0	7.0		part_1
323		4.0				1.0	0.0							2.0	180.0	0.41215130942873657	2.0		3.0	4.0	3.0	3.0		part_1
324		4.0				1.0	1.0							4.0	387.0	0.39032490737736225	4.0		4.0	3.0	8.0	8.0		part_1
325		4.0				1.0	1.0							4.0	112.0	0.35681783384643495	4.0		2.0	2.0	6.0	7.0		part_1
326		4.0				1.0	1.0							4.0	77.0	0.639104386093095	4.0		2.0	2.0	6.0	7.0		part_1
327		4.0				1.0	0.0							1.0	0.0	0.3920480359811336	1.0		0.0	4.0	3.0	3.0		part_1
328		4.0				1.0	0.0							2.0	395.0	0.4167195202317089	2.0		4.0	8.0	4.0	2.0		part_1
329		4.0				1.0	1.0							4.0	215.0	0.381476623006165	4.0		3.0	6.0	7.0	4.0		part_1
330		4.0				1.0	0.0							1.0	52.0	0.4742186516523361	1.0		1.0	1.0	1.0	1.0		part_1
331		4.0				1.0	1.0							3.0	181.0	0.35022395360283554	3.0		3.0	6.0	7.0	4.0		part_1
332		4.0				1.0	1.0							2.0	0.0	0.37232495401985943	2.0		0.0	3.0	8.0	8.0		part_1
333		4.0				1.0	1.0							4.0	415.0	0.3608295265585184	4.0		4.0	3.0	8.0	8.0		part_1
334		4.0				1.0	0.0							1.0	60.0	0.3170294922310859	1.0		1.0	1.0	1.0	1.0		part_1
335		4.0				1.0	0.0							4.0	44.0	0.4088633006904274	4.0		1.0	1.0	1.0	1.0		part_1
336		4.0				1.0	0.0							1.0	222.0	0.4087944959755987	1.0		3.0	4.0	3.0	3.0		part_1
337		4.0				1.0	1.0							2.0	187.0	0.3751955763436854	2.0		3.0	6.0	7.0	4.0		part_1
338		4.0				1.0	0.0							2.0	206.0	0.3771295540500432	2.0		3.0	4.0	3.0	3.0		part_1
339		4.0				1.0	0.0							3.0	185.0	0.34285553684458137	3.0		3.0	4.0	3.0	3.0		part_1
340		4.0				1.0	1.0							2.0	400.0	0.4100998635403812	2.0		4.0	3.0	8.0	8.0		part_1
341		4.0				1.0	1.0							1.0	0.0	0.37703461945056915	1.0		0.0	6.0	7.0	4.0		part_1
342		4.0				1.0	0.0							3.0	121.0	0.3551945178769529	3.0		2.0	5.0	2.0	6.0		part_1
343		4.0				1.0	0.0							2.0	400.0	0.43410640419460833	2.0		4.0	8.0	4.0	2.0		part_1
344		4.0				1.0	1.0							1.0	423.0	0.41341391229070723	1.0		4.0	3.0	8.0	8.0		part_1
345		4.0				1.0	0.0							3.0	78.0	0.3897584951482713	3.0		2.0	5.0	2.0	6.0		part_1
346		4.0				1.0	0.0							4.0	77.0	0.37016127328388393	4.0		2.0	5.0	2.0	6.0		part_1
347		4.0				1.0	0.0							4.0	403.0	0.40385477477684617	4.0		4.0	8.0	4.0	2.0		part_1
348		4.0				1.0	1.0							4.0	395.0	0.3931612588930875	4.0		4.0	3.0	8.0	8.0		part_1
349		4.0				1.0	1.0							4.0	378.0	0.3367105955258012	4.0		4.0	3.0	8.0	8.0		part_1
350		4.0				1.0	1.0							4.0	95.0	0.4493051895406097	4.0		2.0	2.0	6.0	7.0		part_1
351		4.0				1.0	1.0							4.0	96.0	0.35956333158537745	4.0		2.0	2.0	6.0	7.0		part_1
352		4.0				1.0	0.0							3.0	103.0	0.5519051197916269	3.0		2.0	5.0	2.0	6.0		part_1
353		4.0				1.0	1.0							2.0	206.0	0.42971195257268846	2.0		3.0	6.0	7.0	4.0		part_1
354		4.0				1.0	0.0							3.0	50.0	0.41704867337830365	3.0		1.0	1.0	1.0	1.0		part_1
355		4.0				1.0	0.0							1.0	115.0	0.2949376704636961	1.0		2.0	5.0	2.0	6.0		part_1
356		4.0				1.0	0.0							1.0	125.0	0.44271567300893366	1.0		2.0	5.0	2.0	6.0		part_1
357		4.0				1.0	0.0							2.0	47.0	0.4325750090647489	2.0		1.0	1.0	1.0	1.0		part_1
358		4.0				1.0	1.0							1.0	115.0	0.35318642179481685	1.0		2.0	2.0	6.0	7.0		part_1
359		4.0				1.0	1.0							4.0	185.0	0.4100391746032983	4.0		3.0	6.0	7.0	4.0		part_1
360		4.0				1.0	1.0							3.0	82.0	0.40929341595619917	3.0		2.0	2.0	6.0	7.0		part_1
361		4.0				1.0	1.0							3.0	0.0	0.421087849419564	3.0		0.0	2.0	6.0	7.0		part_1
362		4.0				1.0	0.0							2.0	71.0	0.3997783090453595	2.0		1.0	1.0	1.0	1.0		part_1
363		4.0				1.0	1.0							2.0	386.0	0.4005197985097766	2.0		4.0	3.0	8.0	8.0		part_1
364		4.0				1.0	0.0							1.0	83.0	0.3908626539632678	1.0		2.0	5.0	2.0	6.0		part_1
365		4.0				1.0	0.0							2.0	28.0	0.40169641003012657	2.0		1.0	1.0	1.0	1.0		part_1
366		4.0				1.0	1.0							2.0	207.0	0.4469587116036564	2.0		3.0	6.0	7.0	4.0		part_1
367		4.0				1.0	0.0							4.0	69.0	0.41435282048769295	4.0		1.0	1.0	1.0	1.0		part_1
368		4.0				1.0	0.0							1.0	204.0	0.35814836085774004	1.0		3.0	4.0	3.0	3.0		part_1
369		4.0				1.0	0.0							1.0	70.0	0.5503592879977077	1.0		1.0	1.0	1.0	1.0		part_1
370		4.0				1.0	1.0							4.0	60.0	0.45044937962666154	4.0		1.0	7.0	5.0	5.0		part_1
371		4.0				1.0	0.0							2.0	200.0	0.5284571703523397	2.0		3.0	4.0	3.0	3.0		part_1
372		4.0				1.0	1.0							3.0	0.0	0.4722390458919108	3.0		0.0	2.0	6.0	7.0		part_1
373		4.0				1.0	1.0							4.0	0.0	0.3722322324756533	4.0		0.0	3.0	8.0	8.0		part_1
374		4.0				1.0	0.0							2.0	0.0	0.46271981322206557	2.0		0.0	4.0	3.0	3.0		part_1
375		4.0				1.0	0.0							3.0	222.0	0.43991697672754526	3.0		3.0	4.0	3.0	3.0		part_1
376		4.0				1.0	0.0							3.0	413.0	0.47453313833102584	3.0		4.0	8.0	4.0	2.0		part_1
377		4.0				1.0	1.0							4.0	424.0	0.4319888052996248	4.0		4.0	3.0	8.0	8.0		part_1
378		4.0				1.0	1.0							3.0	41.0	0.443433606531471	3.0		1.0	7.0	5.0	5.0		part_1
379		4.0				1.0	1.0							3.0	69.0	0.6228221438359469	3.0		1.0	7.0	5.0	5.0		part_1
380		4.0				1.0	0.0							1.0	392.0	0.6254025821108371	1.0		4.0	8.0	4.0	2.0		part_1
381		4.0				1.0	1.0							2.0	0.0	0.49099463876336813	2.0		0.0	7.0	5.0	5.0		part_1
382		4.0				1.0	1.0							2.0	413.0	0.9077866668812931	2.0		4.0	3.0	8.0	8.0		part_1
383		4.0				1.0	1.0							1.0	0.0	0.6936842710711062	1.0		0.0	2.0	6.0	7.0		part_1
384		4.0				1.0	0.0							2.0	385.0	0.5709202270954847	2.0		4.0	8.0	4.0	2.0		part_1
385		4.0				1.0	1.0							4.0	201.0	0.35687342775054276	4.0		3.0	6.0	7.0	4.0		part_1
386		4.0				1.0	0.0							3.0	93.0	0.5832025953568518	3.0		2.0	5.0	2.0	6.0		part_1
387		4.0				1.0	0.0							2.0	202.0	0.4366905225906521	2.0		3.0	4.0	3.0	3.0		part_1
388		4.0				1.0	1.0							2.0	414.0	0.3579307480249554	2.0		4.0	3.0	8.0	8.0		part_1
389		4.0				1.0	1.0							1.0	0.0	0.30228514643386006	1.0		0.0	3.0	8.0	8.0		part_1
390		4.0				1.0	0.0							2.0	0.0	0.405493828933686	2.0		0.0	5.0	2.0	6.0		part_1
391		4.0				1.0	1.0							1.0	0.0	0.37136609572917223	1.0		0.0	2.0	6.0	7.0		part_1
392		4.0				1.0	1.0							4.0	0.0	0.37180095282383263	4.0		0.0	3.0	8.0	8.0		part_1
393		4.0				1.0	0.0							3.0	46.0	0.43936025258153677	3.0		1.0	1.0	1.0	1.0		part_1
394		4.0				1.0	0.0							2.0	0.0	0.3945535644888878	2.0		0.0	8.0	4.0	2.0		part_1
395		4.0				1.0	1.0							4.0	44.0	0.5310564949177206	4.0		1.0	7.0	5.0	5.0		part_1
396		4.0				1.0	0.0							2.0	86.0	0.6340386623051018	2.0		2.0	5.0	2.0	6.0		part_1
397		4.0				1.0	1.0							1.0	377.0	0.41965068131685257	1.0		4.0	3.0	8.0	8.0		part_1
398		4.0				1.0	1.0							2.0	0.0	0.4215908439364284	2.0		0.0	7.0	5.0	5.0		part_1
399		4.0				1.0	1.0							1.0	383.0	0.3750564632937312	1.0		4.0	3.0	8.0	8.0		part_1
0	1.0	1.0			250.0	0.0	0.0							6.0	0.0	0.5787832352798432	6.0	250.0	2.0	5.0	2.0	6.0	0.0	part_2
1	1.0	1.0			250.0	0.0	1.0							5.0	0.0	0.5690157182980329	5.0	250.0	3.0	6.0	7.0	4.0	0.0	part_2
2	1.0	1.0			250.0	0.0	0.0							6.0	0.0	0.557428689673543	6.0	250.0	3.0	4.0	3.0	3.0	0.0	part_2
3	3.0	1.0			250.0	0.0	1.0							6.0	0.0	0.6395253883674741	6.0	250.0	1.0	7.0	5.0	5.0	1.0	part_2
4	1.0	1.0			250.0	0.0	1.0							6.0	0.0	0.7063583973795176	6.0	200.0	1.0	7.0	5.0	5.0	0.0	part_2
5	1.0	1.0			250.0	0.0	0.0							5.0	0.0	0.40347150689922273	5.0	200.0	1.0	1.0	1.0	1.0	0.0	part_2
6	3.0	1.0			250.0	0.0	1.0							6.0	0.0	0.3473337129689753	6.0	200.0	3.0	6.0	7.0	4.0	1.0	part_2
7	1.0	1.0			250.0	0.0	0.0							5.0	0.0	0.33835481153801084	5.0	150.0	1.0	1.0	1.0	1.0	0.0	part_2
8	1.0	1.0			250.0	0.0	0.0							5.0	0.0	0.5755322107579559	5.0	150.0	1.0	1.0	1.0	1.0	0.0	part_2
9	1.0	1.0			250.0	0.0	0.0							5.0	0.0	0.6102658265735954	5.0	150.0	1.0	1.0	1.0	1.0	0.0	part_2
10	1.0	1.0			250.0	0.0	1.0							5.0	0.0	0.553598289610818	5.0	150.0	3.0	6.0	7.0	4.0	0.0	part_2
11	1.0	1.0			250.0	0.0	0.0							6.0	0.0	0.4646547718439251	6.0	150.0	4.0	8.0	4.0	2.0	0.0	part_2
12	1.0	1.0			250.0	0.0	0.0							5.0	0.0	0.35286572156473994	5.0	150.0	2.0	5.0	2.0	6.0	0.0	part_2
13	1.0	1.0			250.0	0.0	0.0							5.0	0.0	0.6453242774587125	5.0	150.0	3.0	4.0	3.0	3.0	0.0	part_2
14	1.0	1.0			250.0	0.0	0.0							5.0	0.0	0.5344788427464664	5.0	150.0	3.0	4.0	3.0	3.0	0.0	part_2
15	4.0	1.0			250.0	0.0	1.0							6.0	0.0	0.0	0.0	150.0	2.0	2.0	6.0	7.0	1.0	part_2
16	1.0	1.0			250.0	0.0	1.0							5.0	0.0	0.4463661443442106	5.0	200.0	4.0	3.0	8.0	8.0	0.0	part_2
17	1.0	1.0			250.0	0.0	0.0							6.0	0.0	0.5605815267190337	6.0	200.0	3.0	4.0	3.0	3.0	0.0	part_2
18	1.0	1.0			250.0	0.0	1.0							6.0	0.0	0.5714222830720246	6.0	200.0	2.0	2.0	6.0	7.0	0.0	part_2
19	1.0	1.0			250.0	0.0	1.0							5.0	0.0	0.5061930429656059	5.0	200.0	4.0	3.0	8.0	8.0	0.0	part_2
20	3.0	1.0			250.0	0.0	1.0							6.0	0.0	0.3815477965399623	6.0	200.0	3.0	6.0	7.0	4.0	1.0	part_2
21	4.0	1.0			250.0	0.0	1.0							5.0	0.0	0.0	0.0	150.0	2.0	2.0	6.0	7.0	1.0	part_2
22	4.0	1.0			300.0	0.0	1.0							6.0	0.0	0.0	0.0	150.0	4.0	3.0	8.0	8.0	1.0	part_2
23	1.0	1.0			300.0	0.0	0.0							6.0	0.0	0.37460766336880624	6.0	200.0	3.0	4.0	3.0	3.0	0.0	part_2
24	1.0	1.0			300.0	0.0	1.0							5.0	0.0	0.47469826275482774	5.0	200.0	2.0	2.0	6.0	7.0	0.0	part_2
25	1.0	1.0			300.0	0.0	1.0							6.0	0.0	0.5220084127504379	6.0	200.0	2.0	2.0	6.0	7.0	0.0	part_2
26	1.0	1.0			300.0	0.0	0.0							6.0	0.0	0.5346520966850221	6.0	200.0	1.0	1.0	1.0	1.0	0.0	part_2
27	1.0	1.0			300.0	0.0	0.0							5.0	0.0	0.43390821292996407	5.0	200.0	2.0	5.0	2.0	6.0	0.0	part_2
28	1.0	1.0			300.0	0.0	0.0							5.0	0.0	0.40069965459406376	5.0	200.0	2.0	5.0	2.0	6.0	0.0	part_2
29	1.0	1.0			300.0	0.0	0.0							5.0	0.0	0.4794143543113023	5.0	200.0	4.0	8.0	4.0	2.0	0.0	part_2
30	4.0	1.0			300.0	0.0	1.0							6.0	0.0	0.0	0.0	200.0	3.0	6.0	7.0	4.0	1.0	part_2
31	1.0	1.0			300.0	0.0	0.0							6.0	0.0	0.5155934409704059	6.0	250.0	3.0	4.0	3.0	3.0	0.0	part_2
32	1.0	1.0			300.0	0.0	0.0							5.0	0.0	0.402844597119838	5.0	250.0	1.0	1.0	1.0	1.0	0.0	part_2
33	1.0	1.0			300.0	0.0	0.0							6.0	0.0	0.38172302255406976	6.0	250.0	4.0	8.0	4.0	2.0	0.0	part_2
34	3.0	1.0			300.0	0.0	1.0							5.0	0.0	0.44984095357358456	5.0	250.0	1.0	7.0	5.0	5.0	1.0	part_2
35	4.0	1.0			250.0	0.0	1.0							6.0	0.0	0.0	0.0	250.0	1.0	7.0	5.0	5.0	1.0	part_2
36	3.0	2.0			250.0	0.0	1.0							6.0	0.0	0.6017108834348619	6.0	300.0	4.0	3.0	8.0	8.0	1.0	part_2
37	1.0	2.0			250.0	0.0	0.0							6.0	0.0	0.5235117543488741	6.0	250.0	2.0	5.0	2.0	6.0	0.0	part_2
38	3.0	2.0			250.0	0.0	1.0							5.0	0.0	0.376815385883674	5.0	250.0	2.0	2.0	6.0	7.0	1.0	part_2
39	1.0	2.0			200.0	0.0	0.0							5.0	0.0	0.5934364779386669	5.0	250.0	2.0	5.0	2.0	6.0	0.0	part_2
40	4.0	2.0			200.0	0.0	1.0							6.0	0.0	0.0	0.0	250.0	2.0	2.0	6.0	7.0	1.0	part_2
41	1.0	2.0			200.0	0.0	0.0							5.0	0.0	0.5936130625195801	5.0	300.0	1.0	1.0	1.0	1.0	0.0	part_2
42	1.0	2.0			200.0	0.0	1.0							5.0	0.0	0.5722764846868813	5.0	300.0	4.0	3.0	8.0	8.0	0.0	part_2
43	1.0	2.0			200.0	0.0	0.0							5.0	0.0	0.37050695321522653	5.0	300.0	3.0	4.0	3.0	3.0	0.0	part_2
44	1.0	2.0			200.0	0.0	0.0							6.0	0.0	0.41636814270168543	6.0	300.0	2.0	5.0	2.0	6.0	0.0	part_2
45	4.0	2.0			200.0	0.0	1.0							5.0	0.0	0.0	0.0	300.0	3.0	6.0	7.0	4.0	1.0	part_2
46	3.0	2.0			250.0	0.0	1.0							5.0	0.0	0.4282775076571852	5.0	300.0	3.0	6.0	7.0	4.0	1.0	part_2
47	1.0	2.0			200.0	0.0	0.0							6.0	0.0	0.5084956339560449	6.0	300.0	2.0	5.0	2.0	6.0	0.0	part_2
48	4.0	2.0			200.0	0.0	1.0							6.0	0.0	0.0	0.0	300.0	2.0	2.0	6.0	7.0	1.0	part_2
49	4.0	2.0			200.0	0.0	1.0							5.0	0.0	0.0	0.0	350.0	4.0	3.0	8.0	8.0	1.0	part_2
50	1.0	2.0			250.0	0.0	0.0							5.0	0.0	0.38857702165842056	5.0	350.0	4.0	8.0	4.0	2.0	0.0	part_2
51	3.0	2.0			250.0	0.0	1.0							6.0	0.0	0.36520245717838407	6.0	350.0	1.0	7.0	5.0	5.0	1.0	part_2
52	1.0	2.0			250.0	0.0	0.0							5.0	0.0	0.5925300989765674	5.0	300.0	4.0	8.0	4.0	2.0	0.0	part_2
53	1.0	2.0			250.0	0.0	0.0							6.0	0.0	0.37871044548228383	6.0	300.0	3.0	4.0	3.0	3.0	0.0	part_2
54	1.0	2.0			250.0	0.0	0.0							5.0	0.0	0.44833907345309854	5.0	300.0	4.0	8.0	4.0	2.0	0.0	part_2
55	1.0	2.0			250.0	0.0	0.0							6.0	0.0	0.32324928347952664	6.0	300.0	4.0	8.0	4.0	2.0	0.0	part_2
56	1.0	2.0			250.0	0.0	0.0							5.0	0.0	0.32478042249567807	5.0	300.0	2.0	5.0	2.0	6.0	0.0	part_2
57	4.0	2.0			250.0	0.0	1.0							6.0	0.0	0.0	0.0	300.0	1.0	7.0	5.0	5.0	1.0	part_2
58	4.0	2.0			250.0	0.0	1.0							6.0	0.0	0.0	0.0	350.0	3.0	6.0	7.0	4.0	1.0	part_2
59	1.0	2.0			250.0	0.0	0.0							5.0	0.0	0.36179484613239765	5.0	400.0	3.0	4.0	3.0	3.0	0.0	part_2
60	4.0	2.0			250.0	0.0	1.0							6.0	0.0	0.0	0.0	400.0	2.0	2.0	6.0	7.0	1.0	part_2
61	1.0	2.0			250.0	0.0	1.0							5.0	0.0	0.5422803331166506	5.0	450.0	4.0	3.0	8.0	8.0	0.0	part_2
62	3.0	2.0			250.0	0.0	1.0							6.0	0.0	0.4197781360708177	6.0	450.0	2.0	2.0	6.0	7.0	1.0	part_2
63	1.0	2.0			250.0	0.0	0.0							6.0	0.0	0.5666017767507583	6.0	400.0	2.0	5.0	2.0	6.0	0.0	part_2
64	4.0	2.0			250.0	0.0	1.0							5.0	0.0	0.0	0.0	400.0	3.0	6.0	7.0	4.0	1.0	part_2
65	4.0	2.0			300.0	0.0	1.0							5.0	0.0	0.0	0.0	400.0	4.0	3.0	8.0	8.0	1.0	part_2
66	1.0	2.0			350.0	0.0	0.0							6.0	0.0	0.4229749364312738	6.0	400.0	4.0	8.0	4.0	2.0	0.0	part_2
67	1.0	2.0			350.0	0.0	0.0							5.0	0.0	0.4806736274622381	5.0	400.0	1.0	1.0	1.0	1.0	0.0	part_2
68	4.0	2.0			350.0	0.0	1.0							5.0	0.0	0.0	0.0	400.0	1.0	7.0	5.0	5.0	1.0	part_2
69	1.0	2.0			400.0	0.0	1.0							6.0	0.0	0.6163029316812754	6.0	400.0	4.0	3.0	8.0	8.0	0.0	part_2
70	1.0	2.0			400.0	0.0	0.0							6.0	0.0	0.4493819265626371	6.0	400.0	1.0	1.0	1.0	1.0	0.0	part_2
71	1.0	2.0			400.0	0.0	0.0							6.0	0.0	0.40535269072279334	6.0	400.0	1.0	1.0	1.0	1.0	0.0	part_2
72	4.0	3.0			400.0	0.0	1.0							5.0	0.0	0.0	0.0	400.0	4.0	3.0	8.0	8.0	1.0	part_2
73	3.0	3.0			450.0	0.0	1.0							5.0	0.0	0.533701179549098	5.0	400.0	3.0	6.0	7.0	4.0	1.0	part_2
74	1.0	3.0			400.0	0.0	0.0							6.0	0.0	0.42051479686051607	6.0	400.0	1.0	1.0	1.0	1.0	0.0	part_2
75	1.0	3.0			400.0	0.0	0.0							6.0	0.0	0.42170228459872305	6.0	400.0	2.0	5.0	2.0	6.0	0.0	part_2
76	3.0	3.0			400.0	0.0	1.0							6.0	0.0	0.4219351136125624	6.0	400.0	3.0	6.0	7.0	4.0	1.0	part_2
77	1.0	3.0			400.0	0.0	1.0							5.0	0.0	0.4127191237639636	5.0	350.0	4.0	3.0	8.0	8.0	0.0	part_2
78	3.0	3.0			400.0	0.0	1.0							6.0	0.0	0.48158949497155845	6.0	350.0	4.0	3.0	8.0	8.0	1.0	part_2
79	4.0	3.0			400.0	0.0	1.0							6.0	0.0	0.0	0.0	300.0	3.0	6.0	7.0	4.0	1.0	part_2
80	1.0	3.0			400.0	0.0	0.0							5.0	0.0	0.39172178134322166	5.0	350.0	2.0	5.0	2.0	6.0	0.0	part_2
81	1.0	3.0			400.0	0.0	0.0							5.0	0.0	0.4036289236973971	5.0	350.0	4.0	8.0	4.0	2.0	0.0	part_2
82	3.0	3.0			400.0	0.0	1.0							5.0	0.0	0.46229941793717444	5.0	350.0	1.0	7.0	5.0	5.0	1.0	part_2
83	4.0	3.0			350.0	0.0	1.0							5.0	0.0	0.0	0.0	350.0	4.0	3.0	8.0	8.0	1.0	part_2
84	1.0	3.0			400.0	0.0	0.0							6.0	0.0	0.3950598044320941	6.0	350.0	2.0	5.0	2.0	6.0	0.0	part_2
85	1.0	3.0			400.0	0.0	0.0							6.0	0.0	0.4518588928040117	6.0	350.0	1.0	1.0	1.0	1.0	0.0	part_2
86	3.0	3.0			400.0	0.0	1.0							5.0	0.0	0.5437907483428717	5.0	350.0	3.0	6.0	7.0	4.0	1.0	part_2
87	1.0	3.0			350.0	0.0	0.0							6.0	0.0	0.4648296961095184	6.0	350.0	2.0	5.0	2.0	6.0	0.0	part_2
88	1.0	3.0			350.0	0.0	0.0							6.0	0.0	0.7821806503925472	6.0	350.0	4.0	8.0	4.0	2.0	0.0	part_2
89	1.0	3.0			350.0	0.0	0.0							6.0	0.0	0.3876086245290935	6.0	350.0	3.0	4.0	3.0	3.0	0.0	part_2
90	1.0	3.0			350.0	0.0	0.0							5.0	0.0	0.45671580266207457	5.0	350.0	2.0	5.0	2.0	6.0	0.0	part_2
91	4.0	3.0			350.0	0.0	1.0							6.0	0.0	0.0	0.0	350.0	2.0	2.0	6.0	7.0	1.0	part_2
92	1.0	3.0			350.0	0.0	0.0							6.0	0.0	0.660449902061373	6.0	400.0	3.0	4.0	3.0	3.0	0.0	part_2
93	1.0	3.0			350.0	0.0	0.0							6.0	0.0	0.5937952895183116	6.0	400.0	2.0	5.0	2.0	6.0	0.0	part_2
94	3.0	3.0			350.0	0.0	1.0							6.0	0.0	0.4381841078866273	6.0	400.0	3.0	6.0	7.0	4.0	1.0	part_2
95	3.0	3.0			350.0	0.0	1.0							5.0	0.0	0.4045829314272851	5.0	350.0	2.0	2.0	6.0	7.0	1.0	part_2
96	1.0	3.0			300.0	0.0	1.0							5.0	0.0	0.5640255827456713	5.0	350.0	1.0	7.0	5.0	5.0	0.0	part_2
97	1.0	3.0			300.0	0.0	1.0							6.0	0.0	0.3381403936073184	6.0	350.0	3.0	6.0	7.0	4.0	0.0	part_2
98	1.0	3.0			300.0	0.0	0.0							6.0	0.0	0.4303822126239538	6.0	350.0	4.0	8.0	4.0	2.0	0.0	part_2
99	1.0	3.0			300.0	0.0	0.0							5.0	0.0	0.5196956756990403	5.0	350.0	2.0	5.0	2.0	6.0	0.0	part_2
100	1.0	3.0			300.0	0.0	0.0							5.0	0.0	0.510098118102178	5.0	350.0	3.0	4.0	3.0	3.0	0.0	part_2
101	3.0	3.0			300.0	0.0	1.0							5.0	0.0	0.4441460275556892	5.0	350.0	4.0	3.0	8.0	8.0	1.0	part_2
102	1.0	3.0			250.0	0.0	1.0							5.0	0.0	0.4999485386069864	5.0	350.0	1.0	7.0	5.0	5.0	0.0	part_2
103	1.0	3.0			250.0	0.0	0.0							5.0	0.0	0.4674970107153058	5.0	350.0	3.0	4.0	3.0	3.0	0.0	part_2
104	1.0	3.0			250.0	0.0	0.0							5.0	0.0	0.5241768897976726	5.0	350.0	4.0	8.0	4.0	2.0	0.0	part_2
105	1.0	3.0			250.0	0.0	0.0							6.0	0.0	0.7168767859693617	6.0	350.0	3.0	4.0	3.0	3.0	0.0	part_2
106	1.0	3.0			250.0	0.0	0.0							5.0	0.0	0.7187858996912837	5.0	350.0	4.0	8.0	4.0	2.0	0.0	part_2
107	1.0	3.0			250.0	0.0	0.0							5.0	0.0	0.4478479565586895	5.0	350.0	1.0	1.0	1.0	1.0	0.0	part_2
108	1.0	4.0			250.0	0.0	0.0							5.0	0.0	0.4077709966804832	5.0	350.0	2.0	5.0	2.0	6.0	0.0	part_2
109	1.0	4.0			250.0	0.0	0.0							5.0	0.0	0.44017773447558284	5.0	350.0	4.0	8.0	4.0	2.0	0.0	part_2
110	3.0	4.0			250.0	0.0	1.0							5.0	0.0	0.3622932774014771	5.0	350.0	2.0	2.0	6.0	7.0	1.0	part_2
111	1.0	4.0			200.0	0.0	0.0							6.0	0.0	0.3423285454045981	6.0	350.0	1.0	1.0	1.0	1.0	0.0	part_2
112	4.0	4.0			200.0	0.0	1.0							5.0	0.0	0.0	0.0	350.0	3.0	6.0	7.0	4.0	1.0	part_2
113	3.0	4.0			250.0	0.0	1.0							6.0	0.0	0.5450338108930737	6.0	350.0	3.0	6.0	7.0	4.0	1.0	part_2
114	1.0	4.0			250.0	0.0	1.0							5.0	0.0	0.5926382183097303	5.0	300.0	3.0	6.0	7.0	4.0	0.0	part_2
115	3.0	4.0			250.0	0.0	1.0							6.0	0.0	0.40248494362458587	6.0	300.0	1.0	7.0	5.0	5.0	1.0	part_2
116	3.0	4.0			250.0	0.0	1.0							5.0	0.0	0.36934358859434724	5.0	250.0	3.0	6.0	7.0	4.0	1.0	part_2
117	4.0	4.0			200.0	0.0	1.0							6.0	0.0	0.0	0.0	250.0	2.0	2.0	6.0	7.0	1.0	part_2
118	1.0	4.0			200.0	0.0	0.0							6.0	0.0	0.3922355442773551	6.0	300.0	4.0	8.0	4.0	2.0	0.0	part_2
119	1.0	4.0			200.0	0.0	0.0							6.0	0.0	0.41553126834332943	6.0	300.0	2.0	5.0	2.0	6.0	0.0	part_2
120	1.0	4.0			200.0	0.0	0.0							5.0	0.0	0.3721329963300377	5.0	300.0	4.0	8.0	4.0	2.0	0.0	part_2
121	1.0	4.0			200.0	0.0	0.0							5.0	0.0	0.4396151110995561	5.0	300.0	4.0	8.0	4.0	2.0	0.0	part_2
122	1.0	4.0			200.0	0.0	0.0							6.0	0.0	0.45200401986949146	6.0	300.0	4.0	8.0	4.0	2.0	0.0	part_2
123	4.0	4.0			200.0	0.0	1.0							6.0	0.0	0.0	0.0	300.0	3.0	6.0	7.0	4.0	1.0	part_2
124	1.0	4.0			200.0	0.0	0.0							6.0	0.0	0.4769533497747034	6.0	350.0	4.0	8.0	4.0	2.0	0.0	part_2
125	1.0	4.0			200.0	0.0	0.0							6.0	0.0	0.3865177126135677	6.0	350.0	3.0	4.0	3.0	3.0	0.0	part_2
126	3.0	4.0			200.0	0.0	1.0							6.0	0.0	0.42288359510712326	6.0	350.0	4.0	3.0	8.0	8.0	1.0	part_2
127	1.0	4.0			200.0	0.0	0.0							5.0	0.0	0.3765284065157175	5.0	300.0	2.0	5.0	2.0	6.0	0.0	part_2
128	1.0	4.0			200.0	0.0	0.0							5.0	0.0	0.4451180356554687	5.0	300.0	2.0	5.0	2.0	6.0	0.0	part_2
129	1.0	4.0			200.0	0.0	0.0							6.0	0.0	0.4926820220425725	6.0	300.0	2.0	5.0	2.0	6.0	0.0	part_2
130	1.0	4.0			200.0	0.0	0.0							5.0	0.0	0.6605670617427677	5.0	300.0	3.0	4.0	3.0	3.0	0.0	part_2
131	1.0	4.0			200.0	0.0	0.0							5.0	0.0	0.381250882986933	5.0	300.0	1.0	1.0	1.0	1.0	0.0	part_2
132	1.0	4.0			200.0	0.0	0.0							5.0	0.0	0.35924948565661907	5.0	300.0	3.0	4.0	3.0	3.0	0.0	part_2
133	4.0	4.0			200.0	0.0	1.0							5.0	0.0	0.0	0.0	300.0	1.0	7.0	5.0	5.0	1.0	part_2
134	1.0	4.0			250.0	0.0	0.0							6.0	0.0	0.3607700497377664	6.0	300.0	3.0	4.0	3.0	3.0	0.0	part_2
135	1.0	4.0			250.0	0.0	1.0							5.0	0.0	0.38478112360462546	5.0	300.0	1.0	7.0	5.0	5.0	0.0	part_2
136	3.0	4.0			250.0	0.0	1.0							5.0	0.0	0.41965311975218356	5.0	300.0	1.0	7.0	5.0	5.0	1.0	part_2
137	4.0	4.0			200.0	0.0	1.0							5.0	0.0	0.0	0.0	300.0	2.0	2.0	6.0	7.0	1.0	part_2
138	1.0	4.0			250.0	0.0	1.0							5.0	0.0	0.6677766228094697	5.0	300.0	3.0	6.0	7.0	4.0	0.0	part_2
139	4.0	4.0			250.0	0.0	1.0							5.0	0.0	0.0	0.0	300.0	1.0	7.0	5.0	5.0	1.0	part_2
140	1.0	4.0			300.0	0.0	1.0							5.0	0.0	0.5227107664104551	5.0	300.0	2.0	2.0	6.0	7.0	0.0	part_2
141	1.0	4.0			300.0	0.0	0.0							5.0	0.0	0.38821294880472124	5.0	300.0	3.0	4.0	3.0	3.0	0.0	part_2
142	1.0	4.0			300.0	0.0	0.0							5.0	0.0	0.37787766312249005	5.0	300.0	2.0	5.0	2.0	6.0	0.0	part_2
143	3.0	4.0			300.0	0.0	1.0							6.0	0.0	0.34640681906603277	6.0	300.0	1.0	7.0	5.0	5.0	1.0	part_2
144	1.0	5.0			300.0	0.0	1.0							5.0	0.0	0.396670012967661	5.0	250.0	4.0	3.0	8.0	8.0	0.0	part_2
145	1.0	5.0			300.0	0.0	0.0							5.0	0.0	0.4086287855170667	5.0	250.0	3.0	4.0	3.0	3.0	0.0	part_2
146	1.0	5.0			300.0	0.0	0.0							5.0	0.0	0.35190379549749196	5.0	250.0	4.0	8.0	4.0	2.0	0.0	part_2
147	1.0	5.0			300.0	0.0	1.0							5.0	0.0	0.3313165579456836	5.0	250.0	2.0	2.0	6.0	7.0	0.0	part_2
148	3.0	5.0			300.0	0.0	1.0							6.0	0.0	0.42214268329553306	6.0	250.0	4.0	3.0	8.0	8.0	1.0	part_2
149	1.0	5.0			300.0	0.0	1.0							6.0	0.0	0.4902281607501209	6.0	200.0	3.0	6.0	7.0	4.0	0.0	part_2
150	4.0	5.0			300.0	0.0	1.0							6.0	0.0	0.0	0.0	200.0	4.0	3.0	8.0	8.0	1.0	part_2
151	1.0	5.0			300.0	0.0	0.0							5.0	0.0	0.36695468751713634	5.0	250.0	1.0	1.0	1.0	1.0	0.0	part_2
152	1.0	5.0			300.0	0.0	0.0							6.0	0.0	0.43572890223003924	6.0	250.0	3.0	4.0	3.0	3.0	0.0	part_2
153	1.0	5.0			300.0	0.0	0.0							6.0	0.0	0.4698981230612844	6.0	250.0	4.0	8.0	4.0	2.0	0.0	part_2
154	4.0	5.0			300.0	0.0	1.0							6.0	0.0	0.0	0.0	250.0	4.0	3.0	8.0	8.0	1.0	part_2
155	1.0	5.0			300.0	0.0	0.0							5.0	0.0	0.4837808485608548	5.0	300.0	4.0	8.0	4.0	2.0	0.0	part_2
156	1.0	5.0			300.0	0.0	0.0							6.0	0.0	0.5526997307315469	6.0	300.0	1.0	1.0	1.0	1.0	0.0	part_2
157	1.0	5.0			300.0	0.0	0.0							6.0	0.0	0.452225404093042	6.0	300.0	4.0	8.0	4.0	2.0	0.0	part_2
158	1.0	5.0			300.0	0.0	0.0							6.0	0.0	0.4063554350286722	6.0	300.0	1.0	1.0	1.0	1.0	0.0	part_2
159	1.0	5.0			300.0	0.0	0.0							5.0	0.0	0.46390913729555905	5.0	300.0	2.0	5.0	2.0	6.0	0.0	part_2
160	1.0	5.0			300.0	0.0	1.0							6.0	0.0	0.4196593158412725	6.0	300.0	2.0	2.0	6.0	7.0	0.0	part_2
161	3.0	5.0			300.0	0.0	1.0							6.0	0.0	0.455389421666041	6.0	300.0	2.0	2.0	6.0	7.0	1.0	part_2
162	1.0	5.0			300.0	0.0	0.0							5.0	0.0	0.5901255300268531	5.0	250.0	2.0	5.0	2.0	6.0	0.0	part_2
163	1.0	5.0			300.0	0.0	0.0							6.0	0.0	0.4788273849990219	6.0	250.0	4.0	8.0	4.0	2.0	0.0	part_2
164	4.0	5.0			300.0	0.0	1.0							5.0	0.0	0.0	0.0	250.0	4.0	3.0	8.0	8.0	1.0	part_2
165	1.0	5.0			350.0	0.0	0.0							6.0	0.0	0.45853125071153045	6.0	250.0	1.0	1.0	1.0	1.0	0.0	part_2
166	1.0	5.0			350.0	0.0	1.0							6.0	0.0	0.4806029889732599	6.0	250.0	1.0	7.0	5.0	5.0	0.0	part_2
167	4.0	5.0			350.0	0.0	1.0							6.0	0.0	0.0	0.0	250.0	3.0	6.0	7.0	4.0	1.0	part_2
168	1.0	5.0			350.0	0.0	1.0							6.0	0.0	0.6516417262610048	6.0	300.0	3.0	6.0	7.0	4.0	0.0	part_2
169	1.0	5.0			350.0	0.0	0.0							5.0	0.0	0.4172613527625799	5.0	300.0	3.0	4.0	3.0	3.0	0.0	part_2
170	4.0	5.0			350.0	0.0	1.0							6.0	0.0	0.0	0.0	300.0	4.0	3.0	8.0	8.0	1.0	part_2
171	4.0	5.0			350.0	0.0	1.0							6.0	0.0	0.0	0.0	350.0	1.0	7.0	5.0	5.0	1.0	part_2
172	1.0	5.0			350.0	0.0	1.0							5.0	0.0	0.4412952761631459	5.0	400.0	3.0	6.0	7.0	4.0	0.0	part_2
173	1.0	5.0			350.0	0.0	0.0							6.0	0.0	0.40852065943181515	6.0	400.0	3.0	4.0	3.0	3.0	0.0	part_2
174	3.0	5.0			350.0	0.0	1.0							6.0	0.0	0.4145500618033111	6.0	400.0	2.0	2.0	6.0	7.0	1.0	part_2
175	1.0	5.0			350.0	0.0	1.0							6.0	0.0	0.6230439969804138	6.0	350.0	2.0	2.0	6.0	7.0	0.0	part_2
176	1.0	5.0			350.0	0.0	0.0							6.0	0.0	0.365474299993366	6.0	350.0	3.0	4.0	3.0	3.0	0.0	part_2
177	1.0	5.0			350.0	0.0	0.0							6.0	0.0	0.3436299057211727	6.0	350.0	2.0	5.0	2.0	6.0	0.0	part_2
178	3.0	5.0			350.0	0.0	1.0							5.0	0.0	0.4131071027368307	5.0	350.0	1.0	7.0	5.0	5.0	1.0	part_2
179	3.0	5.0			300.0	0.0	1.0							5.0	0.0	0.4254934035707265	5.0	350.0	2.0	2.0	6.0	7.0	1.0	part_2
180	4.0	6.0			250.0	0.0	1.0							5.0	0.0	0.0	0.0	350.0	2.0	2.0	6.0	7.0	1.0	part_2
181	1.0	6.0			300.0	0.0	0.0							6.0	0.0	0.5017381405923516	6.0	350.0	1.0	1.0	1.0	1.0	0.0	part_2
182	1.0	6.0			300.0	0.0	0.0							6.0	0.0	0.33174797100946307	6.0	350.0	1.0	1.0	1.0	1.0	0.0	part_2
183	3.0	6.0			300.0	0.0	1.0							6.0	0.0	0.3777192353736609	6.0	350.0	1.0	7.0	5.0	5.0	1.0	part_2
184	1.0	6.0			300.0	0.0	0.0							6.0	0.0	0.4252517076674849	6.0	300.0	4.0	8.0	4.0	2.0	0.0	part_2
185	1.0	6.0			300.0	0.0	0.0							5.0	0.0	0.4020381935406476	5.0	300.0	3.0	4.0	3.0	3.0	0.0	part_2
186	1.0	6.0			300.0	0.0	0.0							5.0	0.0	0.40444126073271036	5.0	300.0	1.0	1.0	1.0	1.0	0.0	part_2
187	1.0	6.0			300.0	0.0	0.0							6.0	0.0	0.4500657385215163	6.0	300.0	4.0	8.0	4.0	2.0	0.0	part_2
188	4.0	6.0			300.0	0.0	1.0							5.0	0.0	0.0	0.0	300.0	1.0	7.0	5.0	5.0	1.0	part_2
189	1.0	6.0			350.0	0.0	1.0							6.0	0.0	0.50821926118806	6.0	300.0	4.0	3.0	8.0	8.0	0.0	part_2
190	3.0	6.0			350.0	0.0	1.0							5.0	0.0	0.4080369081348181	5.0	300.0	3.0	6.0	7.0	4.0	1.0	part_2
191	3.0	6.0			300.0	0.0	1.0							6.0	0.0	0.3637464258354157	6.0	300.0	3.0	6.0	7.0	4.0	1.0	part_2
192	1.0	6.0			300.0	0.0	1.0							6.0	0.0	0.5204419561196119	6.0	250.0	1.0	7.0	5.0	5.0	0.0	part_2
193	1.0	6.0			300.0	0.0	0.0							5.0	0.0	0.31863453751429915	5.0	250.0	1.0	1.0	1.0	1.0	0.0	part_2
194	3.0	6.0			300.0	0.0	1.0							5.0	0.0	0.3983054880518466	5.0	250.0	1.0	7.0	5.0	5.0	1.0	part_2
195	1.0	6.0			250.0	0.0	0.0							6.0	0.0	0.46704955282621086	6.0	250.0	2.0	5.0	2.0	6.0	0.0	part_2
196	4.0	6.0			250.0	0.0	1.0							6.0	0.0	0.0	0.0	250.0	1.0	7.0	5.0	5.0	1.0	part_2
197	1.0	6.0			250.0	0.0	0.0							6.0	0.0	0.4795524273067713	6.0	300.0	1.0	1.0	1.0	1.0	0.0	part_2
198	4.0	6.0			250.0	0.0	1.0							6.0	0.0	0.0	0.0	300.0	4.0	3.0	8.0	8.0	1.0	part_2
199	1.0	6.0			250.0	0.0	0.0							6.0	0.0	0.41350436815992	6.0	350.0	3.0	4.0	3.0	3.0	0.0	part_2
200	1.0	6.0			250.0	0.0	0.0							5.0	0.0	0.49417944601736963	5.0	350.0	1.0	1.0	1.0	1.0	0.0	part_2
201	1.0	6.0			250.0	0.0	0.0							5.0	0.0	0.34787406283430755	5.0	350.0	1.0	1.0	1.0	1.0	0.0	part_2
202	3.0	6.0			250.0	0.0	1.0							6.0	0.0	0.36047271150164306	6.0	350.0	3.0	6.0	7.0	4.0	1.0	part_2
203	1.0	6.0			250.0	0.0	1.0							5.0	0.0	0.3282279602717608	5.0	300.0	1.0	7.0	5.0	5.0	0.0	part_2
204	1.0	6.0			250.0	0.0	0.0							6.0	0.0	0.3505085897631943	6.0	300.0	1.0	1.0	1.0	1.0	0.0	part_2
205	3.0	6.0			250.0	0.0	1.0							5.0	0.0	0.32982240663841367	5.0	300.0	2.0	2.0	6.0	7.0	1.0	part_2
206	1.0	6.0			200.0	0.0	1.0							6.0	0.0	0.3761693835258484	6.0	300.0	1.0	7.0	5.0	5.0	0.0	part_2
207	1.0	6.0			200.0	0.0	0.0							6.0	0.0	0.4103150258306414	6.0	300.0	3.0	4.0	3.0	3.0	0.0	part_2
208	1.0	6.0			200.0	0.0	0.0							5.0	0.0	0.4341214457526803	5.0	300.0	4.0	8.0	4.0	2.0	0.0	part_2
209	1.0	6.0			200.0	0.0	0.0							5.0	0.0	0.42330038035288453	5.0	300.0	4.0	8.0	4.0	2.0	0.0	part_2
210	3.0	6.0			200.0	0.0	1.0							6.0	0.0	0.4003928517922759	6.0	300.0	4.0	3.0	8.0	8.0	1.0	part_2
211	1.0	6.0			200.0	0.0	0.0							6.0	0.0	0.4456193803343922	6.0	250.0	2.0	5.0	2.0	6.0	0.0	part_2
212	4.0	6.0			200.0	0.0	1.0							5.0	0.0	0.0	0.0	250.0	1.0	7.0	5.0	5.0	1.0	part_2
213	4.0	6.0			250.0	0.0	1.0							5.0	0.0	0.0	0.0	250.0	2.0	2.0	6.0	7.0	1.0	part_2
214	1.0	6.0			300.0	0.0	0.0							5.0	0.0	0.3812213425990194	5.0	250.0	3.0	4.0	3.0	3.0	0.0	part_2
215	3.0	6.0			300.0	0.0	1.0							5.0	0.0	0.38233125978149474	5.0	250.0	1.0	7.0	5.0	5.0	1.0	part_2
216	1.0	7.0			250.0	0.0	0.0							5.0	0.0	0.41499644820578396	5.0	250.0	3.0	4.0	3.0	3.0	0.0	part_2
217	4.0	7.0			250.0	0.0	1.0							6.0	0.0	0.0	0.0	250.0	4.0	3.0	8.0	8.0	1.0	part_2
218	1.0	7.0			250.0	0.0	1.0							5.0	0.0	0.40599083970300853	5.0	300.0	2.0	2.0	6.0	7.0	0.0	part_2
219	4.0	7.0			250.0	0.0	1.0							5.0	0.0	0.0	0.0	300.0	1.0	7.0	5.0	5.0	1.0	part_2
220	4.0	7.0			300.0	0.0	1.0							5.0	0.0	0.0	0.0	300.0	3.0	6.0	7.0	4.0	1.0	part_2
221	4.0	7.0			350.0	0.0	1.0							6.0	0.0	0.0	0.0	300.0	1.0	7.0	5.0	5.0	1.0	part_2
222	1.0	7.0			350.0	0.0	0.0							6.0	0.0	0.3533355526160449	6.0	350.0	1.0	1.0	1.0	1.0	0.0	part_2
223	3.0	7.0			350.0	0.0	1.0							5.0	0.0	0.4202795026358217	5.0	350.0	4.0	3.0	8.0	8.0	1.0	part_2
224	1.0	7.0			300.0	0.0	1.0							5.0	0.0	0.38769948575645685	5.0	350.0	3.0	6.0	7.0	4.0	0.0	part_2
225	4.0	7.0			300.0	0.0	1.0							5.0	0.0	0.0	0.0	350.0	4.0	3.0	8.0	8.0	1.0	part_2
226	3.0	7.0			350.0	0.0	1.0							6.0	0.0	0.4683901567477733	6.0	350.0	2.0	2.0	6.0	7.0	1.0	part_2
227	4.0	7.0			350.0	0.0	1.0							6.0	0.0	0.0	0.0	300.0	1.0	7.0	5.0	5.0	1.0	part_2
228	1.0	7.0			350.0	0.0	0.0							5.0	0.0	0.3811063824687153	5.0	350.0	1.0	1.0	1.0	1.0	0.0	part_2
229	3.0	7.0			350.0	0.0	1.0							6.0	0.0	0.4267289994750172	6.0	350.0	4.0	3.0	8.0	8.0	1.0	part_2
230	1.0	7.0			350.0	0.0	0.0							5.0	0.0	0.34898520074784756	5.0	300.0	3.0	4.0	3.0	3.0	0.0	part_2
231	3.0	7.0			350.0	0.0	1.0							6.0	0.0	0.4734351052902639	6.0	300.0	2.0	2.0	6.0	7.0	1.0	part_2
232	4.0	7.0			350.0	0.0	1.0							6.0	0.0	0.0	0.0	250.0	2.0	2.0	6.0	7.0	1.0	part_2
233	1.0	7.0			350.0	0.0	0.0							5.0	0.0	0.40660178661346436	5.0	300.0	2.0	5.0	2.0	6.0	0.0	part_2
234	3.0	7.0			350.0	0.0	1.0							5.0	0.0	0.4642391239758581	5.0	300.0	4.0	3.0	8.0	8.0	1.0	part_2
235	1.0	7.0			300.0	0.0	0.0							5.0	0.0	0.6341877074446529	5.0	300.0	3.0	4.0	3.0	3.0	0.0	part_2
236	1.0	7.0			300.0	0.0	0.0							6.0	0.0	0.49891603481955826	6.0	300.0	4.0	8.0	4.0	2.0	0.0	part_2
237	4.0	7.0			300.0	0.0	1.0							6.0	0.0	0.0	0.0	300.0	4.0	3.0	8.0	8.0	1.0	part_2
238	4.0	7.0			300.0	0.0	1.0							5.0	0.0	0.0	0.0	350.0	4.0	3.0	8.0	8.0	1.0	part_2
239	1.0	7.0			350.0	0.0	0.0							6.0	0.0	0.344271992566064	6.0	350.0	2.0	5.0	2.0	6.0	0.0	part_2
240	1.0	7.0			350.0	0.0	0.0							6.0	0.0	0.3562011218164116	6.0	350.0	1.0	1.0	1.0	1.0	0.0	part_2
241	1.0	7.0			350.0	0.0	0.0							5.0	0.0	0.3912015038076788	5.0	350.0	4.0	8.0	4.0	2.0	0.0	part_2
242	1.0	7.0			350.0	0.0	0.0							6.0	0.0	0.3811135471332818	6.0	350.0	4.0	8.0	4.0	2.0	0.0	part_2
243	1.0	7.0			350.0	0.0	0.0							5.0	0.0	0.3489472575020045	5.0	350.0	2.0	5.0	2.0	6.0	0.0	part_2
244	3.0	7.0			350.0	0.0	1.0							5.0	0.0	0.4046036540530622	5.0	350.0	3.0	6.0	7.0	4.0	1.0	part_2
245	3.0	7.0			300.0	0.0	1.0							6.0	0.0	0.474379887804389	6.0	350.0	4.0	3.0	8.0	8.0	1.0	part_2
246	4.0	7.0			300.0	0.0	1.0							5.0	0.0	0.0	0.0	300.0	2.0	2.0	6.0	7.0	1.0	part_2
247	1.0	7.0			350.0	0.0	1.0							5.0	0.0	0.5540847762022167	5.0	300.0	4.0	3.0	8.0	8.0	0.0	part_2
248	1.0	7.0			350.0	0.0	0.0							5.0	0.0	0.3517921946477145	5.0	300.0	1.0	1.0	1.0	1.0	0.0	part_2
249	1.0	7.0			350.0	0.0	0.0							5.0	0.0	0.3743845249991864	5.0	300.0	4.0	8.0	4.0	2.0	0.0	part_2
250	4.0	7.0			350.0	0.0	1.0							5.0	0.0	0.0	0.0	300.0	4.0	3.0	8.0	8.0	1.0	part_2
251	1.0	7.0			400.0	0.0	0.0							5.0	0.0	0.3878332730382681	5.0	300.0	2.0	5.0	2.0	6.0	0.0	part_2
252	1.0	8.0			400.0	0.0	0.0							6.0	0.0	0.4018556347582489	6.0	300.0	1.0	1.0	1.0	1.0	0.0	part_2
253	1.0	8.0			400.0	0.0	0.0							6.0	0.0	0.34644369524903595	6.0	300.0	2.0	5.0	2.0	6.0	0.0	part_2
254	3.0	8.0			400.0	0.0	1.0							5.0	0.0	0.3350078717339784	5.0	300.0	3.0	6.0	7.0	4.0	1.0	part_2
255	4.0	8.0			350.0	0.0	1.0							6.0	0.0	0.0	0.0	300.0	4.0	3.0	8.0	8.0	1.0	part_2
256	1.0	8.0			350.0	0.0	0.0							6.0	0.0	0.41516871377825737	6.0	350.0	3.0	4.0	3.0	3.0	0.0	part_2
257	1.0	8.0			350.0	0.0	0.0							5.0	0.0	0.5064891944639385	5.0	350.0	4.0	8.0	4.0	2.0	0.0	part_2
258	1.0	8.0			350.0	0.0	0.0							5.0	0.0	0.36146254604682326	5.0	350.0	4.0	8.0	4.0	2.0	0.0	part_2
259	3.0	8.0			350.0	0.0	1.0							6.0	0.0	0.3399609997868538	6.0	350.0	3.0	6.0	7.0	4.0	1.0	part_2
260	1.0	8.0			350.0	0.0	0.0							6.0	0.0	0.40882805990986526	6.0	300.0	1.0	1.0	1.0	1.0	0.0	part_2
261	3.0	8.0			350.0	0.0	1.0							6.0	0.0	0.4202378436457366	6.0	300.0	1.0	7.0	5.0	5.0	1.0	part_2
262	4.0	8.0			350.0	0.0	1.0							6.0	0.0	0.0	0.0	250.0	3.0	6.0	7.0	4.0	1.0	part_2
263	4.0	8.0			350.0	0.0	1.0							6.0	0.0	0.0	0.0	300.0	3.0	6.0	7.0	4.0	1.0	part_2
264	1.0	8.0			350.0	0.0	0.0							5.0	0.0	0.4453430725261569	5.0	350.0	3.0	4.0	3.0	3.0	0.0	part_2
265	1.0	8.0			350.0	0.0	0.0							6.0	0.0	0.5918588717468083	6.0	350.0	4.0	8.0	4.0	2.0	0.0	part_2
266	3.0	8.0			350.0	0.0	1.0							5.0	0.0	0.4136810037307441	5.0	350.0	2.0	2.0	6.0	7.0	1.0	part_2
267	1.0	8.0			300.0	0.0	1.0							5.0	0.0	0.4368730173446238	5.0	350.0	2.0	2.0	6.0	7.0	0.0	part_2
268	1.0	8.0			300.0	0.0	0.0							6.0	0.0	0.5598025594372302	6.0	350.0	2.0	5.0	2.0	6.0	0.0	part_2
269	1.0	8.0			300.0	0.0	0.0							5.0	0.0	0.4271863775793463	5.0	350.0	2.0	5.0	2.0	6.0	0.0	part_2
270	4.0	8.0			300.0	0.0	1.0							5.0	0.0	0.0	0.0	350.0	1.0	7.0	5.0	5.0	1.0	part_2
271	1.0	8.0			350.0	0.0	0.0							6.0	0.0	0.48536463640630245	6.0	350.0	1.0	1.0	1.0	1.0	0.0	part_2
272	4.0	8.0			350.0	0.0	1.0							6.0	0.0	0.0	0.0	350.0	4.0	3.0	8.0	8.0	1.0	part_2
273	4.0	8.0			350.0	0.0	1.0							5.0	0.0	0.0	0.0	400.0	2.0	2.0	6.0	7.0	1.0	part_2
274	1.0	8.0			400.0	0.0	0.0							5.0	0.0	0.4747354907449335	5.0	400.0	1.0	1.0	1.0	1.0	0.0	part_2
275	3.0	8.0			400.0	0.0	1.0							5.0	0.0	0.47779006068594754	5.0	400.0	1.0	7.0	5.0	5.0	1.0	part_2
276	3.0	8.0			350.0	0.0	1.0							6.0	0.0	0.38794980430975556	6.0	400.0	2.0	2.0	6.0	7.0	1.0	part_2
277	1.0	8.0			350.0	0.0	0.0							6.0	0.0	0.43237707344815135	6.0	350.0	2.0	5.0	2.0	6.0	0.0	part_2
278	3.0	8.0			350.0	0.0	1.0							6.0	0.0	0.36224518972449005	6.0	350.0	2.0	2.0	6.0	7.0	1.0	part_2
279	1.0	8.0			350.0	0.0	0.0							6.0	0.0	0.5706302914768457	6.0	300.0	4.0	8.0	4.0	2.0	0.0	part_2
280	1.0	8.0			350.0	0.0	0.0							6.0	0.0	0.515013336436823	6.0	300.0	3.0	4.0	3.0	3.0	0.0	part_2
281	1.0	8.0			350.0	0.0	0.0							5.0	0.0	0.4808917394839227	5.0	300.0	3.0	4.0	3.0	3.0	0.0	part_2
282	3.0	8.0			350.0	0.0	1.0							6.0	0.0	0.41449244786053896	6.0	300.0	1.0	7.0	5.0	5.0	1.0	part_2
283	4.0	8.0			350.0	0.0	1.0							5.0	0.0	0.0	0.0	250.0	2.0	2.0	6.0	7.0	1.0	part_2
284	1.0	8.0			400.0	0.0	0.0							6.0	0.0	0.47224354348145425	6.0	250.0	3.0	4.0	3.0	3.0	0.0	part_2
285	3.0	8.0			400.0	0.0	1.0							5.0	0.0	0.43904558243229985	5.0	250.0	3.0	6.0	7.0	4.0	1.0	part_2
286	1.0	8.0			350.0	0.0	1.0							6.0	0.0	0.5862243515439332	6.0	250.0	1.0	7.0	5.0	5.0	0.0	part_2
287	1.0	8.0			350.0	0.0	0.0							5.0	0.0	0.5551542285829782	5.0	250.0	1.0	1.0	1.0	1.0	0.0	part_2
0	0.0	1.0	39.0	1.0	0.0	1.0	1.0	156.0	39.0	117.0	78.0	195.0	234.0	7.0	0.0	4.767164593329653	2.0	0.0	1.0	7.0	5.0	5.0	0.0	part_3
1	0.0	1.0	216.0	4.0	0.0	2.0	0.0	216.0	270.0	108.0	54.0	324.0	162.0	7.0	0.0	1.2517789227422327	1.0	0.0	1.0	1.0	1.0	1.0	0.0	part_3
2	0.0	1.0	54.0	1.0	0.0	1.0	1.0	108.0	162.0	54.0	216.0	324.0	270.0	7.0	0.0	1.98602831736207	3.0	0.0	3.0	6.0	7.0	4.0	0.0	part_3
3	0.0	1.0	324.0	6.0	0.0	1.0	0.0	162.0	324.0	54.0	108.0	216.0	270.0	7.0	0.0	2.14486406580545	2.0	0.0	4.0	8.0	4.0	2.0	0.0	part_3
4	0.0	1.0	270.0	5.0	0.0	1.0	0.0	54.0	324.0	216.0	108.0	270.0	162.0	7.0	0.0	2.7974765272811055	5.0	0.0	3.0	4.0	3.0	3.0	0.0	part_3
5	0.0	1.0	162.0	3.0	0.0	1.0	0.0	54.0	162.0	270.0	216.0	324.0	108.0	7.0	0.0	2.1354713996406645	2.0	0.0	2.0	5.0	2.0	6.0	0.0	part_3
6	0.0	1.0	78.0	2.0	0.0	1.0	1.0	156.0	39.0	78.0	117.0	195.0	234.0	7.0	0.0	1.9323658966459334	3.0	0.0	2.0	2.0	6.0	7.0	0.0	part_3
7	0.0	1.0	132.0	3.0	0.0	1.0	1.0	264.0	176.0	220.0	132.0	44.0	88.0	7.0	0.0	2.1926400226075202	4.0	0.0	2.0	2.0	6.0	7.0	0.0	part_3
8	0.0	1.0	147.0	3.0	0.0	1.0	0.0	98.0	49.0	294.0	147.0	245.0	196.0	7.0	0.0	1.3502232572063804	4.0	0.0	1.0	1.0	1.0	1.0	0.0	part_3
9	0.0	1.0	102.0	3.0	0.0	1.0	1.0	34.0	102.0	68.0	170.0	136.0	204.0	7.0	0.0	2.3518496158067137	2.0	0.0	3.0	6.0	7.0	4.0	0.0	part_3
10	0.0	1.0	220.0	5.0	0.0	1.0	0.0	176.0	132.0	264.0	88.0	220.0	44.0	7.0	0.0	2.1975693001877517	5.0	0.0	4.0	8.0	4.0	2.0	0.0	part_3
11	0.0	1.0	156.0	4.0	0.0	1.0	0.0	117.0	39.0	195.0	156.0	78.0	234.0	7.0	0.0	1.9954581332858652	4.0	0.0	2.0	5.0	2.0	6.0	0.0	part_3
12	0.0	1.0	102.0	3.0	0.0	1.0	1.0	136.0	34.0	102.0	204.0	170.0	68.0	7.0	0.0	2.467635167995468	3.0	0.0	2.0	2.0	6.0	7.0	0.0	part_3
13	0.0	1.0	195.0	5.0	0.0	1.0	0.0	117.0	78.0	234.0	195.0	39.0	156.0	7.0	0.0	2.7627234454266727	4.0	0.0	3.0	4.0	3.0	3.0	0.0	part_3
14	0.0	1.0	147.0	3.0	0.0	1.0	0.0	196.0	147.0	49.0	294.0	245.0	98.0	7.0	0.0	3.2463026598561555	2.0	0.0	3.0	4.0	3.0	3.0	0.0	part_3
15	0.0	1.0	49.0	1.0	0.0	1.0	1.0	98.0	294.0	196.0	49.0	147.0	245.0	7.0	0.0	1.797745636664331	4.0	0.0	1.0	7.0	5.0	5.0	0.0	part_3
16	0.0	1.0	147.0	3.0	0.0	1.0	0.0	147.0	196.0	49.0	294.0	245.0	98.0	7.0	0.0	2.856116717448458	1.0	0.0	2.0	5.0	2.0	6.0	0.0	part_3
17	0.0	1.0	204.0	6.0	0.0	1.0	0.0	102.0	34.0	136.0	204.0	170.0	68.0	7.0	0.0	2.271364000858739	4.0	0.0	4.0	8.0	4.0	2.0	0.0	part_3
18	0.0	1.0	102.0	3.0	0.0	1.0	0.0	68.0	204.0	34.0	102.0	170.0	136.0	7.0	0.0	2.4630859196186066	4.0	0.0	2.0	5.0	2.0	6.0	0.0	part_3
19	0.0	1.0	324.0	6.0	0.0	1.0	1.0	108.0	216.0	162.0	54.0	324.0	270.0	7.0	0.0	2.3851057388819754	5.0	0.0	4.0	3.0	8.0	8.0	0.0	part_3
20	0.0	2.0	136.0	4.0	0.0	1.0	0.0	102.0	170.0	204.0	68.0	136.0	34.0	7.0	0.0	2.6786833277437836	5.0	0.0	1.0	1.0	1.0	1.0	0.0	part_3
21	0.0	2.0	162.0	3.0	0.0	1.0	1.0	324.0	270.0	216.0	108.0	54.0	162.0	7.0	0.0	2.4877401588018984	6.0	0.0	2.0	2.0	6.0	7.0	0.0	part_3
22	0.0	2.0	156.0	4.0	0.0	1.0	1.0	39.0	78.0	156.0	234.0	195.0	117.0	7.0	0.0	2.128153584897518	3.0	0.0	3.0	6.0	7.0	4.0	0.0	part_3
23	0.0	2.0	117.0	3.0	0.0	1.0	0.0	78.0	234.0	39.0	117.0	156.0	195.0	7.0	0.0	1.6581755275838077	4.0	0.0	1.0	1.0	1.0	1.0	0.0	part_3
24	0.0	2.0	170.0	5.0	0.0	1.0	0.0	68.0	204.0	102.0	170.0	34.0	136.0	7.0	0.0	1.0951924894470721	4.0	0.0	2.0	5.0	2.0	6.0	0.0	part_3
25	0.0	2.0	156.0	4.0	0.0	1.0	0.0	39.0	234.0	117.0	195.0	156.0	78.0	7.0	0.0	1.648727675434202	5.0	0.0	2.0	5.0	2.0	6.0	0.0	part_3
26	0.0	2.0	98.0	2.0	0.0	1.0	1.0	294.0	147.0	245.0	49.0	196.0	98.0	7.0	0.0	2.4364241112489253	6.0	0.0	2.0	2.0	6.0	7.0	0.0	part_3
27	0.0	2.0	294.0	6.0	0.0	1.0	1.0	147.0	294.0	49.0	98.0	245.0	196.0	7.0	0.0	2.291006711544469	2.0	0.0	4.0	3.0	8.0	8.0	0.0	part_3
28	0.0	2.0	132.0	3.0	0.0	1.0	0.0	220.0	264.0	132.0	88.0	44.0	176.0	7.0	0.0	1.864416046999395	3.0	0.0	1.0	1.0	1.0	1.0	0.0	part_3
29	0.0	2.0	204.0	6.0	0.0	1.0	1.0	204.0	170.0	102.0	68.0	136.0	34.0	7.0	0.0	1.9227146215271205	1.0	0.0	4.0	3.0	8.0	8.0	0.0	part_3
30	0.0	2.0	34.0	1.0	0.0	1.0	1.0	136.0	68.0	34.0	170.0	204.0	102.0	7.0	0.0	2.520874024834484	3.0	0.0	1.0	7.0	5.0	5.0	0.0	part_3
31	0.0	2.0	176.0	4.0	0.0	1.0	1.0	220.0	176.0	88.0	264.0	132.0	44.0	7.0	0.0	3.3887524413876235	2.0	0.0	2.0	2.0	6.0	7.0	0.0	part_3
32	0.0	2.0	147.0	3.0	0.0	1.0	1.0	98.0	147.0	294.0	196.0	245.0	49.0	7.0	0.0	3.006643578177318	2.0	0.0	2.0	2.0	6.0	7.0	0.0	part_3
33	0.0	2.0	102.0	3.0	0.0	1.0	0.0	68.0	170.0	102.0	204.0	136.0	34.0	7.0	0.0	2.466336701530963	3.0	0.0	1.0	1.0	1.0	1.0	0.0	part_3
34	0.0	2.0	132.0	3.0	0.0	1.0	1.0	176.0	264.0	132.0	44.0	220.0	88.0	7.0	0.0	2.5010627296287566	3.0	0.0	3.0	6.0	7.0	4.0	0.0	part_3
35	0.0	2.0	68.0	2.0	0.0	1.0	1.0	102.0	68.0	170.0	34.0	204.0	136.0	7.0	0.0	1.9733464114833623	2.0	0.0	2.0	2.0	6.0	7.0	0.0	part_3
36	0.0	2.0	270.0	5.0	0.0	1.0	1.0	162.0	216.0	324.0	270.0	54.0	108.0	7.0	0.0	3.315499284071848	4.0	0.0	4.0	3.0	8.0	8.0	0.0	part_3
37	0.0	2.0	162.0	3.0	0.0	1.0	1.0	324.0	216.0	270.0	108.0	54.0	162.0	7.0	0.0	4.394960106816143	6.0	0.0	2.0	2.0	6.0	7.0	0.0	part_3
38	0.0	2.0	108.0	2.0	0.0	1.0	0.0	216.0	324.0	108.0	162.0	270.0	54.0	7.0	0.0	2.4938903970178217	3.0	0.0	3.0	4.0	3.0	3.0	0.0	part_3
39	0.0	2.0	204.0	6.0	0.0	1.0	1.0	204.0	102.0	170.0	68.0	34.0	136.0	7.0	0.0	2.238106059608981	1.0	0.0	4.0	3.0	8.0	8.0	0.0	part_3
40	0.0	3.0	132.0	3.0	0.0	1.0	0.0	132.0	44.0	176.0	88.0	220.0	264.0	7.0	0.0	2.6149211265146732	1.0	0.0	3.0	4.0	3.0	3.0	0.0	part_3
41	0.0	3.0	117.0	3.0	0.0	1.0	1.0	234.0	156.0	39.0	117.0	78.0	195.0	7.0	0.0	2.853568328078836	4.0	0.0	2.0	2.0	6.0	7.0	0.0	part_3
42	0.0	3.0	176.0	4.0	0.0	1.0	0.0	176.0	44.0	132.0	220.0	264.0	88.0	7.0	0.0	3.1570108116138726	1.0	0.0	2.0	5.0	2.0	6.0	0.0	part_3
43	0.0	3.0	176.0	4.0	0.0	1.0	0.0	176.0	44.0	220.0	264.0	88.0	132.0	7.0	0.0	2.032481296453625	1.0	0.0	2.0	5.0	2.0	6.0	0.0	part_3
44	0.0	3.0	204.0	6.0	0.0	1.0	0.0	34.0	68.0	170.0	204.0	102.0	136.0	7.0	0.0	2.0913455116096884	4.0	0.0	4.0	8.0	4.0	2.0	0.0	part_3
45	0.0	3.0	220.0	5.0	0.0	1.0	0.0	132.0	176.0	220.0	88.0	264.0	44.0	7.0	0.0	2.7778708443511277	3.0	0.0	4.0	8.0	4.0	2.0	0.0	part_3
46	0.0	3.0	147.0	3.0	0.0	1.0	1.0	196.0	245.0	98.0	294.0	147.0	49.0	7.0	0.0	2.9822565934155136	5.0	0.0	3.0	6.0	7.0	4.0	0.0	part_3
47	0.0	3.0	39.0	1.0	0.0	1.0	1.0	195.0	39.0	234.0	117.0	78.0	156.0	7.0	0.0	2.183813971467316	2.0	0.0	1.0	7.0	5.0	5.0	0.0	part_3
48	0.0	3.0	264.0	6.0	0.0	1.0	1.0	264.0	176.0	44.0	88.0	220.0	132.0	7.0	0.0	2.488403836498037	1.0	0.0	4.0	3.0	8.0	8.0	0.0	part_3
49	0.0	3.0	294.0	6.0	0.0	1.0	0.0	196.0	49.0	147.0	294.0	245.0	98.0	7.0	0.0	2.1742093104403466	4.0	0.0	4.0	8.0	4.0	2.0	0.0	part_3
50	0.0	3.0	234.0	6.0	0.0	1.0	0.0	39.0	78.0	117.0	156.0	195.0	234.0	7.0	0.0	2.1656264506746083	6.0	0.0	4.0	8.0	4.0	2.0	0.0	part_3
51	0.0	3.0	98.0	2.0	0.0	1.0	1.0	196.0	147.0	294.0	49.0	245.0	98.0	7.0	0.0	3.0426448576617986	6.0	0.0	3.0	6.0	7.0	4.0	0.0	part_3
52	0.0	3.0	234.0	6.0	0.0	1.0	1.0	117.0	156.0	234.0	78.0	39.0	195.0	7.0	0.0	3.077940828865394	3.0	0.0	4.0	3.0	8.0	8.0	0.0	part_3
53	0.0	3.0	264.0	6.0	0.0	1.0	1.0	176.0	44.0	132.0	88.0	264.0	220.0	7.0	0.0	2.1122499592602253	5.0	0.0	4.0	3.0	8.0	8.0	0.0	part_3
54	0.0	3.0	88.0	2.0	0.0	1.0	1.0	132.0	264.0	88.0	220.0	44.0	176.0	7.0	0.0	3.125022173160687	3.0	0.0	3.0	6.0	7.0	4.0	0.0	part_3
55	0.0	3.0	54.0	1.0	0.0	1.0	1.0	324.0	216.0	162.0	270.0	108.0	54.0	7.0	0.0	1.6965581797994673	6.0	0.0	1.0	7.0	5.0	5.0	0.0	part_3
56	0.0	3.0	147.0	3.0	0.0	1.0	0.0	147.0	245.0	98.0	196.0	294.0	49.0	7.0	0.0	2.0151188105810434	1.0	0.0	1.0	1.0	1.0	1.0	0.0	part_3
57	0.0	3.0	147.0	3.0	0.0	1.0	0.0	98.0	196.0	147.0	245.0	49.0	294.0	7.0	0.0	3.6016841772943735	3.0	0.0	2.0	5.0	2.0	6.0	0.0	part_3
58	0.0	3.0	162.0	3.0	0.0	1.0	0.0	216.0	162.0	54.0	108.0	324.0	270.0	7.0	0.0	2.028382064308971	2.0	0.0	2.0	5.0	2.0	6.0	0.0	part_3
59	0.0	3.0	294.0	6.0	0.0	1.0	1.0	245.0	49.0	147.0	196.0	294.0	98.0	7.0	0.0	3.647386135533452	5.0	0.0	4.0	3.0	8.0	8.0	0.0	part_3
60	0.0	4.0	170.0	5.0	0.0	1.0	0.0	136.0	204.0	68.0	102.0	34.0	170.0	7.0	0.0	2.3415973293595016	6.0	0.0	3.0	4.0	3.0	3.0	0.0	part_3
61	0.0	4.0	132.0	3.0	0.0	1.0	0.0	264.0	176.0	132.0	88.0	44.0	220.0	7.0	0.0	1.7122120643034577	3.0	0.0	3.0	4.0	3.0	3.0	0.0	part_3
62	0.0	4.0	44.0	1.0	0.0	1.0	1.0	176.0	44.0	132.0	220.0	88.0	264.0	7.0	0.0	1.7358760978095233	2.0	0.0	1.0	7.0	5.0	5.0	0.0	part_3
63	0.0	4.0	324.0	6.0	0.0	1.0	0.0	270.0	162.0	108.0	54.0	324.0	216.0	7.0	0.0	1.8614777675829828	5.0	0.0	4.0	8.0	4.0	2.0	0.0	part_3
64	0.0	4.0	176.0	4.0	0.0	1.0	0.0	88.0	132.0	176.0	220.0	44.0	264.0	7.0	0.0	3.493900967761874	3.0	0.0	1.0	1.0	1.0	1.0	0.0	part_3
65	0.0	4.0	162.0	3.0	0.0	1.0	1.0	216.0	324.0	54.0	162.0	108.0	270.0	7.0	0.0	2.6168472822755575	4.0	0.0	3.0	6.0	7.0	4.0	0.0	part_3
66	0.0	4.0	117.0	3.0	0.0	1.0	0.0	156.0	78.0	195.0	39.0	234.0	117.0	7.0	0.0	2.2131610894575715	6.0	0.0	1.0	1.0	1.0	1.0	0.0	part_3
67	0.0	4.0	54.0	1.0	0.0	1.0	1.0	270.0	216.0	324.0	162.0	54.0	108.0	7.0	0.0	1.3595685076434165	5.0	0.0	1.0	7.0	5.0	5.0	0.0	part_3
68	0.0	4.0	234.0	6.0	0.0	1.0	0.0	39.0	195.0	156.0	78.0	117.0	234.0	7.0	0.0	2.880317562026903	6.0	0.0	4.0	8.0	4.0	2.0	0.0	part_3
69	0.0	4.0	44.0	1.0	0.0	1.0	1.0	220.0	132.0	88.0	264.0	176.0	44.0	7.0	0.0	1.5527581230271608	6.0	0.0	1.0	7.0	5.0	5.0	0.0	part_3
70	0.0	4.0	49.0	1.0	0.0	1.0	1.0	98.0	294.0	245.0	196.0	49.0	147.0	7.0	0.0	1.8016604618169367	5.0	0.0	1.0	7.0	5.0	5.0	0.0	part_3
71	0.0	4.0	136.0	4.0	0.0	1.0	1.0	170.0	136.0	34.0	204.0	102.0	68.0	7.0	0.0	2.4219907340593636	2.0	0.0	3.0	6.0	7.0	4.0	0.0	part_3
72	0.0	4.0	234.0	6.0	0.0	1.0	1.0	156.0	195.0	39.0	78.0	234.0	117.0	7.0	0.0	3.456701738294214	5.0	0.0	4.0	3.0	8.0	8.0	0.0	part_3
73	0.0	4.0	147.0	3.0	0.0	1.0	0.0	98.0	294.0	196.0	49.0	245.0	147.0	7.0	0.0	2.6253643876407295	6.0	0.0	3.0	4.0	3.0	3.0	0.0	part_3
74	0.0	4.0	162.0	3.0	0.0	1.0	0.0	54.0	216.0	270.0	162.0	324.0	108.0	7.0	0.0	3.3142920341342688	4.0	0.0	1.0	1.0	1.0	1.0	0.0	part_3
75	0.0	4.0	245.0	5.0	0.0	1.0	0.0	49.0	196.0	98.0	147.0	294.0	245.0	7.0	0.0	2.098932883469388	6.0	0.0	4.0	8.0	4.0	2.0	0.0	part_3
76	0.0	4.0	34.0	1.0	0.0	1.0	1.0	136.0	68.0	170.0	204.0	34.0	102.0	7.0	0.0	1.233545480761677	5.0	0.0	1.0	7.0	5.0	5.0	0.0	part_3
77	0.0	4.0	156.0	4.0	0.0	1.0	1.0	156.0	234.0	117.0	39.0	78.0	195.0	7.0	0.0	3.0472876178100705	1.0	0.0	3.0	6.0	7.0	4.0	0.0	part_3
78	0.0	4.0	156.0	4.0	0.0	1.0	0.0	117.0	78.0	156.0	195.0	39.0	234.0	7.0	0.0	2.585963504621759	3.0	0.0	3.0	4.0	3.0	3.0	0.0	part_3
79	0.0	4.0	170.0	5.0	0.0	1.0	0.0	170.0	204.0	136.0	102.0	34.0	68.0	7.0	0.0	2.9590640226379037	1.0	0.0	3.0	4.0	3.0	3.0	0.0	part_3
