	accuracy	block	chosen_bidding_amount	chosen_bidding_level	left_SSD	num_trial_presentations	paired_with_stopping	possible_bid_1	possible_bid_2	possible_bid_3	possible_bid_4	possible_bid_5	possible_bid_6	quadrant	raw_reward_magnitude	reaction_time	response	right_SSD	stepwise_reward_magnitude	stim_color	stim_reward	stim_shape	stop_signal_trial_type	which_part
0		1.0				1.0	1.0							3.0	0.0	0.707880278583616	3.0		0.0	7.0	8.0	2.0		part_1
1		1.0				1.0	1.0							4.0	94.0	0.42936268937774	4.0		2.0	3.0	6.0	8.0		part_1
2		1.0				1.0	1.0							2.0	376.0	0.371618254808709	2.0		4.0	7.0	8.0	2.0		part_1
3		1.0				1.0	0.0							4.0	82.0	0.37278443574905396	4.0		2.0	2.0	2.0	1.0		part_1
4		1.0				1.0	1.0							4.0	210.0	0.407307059969753	4.0		3.0	8.0	7.0	7.0		part_1
5		1.0				1.0	1.0							3.0	377.0	0.30624134675599635	3.0		4.0	7.0	8.0	2.0		part_1
6		1.0				1.0	1.0							2.0	0.0	0.3517173200380057	2.0		0.0	5.0	5.0	4.0		part_1
7		1.0				1.0	1.0							4.0	0.0	0.30785928037948906	4.0		0.0	7.0	8.0	2.0		part_1
8		1.0				1.0	0.0							3.0	195.0	0.37481994763948023	3.0		3.0	6.0	3.0	6.0		part_1
9		1.0				1.0	0.0							1.0	87.0	0.3088849666528404	1.0		2.0	2.0	2.0	1.0		part_1
10		1.0				1.0	1.0							2.0	0.0	0.29751032101921737	2.0		0.0	3.0	6.0	8.0		part_1
11		1.0				1.0	1.0							4.0	111.0	0.2867772248573601	4.0		2.0	3.0	6.0	8.0		part_1
12		1.0				2.0	1.0							1.0	382.0	0.3348199625033885	1.0		4.0	7.0	8.0	2.0		part_1
13		1.0				1.0	0.0							1.0	73.0	0.33595793950371444	1.0		1.0	4.0	1.0	3.0		part_1
14		1.0				1.0	0.0							2.0	46.0	0.34691410954110324	2.0		1.0	4.0	1.0	3.0		part_1
15		1.0				1.0	0.0							3.0	202.0	0.31170468544587493	3.0		3.0	6.0	3.0	6.0		part_1
16		1.0				1.0	1.0							3.0	416.0	0.3910443007480353	3.0		4.0	7.0	8.0	2.0		part_1
17		1.0				1.0	1.0							4.0	184.0	0.30219422676600516	4.0		3.0	8.0	7.0	7.0		part_1
18		1.0				2.0	0.0							4.0	40.0	0.3155860439874232	4.0		1.0	4.0	1.0	3.0		part_1
19		1.0				1.0	1.0							2.0	419.0	0.44974761875346303	2.0		4.0	7.0	8.0	2.0		part_1
20		1.0				1.0	0.0							2.0	415.0	0.360580230364576	2.0		4.0	1.0	4.0	5.0		part_1
21		1.0				1.0	1.0							4.0	62.0	0.3154023173265159	4.0		1.0	5.0	5.0	4.0		part_1
22		1.0				1.0	0.0							1.0	421.0	0.27173650404438376	1.0		4.0	1.0	4.0	5.0		part_1
23		1.0				1.0	1.0							4.0	0.0	0.32968235993757844	4.0		0.0	5.0	5.0	4.0		part_1
24		1.0				1.0	0.0							1.0	379.0	0.3178193625062704	1.0		4.0	1.0	4.0	5.0		part_1
25		1.0				1.0	0.0							4.0	72.0	0.3288960475474596	4.0		1.0	4.0	1.0	3.0		part_1
26		1.0				1.0	1.0							4.0	0.0	0.35372243099845946	4.0		0.0	3.0	6.0	8.0		part_1
27		1.0				1.0	0.0							2.0	0.0	0.3535423194989562	2.0		0.0	2.0	2.0	1.0		part_1
28		1.0				1.0	0.0							4.0	116.0	0.2979871309362352	4.0		2.0	2.0	2.0	1.0		part_1
29		1.0				1.0	0.0							1.0	101.0	0.32197754899971187	1.0		2.0	2.0	2.0	1.0		part_1
30		1.0				1.0	0.0							2.0	376.0	0.34470712253823876	2.0		4.0	1.0	4.0	5.0		part_1
31		1.0				1.0	0.0							4.0	0.0	0.333687259349972	4.0		0.0	6.0	3.0	6.0		part_1
32		1.0				1.0	1.0							3.0	202.0	0.3552594920620322	3.0		3.0	8.0	7.0	7.0		part_1
33		1.0				1.0	1.0							2.0	210.0	0.3337960634380579	2.0		3.0	8.0	7.0	7.0		part_1
34		1.0				1.0	1.0							1.0	111.0	0.5485719728749245	1.0		2.0	3.0	6.0	8.0		part_1
35		1.0				1.0	0.0							3.0	177.0	0.38027385505847633	3.0		3.0	6.0	3.0	6.0		part_1
36		1.0				1.0	0.0							1.0	0.0	0.2677150210365653	1.0		0.0	4.0	1.0	3.0		part_1
37		1.0				1.0	0.0							3.0	195.0	0.4149175160564482	3.0		3.0	6.0	3.0	6.0		part_1
38		1.0				1.0	0.0							4.0	402.0	0.280929172411561	4.0		4.0	1.0	4.0	5.0		part_1
39		1.0				1.0	1.0							1.0	103.0	0.5302998009137809	1.0		2.0	3.0	6.0	8.0		part_1
40		1.0				1.0	0.0							3.0	0.0	0.3594783653970808	3.0		0.0	4.0	1.0	3.0		part_1
41		1.0				1.0	0.0							2.0	179.0	0.3047567834146321	2.0		3.0	6.0	3.0	6.0		part_1
42		1.0				1.0	1.0							3.0	182.0	0.3049812810495496	3.0		3.0	8.0	7.0	7.0		part_1
43		1.0				2.0	1.0							4.0	29.0	0.4073971707839519	4.0		1.0	5.0	5.0	4.0		part_1
44		1.0				1.0	1.0							4.0	122.0	0.3749870725441724	4.0		2.0	3.0	6.0	8.0		part_1
45		1.0				1.0	1.0							1.0	202.0	0.3974567367695272	1.0		3.0	8.0	7.0	7.0		part_1
46		1.0				1.0	0.0							3.0	77.0	0.33137103426270187	3.0		2.0	2.0	2.0	1.0		part_1
47		1.0				1.0	1.0							3.0	40.0	0.3533959344495088	3.0		1.0	5.0	5.0	4.0		part_1
48		1.0				1.0	1.0							3.0	39.0	0.3313016793690622	3.0		1.0	5.0	5.0	4.0		part_1
49		1.0				1.0	1.0							1.0	123.0	0.2981602584477514	1.0		2.0	3.0	6.0	8.0		part_1
50		1.0				1.0	1.0							2.0	105.0	0.5592429011594504	2.0		2.0	3.0	6.0	8.0		part_1
51		1.0				1.0	1.0							3.0	179.0	0.34466818952932954	3.0		3.0	8.0	7.0	7.0		part_1
52		1.0				1.0	1.0							1.0	0.0	0.42475579935126007	1.0		0.0	5.0	5.0	4.0		part_1
53		1.0				1.0	1.0							2.0	0.0	0.3454389243852347	2.0		0.0	5.0	5.0	4.0		part_1
54		1.0				1.0	0.0							3.0	55.0	0.5139324180781841	3.0		1.0	4.0	1.0	3.0		part_1
55		1.0				1.0	1.0							3.0	118.0	0.40266070351935923	3.0		2.0	3.0	6.0	8.0		part_1
56		1.0				1.0	1.0							2.0	50.0	0.3703080154955387	2.0		1.0	5.0	5.0	4.0		part_1
57		1.0				1.0	1.0							4.0	0.0	0.3022234635427594	4.0		0.0	8.0	7.0	7.0		part_1
58		1.0				1.0	1.0							4.0	0.0	0.5736902663484216	4.0		0.0	8.0	7.0	7.0		part_1
59		1.0				1.0	1.0							1.0	401.0	0.4495353754609823	1.0		4.0	7.0	8.0	2.0		part_1
60		1.0				1.0	0.0							2.0	82.0	0.4504747048486024	2.0		2.0	2.0	2.0	1.0		part_1
61		1.0				1.0	0.0							1.0	0.0	0.40585162839852273	1.0		0.0	1.0	4.0	5.0		part_1
62		1.0				1.0	1.0							1.0	0.0	0.3960067930165678	1.0		0.0	3.0	6.0	8.0		part_1
63		1.0				1.0	0.0							2.0	111.0	0.3841791609302163	2.0		2.0	2.0	2.0	1.0		part_1
64		1.0				1.0	1.0							3.0	182.0	0.4521398132201284	3.0		3.0	8.0	7.0	7.0		part_1
65		1.0				1.0	0.0							4.0	417.0	0.3862610545475036	4.0		4.0	1.0	4.0	5.0		part_1
66		1.0				1.0	0.0							3.0	217.0	0.4763787784613669	3.0		3.0	6.0	3.0	6.0		part_1
67		1.0				1.0	0.0							2.0	115.0	0.4540867335163057	2.0		2.0	2.0	2.0	1.0		part_1
68		1.0				1.0	1.0							2.0	199.0	0.5341994429472834	2.0		3.0	8.0	7.0	7.0		part_1
69		1.0				1.0	0.0							4.0	104.0	0.4331082149874419	4.0		2.0	2.0	2.0	1.0		part_1
70		1.0				1.0	0.0							1.0	183.0	0.42362134205177426	1.0		3.0	6.0	3.0	6.0		part_1
71		1.0				1.0	0.0							4.0	48.0	0.4128914379980415	4.0		1.0	4.0	1.0	3.0		part_1
72		1.0				1.0	1.0							4.0	86.0	0.615851606009528	4.0		2.0	3.0	6.0	8.0		part_1
73		1.0				1.0	0.0							1.0	206.0	0.3114987558219582	1.0		3.0	6.0	3.0	6.0		part_1
74		1.0				1.0	1.0							2.0	193.0	0.33616616600193083	2.0		3.0	8.0	7.0	7.0		part_1
75		1.0				1.0	0.0							2.0	0.0	0.32442467263899744	2.0		0.0	1.0	4.0	5.0		part_1
76		1.0				1.0	0.0							2.0	26.0	0.9539418192580342	2.0		1.0	4.0	1.0	3.0		part_1
77		1.0				1.0	0.0							3.0	0.0	0.4029328681062907	3.0		0.0	1.0	4.0	5.0		part_1
78		1.0				1.0	0.0							1.0	382.0	0.6861495207995176	1.0		4.0	1.0	4.0	5.0		part_1
79		1.0				1.0	1.0							4.0	0.0	0.35021083941683173	4.0		0.0	8.0	7.0	7.0		part_1
80		1.0				1.0	0.0							1.0	54.0	0.24737097276374698	1.0		1.0	4.0	1.0	3.0		part_1
81		1.0				1.0	0.0							3.0	108.0	0.30444909795187414	3.0		2.0	2.0	2.0	1.0		part_1
82		1.0				2.0	0.0							4.0	395.0	0.7671043334994465	4.0		4.0	1.0	4.0	5.0		part_1
83		1.0				1.0	0.0							4.0	55.0	0.9805369381792843	4.0		1.0	4.0	1.0	3.0		part_1
84		1.0				1.0	0.0							3.0	406.0	0.3865584647282958	3.0		4.0	1.0	4.0	5.0		part_1
85		1.0				1.0	1.0							2.0	403.0	0.44396465946920216	2.0		4.0	7.0	8.0	2.0		part_1
86		1.0				1.0	0.0							1.0	415.0	0.34237832040525973	1.0		4.0	1.0	4.0	5.0		part_1
87		1.0				1.0	1.0							1.0	217.0	0.400025348411873	1.0		3.0	8.0	7.0	7.0		part_1
88		1.0				1.0	0.0							2.0	0.0	0.3316551358439028	2.0		0.0	6.0	3.0	6.0		part_1
89		1.0				1.0	0.0							3.0	93.0	0.4329935119021684	3.0		2.0	2.0	2.0	1.0		part_1
90		1.0				1.0	0.0							4.0	202.0	0.3108513834886253	4.0		3.0	6.0	3.0	6.0		part_1
91		1.0				1.0	0.0							3.0	216.0	0.41290871892124414	3.0		3.0	6.0	3.0	6.0		part_1
92		1.0				1.0	1.0							2.0	391.0	0.3899434932973236	2.0		4.0	7.0	8.0	2.0		part_1
93		1.0				2.0	0.0							1.0	0.0	0.35762041504494846	1.0		0.0	1.0	4.0	5.0		part_1
94		1.0				1.0	1.0							2.0	195.0	0.3469365278724581	2.0		3.0	8.0	7.0	7.0		part_1
95		1.0				1.0	0.0							1.0	29.0	0.5158243123441935	1.0		1.0	4.0	1.0	3.0		part_1
96		1.0				1.0	0.0							2.0	377.0	0.3817722999956459	2.0		4.0	1.0	4.0	5.0		part_1
97		1.0				1.0	0.0							4.0	398.0	0.2932687883730978	4.0		4.0	1.0	4.0	5.0		part_1
98		1.0				1.0	1.0							1.0	99.0	0.5973135977983475	1.0		2.0	3.0	6.0	8.0		part_1
99		1.0				2.0	0.0							4.0	191.0	0.3282644534483552	4.0		3.0	6.0	3.0	6.0		part_1
100		2.0				1.0	1.0							1.0	222.0	0.6018325418699533	1.0		3.0	8.0	7.0	7.0		part_1
101		2.0				1.0	0.0							4.0	0.0	0.3315793168731034	4.0		0.0	4.0	1.0	3.0		part_1
102		2.0				1.0	1.0							3.0	398.0	0.3451403183862567	3.0		4.0	7.0	8.0	2.0		part_1
103		2.0				2.0	1.0							4.0	119.0	0.36695560975931585	4.0		2.0	3.0	6.0	8.0		part_1
104		2.0				1.0	1.0							3.0	384.0	0.3570554892066866	3.0		4.0	7.0	8.0	2.0		part_1
105		2.0				1.0	1.0							3.0	55.0	0.42528460663743317	3.0		1.0	5.0	5.0	4.0		part_1
106		2.0				2.0	1.0							1.0	421.0	0.38107380270957947	1.0		4.0	7.0	8.0	2.0		part_1
107		2.0				1.0	0.0							1.0	86.0	0.37052786094136536	1.0		2.0	2.0	2.0	1.0		part_1
108		2.0				1.0	1.0							4.0	377.0	0.3947787005454302	4.0		4.0	7.0	8.0	2.0		part_1
109		2.0				1.0	0.0							3.0	25.0	0.7889239373616874	3.0		1.0	4.0	1.0	3.0		part_1
110		2.0				1.0	0.0							2.0	29.0	0.4397550409194082	2.0		1.0	4.0	1.0	3.0		part_1
111		2.0				1.0	1.0							4.0	0.0	0.4511931233573705	4.0		0.0	5.0	5.0	4.0		part_1
112		2.0				1.0	0.0							3.0	405.0	0.3738312339410186	3.0		4.0	1.0	4.0	5.0		part_1
113		2.0				1.0	1.0							3.0	120.0	0.5310963215306401	3.0		2.0	3.0	6.0	8.0		part_1
114		2.0				1.0	1.0							3.0	194.0	0.5449035477358848	3.0		3.0	8.0	7.0	7.0		part_1
115		2.0				2.0	0.0							2.0	0.0	0.3870697219390422	2.0		0.0	2.0	2.0	1.0		part_1
116		2.0				1.0	1.0							3.0	220.0	0.4322519735433161	3.0		3.0	8.0	7.0	7.0		part_1
117		2.0				1.0	0.0							3.0	388.0	0.43340797745622694	3.0		4.0	1.0	4.0	5.0		part_1
118		2.0				1.0	1.0							2.0	401.0	0.5345087167806923	2.0		4.0	7.0	8.0	2.0		part_1
119		2.0				1.0	1.0							2.0	217.0	0.47842658404260874	2.0		3.0	8.0	7.0	7.0		part_1
120		2.0				1.0	1.0							2.0	72.0	0.3677793829701841	2.0		1.0	5.0	5.0	4.0		part_1
121		2.0				1.0	0.0							3.0	185.0	0.5262767488602549	3.0		3.0	6.0	3.0	6.0		part_1
122		2.0				1.0	0.0							2.0	0.0	0.649346953490749	2.0		0.0	1.0	4.0	5.0		part_1
123		2.0				1.0	0.0							3.0	0.0	0.4365196854341775	3.0		0.0	4.0	1.0	3.0		part_1
124		2.0				1.0	1.0							2.0	36.0	0.39176193648017943	2.0		1.0	5.0	5.0	4.0		part_1
125		2.0				1.0	0.0							1.0	190.0	0.4272943965625018	1.0		3.0	6.0	3.0	6.0		part_1
126		2.0				1.0	1.0							1.0	211.0	0.3927637399174273	1.0		3.0	8.0	7.0	7.0		part_1
127		2.0				1.0	0.0							1.0	202.0	0.41696712700650096	1.0		3.0	6.0	3.0	6.0		part_1
128		2.0				1.0	0.0							1.0	422.0	0.32628966495394707	1.0		4.0	1.0	4.0	5.0		part_1
129		2.0				1.0	1.0							1.0	407.0	0.29407564038410783	1.0		4.0	7.0	8.0	2.0		part_1
130		2.0				1.0	0.0							2.0	111.0	0.38550581224262714	2.0		2.0	2.0	2.0	1.0		part_1
131		2.0				1.0	1.0							2.0	207.0	0.3840558994561434	2.0		3.0	8.0	7.0	7.0		part_1
132		2.0				1.0	1.0							3.0	116.0	0.39697269373573363	3.0		2.0	3.0	6.0	8.0		part_1
133		2.0				1.0	0.0							1.0	0.0	0.3420838413294405	1.0		0.0	6.0	3.0	6.0		part_1
134		2.0				1.0	1.0							1.0	47.0	0.565769103821367	1.0		1.0	5.0	5.0	4.0		part_1
135		2.0				1.0	0.0							4.0	0.0	0.48782143695279956	4.0		0.0	2.0	2.0	1.0		part_1
136		2.0				1.0	1.0							1.0	63.0	0.6120487358421087	1.0		1.0	5.0	5.0	4.0		part_1
137		2.0				1.0	1.0							1.0	395.0	0.36617316282354295	1.0		4.0	7.0	8.0	2.0		part_1
138		2.0				1.0	1.0							2.0	113.0	0.42324368795379996	2.0		2.0	3.0	6.0	8.0		part_1
139		2.0				1.0	1.0							4.0	55.0	0.3337414530105889	4.0		1.0	5.0	5.0	4.0		part_1
140		2.0				1.0	0.0							2.0	211.0	0.41184247215278447	2.0		3.0	6.0	3.0	6.0		part_1
141		2.0				1.0	1.0							1.0	107.0	0.38962522335350513	1.0		2.0	3.0	6.0	8.0		part_1
142		2.0				1.0	0.0							4.0	401.0	0.7389621143229306	4.0		4.0	1.0	4.0	5.0		part_1
143		2.0				1.0	1.0							1.0	0.0	0.7863925360143185	1.0		0.0	7.0	8.0	2.0		part_1
144		2.0				1.0	1.0							4.0	422.0	0.47132973838597536	4.0		4.0	7.0	8.0	2.0		part_1
145		2.0				1.0	0.0							1.0	99.0	0.4599106323439628	1.0		2.0	2.0	2.0	1.0		part_1
146		2.0				1.0	1.0							3.0	0.0	0.4708153170067817	3.0		0.0	3.0	6.0	8.0		part_1
147		2.0				1.0	1.0							3.0	55.0	0.6521475850604475	3.0		1.0	5.0	5.0	4.0		part_1
148		2.0				1.0	1.0							1.0	68.0	0.9004439949057996	1.0		1.0	5.0	5.0	4.0		part_1
149		2.0				1.0	1.0							4.0	398.0	0.5851040233392268	4.0		4.0	7.0	8.0	2.0		part_1
150		2.0				1.0	0.0							1.0	94.0	0.41761590889655054	1.0		2.0	2.0	2.0	1.0		part_1
151		2.0				1.0	0.0							2.0	88.0	0.5094199343584478	2.0		2.0	2.0	2.0	1.0		part_1
152		2.0				1.0	0.0							3.0	121.0	0.47523879050277174	3.0		2.0	2.0	2.0	1.0		part_1
153		2.0				1.0	0.0							1.0	207.0	0.45286351535469294	1.0		3.0	6.0	3.0	6.0		part_1
154		2.0				1.0	1.0							3.0	33.0	0.5544667481444776	3.0		1.0	5.0	5.0	4.0		part_1
155		2.0				1.0	1.0							4.0	82.0	0.6779533559456468	4.0		2.0	3.0	6.0	8.0		part_1
156		2.0				1.0	0.0							2.0	199.0	0.4997830220963806	2.0		3.0	6.0	3.0	6.0		part_1
157		2.0				1.0	1.0							1.0	183.0	0.6347977614495903	1.0		3.0	8.0	7.0	7.0		part_1
158		2.0				1.0	0.0							2.0	222.0	0.534965593367815	2.0		3.0	6.0	3.0	6.0		part_1
159		2.0				1.0	0.0							4.0	0.0	0.46711921878159046	4.0		0.0	1.0	4.0	5.0		part_1
160		2.0				1.0	0.0							1.0	36.0	0.33263329742476344	1.0		1.0	4.0	1.0	3.0		part_1
161		2.0				1.0	0.0							2.0	94.0	0.3895224437583238	2.0		2.0	2.0	2.0	1.0		part_1
162		2.0				1.0	1.0							3.0	70.0	0.40166814904659986	3.0		1.0	5.0	5.0	4.0		part_1
163		2.0				1.0	0.0							1.0	0.0	0.41437202389352024	1.0		0.0	4.0	1.0	3.0		part_1
164		2.0				1.0	0.0							4.0	183.0	0.26767134154215455	4.0		3.0	6.0	3.0	6.0		part_1
165		2.0				1.0	0.0							2.0	414.0	0.2582482930738479	2.0		4.0	1.0	4.0	5.0		part_1
166		2.0				2.0	1.0							1.0	73.0	0.26833718200214207	1.0		1.0	5.0	5.0	4.0		part_1
167		2.0				1.0	0.0							3.0	0.0	0.35975016187876463	3.0		0.0	4.0	1.0	3.0		part_1
168		2.0				1.0	0.0							2.0	82.0	0.37087155785411596	2.0		2.0	2.0	2.0	1.0		part_1
169		2.0				1.0	0.0							4.0	208.0	0.3834699068684131	4.0		3.0	6.0	3.0	6.0		part_1
170		2.0				1.0	0.0							2.0	210.0	0.3961248428095132	2.0		3.0	6.0	3.0	6.0		part_1
171		2.0				1.0	1.0							4.0	44.0	0.4078851053491235	4.0		1.0	5.0	5.0	4.0		part_1
172		2.0				1.0	1.0							4.0	89.0	0.3294446843210608	4.0		2.0	3.0	6.0	8.0		part_1
173		2.0				1.0	0.0							3.0	76.0	0.4075163130182773	3.0		2.0	2.0	2.0	1.0		part_1
174		2.0				1.0	1.0							1.0	176.0	0.40873522288165987	1.0		3.0	8.0	7.0	7.0		part_1
175		2.0				1.0	1.0							2.0	71.0	0.3313399429898709	2.0		1.0	5.0	5.0	4.0		part_1
176		2.0				1.0	0.0							4.0	113.0	0.2747397730126977	4.0		2.0	2.0	2.0	1.0		part_1
177		2.0				1.0	1.0							1.0	0.0	0.30895885336212814	1.0		0.0	8.0	7.0	7.0		part_1
178		2.0				1.0	1.0							4.0	190.0	0.33145683887414634	4.0		3.0	8.0	7.0	7.0		part_1
179		2.0				1.0	1.0							3.0	222.0	0.4565350927878171	3.0		3.0	8.0	7.0	7.0		part_1
180		2.0				1.0	0.0							2.0	419.0	0.30031348019838333	2.0		4.0	1.0	4.0	5.0		part_1
181		2.0				1.0	0.0							2.0	176.0	0.33348778798244894	2.0		3.0	6.0	3.0	6.0		part_1
182		2.0				1.0	0.0							3.0	98.0	0.3800755375996232	3.0		2.0	2.0	2.0	1.0		part_1
183		2.0				1.0	1.0							4.0	0.0	0.34658838086761534	4.0		0.0	3.0	6.0	8.0		part_1
184		2.0				1.0	1.0							2.0	25.0	0.2904450024943799	2.0		1.0	5.0	5.0	4.0		part_1
185		2.0				1.0	1.0							3.0	99.0	0.33600113028660417	3.0		2.0	3.0	6.0	8.0		part_1
186		2.0				1.0	1.0							4.0	220.0	0.3015955009032041	4.0		3.0	8.0	7.0	7.0		part_1
187		2.0				1.0	1.0							3.0	0.0	0.3472390950191766	3.0		0.0	3.0	6.0	8.0		part_1
188		2.0				1.0	1.0							2.0	0.0	0.49481697799637914	2.0		0.0	3.0	6.0	8.0		part_1
189		2.0				1.0	1.0							3.0	177.0	0.47288043634034693	3.0		3.0	8.0	7.0	7.0		part_1
190		2.0				1.0	0.0							3.0	376.0	0.29243522277101874	3.0		4.0	1.0	4.0	5.0		part_1
191		2.0				1.0	1.0							4.0	206.0	0.28303066245280206	4.0		3.0	8.0	7.0	7.0		part_1
192		2.0				1.0	0.0							1.0	0.0	0.30620263097807765	1.0		0.0	4.0	1.0	3.0		part_1
193		2.0				1.0	0.0							2.0	184.0	0.3055193480104208	2.0		3.0	6.0	3.0	6.0		part_1
194		2.0				1.0	1.0							3.0	415.0	0.2965171074029058	3.0		4.0	7.0	8.0	2.0		part_1
195		2.0				1.0	0.0							4.0	120.0	0.3532917704433203	4.0		2.0	2.0	2.0	1.0		part_1
196		2.0				1.0	0.0							2.0	424.0	0.3530624264385551	2.0		4.0	1.0	4.0	5.0		part_1
197		2.0				1.0	0.0							1.0	119.0	0.26341885700821877	1.0		2.0	2.0	2.0	1.0		part_1
198		2.0				1.0	1.0							3.0	0.0	0.2863049269653857	3.0		0.0	8.0	7.0	7.0		part_1
199		2.0				1.0	1.0							1.0	415.0	0.2887313838582486	1.0		4.0	7.0	8.0	2.0		part_1
200		3.0				1.0	1.0							1.0	54.0	0.30937018315307796	1.0		1.0	5.0	5.0	4.0		part_1
201		3.0				1.0	1.0							2.0	101.0	0.3314402948599309	2.0		2.0	3.0	6.0	8.0		part_1
202		3.0				1.0	1.0							4.0	49.0	0.26365723786875606	4.0		1.0	5.0	5.0	4.0		part_1
203		3.0				1.0	0.0							1.0	415.0	0.3443217808380723	1.0		4.0	1.0	4.0	5.0		part_1
204		3.0				1.0	0.0							3.0	51.0	0.33273443300276995	3.0		1.0	4.0	1.0	3.0		part_1
205		3.0				1.0	0.0							2.0	0.0	0.27871580282226205	2.0		0.0	2.0	2.0	1.0		part_1
206		3.0				2.0	1.0							1.0	216.0	0.324979116441682	1.0		3.0	8.0	7.0	7.0		part_1
207		3.0				1.0	1.0							3.0	102.0	0.40258024097420275	3.0		2.0	3.0	6.0	8.0		part_1
208		3.0				1.0	0.0							1.0	176.0	0.32496267883107066	1.0		3.0	6.0	3.0	6.0		part_1
209		3.0				1.0	0.0							3.0	416.0	0.38140522013418376	3.0		4.0	1.0	4.0	5.0		part_1
210		3.0				1.0	1.0							4.0	405.0	0.44945608475245535	4.0		4.0	7.0	8.0	2.0		part_1
211		3.0				1.0	1.0							4.0	65.0	0.3707989698741585	4.0		1.0	5.0	5.0	4.0		part_1
212		3.0				1.0	1.0							3.0	0.0	0.37259090039879084	3.0		0.0	7.0	8.0	2.0		part_1
213		3.0				2.0	1.0							1.0	0.0	0.44211269286461174	1.0		0.0	7.0	8.0	2.0		part_1
214		3.0				1.0	0.0							1.0	107.0	0.30747396661899984	1.0		2.0	2.0	2.0	1.0		part_1
215		3.0				1.0	0.0							1.0	412.0	0.44139410369098186	1.0		4.0	1.0	4.0	5.0		part_1
216		3.0				1.0	1.0							2.0	0.0	0.32936908188275993	2.0		0.0	8.0	7.0	7.0		part_1
217		3.0				1.0	1.0							2.0	0.0	0.37545716762542725	2.0		0.0	8.0	7.0	7.0		part_1
218		3.0				1.0	0.0							2.0	0.0	0.4317872778046876	2.0		0.0	2.0	2.0	1.0		part_1
219		3.0				1.0	0.0							4.0	0.0	0.39884856855496764	4.0		0.0	6.0	3.0	6.0		part_1
220		3.0				1.0	0.0							3.0	0.0	0.42187492339871824	3.0		0.0	6.0	3.0	6.0		part_1
221		3.0				1.0	1.0							2.0	195.0	0.512717044679448	2.0		3.0	8.0	7.0	7.0		part_1
222		3.0				1.0	1.0							2.0	26.0	0.40065450593829155	2.0		1.0	5.0	5.0	4.0		part_1
223		3.0				1.0	0.0							4.0	105.0	0.5815827078185976	4.0		2.0	2.0	2.0	1.0		part_1
224		3.0				1.0	1.0							3.0	94.0	0.3666648087091744	3.0		2.0	3.0	6.0	8.0		part_1
225		3.0				1.0	0.0							3.0	391.0	0.36781089077703655	3.0		4.0	1.0	4.0	5.0		part_1
226		3.0				1.0	1.0							2.0	183.0	0.49295448907651007	2.0		3.0	8.0	7.0	7.0		part_1
227		3.0				1.0	1.0							1.0	402.0	0.526598442113027	1.0		4.0	7.0	8.0	2.0		part_1
228		3.0				1.0	0.0							1.0	390.0	0.3710359039250761	1.0		4.0	1.0	4.0	5.0		part_1
229		3.0				1.0	0.0							4.0	407.0	0.3247639569453895	4.0		4.0	1.0	4.0	5.0		part_1
230		3.0				1.0	0.0							4.0	398.0	0.3142948127351701	4.0		4.0	1.0	4.0	5.0		part_1
231		3.0				3.0	1.0							3.0	68.0	0.4163007359020412	3.0		1.0	5.0	5.0	4.0		part_1
232		3.0				1.0	0.0							3.0	44.0	0.429689401993528	3.0		1.0	4.0	1.0	3.0		part_1
233		3.0				1.0	0.0							1.0	37.0	0.3173846343997866	1.0		1.0	4.0	1.0	3.0		part_1
234		3.0				1.0	1.0							4.0	185.0	0.3069594809785485	4.0		3.0	8.0	7.0	7.0		part_1
235		3.0				1.0	1.0							2.0	0.0	0.286367961904034	2.0		0.0	7.0	8.0	2.0		part_1
236		3.0				1.0	0.0							3.0	382.0	0.3537780337501317	3.0		4.0	1.0	4.0	5.0		part_1
237		3.0				1.0	1.0							4.0	388.0	0.2643996807746589	4.0		4.0	7.0	8.0	2.0		part_1
238		3.0				1.0	1.0							2.0	208.0	0.33140591555275023	2.0		3.0	8.0	7.0	7.0		part_1
239		3.0				1.0	1.0							1.0	51.0	0.3558167100418359	1.0		1.0	5.0	5.0	4.0		part_1
240		3.0				1.0	1.0							4.0	216.0	0.2763498588465154	4.0		3.0	8.0	7.0	7.0		part_1
241		3.0				1.0	1.0							2.0	110.0	0.5132592776790261	2.0		2.0	3.0	6.0	8.0		part_1
242		3.0				1.0	0.0							3.0	185.0	0.5014619114808738	3.0		3.0	6.0	3.0	6.0		part_1
243		3.0				1.0	0.0							2.0	401.0	0.5247430938761681	2.0		4.0	1.0	4.0	5.0		part_1
244		3.0				1.0	0.0							1.0	0.0	0.27870327490381896	1.0		0.0	4.0	1.0	3.0		part_1
245		3.0				1.0	1.0							4.0	376.0	0.3797287973575294	4.0		4.0	7.0	8.0	2.0		part_1
246		3.0				1.0	1.0							2.0	414.0	0.31384470290504396	2.0		4.0	7.0	8.0	2.0		part_1
247		3.0				1.0	1.0							1.0	93.0	0.37105962890200317	1.0		2.0	3.0	6.0	8.0		part_1
248		3.0				1.0	1.0							2.0	0.0	0.43846903182566166	2.0		0.0	5.0	5.0	4.0		part_1
249		3.0				1.0	1.0							1.0	0.0	0.4056902746669948	1.0		0.0	5.0	5.0	4.0		part_1
250		3.0				1.0	0.0							1.0	389.0	0.3602773549500853	1.0		4.0	1.0	4.0	5.0		part_1
251		3.0				1.0	1.0							4.0	415.0	0.35109924734570086	4.0		4.0	7.0	8.0	2.0		part_1
252		3.0				1.0	1.0							4.0	64.0	0.34016227815300226	4.0		1.0	5.0	5.0	4.0		part_1
253		3.0				1.0	1.0							3.0	52.0	0.34986232477240264	3.0		1.0	5.0	5.0	4.0		part_1
254		3.0				1.0	0.0							3.0	68.0	0.48548115440644324	3.0		1.0	4.0	1.0	3.0		part_1
255		3.0				1.0	1.0							1.0	220.0	0.39725454803556204	1.0		3.0	8.0	7.0	7.0		part_1
256		3.0				1.0	0.0							1.0	65.0	0.44396908790804446	1.0		1.0	4.0	1.0	3.0		part_1
257		3.0				1.0	0.0							3.0	110.0	0.6450742343440652	3.0		2.0	2.0	2.0	1.0		part_1
258		3.0				1.0	1.0							4.0	390.0	0.35375253902748227	4.0		4.0	7.0	8.0	2.0		part_1
259		3.0				1.0	1.0							2.0	36.0	0.5676540965214372	2.0		1.0	5.0	5.0	4.0		part_1
260		3.0				1.0	1.0							3.0	0.0	0.5115402287337929	3.0		0.0	7.0	8.0	2.0		part_1
261		3.0				1.0	0.0							4.0	0.0	0.8725576344877481	4.0		0.0	6.0	3.0	6.0		part_1
262		3.0				1.0	1.0							3.0	104.0	0.44667961192317307	3.0		2.0	3.0	6.0	8.0		part_1
263		3.0				1.0	1.0							2.0	176.0	0.5471649058163166	2.0		3.0	8.0	7.0	7.0		part_1
264		3.0				1.0	0.0							4.0	217.0	0.3225517214741558	4.0		3.0	6.0	3.0	6.0		part_1
265		3.0				1.0	1.0							2.0	88.0	0.3914806959219277	2.0		2.0	3.0	6.0	8.0		part_1
266		3.0				1.0	0.0							3.0	47.0	0.3357358896173537	3.0		1.0	4.0	1.0	3.0		part_1
267		3.0				1.0	0.0							3.0	60.0	0.3467490675393492	3.0		1.0	4.0	1.0	3.0		part_1
268		3.0				1.0	0.0							1.0	220.0	0.31495838635601103	1.0		3.0	6.0	3.0	6.0		part_1
269		3.0				2.0	1.0							4.0	213.0	0.2365984939970076	4.0		3.0	8.0	7.0	7.0		part_1
270		3.0				2.0	1.0							2.0	38.0	0.305429593892768	2.0		1.0	5.0	5.0	4.0		part_1
271		3.0				1.0	0.0							4.0	213.0	0.385278097121045	4.0		3.0	6.0	3.0	6.0		part_1
272		3.0				1.0	1.0							1.0	54.0	0.35173800541087985	1.0		1.0	5.0	5.0	4.0		part_1
273		3.0				1.0	0.0							3.0	384.0	0.6100133296567947	3.0		4.0	1.0	4.0	5.0		part_1
274		3.0				1.0	0.0							3.0	182.0	0.35217765695415437	3.0		3.0	6.0	3.0	6.0		part_1
275		3.0				1.0	0.0							4.0	218.0	0.37449788535013795	4.0		3.0	6.0	3.0	6.0		part_1
276		3.0				1.0	0.0							1.0	62.0	0.39770598127506673	1.0		1.0	4.0	1.0	3.0		part_1
277		3.0				1.0	0.0							3.0	194.0	0.500923810293898	3.0		3.0	6.0	3.0	6.0		part_1
278		3.0				1.0	1.0							3.0	76.0	0.3421847301069647	3.0		2.0	3.0	6.0	8.0		part_1
279		3.0				1.0	0.0							4.0	102.0	0.41065706103108823	4.0		2.0	2.0	2.0	1.0		part_1
280		3.0				1.0	0.0							4.0	381.0	0.4676503846421838	4.0		4.0	1.0	4.0	5.0		part_1
281		3.0				1.0	1.0							1.0	113.0	0.3558691523503512	1.0		2.0	3.0	6.0	8.0		part_1
282		3.0				1.0	1.0							2.0	0.0	0.31165483919903636	2.0		0.0	5.0	5.0	4.0		part_1
283		3.0				1.0	0.0							4.0	99.0	0.30187400290742517	4.0		2.0	2.0	2.0	1.0		part_1
284		3.0				1.0	1.0							3.0	0.0	0.31213781679980457	3.0		0.0	7.0	8.0	2.0		part_1
285		3.0				1.0	1.0							3.0	389.0	0.33598465751856565	3.0		4.0	7.0	8.0	2.0		part_1
286		3.0				1.0	0.0							4.0	0.0	0.278985396027565	4.0		0.0	2.0	2.0	1.0		part_1
287		3.0				1.0	0.0							3.0	87.0	0.3600586948450655	3.0		2.0	2.0	2.0	1.0		part_1
288		3.0				1.0	1.0							1.0	0.0	0.39324096334166825	1.0		0.0	8.0	7.0	7.0		part_1
289		3.0				1.0	0.0							2.0	64.0	0.3489352206233889	2.0		1.0	4.0	1.0	3.0		part_1
290		3.0				1.0	1.0							3.0	77.0	0.4962786843534559	3.0		2.0	3.0	6.0	8.0		part_1
291		3.0				1.0	0.0							4.0	0.0	0.3161992884706706	4.0		0.0	4.0	1.0	3.0		part_1
292		3.0				1.0	0.0							3.0	38.0	0.349513232242316	3.0		1.0	4.0	1.0	3.0		part_1
293		3.0				1.0	0.0							3.0	0.0	0.3623301279731095	3.0		0.0	1.0	4.0	5.0		part_1
294		3.0				1.0	1.0							1.0	414.0	0.5664103550370783	1.0		4.0	7.0	8.0	2.0		part_1
295		3.0				1.0	1.0							3.0	191.0	0.5650049983523786	3.0		3.0	8.0	7.0	7.0		part_1
296		3.0				1.0	0.0							4.0	0.0	0.30876811989583075	4.0		0.0	6.0	3.0	6.0		part_1
297		3.0				1.0	0.0							3.0	417.0	0.34111537667922676	3.0		4.0	1.0	4.0	5.0		part_1
298		3.0				1.0	1.0							1.0	0.0	0.3093444590922445	1.0		0.0	3.0	6.0	8.0		part_1
299		3.0				1.0	1.0							4.0	87.0	0.3317451043985784	4.0		2.0	3.0	6.0	8.0		part_1
300		4.0				2.0	1.0							1.0	183.0	0.3414640889968723	1.0		3.0	8.0	7.0	7.0		part_1
301		4.0				1.0	1.0							2.0	417.0	0.2877113064751029	2.0		4.0	7.0	8.0	2.0		part_1
302		4.0				1.0	1.0							3.0	87.0	0.42122081690467894	3.0		2.0	3.0	6.0	8.0		part_1
303		4.0				1.0	0.0							2.0	398.0	0.4562797546386719	2.0		4.0	1.0	4.0	5.0		part_1
304		4.0				1.0	0.0							2.0	36.0	0.2876146365888417	2.0		1.0	4.0	1.0	3.0		part_1
305		4.0				1.0	1.0							4.0	0.0	0.3224378814920783	4.0		0.0	8.0	7.0	7.0		part_1
306		4.0				1.0	1.0							3.0	0.0	0.35609822743572295	3.0		0.0	7.0	8.0	2.0		part_1
307		4.0				1.0	1.0							2.0	108.0	0.33615430747158825	2.0		2.0	3.0	6.0	8.0		part_1
308		4.0				1.0	1.0							1.0	82.0	0.32386647537350655	1.0		2.0	3.0	6.0	8.0		part_1
309		4.0				1.0	1.0							4.0	0.0	0.32464854838326573	4.0		0.0	5.0	5.0	4.0		part_1
310		4.0				1.0	1.0							2.0	406.0	0.29155425052158535	2.0		4.0	7.0	8.0	2.0		part_1
311		4.0				1.0	1.0							1.0	56.0	0.28073265752755105	1.0		1.0	5.0	5.0	4.0		part_1
312		4.0				1.0	0.0							4.0	222.0	0.3029067669995129	4.0		3.0	6.0	3.0	6.0		part_1
313		4.0				1.0	0.0							2.0	53.0	0.2708902577869594	2.0		1.0	4.0	1.0	3.0		part_1
314		4.0				1.0	0.0							2.0	0.0	0.33920552604831755	2.0		0.0	4.0	1.0	3.0		part_1
315		4.0				1.0	0.0							1.0	54.0	0.2828152980655432	1.0		1.0	4.0	1.0	3.0		part_1
316		4.0				1.0	1.0							1.0	382.0	0.6317636610474437	1.0		4.0	7.0	8.0	2.0		part_1
317		4.0				1.0	0.0							4.0	25.0	0.4966564814094454	4.0		1.0	4.0	1.0	3.0		part_1
318		4.0				1.0	0.0							1.0	0.0	0.31823260500095785	1.0		0.0	1.0	4.0	5.0		part_1
319		4.0				1.0	1.0							2.0	90.0	0.4435978289693594	2.0		2.0	3.0	6.0	8.0		part_1
320		4.0				1.0	0.0							1.0	217.0	0.3530018040910363	1.0		3.0	6.0	3.0	6.0		part_1
321		4.0				1.0	0.0							3.0	0.0	0.46562680578790605	3.0		0.0	6.0	3.0	6.0		part_1
322		4.0				1.0	0.0							2.0	103.0	0.31952800368890166	2.0		2.0	2.0	2.0	1.0		part_1
323		4.0				1.0	0.0							4.0	0.0	0.7595001724548638	4.0		0.0	2.0	2.0	1.0		part_1
324		4.0				1.0	0.0							3.0	122.0	0.41074585099704564	3.0		2.0	2.0	2.0	1.0		part_1
325		4.0				1.0	1.0							2.0	398.0	0.321953532518819	2.0		4.0	7.0	8.0	2.0		part_1
326		4.0				1.0	0.0							3.0	0.0	0.4014548941049725	3.0		0.0	2.0	2.0	1.0		part_1
327		4.0				1.0	0.0							1.0	63.0	0.3581531278323382	1.0		1.0	4.0	1.0	3.0		part_1
328		4.0				1.0	0.0							1.0	71.0	0.3572421446442604	1.0		1.0	4.0	1.0	3.0		part_1
329		4.0				1.0	0.0							1.0	216.0	0.403193247737363	1.0		3.0	6.0	3.0	6.0		part_1
330		4.0				1.0	0.0							2.0	182.0	0.35917087085545063	2.0		3.0	6.0	3.0	6.0		part_1
331		4.0				1.0	1.0							3.0	55.0	0.41539508919231594	3.0		1.0	5.0	5.0	4.0		part_1
332		4.0				1.0	0.0							2.0	87.0	0.38173396489582956	2.0		2.0	2.0	2.0	1.0		part_1
333		4.0				1.0	0.0							1.0	193.0	0.43993402691558003	1.0		3.0	6.0	3.0	6.0		part_1
334		4.0				1.0	0.0							4.0	66.0	0.33719888841733336	4.0		1.0	4.0	1.0	3.0		part_1
335		4.0				1.0	1.0							4.0	46.0	0.6976837464608252	4.0		1.0	5.0	5.0	4.0		part_1
336		4.0				1.0	0.0							2.0	52.0	0.4181073328945786	2.0		1.0	4.0	1.0	3.0		part_1
337		4.0				1.0	1.0							2.0	48.0	0.35091358819045126	2.0		1.0	5.0	5.0	4.0		part_1
338		4.0				1.0	0.0							3.0	33.0	0.7345712934620678	3.0		1.0	4.0	1.0	3.0		part_1
339		4.0				1.0	0.0							3.0	0.0	0.3531471583992243	3.0		0.0	6.0	3.0	6.0		part_1
340		4.0				1.0	1.0							4.0	185.0	0.3972034794278443	4.0		3.0	8.0	7.0	7.0		part_1
341		4.0				2.0	1.0							3.0	29.0	0.43226627772673965	3.0		1.0	5.0	5.0	4.0		part_1
342		4.0				1.0	1.0							3.0	0.0	0.38838523300364614	3.0		0.0	3.0	6.0	8.0		part_1
343		4.0				1.0	0.0							4.0	68.0	0.3328867165837437	4.0		1.0	4.0	1.0	3.0		part_1
344		4.0				1.0	1.0							1.0	87.0	0.54737619147636	1.0		2.0	3.0	6.0	8.0		part_1
345		4.0				1.0	0.0							4.0	49.0	0.34385874844156206	4.0		1.0	4.0	1.0	3.0		part_1
346		4.0				1.0	0.0							3.0	392.0	0.36643250845372677	3.0		4.0	1.0	4.0	5.0		part_1
347		4.0				1.0	1.0							2.0	87.0	0.5034453442785889	2.0		2.0	3.0	6.0	8.0		part_1
348		4.0				1.0	0.0							3.0	90.0	0.5384627755265683	3.0		2.0	2.0	2.0	1.0		part_1
349		4.0				1.0	0.0							4.0	87.0	0.4583412844222039	4.0		2.0	2.0	2.0	1.0		part_1
350		4.0				1.0	1.0							1.0	115.0	0.7747798247728497	1.0		2.0	3.0	6.0	8.0		part_1
351		4.0				1.0	1.0							4.0	202.0	0.3927643629722297	4.0		3.0	8.0	7.0	7.0		part_1
352		4.0				1.0	1.0							4.0	82.0	0.4951985841616988	4.0		2.0	3.0	6.0	8.0		part_1
353		4.0				1.0	0.0							3.0	0.0	0.4499850005377084	3.0		0.0	1.0	4.0	5.0		part_1
354		4.0				1.0	0.0							1.0	396.0	0.3262620361056179	1.0		4.0	1.0	4.0	5.0		part_1
355		4.0				1.0	0.0							2.0	220.0	0.3403324424289167	2.0		3.0	6.0	3.0	6.0		part_1
356		4.0				1.0	0.0							4.0	403.0	0.327889543492347	4.0		4.0	1.0	4.0	5.0		part_1
357		4.0				1.0	0.0							2.0	55.0	0.4089763932861388	2.0		1.0	4.0	1.0	3.0		part_1
358		4.0				1.0	0.0							4.0	220.0	0.2837125496007502	4.0		3.0	6.0	3.0	6.0		part_1
359		4.0				1.0	0.0							2.0	414.0	0.3863132349215448	2.0		4.0	1.0	4.0	5.0		part_1
360		4.0				1.0	1.0							4.0	37.0	0.35360412765294313	4.0		1.0	5.0	5.0	4.0		part_1
361		4.0				2.0	1.0							3.0	389.0	0.3991321239154786	3.0		4.0	7.0	8.0	2.0		part_1
362		4.0				1.0	0.0							2.0	210.0	0.5133913995232433	2.0		3.0	6.0	3.0	6.0		part_1
363		4.0				1.0	1.0							1.0	66.0	0.3775144580285996	1.0		1.0	5.0	5.0	4.0		part_1
364		4.0				1.0	0.0							4.0	0.0	0.37853713892400265	4.0		0.0	1.0	4.0	5.0		part_1
365		4.0				1.0	0.0							2.0	70.0	0.41327787353657186	2.0		1.0	4.0	1.0	3.0		part_1
366		4.0				1.0	1.0							2.0	0.0	0.7274588674772531	2.0		0.0	3.0	6.0	8.0		part_1
367		4.0				1.0	0.0							4.0	377.0	0.39185002935118973	4.0		4.0	1.0	4.0	5.0		part_1
368		4.0				1.0	0.0							1.0	83.0	0.34563105925917625	1.0		2.0	2.0	2.0	1.0		part_1
369		4.0				1.0	0.0							4.0	183.0	0.3355094126891345	4.0		3.0	6.0	3.0	6.0		part_1
370		4.0				1.0	0.0							2.0	389.0	0.3491639697458595	2.0		4.0	1.0	4.0	5.0		part_1
371		4.0				1.0	1.0							2.0	83.0	0.3360224268399179	2.0		2.0	3.0	6.0	8.0		part_1
372		4.0				1.0	1.0							3.0	381.0	0.4375696540810168	3.0		4.0	7.0	8.0	2.0		part_1
373		4.0				1.0	1.0							1.0	0.0	0.6203938000835478	1.0		0.0	5.0	5.0	4.0		part_1
374		4.0				1.0	0.0							1.0	113.0	0.4962216189596802	1.0		2.0	2.0	2.0	1.0		part_1
375		4.0				1.0	1.0							3.0	217.0	0.4956504222936928	3.0		3.0	8.0	7.0	7.0		part_1
376		4.0				1.0	1.0							2.0	424.0	0.328121738974005	2.0		4.0	7.0	8.0	2.0		part_1
377		4.0				1.0	1.0							1.0	412.0	0.3522500260733068	1.0		4.0	7.0	8.0	2.0		part_1
378		4.0				1.0	0.0							2.0	0.0	0.3068392158020288	2.0		0.0	6.0	3.0	6.0		part_1
379		4.0				1.0	1.0							1.0	218.0	0.2960370604414493	1.0		3.0	8.0	7.0	7.0		part_1
380		4.0				1.0	0.0							4.0	39.0	0.3413214278407395	4.0		1.0	4.0	1.0	3.0		part_1
381		4.0				1.0	0.0							4.0	50.0	0.35260598128661513	4.0		1.0	4.0	1.0	3.0		part_1
382		4.0				1.0	0.0							2.0	55.0	0.47881584987044334	2.0		1.0	4.0	1.0	3.0		part_1
383		4.0				1.0	0.0							2.0	0.0	0.3667084467597306	2.0		0.0	2.0	2.0	1.0		part_1
384		4.0				1.0	1.0							2.0	0.0	0.321610854472965	2.0		0.0	8.0	7.0	7.0		part_1
385		4.0				2.0	0.0							3.0	56.0	0.3676103074103594	3.0		1.0	4.0	1.0	3.0		part_1
386		4.0				1.0	0.0							2.0	118.0	0.4126972700469196	2.0		2.0	2.0	2.0	1.0		part_1
387		4.0				1.0	1.0							4.0	60.0	0.33389734476804733	4.0		1.0	5.0	5.0	4.0		part_1
388		4.0				1.0	0.0							4.0	89.0	0.3686680218670517	4.0		2.0	2.0	2.0	1.0		part_1
389		4.0				1.0	1.0							3.0	379.0	0.40347126103006303	3.0		4.0	7.0	8.0	2.0		part_1
390		4.0				1.0	1.0							2.0	98.0	0.40409144293516874	2.0		2.0	3.0	6.0	8.0		part_1
391		4.0				1.0	0.0							2.0	0.0	0.41707722027786076	2.0		0.0	2.0	2.0	1.0		part_1
392		4.0				1.0	1.0							4.0	392.0	0.3161769730504602	4.0		4.0	7.0	8.0	2.0		part_1
393		4.0				1.0	1.0							2.0	53.0	0.44096010620705783	2.0		1.0	5.0	5.0	4.0		part_1
394		4.0				1.0	1.0							4.0	121.0	0.6877752009313554	4.0		2.0	3.0	6.0	8.0		part_1
395		4.0				1.0	0.0							1.0	123.0	0.45305633288808167	1.0		2.0	2.0	2.0	1.0		part_1
396		4.0				1.0	1.0							2.0	0.0	0.3620615100953728	2.0		0.0	7.0	8.0	2.0		part_1
397		4.0				1.0	1.0							3.0	396.0	0.385997605510056	3.0		4.0	7.0	8.0	2.0		part_1
398		4.0				1.0	1.0							4.0	417.0	0.35121883847750723	4.0		4.0	7.0	8.0	2.0		part_1
399		4.0				1.0	1.0							1.0	25.0	0.3297122963704169	1.0		1.0	5.0	5.0	4.0		part_1
0	1.0	1.0			250.0	0.0	0.0							5.0	0.0	0.32432976830750704	5.0	250.0	1.0	4.0	1.0	3.0	0.0	part_2
1	1.0	1.0			250.0	0.0	0.0							5.0	0.0	0.5842017510440201	5.0	250.0	4.0	1.0	4.0	5.0	0.0	part_2
2	1.0	1.0			250.0	0.0	0.0							5.0	0.0	0.325795513112098	5.0	250.0	4.0	1.0	4.0	5.0	0.0	part_2
3	1.0	1.0			250.0	0.0	0.0							6.0	0.0	0.5852230796590447	6.0	250.0	4.0	1.0	4.0	5.0	0.0	part_2
4	1.0	1.0			250.0	0.0	0.0							6.0	0.0	0.3743911648634821	6.0	250.0	2.0	2.0	2.0	1.0	0.0	part_2
5	1.0	1.0			250.0	0.0	0.0							5.0	0.0	0.36298955883830786	5.0	250.0	2.0	2.0	2.0	1.0	0.0	part_2
6	4.0	1.0			250.0	0.0	1.0							6.0	0.0	0.0	0.0	250.0	4.0	7.0	8.0	2.0	1.0	part_2
7	4.0	1.0			250.0	0.0	1.0							5.0	0.0	0.0	0.0	300.0	3.0	8.0	7.0	7.0	1.0	part_2
8	1.0	1.0			300.0	0.0	0.0							6.0	0.0	0.3759431147482246	6.0	300.0	1.0	4.0	1.0	3.0	0.0	part_2
9	3.0	1.0			300.0	0.0	1.0							6.0	0.0	0.3537287798244506	6.0	300.0	3.0	8.0	7.0	7.0	1.0	part_2
10	4.0	1.0			300.0	0.0	1.0							6.0	0.0	0.0	0.0	250.0	3.0	8.0	7.0	7.0	1.0	part_2
11	3.0	1.0			300.0	0.0	1.0							6.0	0.0	0.3793248867150396	6.0	300.0	1.0	5.0	5.0	4.0	1.0	part_2
12	1.0	1.0			300.0	0.0	0.0							5.0	0.0	0.5924551466014236	5.0	250.0	4.0	1.0	4.0	5.0	0.0	part_2
13	1.0	1.0			300.0	0.0	1.0							5.0	0.0	0.39243904245086014	5.0	250.0	4.0	7.0	8.0	2.0	0.0	part_2
14	4.0	1.0			300.0	0.0	1.0							5.0	0.0	0.0	0.0	250.0	2.0	3.0	6.0	8.0	1.0	part_2
15	1.0	1.0			350.0	0.0	0.0							6.0	0.0	0.4718993748538196	6.0	250.0	1.0	4.0	1.0	3.0	0.0	part_2
16	1.0	1.0			350.0	0.0	0.0							6.0	0.0	0.34877058677375317	6.0	250.0	2.0	2.0	2.0	1.0	0.0	part_2
17	1.0	1.0			350.0	0.0	0.0							5.0	0.0	0.44134233542717993	5.0	250.0	1.0	4.0	1.0	3.0	0.0	part_2
18	1.0	1.0			350.0	0.0	0.0							5.0	0.0	0.4402790470048785	5.0	250.0	3.0	6.0	3.0	6.0	0.0	part_2
19	3.0	1.0			350.0	0.0	1.0							5.0	0.0	0.306328333215788	5.0	250.0	2.0	3.0	6.0	8.0	1.0	part_2
20	4.0	1.0			300.0	0.0	1.0							5.0	0.0	0.0	0.0	250.0	1.0	5.0	5.0	4.0	1.0	part_2
21	4.0	1.0			350.0	0.0	1.0							6.0	0.0	0.0	0.0	250.0	4.0	7.0	8.0	2.0	1.0	part_2
22	1.0	1.0			350.0	0.0	0.0							6.0	0.0	0.578188713407144	6.0	300.0	4.0	1.0	4.0	5.0	0.0	part_2
23	4.0	1.0			350.0	0.0	1.0							6.0	0.0	0.0	0.0	300.0	4.0	7.0	8.0	2.0	1.0	part_2
24	3.0	1.0			350.0	0.0	1.0							5.0	0.0	0.4233196349814534	5.0	350.0	1.0	5.0	5.0	4.0	1.0	part_2
25	1.0	1.0			300.0	0.0	0.0							6.0	0.0	0.8284669569693506	6.0	350.0	1.0	4.0	1.0	3.0	0.0	part_2
26	3.0	1.0			300.0	0.0	1.0							5.0	0.0	0.335612635826692	5.0	350.0	1.0	5.0	5.0	4.0	1.0	part_2
27	1.0	1.0			250.0	0.0	0.0							6.0	0.0	0.8883918519131839	6.0	350.0	4.0	1.0	4.0	5.0	0.0	part_2
28	1.0	1.0			250.0	0.0	0.0							5.0	0.0	0.5852724409196526	5.0	350.0	1.0	4.0	1.0	3.0	0.0	part_2
29	1.0	1.0			250.0	0.0	0.0							6.0	0.0	0.5299879496451467	6.0	350.0	3.0	6.0	3.0	6.0	0.0	part_2
30	3.0	1.0			250.0	0.0	1.0							6.0	0.0	0.3837491637095809	6.0	350.0	1.0	5.0	5.0	4.0	1.0	part_2
31	4.0	1.0			250.0	0.0	1.0							5.0	0.0	0.0	0.0	300.0	2.0	3.0	6.0	8.0	1.0	part_2
32	1.0	1.0			300.0	0.0	0.0							5.0	0.0	0.5077064561191946	5.0	300.0	2.0	2.0	2.0	1.0	0.0	part_2
33	1.0	1.0			300.0	0.0	0.0							6.0	0.0	0.3288735735695809	6.0	300.0	2.0	2.0	2.0	1.0	0.0	part_2
34	4.0	1.0			300.0	0.0	1.0							5.0	0.0	0.0	0.0	300.0	4.0	7.0	8.0	2.0	1.0	part_2
35	3.0	1.0			350.0	0.0	1.0							5.0	0.0	0.4108509663492441	5.0	300.0	3.0	8.0	7.0	7.0	1.0	part_2
36	1.0	2.0			300.0	0.0	0.0							6.0	0.0	0.45106073655188084	6.0	300.0	3.0	6.0	3.0	6.0	0.0	part_2
37	4.0	2.0			300.0	0.0	1.0							6.0	0.0	0.0	0.0	300.0	3.0	8.0	7.0	7.0	1.0	part_2
38	1.0	2.0			300.0	0.0	0.0							6.0	0.0	0.36257881321944296	6.0	350.0	1.0	4.0	1.0	3.0	0.0	part_2
39	1.0	2.0			300.0	0.0	0.0							6.0	0.0	0.45405269344337285	6.0	350.0	4.0	1.0	4.0	5.0	0.0	part_2
40	1.0	2.0			300.0	0.0	0.0							5.0	0.0	0.31961511680856347	5.0	350.0	2.0	2.0	2.0	1.0	0.0	part_2
41	3.0	2.0			300.0	0.0	1.0							6.0	0.0	0.3108978536911309	6.0	350.0	2.0	3.0	6.0	8.0	1.0	part_2
42	1.0	2.0			300.0	0.0	0.0							6.0	0.0	0.5805502622388303	6.0	300.0	3.0	6.0	3.0	6.0	0.0	part_2
43	1.0	2.0			300.0	0.0	0.0							5.0	0.0	0.559166963910684	5.0	300.0	1.0	4.0	1.0	3.0	0.0	part_2
44	3.0	2.0			300.0	0.0	1.0							6.0	0.0	0.35649575502611697	6.0	300.0	3.0	8.0	7.0	7.0	1.0	part_2
45	1.0	2.0			300.0	0.0	0.0							5.0	0.0	0.5056100399233401	5.0	250.0	3.0	6.0	3.0	6.0	0.0	part_2
46	1.0	2.0			300.0	0.0	1.0							6.0	0.0	0.6181825513485819	6.0	250.0	3.0	8.0	7.0	7.0	0.0	part_2
47	1.0	2.0			300.0	0.0	1.0							5.0	0.0	0.37227882887236774	5.0	250.0	3.0	8.0	7.0	7.0	0.0	part_2
48	3.0	2.0			300.0	0.0	1.0							5.0	0.0	0.3948074320796877	5.0	250.0	3.0	8.0	7.0	7.0	1.0	part_2
49	1.0	2.0			250.0	0.0	0.0							6.0	0.0	0.574732527602464	6.0	250.0	1.0	4.0	1.0	3.0	0.0	part_2
50	1.0	2.0			250.0	0.0	0.0							6.0	0.0	0.4751504920423031	6.0	250.0	2.0	2.0	2.0	1.0	0.0	part_2
51	1.0	2.0			250.0	0.0	0.0							5.0	0.0	0.5310377683490515	5.0	250.0	1.0	4.0	1.0	3.0	0.0	part_2
52	4.0	2.0			250.0	0.0	1.0							5.0	0.0	0.0	0.0	250.0	3.0	8.0	7.0	7.0	1.0	part_2
53	3.0	2.0			300.0	0.0	1.0							5.0	0.0	0.4328703985083848	5.0	250.0	2.0	3.0	6.0	8.0	1.0	part_2
54	1.0	2.0			250.0	0.0	0.0							6.0	0.0	0.45526465703733265	6.0	250.0	4.0	1.0	4.0	5.0	0.0	part_2
55	4.0	2.0			250.0	0.0	1.0							6.0	0.0	0.0	0.0	250.0	2.0	3.0	6.0	8.0	1.0	part_2
56	1.0	2.0			250.0	0.0	1.0							5.0	0.0	0.8058439597953111	5.0	300.0	3.0	8.0	7.0	7.0	0.0	part_2
57	4.0	2.0			250.0	0.0	1.0							6.0	0.0	0.0	0.0	300.0	4.0	7.0	8.0	2.0	1.0	part_2
58	1.0	2.0			250.0	0.0	0.0							5.0	0.0	0.44851850159466267	5.0	350.0	1.0	4.0	1.0	3.0	0.0	part_2
59	1.0	2.0			250.0	0.0	0.0							5.0	0.0	0.7063467467669398	5.0	350.0	4.0	1.0	4.0	5.0	0.0	part_2
60	4.0	2.0			250.0	0.0	1.0							6.0	0.0	0.0	0.0	350.0	4.0	7.0	8.0	2.0	1.0	part_2
61	1.0	2.0			250.0	0.0	1.0							6.0	0.0	0.6747871995903552	6.0	400.0	2.0	3.0	6.0	8.0	0.0	part_2
62	1.0	2.0			250.0	0.0	0.0							6.0	0.0	0.4064068666193634	6.0	400.0	3.0	6.0	3.0	6.0	0.0	part_2
63	1.0	2.0			250.0	0.0	1.0							6.0	0.0	0.6761715754400939	6.0	400.0	4.0	7.0	8.0	2.0	0.0	part_2
64	3.0	2.0			250.0	0.0	1.0							6.0	0.0	0.3959873905405402	6.0	400.0	1.0	5.0	5.0	4.0	1.0	part_2
65	1.0	2.0			250.0	0.0	0.0							6.0	0.0	0.4094572791364044	6.0	350.0	4.0	1.0	4.0	5.0	0.0	part_2
66	4.0	2.0			250.0	0.0	1.0							6.0	0.0	0.0	0.0	350.0	1.0	5.0	5.0	4.0	1.0	part_2
67	1.0	2.0			250.0	0.0	0.0							6.0	0.0	0.5689149515237659	6.0	400.0	2.0	2.0	2.0	1.0	0.0	part_2
68	4.0	2.0			250.0	0.0	1.0							6.0	0.0	0.0	0.0	400.0	3.0	8.0	7.0	7.0	1.0	part_2
69	3.0	2.0			250.0	0.0	1.0							5.0	0.0	0.39019333361648023	5.0	450.0	3.0	8.0	7.0	7.0	1.0	part_2
70	1.0	2.0			200.0	0.0	0.0							6.0	0.0	0.6378791267052293	6.0	450.0	3.0	6.0	3.0	6.0	0.0	part_2
71	1.0	2.0			200.0	0.0	0.0							6.0	0.0	0.6053841365501285	6.0	450.0	2.0	2.0	2.0	1.0	0.0	part_2
72	3.0	3.0			200.0	0.0	1.0							5.0	0.0	0.5626295958645642	5.0	450.0	3.0	8.0	7.0	7.0	1.0	part_2
73	1.0	3.0			150.0	0.0	1.0							6.0	0.0	0.6090858296956867	6.0	450.0	2.0	3.0	6.0	8.0	0.0	part_2
74	3.0	3.0			150.0	0.0	1.0							6.0	0.0	0.5403530322946608	6.0	450.0	2.0	3.0	6.0	8.0	1.0	part_2
75	1.0	3.0			150.0	0.0	0.0							5.0	0.0	0.689242307562381	5.0	400.0	1.0	4.0	1.0	3.0	0.0	part_2
76	1.0	3.0			150.0	0.0	1.0							5.0	0.0	0.6446508006192744	5.0	400.0	1.0	5.0	5.0	4.0	0.0	part_2
77	1.0	3.0			150.0	0.0	0.0							5.0	0.0	0.5900607861112803	5.0	400.0	2.0	2.0	2.0	1.0	0.0	part_2
78	1.0	3.0			150.0	0.0	0.0							6.0	0.0	0.4873996679671109	6.0	400.0	1.0	4.0	1.0	3.0	0.0	part_2
79	4.0	3.0			150.0	0.0	1.0							5.0	0.0	0.0	0.0	400.0	4.0	7.0	8.0	2.0	1.0	part_2
80	3.0	3.0			200.0	0.0	1.0							6.0	0.0	0.524040806107223	6.0	400.0	3.0	8.0	7.0	7.0	1.0	part_2
81	4.0	3.0			200.0	0.0	1.0							5.0	0.0	0.0	0.0	350.0	3.0	8.0	7.0	7.0	1.0	part_2
82	1.0	3.0			250.0	0.0	0.0							6.0	0.0	0.42495410586707294	6.0	350.0	1.0	4.0	1.0	3.0	0.0	part_2
83	1.0	3.0			250.0	0.0	0.0							5.0	0.0	0.5819399848114699	5.0	350.0	2.0	2.0	2.0	1.0	0.0	part_2
84	1.0	3.0			250.0	0.0	0.0							5.0	0.0	0.4022575756534934	5.0	350.0	3.0	6.0	3.0	6.0	0.0	part_2
85	3.0	3.0			250.0	0.0	1.0							6.0	0.0	0.27969530248083174	6.0	350.0	2.0	3.0	6.0	8.0	1.0	part_2
86	1.0	3.0			250.0	0.0	0.0							6.0	0.0	0.6298995988909155	6.0	300.0	2.0	2.0	2.0	1.0	0.0	part_2
87	4.0	3.0			250.0	0.0	1.0							5.0	0.0	0.0	0.0	300.0	2.0	3.0	6.0	8.0	1.0	part_2
88	3.0	3.0			300.0	0.0	1.0							6.0	0.0	0.2497336775995791	6.0	300.0	3.0	8.0	7.0	7.0	1.0	part_2
89	1.0	3.0			300.0	0.0	1.0							5.0	0.0	0.6662219630088657	5.0	250.0	3.0	8.0	7.0	7.0	0.0	part_2
90	1.0	3.0			300.0	0.0	0.0							6.0	0.0	0.5197023628279567	6.0	250.0	1.0	4.0	1.0	3.0	0.0	part_2
91	1.0	3.0			300.0	0.0	1.0							5.0	0.0	0.3872786157298833	5.0	250.0	2.0	3.0	6.0	8.0	0.0	part_2
92	3.0	3.0			300.0	0.0	1.0							5.0	0.0	0.44336916762404144	5.0	250.0	1.0	5.0	5.0	4.0	1.0	part_2
93	4.0	3.0			250.0	0.0	1.0							6.0	0.0	0.0	0.0	250.0	1.0	5.0	5.0	4.0	1.0	part_2
94	1.0	3.0			250.0	0.0	0.0							5.0	0.0	0.4572587558068335	5.0	300.0	2.0	2.0	2.0	1.0	0.0	part_2
95	4.0	3.0			250.0	0.0	1.0							6.0	0.0	0.0	0.0	300.0	2.0	3.0	6.0	8.0	1.0	part_2
96	1.0	3.0			250.0	0.0	0.0							5.0	0.0	0.5714818346314132	5.0	350.0	4.0	1.0	4.0	5.0	0.0	part_2
97	1.0	3.0			250.0	0.0	1.0							6.0	0.0	0.5713799148797989	6.0	350.0	1.0	5.0	5.0	4.0	0.0	part_2
98	1.0	3.0			250.0	0.0	0.0							6.0	0.0	0.4031800739467144	6.0	350.0	2.0	2.0	2.0	1.0	0.0	part_2
99	1.0	3.0			250.0	0.0	0.0							5.0	0.0	0.404596502892673	5.0	350.0	4.0	1.0	4.0	5.0	0.0	part_2
100	1.0	3.0			250.0	0.0	0.0							5.0	0.0	0.6416392736136913	5.0	350.0	1.0	4.0	1.0	3.0	0.0	part_2
101	4.0	3.0			250.0	0.0	1.0							5.0	0.0	0.0	0.0	350.0	4.0	7.0	8.0	2.0	1.0	part_2
102	4.0	3.0			300.0	0.0	1.0							5.0	0.0	0.0	0.0	350.0	2.0	3.0	6.0	8.0	1.0	part_2
103	1.0	3.0			350.0	0.0	0.0							6.0	0.0	0.5762014808133245	6.0	350.0	4.0	1.0	4.0	5.0	0.0	part_2
104	4.0	3.0			350.0	0.0	1.0							6.0	0.0	0.0	0.0	350.0	4.0	7.0	8.0	2.0	1.0	part_2
105	1.0	3.0			350.0	0.0	0.0							5.0	0.0	0.6127523377072066	5.0	400.0	2.0	2.0	2.0	1.0	0.0	part_2
106	1.0	3.0			350.0	0.0	1.0							5.0	0.0	0.7040895638056099	5.0	400.0	3.0	8.0	7.0	7.0	0.0	part_2
107	1.0	3.0			350.0	0.0	0.0							6.0	0.0	0.36535542644560337	6.0	400.0	2.0	2.0	2.0	1.0	0.0	part_2
108	1.0	4.0			350.0	0.0	0.0							5.0	0.0	0.4005572125315666	5.0	400.0	3.0	6.0	3.0	6.0	0.0	part_2
109	1.0	4.0			350.0	0.0	1.0							6.0	0.0	0.37707345094531775	6.0	400.0	1.0	5.0	5.0	4.0	0.0	part_2
110	1.0	4.0			350.0	0.0	0.0							6.0	0.0	0.3785411729477346	6.0	400.0	2.0	2.0	2.0	1.0	0.0	part_2
111	1.0	4.0			350.0	0.0	1.0							6.0	0.0	0.3680786695331335	6.0	400.0	1.0	5.0	5.0	4.0	0.0	part_2
112	4.0	4.0			350.0	0.0	1.0							5.0	0.0	0.0	0.0	400.0	4.0	7.0	8.0	2.0	1.0	part_2
113	1.0	4.0			400.0	0.0	0.0							6.0	0.0	0.41446874430403113	6.0	400.0	3.0	6.0	3.0	6.0	0.0	part_2
114	1.0	4.0			400.0	0.0	0.0							6.0	0.0	0.5840708410833031	6.0	400.0	2.0	2.0	2.0	1.0	0.0	part_2
115	3.0	4.0			400.0	0.0	1.0							6.0	0.0	0.3481053658761084	6.0	400.0	1.0	5.0	5.0	4.0	1.0	part_2
116	1.0	4.0			400.0	0.0	1.0							5.0	0.0	0.5972697848919779	5.0	350.0	1.0	5.0	5.0	4.0	0.0	part_2
117	4.0	4.0			400.0	0.0	1.0							6.0	0.0	0.0	0.0	350.0	1.0	5.0	5.0	4.0	1.0	part_2
118	3.0	4.0			400.0	0.0	1.0							6.0	0.0	0.41071823867969215	6.0	400.0	4.0	7.0	8.0	2.0	1.0	part_2
119	1.0	4.0			400.0	0.0	0.0							6.0	0.0	0.47687970474362373	6.0	350.0	3.0	6.0	3.0	6.0	0.0	part_2
120	1.0	4.0			400.0	0.0	0.0							6.0	0.0	0.5778749526944011	6.0	350.0	4.0	1.0	4.0	5.0	0.0	part_2
121	1.0	4.0			400.0	0.0	0.0							5.0	0.0	0.38865419663488865	5.0	350.0	3.0	6.0	3.0	6.0	0.0	part_2
122	1.0	4.0			400.0	0.0	0.0							5.0	0.0	0.5228954514022917	5.0	350.0	4.0	1.0	4.0	5.0	0.0	part_2
123	1.0	4.0			400.0	0.0	0.0							6.0	0.0	0.41176435095258057	6.0	350.0	4.0	1.0	4.0	5.0	0.0	part_2
124	4.0	4.0			400.0	0.0	1.0							6.0	0.0	0.0	0.0	350.0	4.0	7.0	8.0	2.0	1.0	part_2
125	4.0	4.0			400.0	0.0	1.0							6.0	0.0	0.0	0.0	400.0	3.0	8.0	7.0	7.0	1.0	part_2
126	3.0	4.0			400.0	0.0	1.0							6.0	0.0	0.5936556688975543	6.0	450.0	4.0	7.0	8.0	2.0	1.0	part_2
127	1.0	4.0			400.0	0.0	0.0							5.0	0.0	0.5386552917771041	5.0	400.0	3.0	6.0	3.0	6.0	0.0	part_2
128	1.0	4.0			400.0	0.0	0.0							6.0	0.0	0.30351358163170516	6.0	400.0	2.0	2.0	2.0	1.0	0.0	part_2
129	1.0	4.0			400.0	0.0	1.0							6.0	0.0	0.7421417164150625	6.0	400.0	2.0	3.0	6.0	8.0	0.0	part_2
130	4.0	4.0			400.0	0.0	1.0							5.0	0.0	0.0	0.0	400.0	4.0	7.0	8.0	2.0	1.0	part_2
131	1.0	4.0			450.0	0.0	0.0							6.0	0.0	0.5188580341637135	6.0	400.0	1.0	4.0	1.0	3.0	0.0	part_2
132	1.0	4.0			450.0	0.0	0.0							6.0	0.0	0.4317760346457362	6.0	400.0	1.0	4.0	1.0	3.0	0.0	part_2
133	3.0	4.0			450.0	0.0	1.0							5.0	0.0	0.6011355188675225	5.0	400.0	2.0	3.0	6.0	8.0	1.0	part_2
134	4.0	4.0			400.0	0.0	1.0							5.0	0.0	0.0	0.0	400.0	3.0	8.0	7.0	7.0	1.0	part_2
135	1.0	4.0			450.0	0.0	1.0							5.0	0.0	0.7703517116606236	5.0	400.0	2.0	3.0	6.0	8.0	0.0	part_2
136	4.0	4.0			450.0	0.0	1.0							6.0	0.0	0.0	0.0	400.0	4.0	7.0	8.0	2.0	1.0	part_2
137	1.0	4.0			450.0	0.0	0.0							6.0	0.0	0.5143516974058002	6.0	450.0	1.0	4.0	1.0	3.0	0.0	part_2
138	1.0	4.0			450.0	0.0	1.0							6.0	0.0	0.5695091055240482	6.0	450.0	1.0	5.0	5.0	4.0	0.0	part_2
139	1.0	4.0			450.0	0.0	0.0							5.0	0.0	0.5383299707900733	5.0	450.0	1.0	4.0	1.0	3.0	0.0	part_2
140	1.0	4.0			450.0	0.0	0.0							6.0	0.0	0.538697560550645	6.0	450.0	3.0	6.0	3.0	6.0	0.0	part_2
141	1.0	4.0			450.0	0.0	0.0							6.0	0.0	0.4837726450059563	6.0	450.0	3.0	6.0	3.0	6.0	0.0	part_2
142	3.0	4.0			450.0	0.0	1.0							5.0	0.0	0.38349509285762906	5.0	450.0	1.0	5.0	5.0	4.0	1.0	part_2
143	4.0	4.0			400.0	0.0	1.0							5.0	0.0	0.0	0.0	450.0	4.0	7.0	8.0	2.0	1.0	part_2
144	3.0	5.0			450.0	0.0	1.0							5.0	0.0	0.4276861837133765	5.0	450.0	2.0	3.0	6.0	8.0	1.0	part_2
145	1.0	5.0			400.0	0.0	0.0							6.0	0.0	0.4838611907325685	6.0	450.0	1.0	4.0	1.0	3.0	0.0	part_2
146	1.0	5.0			400.0	0.0	0.0							5.0	0.0	0.3947172269690782	5.0	450.0	3.0	6.0	3.0	6.0	0.0	part_2
147	4.0	5.0			400.0	0.0	1.0							6.0	0.0	0.0	0.0	450.0	3.0	8.0	7.0	7.0	1.0	part_2
148	4.0	5.0			400.0	0.0	1.0							5.0	0.0	0.0	0.0	500.0	1.0	5.0	5.0	4.0	1.0	part_2
149	1.0	5.0			450.0	0.0	0.0							5.0	0.0	0.4651493546552956	5.0	500.0	4.0	1.0	4.0	5.0	0.0	part_2
150	1.0	5.0			450.0	0.0	0.0							5.0	0.0	0.6121701505035162	5.0	500.0	2.0	2.0	2.0	1.0	0.0	part_2
151	4.0	5.0			450.0	0.0	1.0							6.0	0.0	0.0	0.0	500.0	4.0	7.0	8.0	2.0	1.0	part_2
152	1.0	5.0			450.0	0.0	0.0							6.0	0.0	0.3549752489197999	6.0	550.0	4.0	1.0	4.0	5.0	0.0	part_2
153	1.0	5.0			450.0	0.0	1.0							5.0	0.0	0.9967628722079098	5.0	550.0	2.0	3.0	6.0	8.0	0.0	part_2
154	4.0	5.0			450.0	0.0	1.0							5.0	0.0	0.0	0.0	550.0	1.0	5.0	5.0	4.0	1.0	part_2
155	3.0	5.0			500.0	0.0	1.0							5.0	0.0	0.42595856450498104	5.0	550.0	1.0	5.0	5.0	4.0	1.0	part_2
156	1.0	5.0			450.0	0.0	0.0							5.0	0.0	0.47175886295735836	5.0	550.0	2.0	2.0	2.0	1.0	0.0	part_2
157	1.0	5.0			450.0	0.0	0.0							6.0	0.0	0.5629885799717158	6.0	550.0	3.0	6.0	3.0	6.0	0.0	part_2
158	1.0	5.0			450.0	0.0	0.0							6.0	0.0	0.6641669098753482	6.0	550.0	2.0	2.0	2.0	1.0	0.0	part_2
159	1.0	5.0			450.0	0.0	0.0							5.0	0.0	0.4618577337823808	5.0	550.0	3.0	6.0	3.0	6.0	0.0	part_2
160	1.0	5.0			450.0	0.0	0.0							6.0	0.0	0.6206596249248832	6.0	550.0	4.0	1.0	4.0	5.0	0.0	part_2
161	1.0	5.0			450.0	0.0	0.0							6.0	0.0	0.5435061606112868	6.0	550.0	4.0	1.0	4.0	5.0	0.0	part_2
162	1.0	5.0			450.0	0.0	0.0							6.0	0.0	0.4872025311924517	6.0	550.0	1.0	4.0	1.0	3.0	0.0	part_2
163	4.0	5.0			450.0	0.0	1.0							6.0	0.0	0.0	0.0	550.0	1.0	5.0	5.0	4.0	1.0	part_2
164	4.0	5.0			450.0	0.0	1.0							5.0	0.0	0.0	0.0	600.0	4.0	7.0	8.0	2.0	1.0	part_2
165	1.0	5.0			500.0	0.0	0.0							5.0	0.0	0.41214503068476915	5.0	600.0	1.0	4.0	1.0	3.0	0.0	part_2
166	4.0	5.0			500.0	0.0	1.0							5.0	0.0	0.0	0.0	600.0	1.0	5.0	5.0	4.0	1.0	part_2
167	3.0	5.0			550.0	0.0	1.0							6.0	0.0	0.683492858428508	6.0	600.0	4.0	7.0	8.0	2.0	1.0	part_2
168	1.0	5.0			550.0	0.0	0.0							5.0	0.0	0.6269852411933243	5.0	550.0	2.0	2.0	2.0	1.0	0.0	part_2
169	1.0	5.0			550.0	0.0	0.0							6.0	0.0	0.7406831721309572	6.0	550.0	4.0	1.0	4.0	5.0	0.0	part_2
170	1.0	5.0			550.0	0.0	0.0							5.0	0.0	0.6962744207121432	5.0	550.0	1.0	4.0	1.0	3.0	0.0	part_2
171	1.0	5.0			550.0	0.0	0.0							5.0	0.0	0.4038871764205396	5.0	550.0	2.0	2.0	2.0	1.0	0.0	part_2
172	4.0	5.0			550.0	0.0	1.0							5.0	0.0	0.0	0.0	550.0	2.0	3.0	6.0	8.0	1.0	part_2
173	3.0	5.0			600.0	0.0	1.0							5.0	0.0	0.698345800396055	5.0	550.0	2.0	3.0	6.0	8.0	1.0	part_2
174	1.0	5.0			550.0	0.0	0.0							6.0	0.0	0.45172725920565426	6.0	550.0	3.0	6.0	3.0	6.0	0.0	part_2
175	1.0	5.0			550.0	0.0	0.0							5.0	0.0	0.364330145297572	5.0	550.0	4.0	1.0	4.0	5.0	0.0	part_2
176	3.0	5.0			550.0	0.0	1.0							6.0	0.0	0.34270023088902235	6.0	550.0	1.0	5.0	5.0	4.0	1.0	part_2
177	1.0	5.0			550.0	0.0	0.0							6.0	0.0	0.5565205970779061	6.0	500.0	2.0	2.0	2.0	1.0	0.0	part_2
178	4.0	5.0			550.0	0.0	1.0							6.0	0.0	0.0	0.0	500.0	1.0	5.0	5.0	4.0	1.0	part_2
179	1.0	5.0			550.0	0.0	1.0							5.0	0.0	0.9075044733472168	5.0	550.0	4.0	7.0	8.0	2.0	0.0	part_2
180	3.0	6.0			550.0	0.0	1.0							5.0	0.0	0.30842792498879135	5.0	550.0	1.0	5.0	5.0	4.0	1.0	part_2
181	4.0	6.0			500.0	0.0	1.0							6.0	0.0	0.0	0.0	550.0	2.0	3.0	6.0	8.0	1.0	part_2
182	1.0	6.0			500.0	0.0	0.0							5.0	0.0	0.4330981280654669	5.0	600.0	3.0	6.0	3.0	6.0	0.0	part_2
183	1.0	6.0			500.0	0.0	0.0							6.0	0.0	0.7272411293815821	6.0	600.0	2.0	2.0	2.0	1.0	0.0	part_2
184	4.0	6.0			500.0	0.0	1.0							5.0	0.0	0.0	0.0	600.0	1.0	5.0	5.0	4.0	1.0	part_2
185	1.0	6.0			550.0	0.0	0.0							6.0	0.0	0.6828982958104461	6.0	600.0	1.0	4.0	1.0	3.0	0.0	part_2
186	4.0	6.0			550.0	0.0	1.0							5.0	0.0	0.0	0.0	600.0	3.0	8.0	7.0	7.0	1.0	part_2
187	1.0	6.0			600.0	0.0	0.0							6.0	0.0	0.651525448076427	6.0	600.0	4.0	1.0	4.0	5.0	0.0	part_2
188	1.0	6.0			600.0	0.0	0.0							5.0	0.0	0.4380318056792021	5.0	600.0	1.0	4.0	1.0	3.0	0.0	part_2
189	1.0	6.0			600.0	0.0	0.0							5.0	0.0	0.3944432644639164	5.0	600.0	1.0	4.0	1.0	3.0	0.0	part_2
190	1.0	6.0			600.0	0.0	0.0							5.0	0.0	0.5627893097698689	5.0	600.0	2.0	2.0	2.0	1.0	0.0	part_2
191	1.0	6.0			600.0	0.0	1.0							5.0	0.0	0.8010008928831667	5.0	600.0	1.0	5.0	5.0	4.0	0.0	part_2
192	4.0	6.0			600.0	0.0	1.0							5.0	0.0	0.0	0.0	600.0	2.0	3.0	6.0	8.0	1.0	part_2
193	4.0	6.0			650.0	0.0	1.0							6.0	0.0	0.0	0.0	600.0	2.0	3.0	6.0	8.0	1.0	part_2
194	1.0	6.0			650.0	0.0	0.0							6.0	0.0	0.5320041319355369	6.0	650.0	3.0	6.0	3.0	6.0	0.0	part_2
195	3.0	6.0			650.0	0.0	1.0							6.0	0.0	0.41076225508004427	6.0	650.0	1.0	5.0	5.0	4.0	1.0	part_2
196	1.0	6.0			650.0	0.0	0.0							5.0	0.0	0.6462647994048893	5.0	600.0	2.0	2.0	2.0	1.0	0.0	part_2
197	4.0	6.0			650.0	0.0	1.0							5.0	0.0	0.0	0.0	600.0	4.0	7.0	8.0	2.0	1.0	part_2
198	1.0	6.0			700.0	0.0	1.0							6.0	0.0	1.0301329877693206	6.0	600.0	3.0	8.0	7.0	7.0	0.0	part_2
199	4.0	6.0			700.0	0.0	1.0							5.0	0.0	0.0	0.0	600.0	4.0	7.0	8.0	2.0	1.0	part_2
200	1.0	6.0			750.0	0.0	0.0							6.0	0.0	0.7959372103214264	6.0	600.0	2.0	2.0	2.0	1.0	0.0	part_2
201	1.0	6.0			750.0	0.0	0.0							6.0	0.0	0.4142804769799113	6.0	600.0	3.0	6.0	3.0	6.0	0.0	part_2
202	3.0	6.0			750.0	0.0	1.0							5.0	0.0	0.9792273498605937	5.0	600.0	2.0	3.0	6.0	8.0	1.0	part_2
203	1.0	6.0			700.0	0.0	0.0							5.0	0.0	0.4833669050130993	5.0	600.0	3.0	6.0	3.0	6.0	0.0	part_2
204	1.0	6.0			700.0	0.0	0.0							5.0	0.0	0.4286116047296673	5.0	600.0	4.0	1.0	4.0	5.0	0.0	part_2
205	1.0	6.0			700.0	0.0	0.0							5.0	0.0	0.4958946336992085	5.0	600.0	3.0	6.0	3.0	6.0	0.0	part_2
206	1.0	6.0			700.0	0.0	0.0							5.0	0.0	0.5210587591864169	5.0	600.0	3.0	6.0	3.0	6.0	0.0	part_2
207	1.0	6.0			700.0	0.0	0.0							5.0	0.0	0.4872229308821261	5.0	600.0	4.0	1.0	4.0	5.0	0.0	part_2
208	4.0	6.0			700.0	0.0	1.0							5.0	0.0	0.0	0.0	600.0	4.0	7.0	8.0	2.0	1.0	part_2
209	1.0	6.0			750.0	0.0	0.0							5.0	0.0	0.5910637932829559	5.0	600.0	1.0	4.0	1.0	3.0	0.0	part_2
210	1.0	6.0			750.0	0.0	0.0							5.0	0.0	0.5237340214662254	5.0	600.0	4.0	1.0	4.0	5.0	0.0	part_2
211	1.0	6.0			750.0	0.0	0.0							6.0	0.0	0.5576040279120207	6.0	600.0	2.0	2.0	2.0	1.0	0.0	part_2
212	1.0	6.0			750.0	0.0	1.0							5.0	0.0	0.4364366717636585	5.0	600.0	1.0	5.0	5.0	4.0	0.0	part_2
213	1.0	6.0			750.0	0.0	0.0							6.0	0.0	0.48094928567297757	6.0	600.0	1.0	4.0	1.0	3.0	0.0	part_2
214	1.0	6.0			750.0	0.0	0.0							5.0	0.0	0.45894653303548694	5.0	600.0	1.0	4.0	1.0	3.0	0.0	part_2
215	1.0	6.0			750.0	0.0	0.0							6.0	0.0	0.5381220555864275	6.0	600.0	3.0	6.0	3.0	6.0	0.0	part_2
216	3.0	7.0			750.0	0.0	1.0							5.0	0.0	0.7806321107782423	5.0	600.0	1.0	5.0	5.0	4.0	1.0	part_2
217	1.0	7.0			700.0	0.0	0.0							6.0	0.0	0.5111873648129404	6.0	600.0	3.0	6.0	3.0	6.0	0.0	part_2
218	1.0	7.0			700.0	0.0	0.0							5.0	0.0	0.5572039186954498	5.0	600.0	4.0	1.0	4.0	5.0	0.0	part_2
219	1.0	7.0			700.0	0.0	1.0							5.0	0.0	1.0642607477493584	5.0	600.0	3.0	8.0	7.0	7.0	0.0	part_2
220	1.0	7.0			700.0	0.0	0.0							5.0	0.0	0.5590950658079237	5.0	600.0	2.0	2.0	2.0	1.0	0.0	part_2
221	1.0	7.0			700.0	0.0	0.0							6.0	0.0	0.4038800054695457	6.0	600.0	1.0	4.0	1.0	3.0	0.0	part_2
222	3.0	7.0			700.0	0.0	1.0							6.0	0.0	0.3461729360278696	6.0	600.0	2.0	3.0	6.0	8.0	1.0	part_2
223	4.0	7.0			700.0	0.0	1.0							6.0	0.0	0.0	0.0	550.0	1.0	5.0	5.0	4.0	1.0	part_2
224	1.0	7.0			700.0	0.0	0.0							6.0	0.0	0.6412032784428447	6.0	600.0	1.0	4.0	1.0	3.0	0.0	part_2
225	1.0	7.0			700.0	0.0	1.0							6.0	0.0	1.1151158309075981	6.0	600.0	4.0	7.0	8.0	2.0	0.0	part_2
226	1.0	7.0			700.0	0.0	0.0							5.0	0.0	0.6428612424060702	5.0	600.0	4.0	1.0	4.0	5.0	0.0	part_2
227	1.0	7.0			700.0	0.0	0.0							5.0	0.0	0.4412138059269637	5.0	600.0	1.0	4.0	1.0	3.0	0.0	part_2
228	1.0	7.0			700.0	0.0	0.0							6.0	0.0	0.5318784166593105	6.0	600.0	4.0	1.0	4.0	5.0	0.0	part_2
229	1.0	7.0			700.0	0.0	1.0							6.0	0.0	0.971323176054284	6.0	600.0	4.0	7.0	8.0	2.0	0.0	part_2
230	3.0	7.0			700.0	0.0	1.0							5.0	0.0	0.8365854655858129	5.0	600.0	1.0	5.0	5.0	4.0	1.0	part_2
231	1.0	7.0			650.0	0.0	1.0							6.0	0.0	1.1303214726503938	6.0	600.0	3.0	8.0	7.0	7.0	0.0	part_2
232	1.0	7.0			650.0	0.0	1.0							5.0	0.0	1.0761049676220864	5.0	600.0	2.0	3.0	6.0	8.0	0.0	part_2
233	1.0	7.0			650.0	0.0	0.0							6.0	0.0	0.5368578480556607	6.0	600.0	3.0	6.0	3.0	6.0	0.0	part_2
234	3.0	7.0			650.0	0.0	1.0							6.0	0.0	0.7842672923579812	6.0	600.0	4.0	7.0	8.0	2.0	1.0	part_2
235	4.0	7.0			650.0	0.0	1.0							6.0	0.0	0.0	0.0	550.0	2.0	3.0	6.0	8.0	1.0	part_2
236	4.0	7.0			650.0	0.0	1.0							5.0	0.0	0.0	0.0	600.0	3.0	8.0	7.0	7.0	1.0	part_2
237	1.0	7.0			700.0	0.0	0.0							5.0	0.0	0.9559422770980746	5.0	600.0	3.0	6.0	3.0	6.0	0.0	part_2
238	1.0	7.0			700.0	0.0	0.0							5.0	0.0	0.46265673195011914	5.0	600.0	4.0	1.0	4.0	5.0	0.0	part_2
239	1.0	7.0			700.0	0.0	0.0							5.0	0.0	0.5072300161700696	5.0	600.0	1.0	4.0	1.0	3.0	0.0	part_2
240	1.0	7.0			700.0	0.0	0.0							5.0	0.0	0.48531758948229253	5.0	600.0	2.0	2.0	2.0	1.0	0.0	part_2
241	1.0	7.0			700.0	0.0	1.0							5.0	0.0	0.9485995636787266	5.0	600.0	4.0	7.0	8.0	2.0	0.0	part_2
242	1.0	7.0			700.0	0.0	0.0							6.0	0.0	0.522495165001601	6.0	600.0	3.0	6.0	3.0	6.0	0.0	part_2
243	4.0	7.0			700.0	0.0	1.0							6.0	0.0	0.0	0.0	600.0	2.0	3.0	6.0	8.0	1.0	part_2
244	1.0	7.0			700.0	0.0	0.0							5.0	0.0	0.5572213556151837	5.0	650.0	1.0	4.0	1.0	3.0	0.0	part_2
245	1.0	7.0			700.0	0.0	0.0							6.0	0.0	0.38928765361197293	6.0	650.0	2.0	2.0	2.0	1.0	0.0	part_2
246	1.0	7.0			700.0	0.0	1.0							5.0	0.0	1.0535205008927733	5.0	650.0	4.0	7.0	8.0	2.0	0.0	part_2
247	4.0	7.0			700.0	0.0	1.0							5.0	0.0	0.0	0.0	650.0	3.0	8.0	7.0	7.0	1.0	part_2
248	3.0	7.0			750.0	0.0	1.0							5.0	0.0	0.8859441194217652	5.0	650.0	3.0	8.0	7.0	7.0	1.0	part_2
249	4.0	7.0			700.0	0.0	1.0							5.0	0.0	0.0	0.0	650.0	4.0	7.0	8.0	2.0	1.0	part_2
250	1.0	7.0			750.0	0.0	0.0							6.0	0.0	0.538796026725322	6.0	650.0	1.0	4.0	1.0	3.0	0.0	part_2
251	1.0	7.0			750.0	0.0	0.0							5.0	0.0	0.3374893863219768	5.0	650.0	4.0	1.0	4.0	5.0	0.0	part_2
252	3.0	8.0			750.0	0.0	1.0							6.0	0.0	0.8611119545530528	6.0	650.0	3.0	8.0	7.0	7.0	1.0	part_2
253	3.0	8.0			750.0	0.0	1.0							6.0	0.0	0.6600537972990423	6.0	600.0	2.0	3.0	6.0	8.0	1.0	part_2
254	4.0	8.0			750.0	0.0	1.0							6.0	0.0	0.0	0.0	550.0	4.0	7.0	8.0	2.0	1.0	part_2
255	1.0	8.0			750.0	0.0	0.0							5.0	0.0	0.3118183580227196	5.0	600.0	3.0	6.0	3.0	6.0	0.0	part_2
256	1.0	8.0			750.0	0.0	1.0							6.0	0.0	0.4829458729363978	6.0	600.0	2.0	3.0	6.0	8.0	0.0	part_2
257	4.0	8.0			750.0	0.0	1.0							6.0	0.0	0.0	0.0	600.0	3.0	8.0	7.0	7.0	1.0	part_2
258	3.0	8.0			750.0	0.0	1.0							6.0	0.0	0.9117681719362736	6.0	650.0	3.0	8.0	7.0	7.0	1.0	part_2
259	3.0	8.0			750.0	0.0	1.0							5.0	0.0	0.3952045766636729	5.0	600.0	2.0	3.0	6.0	8.0	1.0	part_2
260	1.0	8.0			700.0	0.0	0.0							5.0	0.0	0.7879370702430606	5.0	600.0	3.0	6.0	3.0	6.0	0.0	part_2
261	1.0	8.0			700.0	0.0	0.0							5.0	0.0	0.4856555254664272	5.0	600.0	4.0	1.0	4.0	5.0	0.0	part_2
262	1.0	8.0			700.0	0.0	1.0							5.0	0.0	0.5434212516993284	5.0	600.0	4.0	7.0	8.0	2.0	0.0	part_2
263	1.0	8.0			700.0	0.0	1.0							6.0	0.0	0.915469299769029	6.0	600.0	2.0	3.0	6.0	8.0	0.0	part_2
264	3.0	8.0			700.0	0.0	1.0							6.0	0.0	0.42067626188509166	6.0	600.0	2.0	3.0	6.0	8.0	1.0	part_2
265	1.0	8.0			700.0	0.0	0.0							5.0	0.0	0.4657965484075248	5.0	550.0	3.0	6.0	3.0	6.0	0.0	part_2
266	1.0	8.0			700.0	0.0	0.0							5.0	0.0	0.37808685773052275	5.0	550.0	4.0	1.0	4.0	5.0	0.0	part_2
267	1.0	8.0			700.0	0.0	0.0							6.0	0.0	0.45656206947751343	6.0	550.0	3.0	6.0	3.0	6.0	0.0	part_2
268	1.0	8.0			700.0	0.0	0.0							6.0	0.0	0.33339742361567914	6.0	550.0	4.0	1.0	4.0	5.0	0.0	part_2
269	1.0	8.0			700.0	0.0	0.0							5.0	0.0	0.5480984223540872	5.0	550.0	2.0	2.0	2.0	1.0	0.0	part_2
270	3.0	8.0			700.0	0.0	1.0							6.0	0.0	0.4263785327784717	6.0	550.0	1.0	5.0	5.0	4.0	1.0	part_2
271	4.0	8.0			700.0	0.0	1.0							6.0	0.0	0.0	0.0	500.0	3.0	8.0	7.0	7.0	1.0	part_2
272	3.0	8.0			700.0	0.0	1.0							5.0	0.0	0.49440742074511945	5.0	550.0	1.0	5.0	5.0	4.0	1.0	part_2
273	1.0	8.0			650.0	0.0	0.0							5.0	0.0	0.574646612862125	5.0	550.0	3.0	6.0	3.0	6.0	0.0	part_2
274	3.0	8.0			650.0	0.0	1.0							5.0	0.0	0.6604974828660488	5.0	550.0	4.0	7.0	8.0	2.0	1.0	part_2
275	1.0	8.0			600.0	0.0	1.0							6.0	0.0	0.9015794389415532	6.0	550.0	4.0	7.0	8.0	2.0	0.0	part_2
276	1.0	8.0			600.0	0.0	0.0							5.0	0.0	0.47653554612770677	5.0	550.0	3.0	6.0	3.0	6.0	0.0	part_2
277	1.0	8.0			600.0	0.0	0.0							6.0	0.0	0.34130795346572995	6.0	550.0	4.0	1.0	4.0	5.0	0.0	part_2
278	4.0	8.0			600.0	0.0	1.0							5.0	0.0	0.0	0.0	550.0	3.0	8.0	7.0	7.0	1.0	part_2
279	4.0	8.0			650.0	0.0	1.0							6.0	0.0	0.0	0.0	550.0	3.0	8.0	7.0	7.0	1.0	part_2
280	3.0	8.0			650.0	0.0	1.0							5.0	0.0	0.7264438115525991	5.0	600.0	4.0	7.0	8.0	2.0	1.0	part_2
281	1.0	8.0			600.0	0.0	0.0							6.0	0.0	0.5362024686764926	6.0	600.0	4.0	1.0	4.0	5.0	0.0	part_2
282	4.0	8.0			600.0	0.0	1.0							6.0	0.0	0.0	0.0	600.0	2.0	3.0	6.0	8.0	1.0	part_2
283	4.0	8.0			600.0	0.0	1.0							5.0	0.0	0.0	0.0	650.0	2.0	3.0	6.0	8.0	1.0	part_2
284	1.0	8.0			650.0	0.0	0.0							5.0	0.0	0.7187218177132308	5.0	650.0	2.0	2.0	2.0	1.0	0.0	part_2
285	1.0	8.0			650.0	0.0	1.0							6.0	0.0	0.31540246889926493	6.0	650.0	3.0	8.0	7.0	7.0	0.0	part_2
286	1.0	8.0			650.0	0.0	0.0							5.0	0.0	0.48319051833823323	5.0	650.0	2.0	2.0	2.0	1.0	0.0	part_2
287	1.0	8.0			650.0	0.0	1.0							6.0	0.0	0.38482414768077433	6.0	650.0	1.0	5.0	5.0	4.0	0.0	part_2
0	0.0	1.0	132.0	3.0	0.0	2.0	1.0	220.0	176.0	264.0	132.0	44.0	88.0	7.0	0.0	2.8368004425428808	4.0	0.0	1.0	5.0	5.0	4.0	0.0	part_3
1	0.0	1.0	108.0	2.0	0.0	1.0	1.0	54.0	108.0	324.0	270.0	162.0	216.0	7.0	0.0	2.4052745674271137	2.0	0.0	1.0	5.0	5.0	4.0	0.0	part_3
2	0.0	1.0	324.0	6.0	0.0	1.0	0.0	324.0	162.0	270.0	108.0	216.0	54.0	7.0	0.0	1.2863946687430143	1.0	0.0	3.0	6.0	3.0	6.0	0.0	part_3
3	0.0	1.0	162.0	3.0	0.0	1.0	1.0	216.0	108.0	270.0	54.0	162.0	324.0	7.0	0.0	1.1427469144109637	5.0	0.0	3.0	8.0	7.0	7.0	0.0	part_3
4	0.0	1.0	136.0	4.0	0.0	1.0	1.0	34.0	102.0	68.0	136.0	170.0	204.0	7.0	0.0	1.4857468588743359	4.0	0.0	4.0	7.0	8.0	2.0	0.0	part_3
5	0.0	1.0	102.0	3.0	0.0	1.0	0.0	204.0	136.0	170.0	68.0	34.0	102.0	7.0	0.0	1.6684895476792008	6.0	0.0	1.0	4.0	1.0	3.0	0.0	part_3
6	0.0	1.0	117.0	3.0	0.0	1.0	1.0	195.0	78.0	117.0	39.0	234.0	156.0	7.0	0.0	1.5852780390996486	3.0	0.0	1.0	5.0	5.0	4.0	0.0	part_3
7	0.0	1.0	156.0	4.0	0.0	1.0	1.0	78.0	117.0	156.0	195.0	234.0	39.0	7.0	0.0	2.004186634439975	3.0	0.0	1.0	5.0	5.0	4.0	0.0	part_3
8	0.0	1.0	264.0	6.0	0.0	1.0	0.0	44.0	176.0	88.0	264.0	132.0	220.0	7.0	0.0	2.372226763051003	4.0	0.0	4.0	1.0	4.0	5.0	0.0	part_3
9	0.0	1.0	162.0	3.0	0.0	1.0	1.0	162.0	216.0	270.0	54.0	108.0	324.0	7.0	0.0	1.930041948799044	1.0	0.0	1.0	5.0	5.0	4.0	0.0	part_3
10	0.0	1.0	220.0	5.0	0.0	1.0	0.0	132.0	176.0	88.0	44.0	220.0	264.0	7.0	0.0	2.286072942893952	5.0	0.0	1.0	4.0	1.0	3.0	0.0	part_3
11	0.0	1.0	136.0	4.0	0.0	1.0	0.0	170.0	102.0	136.0	204.0	68.0	34.0	7.0	0.0	1.1914875989314169	3.0	0.0	4.0	1.0	4.0	5.0	0.0	part_3
12	0.0	1.0	44.0	1.0	0.0	1.0	1.0	264.0	44.0	132.0	176.0	220.0	88.0	7.0	0.0	1.5973701672628522	2.0	0.0	4.0	7.0	8.0	2.0	0.0	part_3
13	0.0	1.0	136.0	4.0	0.0	1.0	1.0	136.0	34.0	68.0	102.0	204.0	170.0	7.0	0.0	2.255026248982176	1.0	0.0	1.0	5.0	5.0	4.0	0.0	part_3
14	0.0	1.0	245.0	5.0	0.0	1.0	0.0	294.0	49.0	245.0	98.0	147.0	196.0	7.0	0.0	2.334215759532526	3.0	0.0	1.0	4.0	1.0	3.0	0.0	part_3
15	0.0	1.0	68.0	2.0	0.0	1.0	1.0	170.0	136.0	102.0	68.0	34.0	204.0	7.0	0.0	1.4030184773728251	4.0	0.0	3.0	8.0	7.0	7.0	0.0	part_3
16	0.0	1.0	204.0	6.0	0.0	1.0	0.0	170.0	204.0	102.0	136.0	68.0	34.0	7.0	0.0	2.5462224546354264	2.0	0.0	3.0	6.0	3.0	6.0	0.0	part_3
17	0.0	1.0	195.0	5.0	0.0	1.0	0.0	117.0	234.0	156.0	39.0	195.0	78.0	7.0	0.0	1.5036830801982433	5.0	0.0	2.0	2.0	2.0	1.0	0.0	part_3
18	0.0	1.0	78.0	2.0	0.0	1.0	1.0	78.0	156.0	117.0	39.0	234.0	195.0	7.0	0.0	1.8096607974730432	1.0	0.0	2.0	3.0	6.0	8.0	0.0	part_3
19	0.0	1.0	68.0	2.0	0.0	1.0	1.0	170.0	204.0	68.0	102.0	136.0	34.0	7.0	0.0	1.9040309018455446	3.0	0.0	2.0	3.0	6.0	8.0	0.0	part_3
20	0.0	2.0	68.0	2.0	0.0	1.0	1.0	136.0	34.0	68.0	204.0	170.0	102.0	7.0	0.0	1.4067603121511638	3.0	0.0	4.0	7.0	8.0	2.0	0.0	part_3
21	0.0	2.0	234.0	6.0	0.0	1.0	0.0	117.0	156.0	39.0	195.0	234.0	78.0	7.0	0.0	1.8247794341295958	5.0	0.0	3.0	6.0	3.0	6.0	0.0	part_3
22	0.0	2.0	176.0	4.0	0.0	1.0	0.0	264.0	220.0	132.0	44.0	88.0	176.0	7.0	0.0	2.3674627819564193	6.0	0.0	2.0	2.0	2.0	1.0	0.0	part_3
23	0.0	2.0	234.0	6.0	0.0	1.0	0.0	156.0	234.0	78.0	39.0	195.0	117.0	7.0	0.0	1.437044869409874	2.0	0.0	3.0	6.0	3.0	6.0	0.0	part_3
24	0.0	2.0	98.0	2.0	0.0	1.0	1.0	294.0	49.0	98.0	196.0	245.0	147.0	7.0	0.0	1.2921387869864702	3.0	0.0	4.0	7.0	8.0	2.0	0.0	part_3
25	0.0	2.0	294.0	6.0	0.0	1.0	0.0	98.0	245.0	294.0	49.0	196.0	147.0	7.0	0.0	1.8859955414664	3.0	0.0	3.0	6.0	3.0	6.0	0.0	part_3
26	0.0	2.0	117.0	3.0	0.0	1.0	0.0	78.0	156.0	195.0	117.0	39.0	234.0	7.0	0.0	1.8928089633118361	4.0	0.0	1.0	4.0	1.0	3.0	0.0	part_3
27	0.0	2.0	162.0	3.0	0.0	1.0	0.0	54.0	162.0	216.0	270.0	108.0	324.0	7.0	0.0	1.4728524459060282	2.0	0.0	2.0	2.0	2.0	1.0	0.0	part_3
28	0.0	2.0	88.0	2.0	0.0	1.0	1.0	220.0	44.0	88.0	264.0	132.0	176.0	7.0	0.0	1.6537484205327928	3.0	0.0	2.0	3.0	6.0	8.0	0.0	part_3
29	0.0	2.0	234.0	6.0	0.0	1.0	0.0	78.0	39.0	234.0	195.0	156.0	117.0	7.0	0.0	1.0239027526695281	3.0	0.0	4.0	1.0	4.0	5.0	0.0	part_3
30	0.0	2.0	88.0	2.0	0.0	1.0	1.0	220.0	44.0	88.0	264.0	132.0	176.0	7.0	0.0	0.840439876075834	3.0	0.0	2.0	3.0	6.0	8.0	0.0	part_3
31	0.0	2.0	49.0	1.0	0.0	1.0	1.0	294.0	196.0	49.0	147.0	98.0	245.0	7.0	0.0	1.3613115260377526	3.0	0.0	2.0	3.0	6.0	8.0	0.0	part_3
32	0.0	2.0	176.0	4.0	0.0	1.0	1.0	264.0	88.0	132.0	176.0	44.0	220.0	7.0	0.0	2.153852144954726	4.0	0.0	1.0	5.0	5.0	4.0	0.0	part_3
33	0.0	2.0	170.0	5.0	0.0	1.0	0.0	136.0	204.0	68.0	34.0	170.0	102.0	7.0	0.0	1.4842511683236808	5.0	0.0	2.0	2.0	2.0	1.0	0.0	part_3
34	0.0	2.0	102.0	3.0	0.0	1.0	0.0	68.0	204.0	34.0	170.0	102.0	136.0	7.0	0.0	0.7155081504024565	5.0	0.0	2.0	2.0	2.0	1.0	0.0	part_3
35	0.0	2.0	294.0	6.0	0.0	1.0	0.0	196.0	245.0	147.0	98.0	49.0	294.0	7.0	0.0	1.746094208676368	6.0	0.0	4.0	1.0	4.0	5.0	0.0	part_3
36	0.0	2.0	54.0	1.0	0.0	1.0	1.0	108.0	54.0	216.0	324.0	270.0	162.0	7.0	0.0	1.7166059350129217	2.0	0.0	4.0	7.0	8.0	2.0	0.0	part_3
37	0.0	2.0	108.0	2.0	0.0	1.0	1.0	54.0	270.0	216.0	324.0	108.0	162.0	7.0	0.0	2.522641485091299	5.0	0.0	2.0	3.0	6.0	8.0	0.0	part_3
38	0.0	2.0	44.0	1.0	0.0	1.0	1.0	88.0	220.0	176.0	44.0	132.0	264.0	7.0	0.0	1.3147229936439544	4.0	0.0	3.0	8.0	7.0	7.0	0.0	part_3
39	0.0	2.0	147.0	3.0	0.0	1.0	0.0	294.0	245.0	49.0	147.0	196.0	98.0	7.0	0.0	1.3964653613511473	4.0	0.0	1.0	4.0	1.0	3.0	0.0	part_3
40	0.0	3.0	245.0	5.0	0.0	1.0	0.0	294.0	196.0	147.0	245.0	98.0	49.0	7.0	0.0	1.3247272123117	4.0	0.0	4.0	1.0	4.0	5.0	0.0	part_3
41	0.0	3.0	264.0	6.0	0.0	1.0	0.0	44.0	176.0	264.0	132.0	88.0	220.0	7.0	0.0	1.5451916109304875	3.0	0.0	3.0	6.0	3.0	6.0	0.0	part_3
42	0.0	3.0	162.0	3.0	0.0	1.0	0.0	270.0	108.0	324.0	54.0	162.0	216.0	7.0	0.0	1.6624610738363117	5.0	0.0	1.0	4.0	1.0	3.0	0.0	part_3
43	0.0	3.0	196.0	4.0	0.0	1.0	0.0	196.0	245.0	49.0	294.0	98.0	147.0	7.0	0.0	1.9313652557320893	1.0	0.0	2.0	2.0	2.0	1.0	0.0	part_3
44	0.0	3.0	170.0	5.0	0.0	1.0	1.0	136.0	204.0	170.0	68.0	102.0	34.0	7.0	0.0	2.001117358217016	3.0	0.0	1.0	5.0	5.0	4.0	0.0	part_3
45	0.0	3.0	264.0	6.0	0.0	1.0	0.0	44.0	88.0	220.0	176.0	132.0	264.0	7.0	0.0	1.6804238492622972	6.0	0.0	3.0	6.0	3.0	6.0	0.0	part_3
46	0.0	3.0	196.0	4.0	0.0	1.0	1.0	49.0	245.0	294.0	98.0	196.0	147.0	7.0	0.0	1.1872578468173742	5.0	0.0	1.0	5.0	5.0	4.0	0.0	part_3
47	0.0	3.0	54.0	1.0	0.0	1.0	1.0	108.0	54.0	162.0	216.0	270.0	324.0	7.0	0.0	1.3566686604171991	2.0	0.0	3.0	8.0	7.0	7.0	0.0	part_3
48	0.0	3.0	294.0	6.0	0.0	1.0	1.0	196.0	245.0	147.0	98.0	294.0	49.0	7.0	0.0	0.7986383882816881	5.0	0.0	2.0	3.0	6.0	8.0	0.0	part_3
49	0.0	3.0	324.0	6.0	0.0	1.0	0.0	54.0	108.0	162.0	324.0	216.0	270.0	7.0	0.0	1.5064824046567082	4.0	0.0	4.0	1.0	4.0	5.0	0.0	part_3
50	0.0	3.0	108.0	2.0	0.0	1.0	0.0	324.0	108.0	54.0	216.0	270.0	162.0	7.0	0.0	2.198482947656885	2.0	0.0	2.0	2.0	2.0	1.0	0.0	part_3
51	0.0	3.0	324.0	6.0	0.0	1.0	0.0	324.0	162.0	54.0	216.0	270.0	108.0	7.0	0.0	1.6936344797722995	1.0	0.0	4.0	1.0	4.0	5.0	0.0	part_3
52	0.0	3.0	39.0	1.0	0.0	1.0	1.0	78.0	195.0	156.0	234.0	39.0	117.0	7.0	0.0	1.3738177986815572	5.0	0.0	3.0	8.0	7.0	7.0	0.0	part_3
53	0.0	3.0	108.0	2.0	0.0	1.0	1.0	54.0	270.0	108.0	162.0	216.0	324.0	7.0	0.0	1.0164875062182546	3.0	0.0	4.0	7.0	8.0	2.0	0.0	part_3
54	0.0	3.0	132.0	3.0	0.0	1.0	1.0	176.0	220.0	132.0	88.0	44.0	264.0	7.0	0.0	1.8474387698806822	3.0	0.0	3.0	8.0	7.0	7.0	0.0	part_3
55	0.0	3.0	234.0	6.0	0.0	1.0	0.0	39.0	195.0	78.0	234.0	156.0	117.0	7.0	0.0	1.5413159942254424	4.0	0.0	1.0	4.0	1.0	3.0	0.0	part_3
56	0.0	3.0	234.0	6.0	0.0	1.0	0.0	156.0	39.0	78.0	234.0	195.0	117.0	7.0	0.0	1.385536648100242	4.0	0.0	4.0	1.0	4.0	5.0	0.0	part_3
57	0.0	3.0	117.0	3.0	0.0	1.0	1.0	234.0	39.0	117.0	78.0	195.0	156.0	7.0	0.0	1.442219174001366	3.0	0.0	4.0	7.0	8.0	2.0	0.0	part_3
58	0.0	3.0	132.0	3.0	0.0	1.0	0.0	264.0	88.0	132.0	220.0	44.0	176.0	7.0	0.0	1.0978837173897773	3.0	0.0	2.0	2.0	2.0	1.0	0.0	part_3
59	0.0	3.0	49.0	1.0	0.0	1.0	1.0	245.0	147.0	49.0	98.0	196.0	294.0	7.0	0.0	1.0658441162668169	3.0	0.0	3.0	8.0	7.0	7.0	0.0	part_3
60	0.0	4.0	264.0	6.0	0.0	1.0	0.0	264.0	88.0	176.0	220.0	132.0	44.0	7.0	0.0	1.6853247655089945	1.0	0.0	4.0	1.0	4.0	5.0	0.0	part_3
61	0.0	4.0	195.0	5.0	0.0	1.0	0.0	156.0	117.0	78.0	234.0	39.0	195.0	7.0	0.0	1.690515965456143	6.0	0.0	2.0	2.0	2.0	1.0	0.0	part_3
62	0.0	4.0	204.0	6.0	0.0	1.0	0.0	34.0	136.0	102.0	170.0	68.0	204.0	7.0	0.0	1.621621709316969	6.0	0.0	3.0	6.0	3.0	6.0	0.0	part_3
63	0.0	4.0	49.0	1.0	0.0	1.0	1.0	98.0	294.0	147.0	196.0	49.0	245.0	7.0	0.0	1.1651845078449696	5.0	0.0	3.0	8.0	7.0	7.0	0.0	part_3
64	0.0	4.0	196.0	4.0	0.0	1.0	0.0	147.0	49.0	245.0	98.0	196.0	294.0	7.0	0.0	1.2842582017183304	5.0	0.0	2.0	2.0	2.0	1.0	0.0	part_3
65	0.0	4.0	117.0	3.0	0.0	1.0	1.0	234.0	195.0	156.0	117.0	78.0	39.0	7.0	0.0	1.9398602484725416	4.0	0.0	2.0	3.0	6.0	8.0	0.0	part_3
66	0.0	4.0	54.0	1.0	0.0	1.0	1.0	270.0	108.0	54.0	162.0	216.0	324.0	7.0	0.0	1.0578388457652181	3.0	0.0	2.0	3.0	6.0	8.0	0.0	part_3
67	0.0	4.0	68.0	2.0	0.0	1.0	1.0	204.0	136.0	102.0	170.0	68.0	34.0	7.0	0.0	1.040688413195312	5.0	0.0	3.0	8.0	7.0	7.0	0.0	part_3
68	0.0	4.0	196.0	4.0	0.0	1.0	1.0	98.0	49.0	245.0	196.0	294.0	147.0	7.0	0.0	1.3972696468699723	4.0	0.0	1.0	5.0	5.0	4.0	0.0	part_3
69	0.0	4.0	132.0	3.0	0.0	1.0	1.0	264.0	220.0	44.0	132.0	88.0	176.0	7.0	0.0	1.0903944205492735	4.0	0.0	4.0	7.0	8.0	2.0	0.0	part_3
70	0.0	4.0	117.0	3.0	0.0	1.0	1.0	156.0	39.0	234.0	195.0	78.0	117.0	7.0	0.0	1.5833188018295914	6.0	0.0	4.0	7.0	8.0	2.0	0.0	part_3
71	0.0	4.0	39.0	1.0	0.0	1.0	1.0	78.0	117.0	195.0	39.0	234.0	156.0	7.0	0.0	2.5519213734660298	4.0	0.0	3.0	8.0	7.0	7.0	0.0	part_3
72	0.0	4.0	270.0	5.0	0.0	1.0	0.0	162.0	54.0	108.0	270.0	324.0	216.0	7.0	0.0	3.1448204908519983	4.0	0.0	1.0	4.0	1.0	3.0	0.0	part_3
73	0.0	4.0	204.0	6.0	0.0	1.0	0.0	136.0	68.0	170.0	102.0	34.0	204.0	7.0	0.0	2.0135940951295197	6.0	0.0	1.0	4.0	1.0	3.0	0.0	part_3
74	0.0	4.0	220.0	5.0	0.0	1.0	0.0	88.0	176.0	220.0	44.0	132.0	264.0	7.0	0.0	1.3213461288250983	3.0	0.0	1.0	4.0	1.0	3.0	0.0	part_3
75	0.0	4.0	147.0	3.0	0.0	1.0	1.0	245.0	49.0	98.0	147.0	294.0	196.0	7.0	0.0	1.152154334820807	4.0	0.0	4.0	7.0	8.0	2.0	0.0	part_3
76	0.0	4.0	68.0	2.0	0.0	1.0	1.0	102.0	34.0	170.0	136.0	68.0	204.0	7.0	0.0	1.5447479044087231	5.0	0.0	2.0	3.0	6.0	8.0	0.0	part_3
77	0.0	4.0	204.0	6.0	0.0	1.0	0.0	102.0	136.0	170.0	68.0	204.0	34.0	7.0	0.0	1.6878188892733306	5.0	0.0	4.0	1.0	4.0	5.0	0.0	part_3
78	0.0	4.0	294.0	6.0	0.0	1.0	0.0	49.0	245.0	294.0	147.0	98.0	196.0	7.0	0.0	1.2702295447234064	3.0	0.0	3.0	6.0	3.0	6.0	0.0	part_3
79	0.0	4.0	270.0	5.0	0.0	1.0	0.0	108.0	162.0	216.0	270.0	54.0	324.0	7.0	0.0	2.4247028252575547	4.0	0.0	3.0	6.0	3.0	6.0	0.0	part_3
