	accuracy	block	chosen_bidding_amount	chosen_bidding_level	left_SSD	num_trial_presentations	paired_with_stopping	possible_bid_1	possible_bid_2	possible_bid_3	possible_bid_4	possible_bid_5	possible_bid_6	quadrant	raw_reward_magnitude	reaction_time	response	right_SSD	stepwise_reward_magnitude	stim_color	stim_reward	stim_shape	stop_signal_trial_type	which_part
0		1.0				1.0	0.0							4.0	400.0	0.3340256621122535	4.0		4.0	3.0	4.0	4.0		part_1
1		1.0				1.0	0.0							2.0	0.0	0.2888463943363604	2.0		0.0	6.0	3.0	6.0		part_1
2		1.0				1.0	0.0							4.0	0.0	0.3446441281121224	4.0		0.0	3.0	4.0	4.0		part_1
3		1.0				1.0	1.0							4.0	85.0	0.336127000408851	4.0		2.0	1.0	6.0	1.0		part_1
4		1.0				1.0	0.0							3.0	77.0	0.30153213170342497	3.0		2.0	4.0	2.0	3.0		part_1
5		1.0				1.0	1.0							4.0	0.0	0.30141555995851377	4.0		0.0	8.0	5.0	2.0		part_1
6		1.0				1.0	0.0							4.0	387.0	0.2574117732247032	4.0		4.0	3.0	4.0	4.0		part_1
7		1.0				1.0	0.0							3.0	387.0	0.27046774063273915	3.0		4.0	3.0	4.0	4.0		part_1
8		1.0				1.0	1.0							3.0	36.0	0.3260624921122144	3.0		1.0	8.0	5.0	2.0		part_1
9		1.0				1.0	1.0							2.0	0.0	0.30496175452026364	2.0		0.0	5.0	8.0	5.0		part_1
10		1.0				1.0	1.0							1.0	41.0	0.27103131281637616	1.0		1.0	8.0	5.0	2.0		part_1
11		1.0				1.0	0.0							1.0	185.0	0.3278717037037495	1.0		3.0	6.0	3.0	6.0		part_1
12		1.0				1.0	0.0							3.0	0.0	0.24898399992889608	3.0		0.0	6.0	3.0	6.0		part_1
13		1.0				1.0	1.0							3.0	70.0	0.28400382929612533	3.0		1.0	8.0	5.0	2.0		part_1
14		1.0				1.0	0.0							1.0	45.0	0.27330670170431404	1.0		1.0	7.0	1.0	7.0		part_1
15		1.0				1.0	1.0							2.0	412.0	0.26398782911292074	2.0		4.0	5.0	8.0	5.0		part_1
16		1.0				1.0	0.0							2.0	0.0	0.24137011370294204	2.0		0.0	3.0	4.0	4.0		part_1
17		1.0				1.0	0.0							4.0	0.0	0.28722963981635985	4.0		0.0	6.0	3.0	6.0		part_1
18		1.0				1.0	0.0							2.0	107.0	0.26516093052032375	2.0		2.0	4.0	2.0	3.0		part_1
19		1.0				1.0	0.0							4.0	91.0	0.3091341772242231	4.0		2.0	4.0	2.0	3.0		part_1
20		1.0				1.0	0.0							1.0	122.0	0.3683868517036899	1.0		2.0	4.0	2.0	3.0		part_1
21		1.0				1.0	0.0							1.0	0.0	0.3335881179291391	1.0		0.0	6.0	3.0	6.0		part_1
22		1.0				1.0	1.0							2.0	404.0	0.2558155934084425	2.0		4.0	5.0	8.0	5.0		part_1
23		1.0				1.0	1.0							4.0	186.0	0.27743210111202643	4.0		3.0	2.0	7.0	8.0		part_1
24		1.0				1.0	1.0							3.0	37.0	0.26804592052030785	3.0		1.0	8.0	5.0	2.0		part_1
25		1.0				1.0	1.0							4.0	107.0	0.2568025524087716	4.0		2.0	1.0	6.0	1.0		part_1
26		1.0				1.0	0.0							4.0	219.0	0.29044514040833747	4.0		3.0	6.0	3.0	6.0		part_1
27		1.0				1.0	0.0							4.0	221.0	0.2462827989293146	4.0		3.0	6.0	3.0	6.0		part_1
28		1.0				1.0	1.0							3.0	224.0	0.2919775309292163	3.0		3.0	2.0	7.0	8.0		part_1
29		1.0				1.0	0.0							3.0	190.0	0.25814818440812815	3.0		3.0	6.0	3.0	6.0		part_1
30		1.0				1.0	0.0							4.0	52.0	0.28168056781578343	4.0		1.0	7.0	1.0	7.0		part_1
31		1.0				1.0	0.0							2.0	225.0	0.28315677452064847	2.0		3.0	6.0	3.0	6.0		part_1
32		1.0				1.0	0.0							1.0	109.0	0.27188880652101943	1.0		2.0	4.0	2.0	3.0		part_1
33		1.0				1.0	1.0							4.0	0.0	0.24939163552062382	4.0		0.0	5.0	8.0	5.0		part_1
34		1.0				1.0	1.0							3.0	407.0	0.3639864664082779	3.0		4.0	5.0	8.0	5.0		part_1
35		1.0				1.0	0.0							1.0	211.0	0.2747616254091554	1.0		3.0	6.0	3.0	6.0		part_1
36		1.0				1.0	0.0							1.0	30.0	0.2737494325201624	1.0		1.0	7.0	1.0	7.0		part_1
37		1.0				1.0	1.0							2.0	44.0	0.28785668881573656	2.0		1.0	8.0	5.0	2.0		part_1
38		1.0				1.0	1.0							1.0	93.0	0.3553410702243127	1.0		2.0	1.0	6.0	1.0		part_1
39		1.0				1.0	1.0							1.0	402.0	0.30912893663298746	1.0		4.0	5.0	8.0	5.0		part_1
40		1.0				1.0	0.0							3.0	0.0	0.2889097592242251	3.0		0.0	6.0	3.0	6.0		part_1
41		1.0				1.0	0.0							1.0	410.0	0.2786479147043792	1.0		4.0	3.0	4.0	4.0		part_1
42		1.0				1.0	0.0							3.0	82.0	0.3229666838151388	3.0		2.0	4.0	2.0	3.0		part_1
43		1.0				1.0	1.0							2.0	61.0	0.2899957676327176	2.0		1.0	8.0	5.0	2.0		part_1
44		1.0				1.0	0.0							2.0	0.0	0.3465038785207071	2.0		0.0	3.0	4.0	4.0		part_1
45		1.0				1.0	1.0							1.0	0.0	0.2916411895203055	1.0		0.0	5.0	8.0	5.0		part_1
46		1.0				1.0	0.0							4.0	407.0	0.2800403632245434	4.0		4.0	3.0	4.0	4.0		part_1
47		1.0				1.0	1.0							3.0	213.0	0.28034713370379905	3.0		3.0	2.0	7.0	8.0		part_1
48		1.0				1.0	1.0							2.0	0.0	0.25986874970385543	2.0		0.0	8.0	5.0	2.0		part_1
49		1.0				1.0	1.0							1.0	93.0	0.2591200415208732	1.0		2.0	1.0	6.0	1.0		part_1
50		1.0				1.0	1.0							2.0	78.0	0.3155037835213079	2.0		2.0	1.0	6.0	1.0		part_1
51		1.0				1.0	0.0							2.0	111.0	0.3403942366321644	2.0		2.0	4.0	2.0	3.0		part_1
52		1.0				1.0	1.0							1.0	210.0	0.2618549345206702	1.0		3.0	2.0	7.0	8.0		part_1
53		1.0				1.0	0.0							2.0	119.0	0.250989498295894	2.0		2.0	4.0	2.0	3.0		part_1
54		1.0				1.0	1.0							1.0	413.0	0.27403856799992354	1.0		4.0	5.0	8.0	5.0		part_1
55		1.0				1.0	0.0							1.0	120.0	0.26334407211288635	1.0		2.0	4.0	2.0	3.0		part_1
56		1.0				1.0	0.0							3.0	0.0	0.3750495373369631	3.0		0.0	4.0	2.0	3.0		part_1
57		1.0				1.0	0.0							4.0	97.0	0.3313137457034827	4.0		2.0	4.0	2.0	3.0		part_1
58		1.0				1.0	1.0							3.0	30.0	0.2859727614086296	3.0		1.0	8.0	5.0	2.0		part_1
59		1.0				1.0	1.0							2.0	0.0	0.3443301642237202	2.0		0.0	2.0	7.0	8.0		part_1
60		1.0				1.0	1.0							2.0	376.0	0.2543550667041927	2.0		4.0	5.0	8.0	5.0		part_1
61		1.0				1.0	1.0							4.0	0.0	0.253952740816203	4.0		0.0	2.0	7.0	8.0		part_1
62		1.0				1.0	1.0							2.0	0.0	0.2547928381127349	2.0		0.0	8.0	5.0	2.0		part_1
63		1.0				1.0	0.0							2.0	413.0	0.3119091608159579	2.0		4.0	3.0	4.0	4.0		part_1
64		1.0				1.0	1.0							4.0	407.0	0.2892496275208032	4.0		4.0	5.0	8.0	5.0		part_1
65		1.0				1.0	1.0							4.0	41.0	0.25705002240829344	4.0		1.0	8.0	5.0	2.0		part_1
66		1.0				1.0	1.0							2.0	421.0	0.25695826452101755	2.0		4.0	5.0	8.0	5.0		part_1
67		1.0				2.0	1.0							1.0	411.0	0.29209783222449914	1.0		4.0	5.0	8.0	5.0		part_1
68		1.0				1.0	0.0							2.0	201.0	0.2824257954089262	2.0		3.0	6.0	3.0	6.0		part_1
69		1.0				1.0	0.0							4.0	213.0	0.3053034345211927	4.0		3.0	6.0	3.0	6.0		part_1
70		1.0				1.0	0.0							1.0	0.0	0.327909824633025	1.0		0.0	7.0	1.0	7.0		part_1
71		1.0				1.0	1.0							1.0	125.0	0.31726810252075666	1.0		2.0	1.0	6.0	1.0		part_1
72		1.0				1.0	1.0							1.0	39.0	0.3618841181123571	1.0		1.0	8.0	5.0	2.0		part_1
73		1.0				1.0	1.0							4.0	108.0	0.38475312852096977	4.0		2.0	1.0	6.0	1.0		part_1
74		1.0				1.0	1.0							3.0	188.0	0.31853937770392804	3.0		3.0	2.0	7.0	8.0		part_1
75		1.0				1.0	1.0							2.0	31.0	0.2630354254088161	2.0		1.0	8.0	5.0	2.0		part_1
76		1.0				1.0	1.0							3.0	382.0	0.3636233315201025	3.0		4.0	5.0	8.0	5.0		part_1
77		1.0				1.0	1.0							3.0	79.0	0.2745844738155938	3.0		2.0	1.0	6.0	1.0		part_1
78		1.0				1.0	0.0							3.0	0.0	0.3197415116328557	3.0		0.0	7.0	1.0	7.0		part_1
79		1.0				1.0	1.0							2.0	0.0	0.3112144075203105	2.0		0.0	8.0	5.0	2.0		part_1
80		1.0				1.0	0.0							3.0	39.0	0.3439354898155216	3.0		1.0	7.0	1.0	7.0		part_1
81		1.0				1.0	0.0							1.0	219.0	0.2783588111124118	1.0		3.0	6.0	3.0	6.0		part_1
82		1.0				1.0	1.0							4.0	123.0	0.2887277624085982	4.0		2.0	1.0	6.0	1.0		part_1
83		1.0				1.0	1.0							1.0	82.0	0.31143316963243706	1.0		2.0	1.0	6.0	1.0		part_1
84		1.0				1.0	0.0							2.0	188.0	0.3009034751121362	2.0		3.0	6.0	3.0	6.0		part_1
85		1.0				1.0	1.0							4.0	376.0	0.25731303892825963	4.0		4.0	5.0	8.0	5.0		part_1
86		1.0				1.0	1.0							1.0	108.0	0.26815231252112426	1.0		2.0	1.0	6.0	1.0		part_1
87		1.0				2.0	0.0							4.0	0.0	0.3716851288163525	4.0		0.0	4.0	2.0	3.0		part_1
88		1.0				1.0	0.0							4.0	117.0	0.29194384063339385	4.0		2.0	4.0	2.0	3.0		part_1
89		1.0				1.0	0.0							1.0	64.0	0.3387310821126448	1.0		1.0	7.0	1.0	7.0		part_1
90		1.0				1.0	1.0							2.0	221.0	0.28363324740803364	2.0		3.0	2.0	7.0	8.0		part_1
91		1.0				1.0	1.0							1.0	0.0	0.29492292640861706	1.0		0.0	8.0	5.0	2.0		part_1
92		1.0				1.0	0.0							4.0	210.0	0.2736081851126073	4.0		3.0	6.0	3.0	6.0		part_1
93		1.0				1.0	1.0							4.0	60.0	0.34001093081587896	4.0		1.0	8.0	5.0	2.0		part_1
94		1.0				1.0	1.0							4.0	390.0	0.27499770499980514	4.0		4.0	5.0	8.0	5.0		part_1
95		1.0				1.0	0.0							1.0	43.0	0.2742161471123836	1.0		1.0	7.0	1.0	7.0		part_1
96		1.0				1.0	0.0							3.0	110.0	0.34297705781591503	3.0		2.0	4.0	2.0	3.0		part_1
97		1.0				1.0	0.0							3.0	217.0	0.29759523159191303	3.0		3.0	6.0	3.0	6.0		part_1
98		1.0				1.0	1.0							1.0	196.0	0.2978870265205842	1.0		3.0	2.0	7.0	8.0		part_1
99		1.0				1.0	0.0							4.0	224.0	0.4235931744078698	4.0		3.0	6.0	3.0	6.0		part_1
100		2.0				1.0	0.0							3.0	422.0	0.2843818037035817	3.0		4.0	3.0	4.0	4.0		part_1
101		2.0				1.0	0.0							2.0	412.0	0.23985108611213946	2.0		4.0	3.0	4.0	4.0		part_1
102		2.0				1.0	1.0							2.0	102.0	0.29838210651996633	2.0		2.0	1.0	6.0	1.0		part_1
103		2.0				1.0	0.0							3.0	86.0	0.2645215975207975	3.0		2.0	4.0	2.0	3.0		part_1
104		2.0				1.0	0.0							3.0	412.0	0.286977514816499	3.0		4.0	3.0	4.0	4.0		part_1
105		2.0				1.0	0.0							3.0	44.0	0.2991538248161305	3.0		1.0	7.0	1.0	7.0		part_1
106		2.0				1.0	0.0							4.0	198.0	0.23268840452055883	4.0		3.0	6.0	3.0	6.0		part_1
107		2.0				2.0	0.0							2.0	93.0	0.2999412937042507	2.0		2.0	4.0	2.0	3.0		part_1
108		2.0				1.0	0.0							2.0	31.0	0.2797978373373553	2.0		1.0	7.0	1.0	7.0		part_1
109		2.0				1.0	1.0							2.0	391.0	0.3126489324085924	2.0		4.0	5.0	8.0	5.0		part_1
110		2.0				1.0	0.0							2.0	190.0	0.2787600325200401	2.0		3.0	6.0	3.0	6.0		part_1
111		2.0				1.0	0.0							4.0	117.0	0.35896728640818765	4.0		2.0	4.0	2.0	3.0		part_1
112		2.0				1.0	1.0							1.0	409.0	0.2690467711126985	1.0		4.0	5.0	8.0	5.0		part_1
113		2.0				1.0	0.0							2.0	66.0	0.24740390240822308	2.0		1.0	7.0	1.0	7.0		part_1
114		2.0				1.0	1.0							1.0	52.0	0.28148212740870804	1.0		1.0	8.0	5.0	2.0		part_1
115		2.0				1.0	0.0							4.0	407.0	0.25961139352057216	4.0		4.0	3.0	4.0	4.0		part_1
116		2.0				1.0	1.0							3.0	424.0	0.26048377781626186	3.0		4.0	5.0	8.0	5.0		part_1
117		2.0				1.0	1.0							1.0	58.0	0.2835178729292238	1.0		1.0	8.0	5.0	2.0		part_1
118		2.0				1.0	0.0							4.0	36.0	0.2834388692244829	4.0		1.0	7.0	1.0	7.0		part_1
119		2.0				1.0	1.0							3.0	0.0	0.2733574179283096	3.0		0.0	1.0	6.0	1.0		part_1
120		2.0				2.0	0.0							4.0	73.0	0.2512276781126275	4.0		1.0	7.0	1.0	7.0		part_1
121		2.0				1.0	1.0							3.0	90.0	0.3088131382846768	3.0		2.0	1.0	6.0	1.0		part_1
122		2.0				1.0	0.0							2.0	52.0	0.27508309133645525	2.0		1.0	7.0	1.0	7.0		part_1
123		2.0				1.0	1.0							2.0	223.0	0.28669882070335007	2.0		3.0	2.0	7.0	8.0		part_1
124		2.0				1.0	0.0							4.0	208.0	0.26434154011167266	4.0		3.0	6.0	3.0	6.0		part_1
125		2.0				1.0	1.0							3.0	86.0	0.26600666752074176	3.0		2.0	1.0	6.0	1.0		part_1
126		2.0				1.0	0.0							3.0	383.0	0.29976929411259334	3.0		4.0	3.0	4.0	4.0		part_1
127		2.0				1.0	1.0							2.0	0.0	0.34659842470318836	2.0		0.0	2.0	7.0	8.0		part_1
128		2.0				1.0	0.0							2.0	31.0	0.3347169139296966	2.0		1.0	7.0	1.0	7.0		part_1
129		2.0				1.0	1.0							4.0	73.0	0.2791955095208323	4.0		1.0	8.0	5.0	2.0		part_1
130		2.0				1.0	0.0							3.0	199.0	0.2790030181122347	3.0		3.0	6.0	3.0	6.0		part_1
131		2.0				1.0	0.0							2.0	0.0	0.2692785117033054	2.0		0.0	4.0	2.0	3.0		part_1
132		2.0				1.0	1.0							4.0	107.0	0.3833532828166426	4.0		2.0	1.0	6.0	1.0		part_1
133		2.0				1.0	0.0							4.0	34.0	0.28061240770330187	4.0		1.0	7.0	1.0	7.0		part_1
134		2.0				1.0	0.0							3.0	179.0	0.27171134499985783	3.0		3.0	6.0	3.0	6.0		part_1
135		2.0				1.0	1.0							1.0	198.0	0.26092977740881906	1.0		3.0	2.0	7.0	8.0		part_1
136		2.0				1.0	1.0							3.0	110.0	0.2608657293367287	3.0		2.0	1.0	6.0	1.0		part_1
137		2.0				1.0	1.0							3.0	43.0	0.2839326752246052	3.0		1.0	8.0	5.0	2.0		part_1
138		2.0				1.0	1.0							4.0	64.0	0.26195852552064025	4.0		1.0	8.0	5.0	2.0		part_1
139		2.0				1.0	1.0							2.0	97.0	0.30677633840787166	2.0		2.0	1.0	6.0	1.0		part_1
140		2.0				1.0	1.0							4.0	63.0	0.2524097591121972	4.0		1.0	8.0	5.0	2.0		part_1
141		2.0				1.0	0.0							2.0	411.0	0.2632060108162477	2.0		4.0	3.0	4.0	4.0		part_1
142		2.0				1.0	0.0							4.0	185.0	0.2645301591128373	4.0		3.0	6.0	3.0	6.0		part_1
143		2.0				1.0	0.0							3.0	120.0	0.27574538722365105	3.0		2.0	4.0	2.0	3.0		part_1
144		2.0				1.0	1.0							4.0	111.0	0.30956655852060067	4.0		2.0	1.0	6.0	1.0		part_1
145		2.0				1.0	1.0							4.0	221.0	0.2757715417037616	4.0		3.0	2.0	7.0	8.0		part_1
146		2.0				1.0	0.0							4.0	0.0	0.27826502381594764	4.0		0.0	4.0	2.0	3.0		part_1
147		2.0				1.0	1.0							1.0	29.0	0.36761252629639785	1.0		1.0	8.0	5.0	2.0		part_1
148		2.0				1.0	0.0							4.0	201.0	0.22253378122422873	4.0		3.0	6.0	3.0	6.0		part_1
149		2.0				1.0	0.0							2.0	96.0	0.2785683418160261	2.0		2.0	4.0	2.0	3.0		part_1
150		2.0				1.0	0.0							2.0	0.0	0.30345120763286104	2.0		0.0	3.0	4.0	4.0		part_1
151		2.0				1.0	0.0							2.0	107.0	0.27991511252093915	2.0		2.0	4.0	2.0	3.0		part_1
152		2.0				1.0	1.0							2.0	82.0	0.292935801112435	2.0		2.0	1.0	6.0	1.0		part_1
153		2.0				1.0	0.0							1.0	223.0	0.2809987549289872	1.0		3.0	6.0	3.0	6.0		part_1
154		2.0				1.0	1.0							3.0	401.0	0.39340850492862955	3.0		4.0	5.0	8.0	5.0		part_1
155		2.0				1.0	1.0							4.0	120.0	0.27164601770346053	4.0		2.0	1.0	6.0	1.0		part_1
156		2.0				1.0	1.0							4.0	37.0	0.39661401551984454	4.0		1.0	8.0	5.0	2.0		part_1
157		2.0				1.0	1.0							2.0	25.0	0.35078309681557585	2.0		1.0	8.0	5.0	2.0		part_1
158		2.0				2.0	1.0							1.0	0.0	0.27459932952115196	1.0		0.0	1.0	6.0	1.0		part_1
159		2.0				1.0	1.0							2.0	416.0	0.3183933714080922	2.0		4.0	5.0	8.0	5.0		part_1
160		2.0				1.0	0.0							2.0	79.0	0.2863548197037744	2.0		2.0	4.0	2.0	3.0		part_1
161		2.0				1.0	1.0							1.0	87.0	0.3655238002247643	1.0		2.0	1.0	6.0	1.0		part_1
162		2.0				1.0	1.0							4.0	122.0	0.2637733547044263	4.0		2.0	1.0	6.0	1.0		part_1
163		2.0				1.0	1.0							1.0	0.0	0.4011109211123767	1.0		0.0	2.0	7.0	8.0		part_1
164		2.0				1.0	0.0							3.0	398.0	0.2307436575210886	3.0		4.0	3.0	4.0	4.0		part_1
165		2.0				1.0	1.0							1.0	190.0	0.2998832676330494	1.0		3.0	2.0	7.0	8.0		part_1
166		2.0				1.0	1.0							4.0	0.0	0.24519242811220465	4.0		0.0	1.0	6.0	1.0		part_1
167		2.0				1.0	0.0							1.0	41.0	0.2326956144088399	1.0		1.0	7.0	1.0	7.0		part_1
168		2.0				1.0	1.0							4.0	204.0	0.24558408792927366	4.0		3.0	2.0	7.0	8.0		part_1
169		2.0				1.0	0.0							4.0	37.0	0.3463335536325758	4.0		1.0	7.0	1.0	7.0		part_1
170		2.0				1.0	0.0							3.0	36.0	0.24637852481555456	3.0		1.0	7.0	1.0	7.0		part_1
171		2.0				1.0	1.0							1.0	0.0	0.2812901656334361	1.0		0.0	5.0	8.0	5.0		part_1
172		2.0				2.0	1.0							4.0	206.0	0.29307708499982255	4.0		3.0	2.0	7.0	8.0		part_1
173		2.0				1.0	1.0							2.0	392.0	0.31722129392892384	2.0		4.0	5.0	8.0	5.0		part_1
174		2.0				1.0	1.0							2.0	217.0	0.9015659081123886	2.0		3.0	2.0	7.0	8.0		part_1
175		2.0				1.0	1.0							3.0	208.0	0.40701281551991997	3.0		3.0	2.0	7.0	8.0		part_1
176		2.0				1.0	0.0							2.0	193.0	0.42941327792868833	2.0		3.0	6.0	3.0	6.0		part_1
177		2.0				1.0	1.0							3.0	117.0	0.29455216970563924	3.0		2.0	1.0	6.0	1.0		part_1
178		2.0				1.0	0.0							2.0	179.0	0.27311403622297803	2.0		3.0	6.0	3.0	6.0		part_1
179		2.0				1.0	1.0							4.0	42.0	0.35363361070449173	4.0		1.0	8.0	5.0	2.0		part_1
180		2.0				1.0	1.0							1.0	0.0	0.43205841400049394	1.0		0.0	8.0	5.0	2.0		part_1
181		2.0				1.0	0.0							3.0	386.0	0.398421933336067	3.0		4.0	3.0	4.0	4.0		part_1
182		2.0				2.0	0.0							1.0	421.0	0.31146148522384465	1.0		4.0	3.0	4.0	4.0		part_1
183		2.0				1.0	0.0							3.0	180.0	0.276702303224738	3.0		3.0	6.0	3.0	6.0		part_1
184		2.0				2.0	1.0							1.0	179.0	0.3679092168167699	1.0		3.0	2.0	7.0	8.0		part_1
185		2.0				1.0	0.0							3.0	63.0	0.32299655011229333	3.0		1.0	7.0	1.0	7.0		part_1
186		2.0				1.0	0.0							3.0	182.0	0.30045722563227173	3.0		3.0	6.0	3.0	6.0		part_1
187		2.0				1.0	0.0							3.0	179.0	0.34667437570533366	3.0		3.0	6.0	3.0	6.0		part_1
188		2.0				1.0	0.0							2.0	51.0	0.32525148722561426	2.0		1.0	7.0	1.0	7.0		part_1
189		2.0				2.0	0.0							1.0	29.0	0.3374922211114608	1.0		1.0	7.0	1.0	7.0		part_1
190		2.0				1.0	1.0							4.0	0.0	0.4959667491111759	4.0		0.0	5.0	8.0	5.0		part_1
191		2.0				1.0	0.0							1.0	413.0	0.40727125133707887	1.0		4.0	3.0	4.0	4.0		part_1
192		2.0				1.0	0.0							4.0	0.0	0.32721116611173784	4.0		0.0	7.0	1.0	7.0		part_1
193		2.0				1.0	0.0							3.0	58.0	0.27225847740737663	3.0		1.0	7.0	1.0	7.0		part_1
194		2.0				1.0	1.0							3.0	413.0	0.5430839021119027	3.0		4.0	5.0	8.0	5.0		part_1
195		2.0				1.0	0.0							4.0	108.0	0.6100207556319219	4.0		2.0	4.0	2.0	3.0		part_1
196		2.0				1.0	0.0							4.0	64.0	0.2963821008179366	4.0		1.0	7.0	1.0	7.0		part_1
197		2.0				1.0	1.0							3.0	179.0	0.27441113781605964	3.0		3.0	2.0	7.0	8.0		part_1
198		2.0				1.0	1.0							2.0	182.0	0.3086300848171959	2.0		3.0	2.0	7.0	8.0		part_1
199		2.0				1.0	1.0							4.0	181.0	0.39918037492861913	4.0		3.0	2.0	7.0	8.0		part_1
200		3.0				1.0	1.0							4.0	0.0	0.22845666611101478	4.0		0.0	1.0	6.0	1.0		part_1
201		3.0				1.0	1.0							3.0	32.0	0.26375721563272236	3.0		1.0	8.0	5.0	2.0		part_1
202		3.0				1.0	0.0							2.0	0.0	0.26351612963298976	2.0		0.0	3.0	4.0	4.0		part_1
203		3.0				3.0	0.0							1.0	377.0	0.4343979959994613	1.0		4.0	3.0	4.0	4.0		part_1
204		3.0				1.0	1.0							3.0	179.0	0.2981805091130809	3.0		3.0	2.0	7.0	8.0		part_1
205		3.0				2.0	0.0							1.0	41.0	0.29059274551946146	1.0		1.0	7.0	1.0	7.0		part_1
206		3.0				1.0	1.0							2.0	0.0	0.2462219789304072	2.0		0.0	5.0	8.0	5.0		part_1
207		3.0				1.0	1.0							4.0	0.0	0.26671009252095246	4.0		0.0	8.0	5.0	2.0		part_1
208		3.0				1.0	0.0							2.0	0.0	0.24601352092940942	2.0		0.0	4.0	2.0	3.0		part_1
209		3.0				1.0	1.0							3.0	96.0	0.3353702194071957	3.0		2.0	1.0	6.0	1.0		part_1
210		3.0				1.0	1.0							2.0	51.0	0.2921452537048026	2.0		1.0	8.0	5.0	2.0		part_1
211		3.0				1.0	1.0							2.0	201.0	0.282818540928929	2.0		3.0	2.0	7.0	8.0		part_1
212		3.0				1.0	0.0							3.0	381.0	0.25879072240786627	3.0		4.0	3.0	4.0	4.0		part_1
213		3.0				1.0	1.0							4.0	417.0	0.2833652648168936	4.0		4.0	5.0	8.0	5.0		part_1
214		3.0				1.0	1.0							3.0	66.0	0.24790093740739394	3.0		1.0	8.0	5.0	2.0		part_1
215		3.0				2.0	0.0							3.0	0.0	0.27150843811068626	3.0		0.0	3.0	4.0	4.0		part_1
216		3.0				1.0	0.0							4.0	85.0	0.39730820211298123	4.0		2.0	4.0	2.0	3.0		part_1
217		3.0				1.0	0.0							2.0	390.0	0.262740151518301	2.0		4.0	3.0	4.0	4.0		part_1
218		3.0				1.0	1.0							2.0	93.0	0.2534123157347494	2.0		2.0	1.0	6.0	1.0		part_1
219		3.0				1.0	1.0							4.0	180.0	0.32011421622519265	4.0		3.0	2.0	7.0	8.0		part_1
220		3.0				1.0	1.0							1.0	216.0	0.32195779022549686	1.0		3.0	2.0	7.0	8.0		part_1
221		3.0				1.0	0.0							2.0	0.0	0.24199346322347992	2.0		0.0	3.0	4.0	4.0		part_1
222		3.0				1.0	1.0							2.0	0.0	0.3207428385194362	2.0		0.0	2.0	7.0	8.0		part_1
223		3.0				1.0	0.0							4.0	424.0	0.28797707363082736	4.0		4.0	3.0	4.0	4.0		part_1
224		3.0				1.0	0.0							4.0	182.0	0.34465392870333744	4.0		3.0	6.0	3.0	6.0		part_1
225		3.0				1.0	1.0							2.0	117.0	0.299844331224449	2.0		2.0	1.0	6.0	1.0		part_1
226		3.0				2.0	1.0							2.0	46.0	0.3242800718162471	2.0		1.0	8.0	5.0	2.0		part_1
227		3.0				1.0	0.0							4.0	391.0	0.32507435592924594	4.0		4.0	3.0	4.0	4.0		part_1
228		3.0				1.0	0.0							4.0	404.0	0.28074435170492507	4.0		4.0	3.0	4.0	4.0		part_1
229		3.0				1.0	1.0							4.0	106.0	0.2691232474080607	4.0		2.0	1.0	6.0	1.0		part_1
230		3.0				1.0	1.0							4.0	391.0	0.3040310845190106	4.0		4.0	5.0	8.0	5.0		part_1
231		3.0				1.0	1.0							2.0	64.0	0.28172221611202986	2.0		1.0	8.0	5.0	2.0		part_1
232		3.0				1.0	0.0							4.0	57.0	0.2721608991123503	4.0		1.0	7.0	1.0	7.0		part_1
233		3.0				1.0	1.0							1.0	219.0	0.27346860811121587	1.0		3.0	2.0	7.0	8.0		part_1
234		3.0				1.0	0.0							4.0	421.0	0.2946684069283947	4.0		4.0	3.0	4.0	4.0		part_1
235		3.0				1.0	1.0							2.0	75.0	0.26162923170522845	2.0		2.0	1.0	6.0	1.0		part_1
236		3.0				1.0	1.0							4.0	201.0	0.2729986244085012	4.0		3.0	2.0	7.0	8.0		part_1
237		3.0				1.0	1.0							2.0	0.0	0.2401007448170276	2.0		0.0	1.0	6.0	1.0		part_1
238		3.0				1.0	1.0							3.0	412.0	0.30763973481771245	3.0		4.0	5.0	8.0	5.0		part_1
239		3.0				1.0	0.0							4.0	61.0	0.3647993851118372	4.0		1.0	7.0	1.0	7.0		part_1
240		3.0				1.0	1.0							2.0	383.0	0.27719095413340256	2.0		4.0	5.0	8.0	5.0		part_1
241		3.0				1.0	0.0							3.0	45.0	0.333270304112375	3.0		1.0	7.0	1.0	7.0		part_1
242		3.0				1.0	0.0							1.0	409.0	0.287305852631107	1.0		4.0	3.0	4.0	4.0		part_1
243		3.0				2.0	1.0							1.0	31.0	0.25662061293041916	1.0		1.0	8.0	5.0	2.0		part_1
244		3.0				1.0	0.0							1.0	0.0	0.2554451291125588	1.0		0.0	6.0	3.0	6.0		part_1
245		3.0				1.0	0.0							1.0	32.0	0.26920954170418554	1.0		1.0	7.0	1.0	7.0		part_1
246		3.0				2.0	1.0							4.0	377.0	0.26977440911286976	4.0		4.0	5.0	8.0	5.0		part_1
247		3.0				1.0	1.0							3.0	399.0	0.29221940070419805	3.0		4.0	5.0	8.0	5.0		part_1
248		3.0				1.0	0.0							1.0	0.0	0.26961049692909	1.0		0.0	3.0	4.0	4.0		part_1
249		3.0				1.0	1.0							1.0	67.0	0.315394347817346	1.0		1.0	8.0	5.0	2.0		part_1
250		3.0				1.0	1.0							3.0	73.0	0.35072651999871596	3.0		1.0	8.0	5.0	2.0		part_1
251		3.0				1.0	0.0							3.0	103.0	0.30547585322528903	3.0		2.0	4.0	2.0	3.0		part_1
252		3.0				1.0	0.0							4.0	93.0	0.28247737663150474	4.0		2.0	4.0	2.0	3.0		part_1
253		3.0				1.0	0.0							3.0	216.0	0.30535650492856803	3.0		3.0	6.0	3.0	6.0		part_1
254		3.0				1.0	0.0							3.0	90.0	0.29647387263139535	3.0		2.0	4.0	2.0	3.0		part_1
255		3.0				1.0	1.0							3.0	34.0	0.34056906540899945	3.0		1.0	8.0	5.0	2.0		part_1
256		3.0				1.0	1.0							4.0	410.0	0.28658171933784615	4.0		4.0	5.0	8.0	5.0		part_1
257		3.0				1.0	0.0							2.0	416.0	0.25246421670453856	2.0		4.0	3.0	4.0	4.0		part_1
258		3.0				1.0	0.0							1.0	78.0	0.30927084211180045	1.0		2.0	4.0	2.0	3.0		part_1
259		3.0				1.0	1.0							1.0	119.0	0.29938900392880896	1.0		2.0	1.0	6.0	1.0		part_1
260		3.0				1.0	1.0							3.0	399.0	0.23111895881629607	3.0		4.0	5.0	8.0	5.0		part_1
261		3.0				1.0	0.0							4.0	0.0	0.2884963891119696	4.0		0.0	3.0	4.0	4.0		part_1
262		3.0				1.0	0.0							2.0	108.0	0.30101543111231877	2.0		2.0	4.0	2.0	3.0		part_1
263		3.0				2.0	1.0							4.0	387.0	0.2448031897056353	4.0		4.0	5.0	8.0	5.0		part_1
264		3.0				1.0	1.0							2.0	195.0	0.24678421328644617	2.0		3.0	2.0	7.0	8.0		part_1
265		3.0				1.0	0.0							3.0	68.0	0.2569894958178338	3.0		1.0	7.0	1.0	7.0		part_1
266		3.0				2.0	0.0							1.0	76.0	0.3037774524073029	1.0		2.0	4.0	2.0	3.0		part_1
267		3.0				2.0	1.0							1.0	399.0	0.31608081978447444	1.0		4.0	5.0	8.0	5.0		part_1
268		3.0				1.0	0.0							4.0	96.0	0.4068944549690059	4.0		2.0	4.0	2.0	3.0		part_1
269		3.0				1.0	0.0							1.0	0.0	0.3163199189293664	1.0		0.0	4.0	2.0	3.0		part_1
270		3.0				1.0	0.0							1.0	417.0	0.25107013681736134	1.0		4.0	3.0	4.0	4.0		part_1
271		3.0				1.0	1.0							2.0	200.0	0.3083098526312824	2.0		3.0	2.0	7.0	8.0		part_1
272		3.0				1.0	0.0							2.0	70.0	0.2739007648178813	2.0		1.0	7.0	1.0	7.0		part_1
273		3.0				1.0	1.0							2.0	104.0	0.2638224939291831	2.0		2.0	1.0	6.0	1.0		part_1
274		3.0				1.0	0.0							2.0	0.0	0.27485100340709323	2.0		0.0	7.0	1.0	7.0		part_1
275		3.0				1.0	0.0							2.0	58.0	0.252460448518832	2.0		1.0	7.0	1.0	7.0		part_1
276		3.0				1.0	1.0							1.0	81.0	0.28696222900180146	1.0		2.0	1.0	6.0	1.0		part_1
277		3.0				1.0	0.0							4.0	391.0	0.33145987440730096	4.0		4.0	3.0	4.0	4.0		part_1
278		3.0				1.0	1.0							1.0	57.0	0.3222354234803788	1.0		1.0	8.0	5.0	2.0		part_1
279		3.0				1.0	1.0							4.0	0.0	0.3223689091137203	4.0		0.0	2.0	7.0	8.0		part_1
280		3.0				2.0	0.0							1.0	81.0	0.7854400849300873	1.0		2.0	4.0	2.0	3.0		part_1
281		3.0				1.0	1.0							1.0	58.0	0.3243425537039002	1.0		1.0	8.0	5.0	2.0		part_1
282		3.0				1.0	0.0							1.0	224.0	0.26948369170531805	1.0		3.0	6.0	3.0	6.0		part_1
283		3.0				1.0	1.0							1.0	421.0	0.2582642737052083	1.0		4.0	5.0	8.0	5.0		part_1
284		3.0				2.0	0.0							2.0	376.0	0.26039672811202763	2.0		4.0	3.0	4.0	4.0		part_1
285		3.0				2.0	1.0							1.0	76.0	0.21518923563235148	1.0		2.0	1.0	6.0	1.0		part_1
286		3.0				1.0	1.0							3.0	119.0	0.28403694711232674	3.0		2.0	1.0	6.0	1.0		part_1
287		3.0				1.0	0.0							1.0	221.0	0.2955777555198438	1.0		3.0	6.0	3.0	6.0		part_1
288		3.0				1.0	1.0							2.0	109.0	0.2838346024072962	2.0		2.0	1.0	6.0	1.0		part_1
289		3.0				1.0	1.0							2.0	211.0	0.29696112951933173	2.0		3.0	2.0	7.0	8.0		part_1
290		3.0				1.0	1.0							2.0	381.0	0.2620525838156027	2.0		4.0	5.0	8.0	5.0		part_1
291		3.0				1.0	0.0							3.0	399.0	0.32026652351851226	3.0		4.0	3.0	4.0	4.0		part_1
292		3.0				1.0	0.0							3.0	200.0	0.30871495851897635	3.0		3.0	6.0	3.0	6.0		part_1
293		3.0				1.0	1.0							3.0	0.0	0.2973403585201595	3.0		0.0	5.0	8.0	5.0		part_1
294		3.0				1.0	0.0							3.0	0.0	0.28641088852054963	3.0		0.0	7.0	1.0	7.0		part_1
295		3.0				1.0	0.0							1.0	93.0	0.32132687940793403	1.0		2.0	4.0	2.0	3.0		part_1
296		3.0				1.0	1.0							2.0	0.0	0.2775243754076655	2.0		0.0	2.0	7.0	8.0		part_1
297		3.0				1.0	1.0							4.0	36.0	0.2901092717056599	4.0		1.0	8.0	5.0	2.0		part_1
298		3.0				1.0	1.0							1.0	407.0	0.25726844452037767	1.0		4.0	5.0	8.0	5.0		part_1
299		3.0				1.0	0.0							1.0	382.0	0.257174613110692	1.0		4.0	3.0	4.0	4.0		part_1
300		4.0				1.0	0.0							2.0	206.0	0.3432515786316799	2.0		3.0	6.0	3.0	6.0		part_1
301		4.0				1.0	1.0							3.0	185.0	0.2752201772236731	3.0		3.0	2.0	7.0	8.0		part_1
302		4.0				1.0	0.0							2.0	123.0	0.2647895656318724	2.0		2.0	4.0	2.0	3.0		part_1
303		4.0				1.0	0.0							4.0	0.0	0.33368753611102875	4.0		0.0	6.0	3.0	6.0		part_1
304		4.0				1.0	1.0							4.0	422.0	0.32092561440731515	4.0		4.0	5.0	8.0	5.0		part_1
305		4.0				1.0	1.0							3.0	199.0	0.31060073111257225	3.0		3.0	2.0	7.0	8.0		part_1
306		4.0				1.0	1.0							4.0	120.0	0.2775630604082835	4.0		2.0	1.0	6.0	1.0		part_1
307		4.0				1.0	0.0							1.0	376.0	0.2905486669296806	1.0		4.0	3.0	4.0	4.0		part_1
308		4.0				1.0	0.0							3.0	102.0	0.23501673481587204	3.0		2.0	4.0	2.0	3.0		part_1
309		4.0				2.0	0.0							1.0	0.0	0.27948900500086893	1.0		0.0	4.0	2.0	3.0		part_1
310		4.0				1.0	0.0							4.0	0.0	0.3591482511128561	4.0		0.0	7.0	1.0	7.0		part_1
311		4.0				2.0	0.0							2.0	0.0	0.27165223652082204	2.0		0.0	3.0	4.0	4.0		part_1
312		4.0				1.0	1.0							2.0	0.0	0.29385824963173945	2.0		0.0	1.0	6.0	1.0		part_1
313		4.0				1.0	1.0							4.0	68.0	0.31615215392957907	4.0		1.0	8.0	5.0	2.0		part_1
314		4.0				1.0	0.0							3.0	396.0	0.2944328667035734	3.0		4.0	3.0	4.0	4.0		part_1
315		4.0				1.0	1.0							4.0	0.0	0.3187089556322462	4.0		0.0	8.0	5.0	2.0		part_1
316		4.0				1.0	1.0							1.0	52.0	0.34075021163152996	1.0		1.0	8.0	5.0	2.0		part_1
317		4.0				1.0	0.0							1.0	399.0	0.2637403878161422	1.0		4.0	3.0	4.0	4.0		part_1
318		4.0				1.0	0.0							2.0	403.0	0.2628260925212089	2.0		4.0	3.0	4.0	4.0		part_1
319		4.0				1.0	1.0							3.0	199.0	0.30744837151905813	3.0		3.0	2.0	7.0	8.0		part_1
320		4.0				1.0	1.0							4.0	67.0	0.2532870235208975	4.0		1.0	8.0	5.0	2.0		part_1
321		4.0				1.0	0.0							3.0	67.0	0.33350172551945434	3.0		1.0	7.0	1.0	7.0		part_1
322		4.0				1.0	1.0							3.0	396.0	0.3551319794078154	3.0		4.0	5.0	8.0	5.0		part_1
323		4.0				1.0	1.0							1.0	0.0	0.26674037211159884	1.0		0.0	5.0	8.0	5.0		part_1
324		4.0				1.0	1.0							1.0	386.0	0.2559022876321251	1.0		4.0	5.0	8.0	5.0		part_1
325		4.0				1.0	1.0							4.0	185.0	0.2564942888184305	4.0		3.0	2.0	7.0	8.0		part_1
326		4.0				1.0	1.0							3.0	103.0	0.2797138426321908	3.0		2.0	1.0	6.0	1.0		part_1
327		4.0				1.0	0.0							3.0	25.0	0.3020887227048661	3.0		1.0	7.0	1.0	7.0		part_1
328		4.0				1.0	0.0							2.0	402.0	0.2928316824072681	2.0		4.0	3.0	4.0	4.0		part_1
329		4.0				1.0	0.0							3.0	87.0	0.29179592952095845	3.0		2.0	4.0	2.0	3.0		part_1
330		4.0				1.0	1.0							2.0	45.0	0.2466592732234858	2.0		1.0	8.0	5.0	2.0		part_1
331		4.0				1.0	0.0							3.0	73.0	0.24780442140581727	3.0		1.0	7.0	1.0	7.0		part_1
332		4.0				1.0	1.0							2.0	182.0	0.2931592999284476	2.0		3.0	2.0	7.0	8.0		part_1
333		4.0				2.0	0.0							4.0	0.0	0.3056709905195021	4.0		0.0	4.0	2.0	3.0		part_1
334		4.0				1.0	1.0							3.0	91.0	0.2938483999296295	3.0		2.0	1.0	6.0	1.0		part_1
335		4.0				1.0	0.0							1.0	57.0	0.29683918100090523	1.0		1.0	7.0	1.0	7.0		part_1
336		4.0				1.0	1.0							2.0	0.0	0.352283439520761	2.0		0.0	1.0	6.0	1.0		part_1
337		4.0				1.0	0.0							1.0	189.0	0.3088090144083253	1.0		3.0	6.0	3.0	6.0		part_1
338		4.0				1.0	0.0							1.0	204.0	0.28718357440811815	1.0		3.0	6.0	3.0	6.0		part_1
339		4.0				1.0	1.0							2.0	387.0	0.35495773070397263	2.0		4.0	5.0	8.0	5.0		part_1
340		4.0				1.0	1.0							1.0	0.0	0.3211066165185912	1.0		0.0	2.0	7.0	8.0		part_1
341		4.0				1.0	0.0							1.0	407.0	0.26497819963151414	1.0		4.0	3.0	4.0	4.0		part_1
342		4.0				1.0	0.0							4.0	0.0	0.433978414408557	4.0		0.0	7.0	1.0	7.0		part_1
343		4.0				1.0	0.0							1.0	106.0	0.2787124530004803	1.0		2.0	4.0	2.0	3.0		part_1
344		4.0				1.0	0.0							3.0	0.0	0.26745535063128045	3.0		0.0	6.0	3.0	6.0		part_1
345		4.0				1.0	1.0							4.0	225.0	0.28915938299905974	4.0		3.0	2.0	7.0	8.0		part_1
346		4.0				1.0	0.0							2.0	181.0	0.29118274259235477	2.0		3.0	6.0	3.0	6.0		part_1
347		4.0				1.0	1.0							1.0	0.0	0.3024013454087253	1.0		0.0	8.0	5.0	2.0		part_1
348		4.0				1.0	0.0							1.0	125.0	0.3250540974077012	1.0		2.0	4.0	2.0	3.0		part_1
349		4.0				1.0	1.0							1.0	179.0	0.28178263470363163	1.0		3.0	2.0	7.0	8.0		part_1
350		4.0				1.0	0.0							1.0	0.0	0.23736933263171522	1.0		0.0	7.0	1.0	7.0		part_1
351		4.0				2.0	1.0							3.0	0.0	0.28209000011338503	3.0		0.0	1.0	6.0	1.0		part_1
352		4.0				1.0	1.0							1.0	189.0	0.2729538004077767	1.0		3.0	2.0	7.0	8.0		part_1
353		4.0				1.0	1.0							4.0	0.0	0.2600535584078898	4.0		0.0	1.0	6.0	1.0		part_1
354		4.0				1.0	1.0							2.0	193.0	0.2958596395183122	2.0		3.0	2.0	7.0	8.0		part_1
355		4.0				1.0	1.0							3.0	57.0	0.2621542309279903	3.0		1.0	8.0	5.0	2.0		part_1
356		4.0				1.0	0.0							3.0	401.0	0.3074896631114825	3.0		4.0	3.0	4.0	4.0		part_1
357		4.0				1.0	0.0							1.0	0.0	0.2852478618169698	1.0		0.0	6.0	3.0	6.0		part_1
358		4.0				1.0	1.0							1.0	0.0	0.265251066928613	1.0		0.0	5.0	8.0	5.0		part_1
359		4.0				1.0	0.0							2.0	0.0	0.35512082122295396	2.0		0.0	6.0	3.0	6.0		part_1
360		4.0				1.0	0.0							2.0	396.0	0.3094189688181359	2.0		4.0	3.0	4.0	4.0		part_1
361		4.0				1.0	0.0							2.0	392.0	0.2991269324083987	2.0		4.0	3.0	4.0	4.0		part_1
362		4.0				1.0	0.0							3.0	75.0	0.3211124057052075	3.0		2.0	4.0	2.0	3.0		part_1
363		4.0				1.0	1.0							2.0	67.0	0.27793951740750344	2.0		1.0	8.0	5.0	2.0		part_1
364		4.0				1.0	0.0							3.0	199.0	0.2448010551106563	3.0		3.0	6.0	3.0	6.0		part_1
365		4.0				1.0	1.0							1.0	400.0	0.2908201801110408	1.0		4.0	5.0	8.0	5.0		part_1
366		4.0				1.0	1.0							1.0	190.0	0.28047797911131056	1.0		3.0	2.0	7.0	8.0		part_1
367		4.0				1.0	0.0							2.0	196.0	0.29241055051898	2.0		3.0	6.0	3.0	6.0		part_1
368		4.0				1.0	1.0							3.0	0.0	0.3145515409996733	3.0		0.0	5.0	8.0	5.0		part_1
369		4.0				1.0	0.0							4.0	0.0	0.2708175719690189	4.0		0.0	4.0	2.0	3.0		part_1
370		4.0				1.0	0.0							1.0	119.0	0.2359819227058324	1.0		2.0	4.0	2.0	3.0		part_1
371		4.0				1.0	0.0							4.0	0.0	0.2822369274090306	4.0		0.0	7.0	1.0	7.0		part_1
372		4.0				1.0	0.0							2.0	186.0	0.3289309117844823	2.0		3.0	6.0	3.0	6.0		part_1
373		4.0				1.0	0.0							4.0	103.0	0.27175285063094634	4.0		2.0	4.0	2.0	3.0		part_1
374		4.0				1.0	1.0							4.0	219.0	0.284701756630966	4.0		3.0	2.0	7.0	8.0		part_1
375		4.0				1.0	0.0							2.0	67.0	0.3072651499987842	2.0		1.0	7.0	1.0	7.0		part_1
376		4.0				1.0	1.0							1.0	396.0	0.25086009092956374	1.0		4.0	5.0	8.0	5.0		part_1
377		4.0				1.0	1.0							1.0	0.0	0.26403934340669366	1.0		0.0	2.0	7.0	8.0		part_1
378		4.0				1.0	1.0							2.0	96.0	0.3082397635189409	2.0		2.0	1.0	6.0	1.0		part_1
379		4.0				1.0	0.0							4.0	0.0	0.24110681981619564	4.0		0.0	4.0	2.0	3.0		part_1
380		4.0				1.0	1.0							2.0	0.0	0.3096178906325804	2.0		0.0	2.0	7.0	8.0		part_1
381		4.0				1.0	0.0							2.0	60.0	0.3219255944077304	2.0		1.0	7.0	1.0	7.0		part_1
382		4.0				1.0	0.0							4.0	399.0	0.25474956411198946	4.0		4.0	3.0	4.0	4.0		part_1
383		4.0				1.0	0.0							1.0	195.0	0.24545978933747392	1.0		3.0	6.0	3.0	6.0		part_1
384		4.0				1.0	1.0							3.0	403.0	0.2895439535186597	3.0		4.0	5.0	8.0	5.0		part_1
385		4.0				2.0	1.0							1.0	77.0	0.2687836805198458	1.0		2.0	1.0	6.0	1.0		part_1
386		4.0				1.0	0.0							1.0	179.0	0.3022858428175823	1.0		3.0	6.0	3.0	6.0		part_1
387		4.0				1.0	0.0							4.0	42.0	0.3037644159303454	4.0		1.0	7.0	1.0	7.0		part_1
388		4.0				1.0	1.0							3.0	224.0	0.3032047474080173	3.0		3.0	2.0	7.0	8.0		part_1
389		4.0				1.0	0.0							4.0	104.0	0.2714601462248538	4.0		2.0	4.0	2.0	3.0		part_1
390		4.0				1.0	0.0							1.0	67.0	0.25897569111111807	1.0		1.0	7.0	1.0	7.0		part_1
391		4.0				1.0	0.0							2.0	46.0	0.27296376270533074	2.0		1.0	7.0	1.0	7.0		part_1
392		4.0				1.0	1.0							3.0	0.0	0.271835950705281	3.0		0.0	8.0	5.0	2.0		part_1
393		4.0				1.0	0.0							4.0	37.0	0.2939569786321954	4.0		1.0	7.0	1.0	7.0		part_1
394		4.0				1.0	0.0							2.0	82.0	0.2517586736303201	2.0		2.0	4.0	2.0	3.0		part_1
395		4.0				1.0	1.0							2.0	45.0	0.2960247896317014	2.0		1.0	8.0	5.0	2.0		part_1
396		4.0				2.0	1.0							4.0	398.0	0.26315077763138106	4.0		4.0	5.0	8.0	5.0		part_1
397		4.0				1.0	1.0							3.0	103.0	0.33067871392813686	3.0		2.0	1.0	6.0	1.0		part_1
398		4.0				1.0	0.0							3.0	0.0	0.29808079752001504	3.0		0.0	7.0	1.0	7.0		part_1
399		4.0				1.0	1.0							2.0	0.0	0.2760625242244714	2.0		0.0	1.0	6.0	1.0		part_1
0	3.0	1.0			250.0	0.0	1.0							6.0	0.0	0.7770712000292406	6.0	250.0	1.0	8.0	5.0	2.0	1.0	part_2
1	1.0	1.0			250.0	0.0	0.0							5.0	0.0	0.5868356022729131	5.0	200.0	2.0	4.0	2.0	3.0	0.0	part_2
2	3.0	1.0			250.0	0.0	1.0							5.0	0.0	0.3400012320289534	5.0	200.0	1.0	8.0	5.0	2.0	1.0	part_2
3	1.0	1.0			200.0	0.0	0.0							5.0	0.0	0.6781840077583183	5.0	200.0	1.0	7.0	1.0	7.0	0.0	part_2
4	1.0	1.0			200.0	0.0	0.0							5.0	0.0	0.8812318057571247	5.0	200.0	1.0	7.0	1.0	7.0	0.0	part_2
5	1.0	1.0			200.0	0.0	0.0							5.0	0.0	0.9156267278158339	5.0	200.0	2.0	4.0	2.0	3.0	0.0	part_2
6	1.0	1.0			200.0	0.0	0.0							5.0	0.0	0.8377239462715806	5.0	200.0	4.0	3.0	4.0	4.0	0.0	part_2
7	3.0	1.0			200.0	0.0	1.0							5.0	0.0	0.33247805654355034	5.0	200.0	2.0	1.0	6.0	1.0	1.0	part_2
8	1.0	1.0			150.0	0.0	0.0							5.0	0.0	0.8624517197586101	5.0	200.0	3.0	6.0	3.0	6.0	0.0	part_2
9	1.0	1.0			150.0	0.0	0.0							6.0	0.0	0.7848749255153962	6.0	200.0	1.0	7.0	1.0	7.0	0.0	part_2
10	1.0	1.0			150.0	0.0	0.0							5.0	0.0	0.998618953544792	5.0	200.0	2.0	4.0	2.0	3.0	0.0	part_2
11	1.0	1.0			150.0	0.0	0.0							5.0	0.0	1.0465865845144435	5.0	200.0	4.0	3.0	4.0	4.0	0.0	part_2
12	4.0	1.0			150.0	0.0	1.0							5.0	0.0	0.0	0.0	200.0	3.0	2.0	7.0	8.0	1.0	part_2
13	4.0	1.0			200.0	0.0	1.0							6.0	0.0	0.0	0.0	200.0	4.0	5.0	8.0	5.0	1.0	part_2
14	1.0	1.0			200.0	0.0	0.0							5.0	0.0	0.9353737080582505	5.0	250.0	1.0	7.0	1.0	7.0	0.0	part_2
15	4.0	1.0			200.0	0.0	1.0							6.0	0.0	0.0	0.0	250.0	3.0	2.0	7.0	8.0	1.0	part_2
16	1.0	1.0			200.0	0.0	1.0							5.0	0.0	0.8588177267865831	5.0	300.0	2.0	1.0	6.0	1.0	0.0	part_2
17	1.0	1.0			200.0	0.0	1.0							6.0	0.0	0.9712369315147953	6.0	300.0	1.0	8.0	5.0	2.0	0.0	part_2
18	1.0	1.0			200.0	0.0	1.0							6.0	0.0	0.9269383705159271	6.0	300.0	1.0	8.0	5.0	2.0	0.0	part_2
19	4.0	1.0			200.0	0.0	1.0							6.0	0.0	0.0	0.0	300.0	3.0	2.0	7.0	8.0	1.0	part_2
20	4.0	1.0			200.0	0.0	1.0							5.0	0.0	0.0	0.0	350.0	4.0	5.0	8.0	5.0	1.0	part_2
21	1.0	1.0			250.0	0.0	0.0							5.0	0.0	0.7155101967873634	5.0	350.0	1.0	7.0	1.0	7.0	0.0	part_2
22	1.0	1.0			250.0	0.0	1.0							6.0	0.0	0.7739494952729729	6.0	350.0	3.0	2.0	7.0	8.0	0.0	part_2
23	4.0	1.0			250.0	0.0	1.0							6.0	0.0	0.0	0.0	350.0	4.0	5.0	8.0	5.0	1.0	part_2
24	1.0	1.0			250.0	0.0	0.0							5.0	0.0	0.7860041993026243	5.0	400.0	2.0	4.0	2.0	3.0	0.0	part_2
25	5.0	1.0			250.0	0.0	0.0							5.0	0.0	0.0	0.0	400.0	4.0	3.0	4.0	4.0	0.0	part_2
26	4.0	1.0			250.0	0.0	1.0							6.0	0.0	0.0	0.0	400.0	3.0	2.0	7.0	8.0	1.0	part_2
27	1.0	1.0			250.0	0.0	1.0							6.0	0.0	0.6993477628166147	6.0	450.0	3.0	2.0	7.0	8.0	0.0	part_2
28	1.0	1.0			250.0	0.0	0.0							5.0	0.0	0.473606121058765	5.0	450.0	2.0	4.0	2.0	3.0	0.0	part_2
29	1.0	1.0			250.0	0.0	0.0							5.0	0.0	0.3737282230013079	5.0	450.0	4.0	3.0	4.0	4.0	0.0	part_2
30	3.0	1.0			250.0	0.0	1.0							6.0	0.0	0.5653832380594395	6.0	450.0	4.0	5.0	8.0	5.0	1.0	part_2
31	5.0	1.0			250.0	0.0	0.0							6.0	0.0	0.0	0.0	400.0	4.0	3.0	4.0	4.0	0.0	part_2
32	4.0	1.0			250.0	0.0	1.0							6.0	0.0	0.0	0.0	400.0	4.0	5.0	8.0	5.0	1.0	part_2
33	1.0	1.0			250.0	0.0	1.0							6.0	0.0	0.4571586120000575	6.0	450.0	1.0	8.0	5.0	2.0	0.0	part_2
34	4.0	1.0			250.0	0.0	1.0							5.0	0.0	0.0	0.0	450.0	1.0	8.0	5.0	2.0	1.0	part_2
35	1.0	1.0			300.0	0.0	0.0							6.0	0.0	0.3345940575145505	6.0	450.0	4.0	3.0	4.0	4.0	0.0	part_2
36	3.0	2.0			300.0	0.0	1.0							6.0	0.0	0.6221329492727818	6.0	450.0	2.0	1.0	6.0	1.0	1.0	part_2
37	1.0	2.0			300.0	0.0	1.0							6.0	0.0	0.5454414707583055	6.0	400.0	3.0	2.0	7.0	8.0	0.0	part_2
38	4.0	2.0			300.0	0.0	1.0							6.0	0.0	0.0	0.0	400.0	4.0	5.0	8.0	5.0	1.0	part_2
39	4.0	2.0			300.0	0.0	1.0							5.0	0.0	0.0	0.0	450.0	3.0	2.0	7.0	8.0	1.0	part_2
40	1.0	2.0			350.0	0.0	1.0							6.0	0.0	0.39972888378724747	6.0	450.0	1.0	8.0	5.0	2.0	0.0	part_2
41	3.0	2.0			350.0	0.0	1.0							5.0	0.0	0.31147742124267097	5.0	450.0	4.0	5.0	8.0	5.0	1.0	part_2
42	1.0	2.0			300.0	0.0	0.0							6.0	0.0	0.7628610252413637	6.0	450.0	1.0	7.0	1.0	7.0	0.0	part_2
43	1.0	2.0			300.0	0.0	0.0							6.0	0.0	0.6497474999996484	6.0	450.0	2.0	4.0	2.0	3.0	0.0	part_2
44	4.0	2.0			300.0	0.0	1.0							5.0	0.0	0.0	0.0	450.0	4.0	5.0	8.0	5.0	1.0	part_2
45	1.0	2.0			350.0	0.0	0.0							6.0	0.0	0.5499868987571972	6.0	450.0	4.0	3.0	4.0	4.0	0.0	part_2
46	1.0	2.0			350.0	0.0	0.0							6.0	0.0	0.8113096820288774	6.0	450.0	1.0	7.0	1.0	7.0	0.0	part_2
47	1.0	2.0			350.0	0.0	0.0							5.0	0.0	0.6308247217566532	5.0	450.0	1.0	7.0	1.0	7.0	0.0	part_2
48	1.0	2.0			350.0	0.0	0.0							5.0	0.0	0.6110161709057138	5.0	450.0	3.0	6.0	3.0	6.0	0.0	part_2
49	4.0	2.0			350.0	0.0	1.0							5.0	0.0	0.0	0.0	450.0	2.0	1.0	6.0	1.0	1.0	part_2
50	1.0	2.0			400.0	0.0	1.0							5.0	0.0	0.5664286973023991	5.0	450.0	1.0	8.0	5.0	2.0	0.0	part_2
51	3.0	2.0			400.0	0.0	1.0							6.0	0.0	0.3643227282718726	6.0	450.0	2.0	1.0	6.0	1.0	1.0	part_2
52	4.0	2.0			400.0	0.0	1.0							6.0	0.0	0.0	0.0	400.0	3.0	2.0	7.0	8.0	1.0	part_2
53	1.0	2.0			400.0	0.0	0.0							6.0	0.0	0.5692973027562402	6.0	450.0	3.0	6.0	3.0	6.0	0.0	part_2
54	3.0	2.0			400.0	0.0	1.0							6.0	0.0	0.35659307127207285	6.0	450.0	2.0	1.0	6.0	1.0	1.0	part_2
55	1.0	2.0			400.0	0.0	0.0							6.0	0.0	0.6392226653006219	6.0	400.0	3.0	6.0	3.0	6.0	0.0	part_2
56	1.0	2.0			400.0	0.0	0.0							6.0	0.0	0.5707479797874839	6.0	400.0	2.0	4.0	2.0	3.0	0.0	part_2
57	4.0	2.0			400.0	0.0	1.0							6.0	0.0	0.0	0.0	400.0	4.0	5.0	8.0	5.0	1.0	part_2
58	4.0	2.0			400.0	0.0	1.0							6.0	0.0	0.0	0.0	450.0	1.0	8.0	5.0	2.0	1.0	part_2
59	1.0	2.0			400.0	0.0	0.0							6.0	0.0	0.5174053130285756	6.0	500.0	2.0	4.0	2.0	3.0	0.0	part_2
60	4.0	2.0			400.0	0.0	1.0							5.0	0.0	0.0	0.0	500.0	2.0	1.0	6.0	1.0	1.0	part_2
61	1.0	2.0			450.0	0.0	0.0							6.0	0.0	0.6322906739987957	6.0	500.0	4.0	3.0	4.0	4.0	0.0	part_2
62	3.0	2.0			450.0	0.0	1.0							6.0	0.0	0.6446220935449674	6.0	500.0	2.0	1.0	6.0	1.0	1.0	part_2
63	1.0	2.0			450.0	0.0	0.0							5.0	0.0	0.6340504220297589	5.0	450.0	3.0	6.0	3.0	6.0	0.0	part_2
64	1.0	2.0			450.0	0.0	0.0							6.0	0.0	0.6903496995455498	6.0	450.0	3.0	6.0	3.0	6.0	0.0	part_2
65	1.0	2.0			450.0	0.0	0.0							6.0	0.0	0.30931775751378154	6.0	450.0	1.0	7.0	1.0	7.0	0.0	part_2
66	3.0	2.0			450.0	0.0	1.0							5.0	0.0	0.9960370452718053	6.0	450.0	4.0	5.0	8.0	5.0	1.0	part_2
67	4.0	2.0			400.0	0.0	1.0							5.0	0.0	0.0	0.0	450.0	1.0	8.0	5.0	2.0	1.0	part_2
68	1.0	2.0			450.0	0.0	0.0							5.0	0.0	0.9300095952712581	5.0	450.0	1.0	7.0	1.0	7.0	0.0	part_2
69	1.0	2.0			450.0	0.0	1.0							6.0	0.0	0.9772319037874695	6.0	450.0	4.0	5.0	8.0	5.0	0.0	part_2
70	1.0	2.0			450.0	0.0	0.0							6.0	0.0	0.5485378443027003	6.0	450.0	3.0	6.0	3.0	6.0	0.0	part_2
71	1.0	2.0			450.0	0.0	0.0							6.0	0.0	0.4837931205438508	6.0	450.0	4.0	3.0	4.0	4.0	0.0	part_2
72	1.0	3.0			450.0	0.0	0.0							6.0	0.0	0.43814351648507	6.0	450.0	3.0	6.0	3.0	6.0	0.0	part_2
73	1.0	3.0			450.0	0.0	1.0							5.0	0.0	0.28060452151476056	5.0	450.0	4.0	5.0	8.0	5.0	0.0	part_2
74	1.0	3.0			450.0	0.0	1.0							5.0	0.0	0.46218525803124066	5.0	450.0	4.0	5.0	8.0	5.0	0.0	part_2
75	3.0	3.0			450.0	0.0	1.0							6.0	0.0	0.4743584125135385	6.0	450.0	2.0	1.0	6.0	1.0	1.0	part_2
76	1.0	3.0			450.0	0.0	1.0							6.0	0.0	0.44182245702904765	6.0	400.0	4.0	5.0	8.0	5.0	0.0	part_2
77	1.0	3.0			450.0	0.0	0.0							6.0	0.0	0.31807920175742765	6.0	400.0	2.0	4.0	2.0	3.0	0.0	part_2
78	1.0	3.0			450.0	0.0	0.0							5.0	0.0	0.511672499756969	5.0	400.0	3.0	6.0	3.0	6.0	0.0	part_2
79	3.0	3.0			450.0	0.0	1.0							5.0	0.0	0.3211917080298008	5.0	400.0	1.0	8.0	5.0	2.0	1.0	part_2
80	3.0	3.0			400.0	0.0	1.0							6.0	0.0	0.33157703178585507	6.0	400.0	1.0	8.0	5.0	2.0	1.0	part_2
81	1.0	3.0			400.0	0.0	0.0							6.0	0.0	0.4336621153015585	6.0	350.0	1.0	7.0	1.0	7.0	0.0	part_2
82	1.0	3.0			400.0	0.0	1.0							6.0	0.0	0.29985575054524816	6.0	350.0	4.0	5.0	8.0	5.0	0.0	part_2
83	1.0	3.0			400.0	0.0	0.0							5.0	0.0	0.27813427175715333	5.0	350.0	2.0	4.0	2.0	3.0	0.0	part_2
84	1.0	3.0			400.0	0.0	0.0							6.0	0.0	0.2462445185137767	6.0	350.0	1.0	7.0	1.0	7.0	0.0	part_2
85	1.0	3.0			400.0	0.0	0.0							5.0	0.0	0.24615738251486619	5.0	350.0	4.0	3.0	4.0	4.0	0.0	part_2
86	3.0	3.0			400.0	0.0	1.0							5.0	0.0	0.3150994577572419	5.0	350.0	3.0	2.0	7.0	8.0	1.0	part_2
87	1.0	3.0			350.0	0.0	0.0							5.0	0.0	0.6637944457561389	5.0	350.0	3.0	6.0	3.0	6.0	0.0	part_2
88	1.0	3.0			350.0	0.0	0.0							5.0	0.0	0.529564624059276	5.0	350.0	4.0	3.0	4.0	4.0	0.0	part_2
89	1.0	3.0			350.0	0.0	1.0							6.0	0.0	0.4309781827578263	6.0	350.0	3.0	2.0	7.0	8.0	0.0	part_2
90	1.0	3.0			350.0	0.0	1.0							5.0	0.0	0.26263011378796364	5.0	350.0	2.0	1.0	6.0	1.0	0.0	part_2
91	3.0	3.0			350.0	0.0	1.0							6.0	0.0	0.27318082427336776	6.0	350.0	1.0	8.0	5.0	2.0	1.0	part_2
92	1.0	3.0			350.0	0.0	0.0							6.0	0.0	0.5327468885443523	6.0	300.0	2.0	4.0	2.0	3.0	0.0	part_2
93	1.0	3.0			350.0	0.0	0.0							5.0	0.0	0.27504054530254507	5.0	300.0	1.0	7.0	1.0	7.0	0.0	part_2
94	1.0	3.0			350.0	0.0	1.0							5.0	0.0	0.2552762942705158	5.0	300.0	4.0	5.0	8.0	5.0	0.0	part_2
95	3.0	3.0			350.0	0.0	1.0							5.0	0.0	0.30028609848523047	5.0	300.0	3.0	2.0	7.0	8.0	1.0	part_2
96	4.0	3.0			300.0	0.0	1.0							5.0	0.0	0.0	0.0	300.0	2.0	1.0	6.0	1.0	1.0	part_2
97	1.0	3.0			350.0	0.0	0.0							5.0	0.0	0.3119930075135926	5.0	300.0	2.0	4.0	2.0	3.0	0.0	part_2
98	3.0	3.0			350.0	0.0	1.0							5.0	0.0	0.29027143327220983	5.0	300.0	3.0	2.0	7.0	8.0	1.0	part_2
99	1.0	3.0			300.0	0.0	0.0							5.0	0.0	0.5835673164838227	5.0	300.0	4.0	3.0	4.0	4.0	0.0	part_2
100	3.0	3.0			300.0	0.0	1.0							6.0	0.0	0.29236632854372147	6.0	300.0	1.0	8.0	5.0	2.0	1.0	part_2
101	1.0	3.0			300.0	0.0	0.0							5.0	0.0	0.5410810295143165	5.0	250.0	1.0	7.0	1.0	7.0	0.0	part_2
102	1.0	3.0			300.0	0.0	0.0							6.0	0.0	0.32748237251507817	6.0	250.0	3.0	6.0	3.0	6.0	0.0	part_2
103	1.0	3.0			300.0	0.0	0.0							5.0	0.0	0.25036401627221494	5.0	250.0	3.0	6.0	3.0	6.0	0.0	part_2
104	1.0	3.0			300.0	0.0	0.0							5.0	0.0	0.3080835087585001	5.0	250.0	1.0	7.0	1.0	7.0	0.0	part_2
105	4.0	3.0			300.0	0.0	1.0							5.0	0.0	0.0	0.0	250.0	2.0	1.0	6.0	1.0	1.0	part_2
106	1.0	3.0			350.0	0.0	1.0							6.0	0.0	0.5443000962713995	6.0	250.0	2.0	1.0	6.0	1.0	0.0	part_2
107	1.0	3.0			350.0	0.0	0.0							5.0	0.0	0.2309428050302813	5.0	250.0	3.0	6.0	3.0	6.0	0.0	part_2
108	1.0	4.0			350.0	0.0	0.0							6.0	0.0	0.5461981080588885	6.0	250.0	4.0	3.0	4.0	4.0	0.0	part_2
109	1.0	4.0			350.0	0.0	0.0							6.0	0.0	0.5127269437871291	6.0	250.0	1.0	7.0	1.0	7.0	0.0	part_2
110	4.0	4.0			350.0	0.0	1.0							5.0	0.0	0.0	0.0	250.0	1.0	8.0	5.0	2.0	1.0	part_2
111	1.0	4.0			400.0	0.0	0.0							5.0	0.0	0.6485836790598114	5.0	250.0	4.0	3.0	4.0	4.0	0.0	part_2
112	1.0	4.0			400.0	0.0	0.0							6.0	0.0	0.7748195637868776	6.0	250.0	2.0	4.0	2.0	3.0	0.0	part_2
113	1.0	4.0			400.0	0.0	0.0							6.0	0.0	0.5267516377571155	6.0	250.0	2.0	4.0	2.0	3.0	0.0	part_2
114	1.0	4.0			400.0	0.0	0.0							5.0	0.0	0.2685146890598844	5.0	250.0	3.0	6.0	3.0	6.0	0.0	part_2
115	1.0	4.0			400.0	0.0	0.0							5.0	0.0	0.5843059375438315	5.0	250.0	1.0	7.0	1.0	7.0	0.0	part_2
116	3.0	4.0			400.0	0.0	1.0							5.0	0.0	0.3828420235149679	5.0	250.0	1.0	8.0	5.0	2.0	1.0	part_2
117	4.0	4.0			350.0	0.0	1.0							5.0	0.0	0.0	0.0	250.0	2.0	1.0	6.0	1.0	1.0	part_2
118	1.0	4.0			400.0	0.0	0.0							5.0	0.0	0.4524298437863763	5.0	250.0	1.0	7.0	1.0	7.0	0.0	part_2
119	3.0	4.0			400.0	0.0	1.0							5.0	0.0	0.35275138002907624	5.0	250.0	4.0	5.0	8.0	5.0	1.0	part_2
120	3.0	4.0			350.0	0.0	1.0							5.0	0.0	0.2846874565439066	5.0	250.0	3.0	2.0	7.0	8.0	1.0	part_2
121	1.0	4.0			300.0	0.0	0.0							6.0	0.0	0.38873424272787815	6.0	250.0	4.0	3.0	4.0	4.0	0.0	part_2
122	1.0	4.0			300.0	0.0	1.0							6.0	0.0	0.2871947757575981	6.0	250.0	3.0	2.0	7.0	8.0	0.0	part_2
123	1.0	4.0			300.0	0.0	0.0							5.0	0.0	0.2535340695139894	5.0	250.0	4.0	3.0	4.0	4.0	0.0	part_2
124	1.0	4.0			300.0	0.0	0.0							6.0	0.0	0.23394942954473663	6.0	250.0	4.0	3.0	4.0	4.0	0.0	part_2
125	1.0	4.0			300.0	0.0	0.0							6.0	0.0	0.6618644230002246	6.0	250.0	1.0	7.0	1.0	7.0	0.0	part_2
126	1.0	4.0			300.0	0.0	0.0							6.0	0.0	0.605893804513471	6.0	250.0	1.0	7.0	1.0	7.0	0.0	part_2
127	1.0	4.0			300.0	0.0	1.0							5.0	0.0	0.40469124951414415	5.0	250.0	2.0	1.0	6.0	1.0	0.0	part_2
128	1.0	4.0			300.0	0.0	1.0							5.0	0.0	0.30294613878686505	5.0	250.0	4.0	5.0	8.0	5.0	0.0	part_2
129	1.0	4.0			300.0	0.0	0.0							6.0	0.0	0.27013549290313676	6.0	250.0	2.0	4.0	2.0	3.0	0.0	part_2
130	3.0	4.0			300.0	0.0	1.0							5.0	0.0	0.2488551745445875	5.0	250.0	3.0	2.0	7.0	8.0	1.0	part_2
131	4.0	4.0			250.0	0.0	1.0							6.0	0.0	0.0	0.0	250.0	4.0	5.0	8.0	5.0	1.0	part_2
132	1.0	4.0			250.0	0.0	0.0							6.0	0.0	0.2962523340302141	6.0	300.0	3.0	6.0	3.0	6.0	0.0	part_2
133	1.0	4.0			250.0	0.0	1.0							6.0	0.0	0.29649339075695025	6.0	300.0	1.0	8.0	5.0	2.0	0.0	part_2
134	1.0	4.0			250.0	0.0	0.0							6.0	0.0	0.2533327530600218	6.0	300.0	3.0	6.0	3.0	6.0	0.0	part_2
135	1.0	4.0			250.0	0.0	0.0							6.0	0.0	0.2866276573004143	6.0	300.0	2.0	4.0	2.0	3.0	0.0	part_2
136	3.0	4.0			250.0	0.0	1.0							5.0	0.0	0.32056613802888023	5.0	300.0	2.0	1.0	6.0	1.0	1.0	part_2
137	1.0	4.0			200.0	0.0	0.0							5.0	0.0	0.5248441304865992	5.0	300.0	3.0	6.0	3.0	6.0	0.0	part_2
138	1.0	4.0			200.0	0.0	0.0							5.0	0.0	0.6944928282719047	5.0	300.0	4.0	3.0	4.0	4.0	0.0	part_2
139	4.0	4.0			200.0	0.0	1.0							5.0	0.0	0.0	0.0	300.0	2.0	1.0	6.0	1.0	1.0	part_2
140	4.0	4.0			250.0	0.0	1.0							6.0	0.0	0.0	0.0	300.0	1.0	8.0	5.0	2.0	1.0	part_2
141	1.0	4.0			250.0	0.0	0.0							6.0	0.0	0.3266792225149402	6.0	350.0	3.0	6.0	3.0	6.0	0.0	part_2
142	1.0	4.0			250.0	0.0	1.0							5.0	0.0	0.2579169112723321	5.0	350.0	2.0	1.0	6.0	1.0	0.0	part_2
143	1.0	4.0			250.0	0.0	1.0							6.0	0.0	0.31648657875848585	6.0	350.0	3.0	2.0	7.0	8.0	0.0	part_2
144	1.0	5.0			250.0	0.0	0.0							5.0	0.0	0.6276429527861183	5.0	350.0	3.0	6.0	3.0	6.0	0.0	part_2
145	1.0	5.0			250.0	0.0	0.0							6.0	0.0	0.3816129805145465	6.0	350.0	1.0	7.0	1.0	7.0	0.0	part_2
146	3.0	5.0			250.0	0.0	1.0							6.0	0.0	0.28031472800103074	6.0	350.0	2.0	1.0	6.0	1.0	1.0	part_2
147	1.0	5.0			250.0	0.0	0.0							5.0	0.0	0.5078655272718606	5.0	300.0	1.0	7.0	1.0	7.0	0.0	part_2
148	1.0	5.0			250.0	0.0	0.0							5.0	0.0	0.2372362467867788	5.0	300.0	4.0	3.0	4.0	4.0	0.0	part_2
149	1.0	5.0			250.0	0.0	1.0							6.0	0.0	0.26014945308816095	6.0	300.0	4.0	5.0	8.0	5.0	0.0	part_2
150	1.0	5.0			250.0	0.0	0.0							6.0	0.0	0.6335334035447886	6.0	300.0	3.0	6.0	3.0	6.0	0.0	part_2
151	1.0	5.0			250.0	0.0	0.0							6.0	0.0	0.28609133699865197	6.0	300.0	1.0	7.0	1.0	7.0	0.0	part_2
152	3.0	5.0			250.0	0.0	1.0							5.0	0.0	0.2613451255438122	5.0	300.0	1.0	8.0	5.0	2.0	1.0	part_2
153	1.0	5.0			200.0	0.0	0.0							6.0	0.0	0.5562369110593863	6.0	300.0	2.0	4.0	2.0	3.0	0.0	part_2
154	1.0	5.0			200.0	0.0	1.0							6.0	0.0	0.25416650878651126	6.0	300.0	1.0	8.0	5.0	2.0	0.0	part_2
155	1.0	5.0			200.0	0.0	0.0							6.0	0.0	0.35583352106004895	6.0	300.0	4.0	3.0	4.0	4.0	0.0	part_2
156	4.0	5.0			200.0	0.0	1.0							5.0	0.0	0.0	0.0	300.0	1.0	8.0	5.0	2.0	1.0	part_2
157	1.0	5.0			250.0	0.0	0.0							6.0	0.0	0.5036340365149954	6.0	300.0	4.0	3.0	4.0	4.0	0.0	part_2
158	3.0	5.0			250.0	0.0	1.0							6.0	0.0	0.3086099267566169	6.0	300.0	1.0	8.0	5.0	2.0	1.0	part_2
159	1.0	5.0			250.0	0.0	0.0							5.0	0.0	0.5172274420292524	5.0	250.0	3.0	6.0	3.0	6.0	0.0	part_2
160	3.0	5.0			250.0	0.0	1.0							5.0	0.0	0.34948178824379283	5.0	250.0	3.0	2.0	7.0	8.0	1.0	part_2
161	4.0	5.0			200.0	0.0	1.0							6.0	0.0	0.0	0.0	250.0	4.0	5.0	8.0	5.0	1.0	part_2
162	1.0	5.0			200.0	0.0	0.0							6.0	0.0	0.27070202672803134	6.0	300.0	4.0	3.0	4.0	4.0	0.0	part_2
163	3.0	5.0			200.0	0.0	1.0							6.0	0.0	0.27191110575768107	6.0	300.0	2.0	1.0	6.0	1.0	1.0	part_2
164	1.0	5.0			200.0	0.0	0.0							6.0	0.0	0.7788875777878275	6.0	250.0	4.0	3.0	4.0	4.0	0.0	part_2
165	4.0	5.0			200.0	0.0	1.0							6.0	0.0	0.0	0.0	250.0	1.0	8.0	5.0	2.0	1.0	part_2
166	1.0	5.0			200.0	0.0	0.0							5.0	0.0	0.5444477043001825	5.0	300.0	2.0	4.0	2.0	3.0	0.0	part_2
167	4.0	5.0			200.0	0.0	1.0							6.0	0.0	0.0	0.0	300.0	4.0	5.0	8.0	5.0	1.0	part_2
168	1.0	5.0			200.0	0.0	0.0							6.0	0.0	0.255340626301404	6.0	350.0	3.0	6.0	3.0	6.0	0.0	part_2
169	4.0	5.0			200.0	0.0	1.0							5.0	0.0	0.0	0.0	350.0	3.0	2.0	7.0	8.0	1.0	part_2
170	1.0	5.0			250.0	0.0	0.0							6.0	0.0	0.2230921705140645	6.0	350.0	3.0	6.0	3.0	6.0	0.0	part_2
171	4.0	5.0			250.0	0.0	1.0							5.0	0.0	0.0	0.0	350.0	2.0	1.0	6.0	1.0	1.0	part_2
172	3.0	5.0			300.0	0.0	1.0							5.0	0.0	0.44872142605890986	5.0	350.0	3.0	2.0	7.0	8.0	1.0	part_2
173	3.0	5.0			250.0	0.0	1.0							5.0	0.0	0.3707937588169443	5.0	350.0	3.0	2.0	7.0	8.0	1.0	part_2
174	1.0	5.0			200.0	0.0	0.0							6.0	0.0	0.4385431407572469	6.0	350.0	1.0	7.0	1.0	7.0	0.0	part_2
175	4.0	5.0			200.0	0.0	1.0							6.0	0.0	0.0	0.0	350.0	2.0	1.0	6.0	1.0	1.0	part_2
176	4.0	5.0			200.0	0.0	1.0							5.0	0.0	0.0	0.0	400.0	2.0	1.0	6.0	1.0	1.0	part_2
177	3.0	5.0			250.0	0.0	1.0							6.0	0.0	0.49693343827311764	6.0	400.0	4.0	5.0	8.0	5.0	1.0	part_2
178	1.0	5.0			250.0	0.0	1.0							5.0	0.0	0.892321643545074	5.0	350.0	3.0	2.0	7.0	8.0	0.0	part_2
179	4.0	5.0			250.0	0.0	1.0							6.0	0.0	0.0	0.0	350.0	3.0	2.0	7.0	8.0	1.0	part_2
180	1.0	6.0			250.0	0.0	0.0							5.0	0.0	0.39518763175874483	5.0	400.0	4.0	3.0	4.0	4.0	0.0	part_2
181	1.0	6.0			250.0	0.0	0.0							6.0	0.0	0.5650434215440328	6.0	400.0	4.0	3.0	4.0	4.0	0.0	part_2
182	3.0	6.0			250.0	0.0	1.0							6.0	0.0	0.4306707090599957	6.0	400.0	2.0	1.0	6.0	1.0	1.0	part_2
183	1.0	6.0			250.0	0.0	0.0							5.0	0.0	0.6006413557879569	5.0	350.0	2.0	4.0	2.0	3.0	0.0	part_2
184	1.0	6.0			250.0	0.0	0.0							5.0	0.0	0.48850292699899	5.0	350.0	2.0	4.0	2.0	3.0	0.0	part_2
185	1.0	6.0			250.0	0.0	0.0							5.0	0.0	0.5907725759989262	5.0	350.0	3.0	6.0	3.0	6.0	0.0	part_2
186	3.0	6.0			250.0	0.0	1.0							5.0	0.0	0.36698449030336633	5.0	350.0	1.0	8.0	5.0	2.0	1.0	part_2
187	1.0	6.0			200.0	0.0	1.0							6.0	0.0	0.7947942322734889	6.0	350.0	4.0	5.0	8.0	5.0	0.0	part_2
188	4.0	6.0			200.0	0.0	1.0							5.0	0.0	0.0	0.0	350.0	2.0	1.0	6.0	1.0	1.0	part_2
189	1.0	6.0			250.0	0.0	0.0							6.0	0.0	0.3348782883022068	6.0	350.0	1.0	7.0	1.0	7.0	0.0	part_2
190	1.0	6.0			250.0	0.0	0.0							5.0	0.0	0.3149868213022273	5.0	350.0	1.0	7.0	1.0	7.0	0.0	part_2
191	1.0	6.0			250.0	0.0	0.0							5.0	0.0	0.596211201758706	5.0	350.0	3.0	6.0	3.0	6.0	0.0	part_2
192	1.0	6.0			250.0	0.0	0.0							6.0	0.0	0.27074330427240056	6.0	350.0	2.0	4.0	2.0	3.0	0.0	part_2
193	1.0	6.0			250.0	0.0	0.0							6.0	0.0	0.38440197227282624	6.0	350.0	4.0	3.0	4.0	4.0	0.0	part_2
194	1.0	6.0			250.0	0.0	0.0							6.0	0.0	0.7005485395147844	6.0	350.0	4.0	3.0	4.0	4.0	0.0	part_2
195	4.0	6.0			250.0	0.0	1.0							5.0	0.0	0.0	0.0	350.0	4.0	5.0	8.0	5.0	1.0	part_2
196	4.0	6.0			300.0	0.0	1.0							5.0	0.0	0.0	0.0	350.0	3.0	2.0	7.0	8.0	1.0	part_2
197	1.0	6.0			350.0	0.0	0.0							6.0	0.0	0.6469650065428141	6.0	350.0	2.0	4.0	2.0	3.0	0.0	part_2
198	1.0	6.0			350.0	0.0	1.0							6.0	0.0	0.28664322151416854	6.0	350.0	2.0	1.0	6.0	1.0	0.0	part_2
199	3.0	6.0			350.0	0.0	1.0							5.0	0.0	0.27700443799949426	5.0	350.0	4.0	5.0	8.0	5.0	1.0	part_2
200	1.0	6.0			300.0	0.0	1.0							6.0	0.0	0.45725382551427174	6.0	350.0	3.0	2.0	7.0	8.0	0.0	part_2
201	1.0	6.0			300.0	0.0	1.0							5.0	0.0	0.5363315167869587	5.0	350.0	3.0	2.0	7.0	8.0	0.0	part_2
202	3.0	6.0			300.0	0.0	1.0							5.0	0.0	0.33658162278698	5.0	350.0	3.0	2.0	7.0	8.0	1.0	part_2
203	4.0	6.0			250.0	0.0	1.0							5.0	0.0	0.0	0.0	350.0	4.0	5.0	8.0	5.0	1.0	part_2
204	4.0	6.0			300.0	0.0	1.0							5.0	0.0	0.0	0.0	350.0	1.0	8.0	5.0	2.0	1.0	part_2
205	1.0	6.0			350.0	0.0	0.0							6.0	0.0	0.395009651514556	6.0	350.0	2.0	4.0	2.0	3.0	0.0	part_2
206	1.0	6.0			350.0	0.0	0.0							6.0	0.0	0.3495747303004464	6.0	350.0	3.0	6.0	3.0	6.0	0.0	part_2
207	1.0	6.0			350.0	0.0	0.0							6.0	0.0	0.316760870786311	6.0	350.0	4.0	3.0	4.0	4.0	0.0	part_2
208	4.0	6.0			350.0	0.0	1.0							5.0	0.0	0.0	0.0	350.0	4.0	5.0	8.0	5.0	1.0	part_2
209	1.0	6.0			400.0	0.0	0.0							6.0	0.0	0.6004751822729304	6.0	350.0	1.0	7.0	1.0	7.0	0.0	part_2
210	3.0	6.0			400.0	0.0	1.0							6.0	0.0	0.4091612977881596	6.0	350.0	2.0	1.0	6.0	1.0	1.0	part_2
211	1.0	6.0			400.0	0.0	0.0							5.0	0.0	0.5906375965441839	5.0	300.0	4.0	3.0	4.0	4.0	0.0	part_2
212	1.0	6.0			400.0	0.0	0.0							5.0	0.0	0.5905455077572697	5.0	300.0	4.0	3.0	4.0	4.0	0.0	part_2
213	1.0	6.0			400.0	0.0	0.0							5.0	0.0	0.5806205447570392	5.0	300.0	4.0	3.0	4.0	4.0	0.0	part_2
214	4.0	6.0			400.0	0.0	1.0							5.0	0.0	0.0	0.0	300.0	1.0	8.0	5.0	2.0	1.0	part_2
215	1.0	6.0			450.0	0.0	0.0							6.0	0.0	0.6160626547862194	6.0	300.0	2.0	4.0	2.0	3.0	0.0	part_2
216	1.0	7.0			450.0	0.0	0.0							5.0	0.0	0.6562388757884037	5.0	300.0	2.0	4.0	2.0	3.0	0.0	part_2
217	3.0	7.0			450.0	0.0	1.0							5.0	0.0	0.34274789251503535	5.0	300.0	2.0	1.0	6.0	1.0	1.0	part_2
218	1.0	7.0			400.0	0.0	0.0							5.0	0.0	0.7697261312423507	5.0	300.0	3.0	6.0	3.0	6.0	0.0	part_2
219	4.0	7.0			400.0	0.0	1.0							6.0	0.0	0.0	0.0	300.0	2.0	1.0	6.0	1.0	1.0	part_2
220	4.0	7.0			400.0	0.0	1.0							6.0	0.0	0.0	0.0	350.0	4.0	5.0	8.0	5.0	1.0	part_2
221	3.0	7.0			400.0	0.0	1.0							6.0	0.0	0.5485731810604193	6.0	400.0	1.0	8.0	5.0	2.0	1.0	part_2
222	1.0	7.0			400.0	0.0	0.0							6.0	0.0	0.6503663000003144	6.0	350.0	3.0	6.0	3.0	6.0	0.0	part_2
223	4.0	7.0			400.0	0.0	1.0							6.0	0.0	0.0	0.0	350.0	3.0	2.0	7.0	8.0	1.0	part_2
224	1.0	7.0			400.0	0.0	0.0							5.0	0.0	0.594423187270877	5.0	400.0	3.0	6.0	3.0	6.0	0.0	part_2
225	3.0	7.0			400.0	0.0	1.0							6.0	0.0	0.2918185330599954	6.0	400.0	1.0	8.0	5.0	2.0	1.0	part_2
226	1.0	7.0			400.0	0.0	0.0							5.0	0.0	0.6190703115153156	5.0	350.0	4.0	3.0	4.0	4.0	0.0	part_2
227	3.0	7.0			400.0	0.0	1.0							5.0	0.0	0.43897731054312317	5.0	350.0	4.0	5.0	8.0	5.0	1.0	part_2
228	4.0	7.0			350.0	0.0	1.0							6.0	0.0	0.0	0.0	350.0	3.0	2.0	7.0	8.0	1.0	part_2
229	4.0	7.0			350.0	0.0	1.0							5.0	0.0	0.0	0.0	400.0	3.0	2.0	7.0	8.0	1.0	part_2
230	1.0	7.0			400.0	0.0	0.0							5.0	0.0	0.6673543334854912	5.0	400.0	3.0	6.0	3.0	6.0	0.0	part_2
231	1.0	7.0			400.0	0.0	0.0							6.0	0.0	0.5103206135445362	6.0	400.0	3.0	6.0	3.0	6.0	0.0	part_2
232	4.0	7.0			400.0	0.0	1.0							5.0	0.0	0.0	0.0	400.0	4.0	5.0	8.0	5.0	1.0	part_2
233	1.0	7.0			450.0	0.0	1.0							6.0	0.0	0.5680823383008828	6.0	400.0	2.0	1.0	6.0	1.0	0.0	part_2
234	1.0	7.0			450.0	0.0	0.0							6.0	0.0	0.7725815095145663	6.0	400.0	4.0	3.0	4.0	4.0	0.0	part_2
235	1.0	7.0			450.0	0.0	0.0							5.0	0.0	0.5021530969988817	5.0	400.0	2.0	4.0	2.0	3.0	0.0	part_2
236	3.0	7.0			450.0	0.0	1.0							5.0	0.0	0.3004964827578078	5.0	400.0	1.0	8.0	5.0	2.0	1.0	part_2
237	1.0	7.0			400.0	0.0	0.0							6.0	0.0	0.5163509127869474	6.0	400.0	3.0	6.0	3.0	6.0	0.0	part_2
238	1.0	7.0			400.0	0.0	0.0							5.0	0.0	0.539043399028742	5.0	400.0	2.0	4.0	2.0	3.0	0.0	part_2
239	3.0	7.0			400.0	0.0	1.0							5.0	0.0	0.47194716478588816	5.0	400.0	2.0	1.0	6.0	1.0	1.0	part_2
240	4.0	7.0			350.0	0.0	1.0							6.0	0.0	0.0	0.0	400.0	3.0	2.0	7.0	8.0	1.0	part_2
241	1.0	7.0			350.0	0.0	0.0							5.0	0.0	0.5312063077872153	5.0	450.0	2.0	4.0	2.0	3.0	0.0	part_2
242	1.0	7.0			350.0	0.0	0.0							5.0	0.0	0.5647524997875735	5.0	450.0	1.0	7.0	1.0	7.0	0.0	part_2
243	1.0	7.0			350.0	0.0	0.0							5.0	0.0	0.6783970285159739	5.0	450.0	2.0	4.0	2.0	3.0	0.0	part_2
244	3.0	7.0			350.0	0.0	1.0							5.0	0.0	0.308782028272617	5.0	450.0	3.0	2.0	7.0	8.0	1.0	part_2
245	1.0	7.0			300.0	0.0	1.0							6.0	0.0	0.6455589067882102	6.0	450.0	2.0	1.0	6.0	1.0	0.0	part_2
246	1.0	7.0			300.0	0.0	0.0							6.0	0.0	0.6012945330585353	6.0	450.0	3.0	6.0	3.0	6.0	0.0	part_2
247	1.0	7.0			300.0	0.0	0.0							6.0	0.0	0.49002443578683597	6.0	450.0	2.0	4.0	2.0	3.0	0.0	part_2
248	1.0	7.0			300.0	0.0	0.0							6.0	0.0	0.33390582030187943	6.0	450.0	2.0	4.0	2.0	3.0	0.0	part_2
249	1.0	7.0			300.0	0.0	0.0							6.0	0.0	0.4926316610599315	6.0	450.0	1.0	7.0	1.0	7.0	0.0	part_2
250	1.0	7.0			300.0	0.0	1.0							6.0	0.0	0.5368482930298342	6.0	450.0	2.0	1.0	6.0	1.0	0.0	part_2
251	3.0	7.0			300.0	0.0	1.0							6.0	0.0	0.5498582350301149	6.0	450.0	4.0	5.0	8.0	5.0	1.0	part_2
252	3.0	8.0			300.0	0.0	1.0							6.0	0.0	0.527934138001001	6.0	400.0	3.0	2.0	7.0	8.0	1.0	part_2
253	1.0	8.0			300.0	0.0	0.0							6.0	0.0	0.35034300724328205	6.0	350.0	1.0	7.0	1.0	7.0	0.0	part_2
254	1.0	8.0			300.0	0.0	0.0							5.0	0.0	0.5862654577867943	5.0	350.0	1.0	7.0	1.0	7.0	0.0	part_2
255	3.0	8.0			300.0	0.0	1.0							6.0	0.0	0.4744593102732324	6.0	350.0	3.0	2.0	7.0	8.0	1.0	part_2
256	4.0	8.0			300.0	0.0	1.0							5.0	0.0	0.0	0.0	300.0	1.0	8.0	5.0	2.0	1.0	part_2
257	1.0	8.0			350.0	0.0	0.0							6.0	0.0	0.6102190175442956	6.0	300.0	2.0	4.0	2.0	3.0	0.0	part_2
258	3.0	8.0			350.0	0.0	1.0							6.0	0.0	0.4202076000292436	6.0	300.0	1.0	8.0	5.0	2.0	1.0	part_2
259	4.0	8.0			350.0	0.0	1.0							6.0	0.0	0.0	0.0	250.0	3.0	2.0	7.0	8.0	1.0	part_2
260	3.0	8.0			350.0	0.0	1.0							5.0	0.0	0.4888021804490563	5.0	300.0	4.0	5.0	8.0	5.0	1.0	part_2
261	1.0	8.0			300.0	0.0	0.0							5.0	0.0	0.6475106592715747	5.0	300.0	1.0	7.0	1.0	7.0	0.0	part_2
262	1.0	8.0			300.0	0.0	0.0							5.0	0.0	0.9187923535446316	5.0	300.0	4.0	3.0	4.0	4.0	0.0	part_2
263	1.0	8.0			300.0	0.0	0.0							6.0	0.0	0.7070225690004008	6.0	300.0	4.0	3.0	4.0	4.0	0.0	part_2
264	1.0	8.0			300.0	0.0	0.0							6.0	0.0	0.3915204907862062	6.0	300.0	2.0	4.0	2.0	3.0	0.0	part_2
265	3.0	8.0			300.0	0.0	1.0							5.0	0.0	0.2234428817882872	5.0	300.0	4.0	5.0	8.0	5.0	1.0	part_2
266	4.0	8.0			250.0	0.0	1.0							6.0	0.0	0.0	0.0	300.0	1.0	8.0	5.0	2.0	1.0	part_2
267	1.0	8.0			250.0	0.0	0.0							5.0	0.0	0.6529473605150997	5.0	350.0	2.0	4.0	2.0	3.0	0.0	part_2
268	1.0	8.0			250.0	0.0	0.0							5.0	0.0	0.6094007650299318	5.0	350.0	2.0	4.0	2.0	3.0	0.0	part_2
269	1.0	8.0			250.0	0.0	0.0							5.0	0.0	0.4526315205148421	5.0	350.0	1.0	7.0	1.0	7.0	0.0	part_2
270	1.0	8.0			250.0	0.0	0.0							6.0	0.0	0.5775056047568796	6.0	350.0	1.0	7.0	1.0	7.0	0.0	part_2
271	1.0	8.0			250.0	0.0	0.0							6.0	0.0	0.5327144837574451	6.0	350.0	3.0	6.0	3.0	6.0	0.0	part_2
272	1.0	8.0			250.0	0.0	0.0							5.0	0.0	0.5679821020003146	5.0	350.0	2.0	4.0	2.0	3.0	0.0	part_2
273	4.0	8.0			250.0	0.0	1.0							5.0	0.0	0.0	0.0	350.0	3.0	2.0	7.0	8.0	1.0	part_2
274	4.0	8.0			300.0	0.0	1.0							6.0	0.0	0.0	0.0	350.0	2.0	1.0	6.0	1.0	1.0	part_2
275	4.0	8.0			300.0	0.0	1.0							5.0	0.0	0.0	0.0	400.0	4.0	5.0	8.0	5.0	1.0	part_2
276	1.0	8.0			350.0	0.0	0.0							5.0	0.0	0.5694142602715146	5.0	400.0	4.0	3.0	4.0	4.0	0.0	part_2
277	1.0	8.0			350.0	0.0	1.0							5.0	0.0	0.31208130154482205	5.0	400.0	1.0	8.0	5.0	2.0	0.0	part_2
278	3.0	8.0			350.0	0.0	1.0							6.0	0.0	0.42556539975703345	6.0	400.0	2.0	1.0	6.0	1.0	1.0	part_2
279	4.0	8.0			350.0	0.0	1.0							6.0	0.0	0.0	0.0	350.0	4.0	5.0	8.0	5.0	1.0	part_2
280	1.0	8.0			350.0	0.0	1.0							5.0	0.0	0.5181969230307004	5.0	400.0	1.0	8.0	5.0	2.0	0.0	part_2
281	4.0	8.0			350.0	0.0	1.0							5.0	0.0	0.0	0.0	400.0	2.0	1.0	6.0	1.0	1.0	part_2
282	4.0	8.0			400.0	0.0	1.0							5.0	0.0	0.0	0.0	400.0	1.0	8.0	5.0	2.0	1.0	part_2
283	3.0	8.0			450.0	0.0	1.0							5.0	0.0	0.586813125786648	5.0	400.0	1.0	8.0	5.0	2.0	1.0	part_2
284	1.0	8.0			400.0	0.0	0.0							5.0	0.0	0.47570561697102676	5.0	400.0	3.0	6.0	3.0	6.0	0.0	part_2
285	1.0	8.0			400.0	0.0	0.0							5.0	0.0	0.6016117020299134	5.0	400.0	3.0	6.0	3.0	6.0	0.0	part_2
286	1.0	8.0			400.0	0.0	0.0							6.0	0.0	0.5351226505445084	6.0	400.0	1.0	7.0	1.0	7.0	0.0	part_2
287	1.0	8.0			400.0	0.0	0.0							5.0	0.0	0.5906141682717134	5.0	400.0	1.0	7.0	1.0	7.0	0.0	part_2
0	0.0	1.0	196.0	4.0	0.0	1.0	0.0	147.0	196.0	245.0	294.0	49.0	98.0	7.0	0.0	3.1285006894886465	2.0	0.0	4.0	3.0	4.0	4.0	0.0	part_3
1	0.0	1.0	234.0	6.0	0.0	1.0	0.0	195.0	78.0	117.0	39.0	234.0	156.0	7.0	0.0	1.6289702784870315	5.0	0.0	3.0	6.0	3.0	6.0	0.0	part_3
2	0.0	1.0	78.0	2.0	0.0	1.0	1.0	195.0	117.0	156.0	39.0	234.0	78.0	7.0	0.0	1.6959551984873542	6.0	0.0	3.0	2.0	7.0	8.0	0.0	part_3
3	0.0	1.0	294.0	6.0	0.0	1.0	0.0	294.0	245.0	196.0	98.0	49.0	147.0	7.0	0.0	1.1684162899764488	1.0	0.0	2.0	4.0	2.0	3.0	0.0	part_3
4	0.0	1.0	195.0	5.0	0.0	1.0	1.0	78.0	156.0	117.0	195.0	39.0	234.0	7.0	0.0	1.0804124799997226	4.0	0.0	4.0	5.0	8.0	5.0	0.0	part_3
5	0.0	1.0	98.0	2.0	0.0	1.0	1.0	294.0	245.0	49.0	147.0	196.0	98.0	7.0	0.0	0.00018561000069894362	6.0	0.0	3.0	2.0	7.0	8.0	0.0	part_3
6	0.0	1.0	78.0	2.0	0.0	1.0	0.0	39.0	156.0	195.0	234.0	78.0	117.0	7.0	0.0	1.0828858273525839	5.0	0.0	2.0	4.0	2.0	3.0	0.0	part_3
7	0.0	1.0	98.0	2.0	0.0	1.0	0.0	294.0	196.0	98.0	49.0	147.0	245.0	7.0	0.0	2.9521730833785114	3.0	0.0	3.0	6.0	3.0	6.0	0.0	part_3
8	0.0	1.0	108.0	2.0	0.0	1.0	0.0	324.0	54.0	108.0	162.0	270.0	216.0	7.0	0.0	4.042560936864902	3.0	0.0	3.0	6.0	3.0	6.0	0.0	part_3
9	0.0	1.0	78.0	2.0	0.0	1.0	0.0	195.0	78.0	117.0	156.0	39.0	234.0	7.0	0.0	3.6073125246221025	2.0	0.0	2.0	4.0	2.0	3.0	0.0	part_3
10	0.0	1.0	147.0	3.0	0.0	1.0	0.0	196.0	98.0	245.0	294.0	49.0	147.0	7.0	0.0	2.054822971487738	6.0	0.0	1.0	7.0	1.0	7.0	0.0	part_3
11	0.0	1.0	136.0	4.0	0.0	1.0	1.0	68.0	170.0	34.0	136.0	204.0	102.0	7.0	0.0	0.9202717837306409	4.0	0.0	4.0	5.0	8.0	5.0	0.0	part_3
12	0.0	1.0	264.0	6.0	0.0	1.0	0.0	220.0	264.0	88.0	44.0	176.0	132.0	7.0	0.0	3.756294727731074	2.0	0.0	2.0	4.0	2.0	3.0	0.0	part_3
13	0.0	1.0	220.0	5.0	0.0	1.0	1.0	176.0	220.0	132.0	264.0	88.0	44.0	7.0	0.0	4.836541711243626	2.0	0.0	4.0	5.0	8.0	5.0	0.0	part_3
14	0.0	1.0	68.0	2.0	0.0	1.0	0.0	34.0	170.0	204.0	136.0	68.0	102.0	7.0	0.0	3.139842640108327	5.0	0.0	2.0	4.0	2.0	3.0	0.0	part_3
15	0.0	1.0	204.0	6.0	0.0	1.0	1.0	102.0	170.0	34.0	68.0	204.0	136.0	7.0	0.0	2.768056864000755	5.0	0.0	4.0	5.0	8.0	5.0	0.0	part_3
16	0.0	1.0	147.0	3.0	0.0	1.0	1.0	49.0	147.0	294.0	98.0	245.0	196.0	7.0	0.0	2.5233374601084506	2.0	0.0	4.0	5.0	8.0	5.0	0.0	part_3
17	0.0	1.0	147.0	3.0	0.0	2.0	1.0	245.0	98.0	196.0	147.0	49.0	294.0	7.0	0.0	1.113340498865	4.0	0.0	1.0	8.0	5.0	2.0	0.0	part_3
18	0.0	1.0	220.0	5.0	0.0	1.0	0.0	220.0	44.0	132.0	176.0	88.0	264.0	7.0	0.0	9.29824891500175e-05	1.0	0.0	1.0	7.0	1.0	7.0	0.0	part_3
19	0.0	1.0	324.0	6.0	0.0	1.0	1.0	54.0	216.0	108.0	162.0	270.0	324.0	7.0	0.0	2.6002186151090427	6.0	0.0	4.0	5.0	8.0	5.0	0.0	part_3
20	0.0	2.0	264.0	6.0	0.0	1.0	1.0	132.0	176.0	44.0	220.0	88.0	264.0	7.0	0.0	2.0278459613546147	6.0	0.0	4.0	5.0	8.0	5.0	0.0	part_3
21	0.0	2.0	324.0	6.0	0.0	1.0	1.0	162.0	270.0	216.0	108.0	54.0	324.0	7.0	0.0	1.3102811332428246	6.0	0.0	4.0	5.0	8.0	5.0	0.0	part_3
22	0.0	2.0	44.0	1.0	0.0	1.0	1.0	176.0	44.0	220.0	132.0	88.0	264.0	7.0	0.0	2.615139801378973	2.0	0.0	1.0	8.0	5.0	2.0	0.0	part_3
23	0.0	2.0	54.0	1.0	0.0	1.0	1.0	54.0	162.0	270.0	216.0	108.0	324.0	7.0	0.0	1.7061190439999336	1.0	0.0	1.0	8.0	5.0	2.0	0.0	part_3
24	0.0	2.0	117.0	3.0	0.0	1.0	0.0	156.0	78.0	39.0	117.0	195.0	234.0	7.0	0.0	2.1218177311093314	4.0	0.0	1.0	7.0	1.0	7.0	0.0	part_3
25	0.0	2.0	102.0	3.0	0.0	1.0	0.0	136.0	102.0	68.0	170.0	34.0	204.0	7.0	0.0	2.5970258568668214	2.0	0.0	1.0	7.0	1.0	7.0	0.0	part_3
26	0.0	2.0	34.0	1.0	0.0	1.0	1.0	68.0	136.0	102.0	34.0	170.0	204.0	7.0	0.0	1.5283426716214308	4.0	0.0	1.0	8.0	5.0	2.0	0.0	part_3
27	0.0	2.0	220.0	5.0	0.0	1.0	1.0	44.0	220.0	132.0	176.0	88.0	264.0	7.0	0.0	1.6991296826199687	2.0	0.0	3.0	2.0	7.0	8.0	0.0	part_3
28	0.0	2.0	162.0	3.0	0.0	1.0	1.0	324.0	162.0	216.0	108.0	54.0	270.0	7.0	0.0	1.8060596630675718e-05	2.0	0.0	3.0	2.0	7.0	8.0	0.0	part_3
29	0.0	2.0	136.0	4.0	0.0	1.0	0.0	136.0	34.0	170.0	204.0	102.0	68.0	7.0	0.0	2.9044287072429142	1.0	0.0	2.0	4.0	2.0	3.0	0.0	part_3
30	0.0	2.0	270.0	5.0	0.0	1.0	0.0	324.0	162.0	216.0	108.0	54.0	270.0	7.0	0.0	4.593189498487845	6.0	0.0	4.0	3.0	4.0	4.0	0.0	part_3
31	0.0	2.0	34.0	1.0	0.0	1.0	0.0	34.0	170.0	68.0	204.0	102.0	136.0	7.0	0.0	2.9079683042436955	1.0	0.0	3.0	6.0	3.0	6.0	0.0	part_3
32	0.0	2.0	132.0	3.0	0.0	1.0	0.0	264.0	132.0	220.0	176.0	44.0	88.0	7.0	0.0	1.6601364622438268	2.0	0.0	2.0	4.0	2.0	3.0	0.0	part_3
33	0.0	2.0	88.0	2.0	0.0	1.0	0.0	220.0	132.0	264.0	44.0	176.0	88.0	7.0	0.0	1.7058806157310755	6.0	0.0	4.0	3.0	4.0	4.0	0.0	part_3
34	0.0	2.0	49.0	1.0	0.0	1.0	0.0	245.0	294.0	147.0	49.0	196.0	98.0	7.0	0.0	1.000138369621709	4.0	0.0	3.0	6.0	3.0	6.0	0.0	part_3
35	0.0	2.0	117.0	3.0	0.0	1.0	0.0	78.0	117.0	39.0	234.0	195.0	156.0	7.0	0.0	1.7207881521080708	2.0	0.0	1.0	7.0	1.0	7.0	0.0	part_3
36	0.0	2.0	324.0	6.0	0.0	1.0	1.0	270.0	54.0	324.0	216.0	162.0	108.0	7.0	0.0	1.5300576548670506	3.0	0.0	2.0	1.0	6.0	1.0	0.0	part_3
37	0.0	2.0	78.0	2.0	0.0	1.0	1.0	117.0	39.0	195.0	156.0	234.0	78.0	7.0	0.0	1.890336774975367	6.0	0.0	3.0	2.0	7.0	8.0	0.0	part_3
38	0.0	2.0	204.0	6.0	0.0	1.0	1.0	136.0	34.0	68.0	102.0	170.0	204.0	7.0	0.0	1.7004771906213136	6.0	0.0	2.0	1.0	6.0	1.0	0.0	part_3
39	0.0	2.0	147.0	3.0	0.0	1.0	0.0	98.0	245.0	196.0	294.0	49.0	147.0	7.0	0.0	2.0166168564865075	6.0	0.0	2.0	4.0	2.0	3.0	0.0	part_3
40	0.0	3.0	196.0	4.0	0.0	1.0	1.0	98.0	196.0	245.0	49.0	294.0	147.0	7.0	0.0	1.69771949610913	2.0	0.0	4.0	5.0	8.0	5.0	0.0	part_3
41	0.0	3.0	147.0	3.0	0.0	1.0	1.0	147.0	98.0	196.0	294.0	245.0	49.0	7.0	0.0	1.7427847585950076	1.0	0.0	2.0	1.0	6.0	1.0	0.0	part_3
42	0.0	3.0	78.0	2.0	0.0	1.0	1.0	156.0	195.0	78.0	117.0	234.0	39.0	7.0	0.0	1.755650054974467	3.0	0.0	1.0	8.0	5.0	2.0	0.0	part_3
43	0.0	3.0	245.0	5.0	0.0	1.0	1.0	294.0	147.0	49.0	196.0	245.0	98.0	7.0	0.0	2.2741369339746598	5.0	0.0	2.0	1.0	6.0	1.0	0.0	part_3
44	0.0	3.0	88.0	2.0	0.0	1.0	1.0	88.0	44.0	220.0	264.0	176.0	132.0	7.0	0.0	1.2844193636210548	1.0	0.0	1.0	8.0	5.0	2.0	0.0	part_3
45	0.0	3.0	196.0	4.0	0.0	1.0	1.0	147.0	98.0	245.0	49.0	196.0	294.0	7.0	0.0	1.8141175752425625	5.0	0.0	3.0	2.0	7.0	8.0	0.0	part_3
46	0.0	3.0	195.0	5.0	0.0	1.0	0.0	39.0	156.0	78.0	195.0	234.0	117.0	7.0	0.0	2.277921836999667	4.0	0.0	4.0	3.0	4.0	4.0	0.0	part_3
47	0.0	3.0	264.0	6.0	0.0	1.0	0.0	220.0	264.0	88.0	132.0	44.0	176.0	7.0	0.0	1.74876417462292	2.0	0.0	4.0	3.0	4.0	4.0	0.0	part_3
48	0.0	3.0	234.0	6.0	0.0	1.0	0.0	117.0	156.0	195.0	78.0	39.0	234.0	7.0	0.0	1.8416749582429475	6.0	0.0	4.0	3.0	4.0	4.0	0.0	part_3
49	0.0	3.0	294.0	6.0	0.0	1.0	0.0	245.0	98.0	49.0	294.0	196.0	147.0	7.0	0.0	1.7738278899742	4.0	0.0	1.0	7.0	1.0	7.0	0.0	part_3
50	0.0	3.0	324.0	6.0	0.0	1.0	0.0	216.0	54.0	324.0	108.0	162.0	270.0	7.0	0.0	1.9219659952432266	3.0	0.0	1.0	7.0	1.0	7.0	0.0	part_3
51	0.0	3.0	204.0	6.0	0.0	1.0	0.0	102.0	170.0	34.0	204.0	136.0	68.0	7.0	0.0	1.978573132866586	4.0	0.0	4.0	3.0	4.0	4.0	0.0	part_3
52	0.0	3.0	54.0	1.0	0.0	1.0	0.0	324.0	162.0	54.0	270.0	216.0	108.0	7.0	0.0	1.4168008038650441	3.0	0.0	1.0	7.0	1.0	7.0	0.0	part_3
53	0.0	3.0	78.0	2.0	0.0	1.0	0.0	156.0	39.0	117.0	195.0	234.0	78.0	7.0	0.0	1.7222999677578628	6.0	0.0	3.0	6.0	3.0	6.0	0.0	part_3
54	0.0	3.0	68.0	2.0	0.0	1.0	0.0	204.0	34.0	102.0	136.0	68.0	170.0	7.0	0.0	0.6543333307290595	5.0	0.0	1.0	7.0	1.0	7.0	0.0	part_3
55	0.0	3.0	270.0	5.0	0.0	1.0	0.0	108.0	270.0	324.0	216.0	162.0	54.0	7.0	0.0	1.6691230207306944	2.0	0.0	2.0	4.0	2.0	3.0	0.0	part_3
56	0.0	3.0	264.0	6.0	0.0	1.0	1.0	132.0	220.0	176.0	264.0	44.0	88.0	7.0	0.0	1.5111583684865764	4.0	0.0	2.0	1.0	6.0	1.0	0.0	part_3
57	0.0	3.0	195.0	5.0	0.0	1.0	1.0	117.0	78.0	156.0	195.0	39.0	234.0	7.0	0.0	0.7821688418662234	4.0	0.0	2.0	1.0	6.0	1.0	0.0	part_3
58	0.0	3.0	54.0	1.0	0.0	1.0	0.0	270.0	324.0	54.0	162.0	216.0	108.0	7.0	0.0	1.3444487008673605	3.0	0.0	4.0	3.0	4.0	4.0	0.0	part_3
59	0.0	3.0	34.0	1.0	0.0	1.0	1.0	102.0	204.0	136.0	170.0	34.0	68.0	7.0	0.0	1.4927007922433404	5.0	0.0	3.0	2.0	7.0	8.0	0.0	part_3
60	0.0	4.0	156.0	4.0	0.0	1.0	1.0	195.0	39.0	78.0	156.0	117.0	234.0	7.0	0.0	1.479446769486458	4.0	0.0	2.0	1.0	6.0	1.0	0.0	part_3
61	0.0	4.0	44.0	1.0	0.0	1.0	0.0	264.0	44.0	132.0	176.0	220.0	88.0	7.0	0.0	1.3911137698669336	2.0	0.0	3.0	6.0	3.0	6.0	0.0	part_3
62	0.0	4.0	162.0	3.0	0.0	1.0	0.0	54.0	270.0	108.0	216.0	324.0	162.0	7.0	0.0	0.8750202577302844	6.0	0.0	2.0	4.0	2.0	3.0	0.0	part_3
63	0.0	4.0	54.0	1.0	0.0	1.0	0.0	162.0	54.0	324.0	270.0	216.0	108.0	7.0	0.0	1.7196482656217995	2.0	0.0	3.0	6.0	3.0	6.0	0.0	part_3
64	0.0	4.0	68.0	2.0	0.0	1.0	0.0	170.0	68.0	34.0	136.0	204.0	102.0	7.0	0.0	1.9902229943527345	2.0	0.0	3.0	6.0	3.0	6.0	0.0	part_3
65	0.0	4.0	132.0	3.0	0.0	1.0	1.0	220.0	264.0	176.0	132.0	88.0	44.0	7.0	0.0	0.3831518547303858	4.0	0.0	2.0	1.0	6.0	1.0	0.0	part_3
66	0.0	4.0	294.0	6.0	0.0	1.0	0.0	196.0	98.0	245.0	147.0	294.0	49.0	7.0	0.0	1.396867723109608	5.0	0.0	4.0	3.0	4.0	4.0	0.0	part_3
67	0.0	4.0	44.0	1.0	0.0	1.0	1.0	176.0	132.0	44.0	220.0	264.0	88.0	7.0	0.0	1.6450215924869553	3.0	0.0	3.0	2.0	7.0	8.0	0.0	part_3
68	0.0	4.0	49.0	1.0	0.0	1.0	1.0	147.0	245.0	294.0	98.0	49.0	196.0	7.0	0.0	0.7796714896212507	5.0	0.0	1.0	8.0	5.0	2.0	0.0	part_3
69	0.0	4.0	204.0	6.0	0.0	1.0	1.0	204.0	68.0	170.0	136.0	102.0	34.0	7.0	0.0	1.5345849454879499	1.0	0.0	2.0	1.0	6.0	1.0	0.0	part_3
70	0.0	4.0	88.0	2.0	0.0	1.0	0.0	132.0	220.0	264.0	88.0	44.0	176.0	7.0	0.0	0.9188282939994679	4.0	0.0	3.0	6.0	3.0	6.0	0.0	part_3
71	0.0	4.0	39.0	1.0	0.0	1.0	1.0	117.0	78.0	39.0	195.0	234.0	156.0	7.0	0.0	1.4143034018652543	3.0	0.0	1.0	8.0	5.0	2.0	0.0	part_3
72	0.0	4.0	264.0	6.0	0.0	1.0	0.0	44.0	88.0	220.0	176.0	132.0	264.0	7.0	0.0	0.8520244538649422	6.0	0.0	1.0	7.0	1.0	7.0	0.0	part_3
73	0.0	4.0	204.0	6.0	0.0	1.0	0.0	102.0	204.0	170.0	136.0	34.0	68.0	7.0	0.0	1.4165997737309226	2.0	0.0	4.0	3.0	4.0	4.0	0.0	part_3
74	0.0	4.0	68.0	2.0	0.0	1.0	1.0	34.0	136.0	170.0	68.0	102.0	204.0	7.0	0.0	0.7075660259743017	4.0	0.0	1.0	8.0	5.0	2.0	0.0	part_3
75	0.0	4.0	216.0	4.0	0.0	1.0	1.0	108.0	54.0	216.0	270.0	324.0	162.0	7.0	0.0	1.0815102448668767	3.0	0.0	3.0	2.0	7.0	8.0	0.0	part_3
76	0.0	4.0	324.0	6.0	0.0	1.0	1.0	270.0	54.0	216.0	324.0	162.0	108.0	7.0	0.0	1.1610058192436554	4.0	0.0	2.0	1.0	6.0	1.0	0.0	part_3
77	0.0	4.0	204.0	6.0	0.0	1.0	1.0	204.0	34.0	68.0	136.0	102.0	170.0	7.0	0.0	1.0605635424872162	1.0	0.0	3.0	2.0	7.0	8.0	0.0	part_3
78	0.0	4.0	234.0	6.0	0.0	1.0	1.0	195.0	78.0	39.0	156.0	117.0	234.0	7.0	0.0	1.2748580208663043	6.0	0.0	4.0	5.0	8.0	5.0	0.0	part_3
79	0.0	4.0	324.0	6.0	0.0	1.0	1.0	54.0	216.0	270.0	324.0	162.0	108.0	7.0	0.0	2.255391043243435	4.0	0.0	1.0	8.0	5.0	2.0	0.0	part_3
