	accuracy	block	chosen_bidding_amount	chosen_bidding_level	left_SSD	num_trial_presentations	paired_with_stopping	possible_bid_1	possible_bid_2	possible_bid_3	possible_bid_4	possible_bid_5	possible_bid_6	quadrant	raw_reward_magnitude	reaction_time	response	right_SSD	stepwise_reward_magnitude	stim_color	stim_reward	stim_shape	stop_signal_trial_type	which_part
0		1.0				1.0	0.0							2.0	197.0	0.42888135577595676	2.0		3.0	5.0	3.0	4.0		part_1
1		1.0				1.0	1.0							2.0	201.0	0.37382250315567944	2.0		3.0	8.0	7.0	3.0		part_1
2		1.0				1.0	1.0							1.0	0.0	0.43015696915608714	1.0		0.0	1.0	8.0	1.0		part_1
3		1.0				1.0	0.0							4.0	65.0	0.31737152731056995	4.0		1.0	6.0	1.0	2.0		part_1
4		1.0				1.0	1.0							4.0	121.0	0.3521394354647782	4.0		2.0	4.0	6.0	8.0		part_1
5		1.0				1.0	1.0							3.0	43.0	0.3647878034653331	3.0		1.0	3.0	5.0	7.0		part_1
6		1.0				1.0	1.0							3.0	391.0	0.35319190946574963	3.0		4.0	1.0	8.0	1.0		part_1
7		1.0				1.0	0.0							1.0	67.0	0.36540241162038	1.0		1.0	6.0	1.0	2.0		part_1
8		1.0				1.0	0.0							1.0	182.0	0.34332326146522973	1.0		3.0	5.0	3.0	4.0		part_1
9		1.0				1.0	1.0							2.0	194.0	0.3108840761551619	2.0		3.0	8.0	7.0	3.0		part_1
10		1.0				1.0	0.0							3.0	0.0	0.2314719913101726	3.0		0.0	6.0	1.0	2.0		part_1
11		1.0				1.0	1.0							2.0	381.0	0.35712577162030357	2.0		4.0	1.0	8.0	1.0		part_1
12		1.0				1.0	1.0							2.0	390.0	0.3570722901549743	2.0		4.0	1.0	8.0	1.0		part_1
13		1.0				1.0	0.0							3.0	416.0	0.31318111615564703	3.0		4.0	2.0	4.0	6.0		part_1
14		1.0				1.0	1.0							4.0	0.0	0.3351528183102346	4.0		0.0	4.0	6.0	8.0		part_1
15		1.0				2.0	1.0							4.0	182.0	0.43760450931040396	4.0		3.0	8.0	7.0	3.0		part_1
16		1.0				1.0	0.0							1.0	411.0	0.37139605724132707	1.0		4.0	2.0	4.0	6.0		part_1
17		1.0				1.0	1.0							3.0	0.0	0.3590553986205123	3.0		0.0	1.0	8.0	1.0		part_1
18		1.0				1.0	1.0							2.0	110.0	0.304482008155901	2.0		2.0	4.0	6.0	8.0		part_1
19		1.0				1.0	0.0							1.0	424.0	0.44043013308601076	1.0		4.0	2.0	4.0	6.0		part_1
20		1.0				1.0	0.0							1.0	86.0	0.4187183266203647	1.0		2.0	7.0	2.0	5.0		part_1
21		1.0				1.0	1.0							4.0	0.0	0.3285331454653715	4.0		0.0	8.0	7.0	3.0		part_1
22		1.0				1.0	0.0							3.0	106.0	0.396798467240842	3.0		2.0	7.0	2.0	5.0		part_1
23		1.0				1.0	1.0							1.0	95.0	0.28462161015522724	1.0		2.0	4.0	6.0	8.0		part_1
24		1.0				1.0	0.0							2.0	0.0	0.3077071556199371	2.0		0.0	5.0	3.0	4.0		part_1
25		1.0				1.0	0.0							3.0	78.0	0.48934088246460306	3.0		2.0	7.0	2.0	5.0		part_1
26		1.0				1.0	1.0							4.0	179.0	0.35369292915584083	4.0		3.0	8.0	7.0	3.0		part_1
27		1.0				1.0	1.0							3.0	47.0	0.33279836331075785	3.0		1.0	3.0	5.0	7.0		part_1
28		1.0				1.0	1.0							2.0	54.0	0.31119523193046916	2.0		1.0	3.0	5.0	7.0		part_1
29		1.0				1.0	0.0							4.0	116.0	0.38941668546522124	4.0		2.0	7.0	2.0	5.0		part_1
30		1.0				1.0	1.0							4.0	189.0	0.4793110923101267	4.0		3.0	8.0	7.0	3.0		part_1
31		1.0				1.0	0.0							4.0	99.0	0.4587555451553271	4.0		2.0	7.0	2.0	5.0		part_1
32		1.0				1.0	1.0							1.0	383.0	0.5271537749995332	1.0		4.0	1.0	8.0	1.0		part_1
33		1.0				1.0	0.0							4.0	390.0	0.684319788085304	4.0		4.0	2.0	4.0	6.0		part_1
34		1.0				1.0	0.0							4.0	0.0	0.6284341234650128	4.0		0.0	6.0	1.0	2.0		part_1
35		1.0				1.0	0.0							4.0	31.0	0.4041708927752552	4.0		1.0	6.0	1.0	2.0		part_1
36		1.0				1.0	1.0							2.0	376.0	0.41669815793102316	2.0		4.0	1.0	8.0	1.0		part_1
37		1.0				1.0	0.0							3.0	43.0	0.26882437946460414	3.0		1.0	6.0	1.0	2.0		part_1
38		1.0				1.0	1.0							1.0	386.0	0.3615679221547907	1.0		4.0	1.0	8.0	1.0		part_1
39		1.0				1.0	1.0							3.0	45.0	0.3044636994645771	3.0		1.0	3.0	5.0	7.0		part_1
40		1.0				1.0	1.0							1.0	196.0	0.3630193520857574	1.0		3.0	8.0	7.0	3.0		part_1
41		1.0				1.0	0.0							3.0	110.0	0.3280641839319287	3.0		2.0	7.0	2.0	5.0		part_1
42		1.0				1.0	1.0							1.0	32.0	0.28438492715577013	1.0		1.0	3.0	5.0	7.0		part_1
43		1.0				1.0	0.0							1.0	79.0	0.2731844281552185	1.0		2.0	7.0	2.0	5.0		part_1
44		1.0				1.0	1.0							4.0	31.0	0.3407173524647078	4.0		1.0	3.0	5.0	7.0		part_1
45		1.0				1.0	1.0							2.0	403.0	0.4102892809314653	2.0		4.0	1.0	8.0	1.0		part_1
46		1.0				1.0	1.0							3.0	189.0	0.3197684087763264	3.0		3.0	8.0	7.0	3.0		part_1
47		1.0				1.0	1.0							1.0	80.0	0.33314297608558263	1.0		2.0	4.0	6.0	8.0		part_1
48		1.0				1.0	0.0							2.0	176.0	0.3770803871548196	2.0		3.0	5.0	3.0	4.0		part_1
49		1.0				1.0	1.0							3.0	391.0	0.3211482573105968	3.0		4.0	1.0	8.0	1.0		part_1
50		1.0				1.0	0.0							2.0	384.0	0.33369790962024126	2.0		4.0	2.0	4.0	6.0		part_1
51		1.0				1.0	1.0							4.0	414.0	0.39096260262067517	4.0		4.0	1.0	8.0	1.0		part_1
52		1.0				1.0	0.0							3.0	27.0	0.368311103619817	3.0		1.0	6.0	1.0	2.0		part_1
53		1.0				1.0	1.0							1.0	115.0	0.5036539082402669	1.0		2.0	4.0	6.0	8.0		part_1
54		1.0				1.0	1.0							3.0	113.0	0.38012660293043155	3.0		2.0	4.0	6.0	8.0		part_1
55		1.0				1.0	0.0							4.0	381.0	0.369886446154851	4.0		4.0	2.0	4.0	6.0		part_1
56		1.0				1.0	1.0							2.0	211.0	0.370668667085738	2.0		3.0	8.0	7.0	3.0		part_1
57		1.0				1.0	1.0							4.0	215.0	0.3250352039312929	4.0		3.0	8.0	7.0	3.0		part_1
58		1.0				1.0	0.0							2.0	119.0	0.3389341733109177	2.0		2.0	7.0	2.0	5.0		part_1
59		1.0				1.0	1.0							2.0	412.0	0.33854801861980377	2.0		4.0	1.0	8.0	1.0		part_1
60		1.0				1.0	1.0							1.0	0.0	0.4958952808447066	1.0		0.0	1.0	8.0	1.0		part_1
61		1.0				1.0	0.0							3.0	96.0	0.4074733324650879	3.0		2.0	7.0	2.0	5.0		part_1
62		1.0				1.0	0.0							2.0	36.0	0.29527221862099395	2.0		1.0	6.0	1.0	2.0		part_1
63		1.0				1.0	1.0							4.0	201.0	0.48739053462031734	4.0		3.0	8.0	7.0	3.0		part_1
64		1.0				1.0	0.0							3.0	41.0	0.3635474547754711	3.0		1.0	6.0	1.0	2.0		part_1
65		1.0				1.0	0.0							3.0	204.0	0.3868162346198005	3.0		3.0	5.0	3.0	4.0		part_1
66		1.0				1.0	0.0							2.0	0.0	0.33210004762077006	2.0		0.0	7.0	2.0	5.0		part_1
67		1.0				1.0	1.0							4.0	80.0	0.4446144211551655	4.0		2.0	4.0	6.0	8.0		part_1
68		1.0				1.0	0.0							4.0	121.0	0.4225110820852933	4.0		2.0	7.0	2.0	5.0		part_1
69		1.0				1.0	0.0							2.0	0.0	0.34382265131080203	2.0		0.0	2.0	4.0	6.0		part_1
70		1.0				1.0	1.0							4.0	118.0	0.3330362707756649	4.0		2.0	4.0	6.0	8.0		part_1
71		1.0				1.0	0.0							4.0	404.0	0.44594820793099643	4.0		4.0	2.0	4.0	6.0		part_1
72		1.0				2.0	1.0							4.0	82.0	0.435681937240588	4.0		2.0	4.0	6.0	8.0		part_1
73		1.0				1.0	0.0							3.0	0.0	0.4258153474656865	3.0		0.0	2.0	4.0	6.0		part_1
74		1.0				1.0	0.0							4.0	0.0	0.33555487731064204	4.0		0.0	5.0	3.0	4.0		part_1
75		1.0				1.0	1.0							3.0	64.0	0.3024038201556323	3.0		1.0	3.0	5.0	7.0		part_1
76		1.0				1.0	1.0							4.0	67.0	0.27989087424066383	4.0		1.0	3.0	5.0	7.0		part_1
77		1.0				1.0	1.0							4.0	78.0	0.40428257039638993	4.0		2.0	4.0	6.0	8.0		part_1
78		1.0				1.0	0.0							2.0	0.0	0.43877070146481856	2.0		0.0	5.0	3.0	4.0		part_1
79		1.0				1.0	0.0							3.0	0.0	0.4061109029316867	3.0		0.0	5.0	3.0	4.0		part_1
80		1.0				1.0	1.0							2.0	51.0	0.32941814231071476	2.0		1.0	3.0	5.0	7.0		part_1
81		1.0				1.0	1.0							4.0	74.0	0.2959160716200131	4.0		1.0	3.0	5.0	7.0		part_1
82		1.0				1.0	0.0							2.0	82.0	0.3974221541557199	2.0		2.0	7.0	2.0	5.0		part_1
83		1.0				1.0	1.0							1.0	0.0	0.5094521509317929	1.0		0.0	8.0	7.0	3.0		part_1
84		1.0				1.0	0.0							1.0	403.0	0.49986309362066095	1.0		4.0	2.0	4.0	6.0		part_1
85		1.0				1.0	0.0							4.0	397.0	0.37584315477579366	4.0		4.0	2.0	4.0	6.0		part_1
86		1.0				1.0	1.0							4.0	85.0	0.36587227293057367	4.0		2.0	4.0	6.0	8.0		part_1
87		1.0				1.0	0.0							3.0	379.0	0.3996697937764111	3.0		4.0	2.0	4.0	6.0		part_1
88		1.0				1.0	0.0							1.0	196.0	0.5017876876208902	1.0		3.0	5.0	3.0	4.0		part_1
89		1.0				1.0	0.0							2.0	214.0	0.33412845361999644	2.0		3.0	5.0	3.0	4.0		part_1
90		1.0				1.0	0.0							4.0	199.0	0.35737456793140154	4.0		3.0	5.0	3.0	4.0		part_1
91		1.0				1.0	1.0							4.0	222.0	0.5598366429303496	4.0		3.0	8.0	7.0	3.0		part_1
92		1.0				1.0	1.0							1.0	384.0	0.5597944697756247	1.0		4.0	1.0	8.0	1.0		part_1
93		1.0				1.0	0.0							1.0	211.0	0.4597721610862209	1.0		3.0	5.0	3.0	4.0		part_1
94		1.0				1.0	1.0							1.0	27.0	0.4475991177750984	1.0		1.0	3.0	5.0	7.0		part_1
95		1.0				1.0	1.0							3.0	33.0	0.46977696908561484	3.0		1.0	3.0	5.0	7.0		part_1
96		1.0				1.0	1.0							3.0	379.0	0.5045101381547283	3.0		4.0	1.0	8.0	1.0		part_1
97		1.0				1.0	1.0							3.0	190.0	0.4490824024651374	3.0		3.0	8.0	7.0	3.0		part_1
98		1.0				1.0	0.0							4.0	0.0	0.3821893980848472	4.0		0.0	6.0	1.0	2.0		part_1
99		1.0				1.0	1.0							2.0	55.0	0.3152628957750494	2.0		1.0	3.0	5.0	7.0		part_1
100		2.0				1.0	0.0							4.0	0.0	0.3641892093100978	4.0		0.0	6.0	1.0	2.0		part_1
101		2.0				1.0	0.0							4.0	398.0	0.3188838379310255	4.0		4.0	2.0	4.0	6.0		part_1
102		2.0				1.0	1.0							3.0	0.0	0.320534868620598	3.0		0.0	3.0	5.0	7.0		part_1
103		2.0				1.0	1.0							4.0	0.0	0.26458058162006637	4.0		0.0	4.0	6.0	8.0		part_1
104		2.0				1.0	0.0							3.0	211.0	0.26474805277575797	3.0		3.0	5.0	3.0	4.0		part_1
105		2.0				1.0	1.0							4.0	380.0	0.2196241399315113	4.0		4.0	1.0	8.0	1.0		part_1
106		2.0				1.0	0.0							3.0	391.0	0.3101474848454018	3.0		4.0	2.0	4.0	6.0		part_1
107		2.0				1.0	0.0							4.0	101.0	0.3562456790004944	4.0		2.0	7.0	2.0	5.0		part_1
108		2.0				1.0	0.0							4.0	114.0	0.3134728383110996	4.0		2.0	7.0	2.0	5.0		part_1
109		2.0				2.0	0.0							2.0	378.0	0.34709115346504404	2.0		4.0	2.0	4.0	6.0		part_1
110		2.0				1.0	1.0							2.0	0.0	0.33763112608539814	2.0		0.0	3.0	5.0	7.0		part_1
111		2.0				1.0	0.0							1.0	82.0	0.25786960007553716	1.0		2.0	7.0	2.0	5.0		part_1
112		2.0				1.0	0.0							2.0	46.0	0.3376245281560841	2.0		1.0	6.0	1.0	2.0		part_1
113		2.0				1.0	0.0							3.0	47.0	0.31429409977590694	3.0		1.0	6.0	1.0	2.0		part_1
114		2.0				1.0	0.0							3.0	390.0	0.3613452924655576	3.0		4.0	2.0	4.0	6.0		part_1
115		2.0				1.0	1.0							3.0	398.0	0.5077298003106989	3.0		4.0	1.0	8.0	1.0		part_1
116		2.0				1.0	1.0							2.0	221.0	0.5420249024646182	2.0		3.0	8.0	7.0	3.0		part_1
117		2.0				1.0	0.0							2.0	421.0	0.4194297943104175	2.0		4.0	2.0	4.0	6.0		part_1
118		2.0				1.0	1.0							4.0	0.0	0.4751201704648338	4.0		0.0	3.0	5.0	7.0		part_1
119		2.0				1.0	1.0							3.0	0.0	0.4312550119311709	3.0		0.0	1.0	8.0	1.0		part_1
120		2.0				1.0	1.0							2.0	31.0	0.3208855001548727	2.0		1.0	3.0	5.0	7.0		part_1
121		2.0				1.0	1.0							2.0	63.0	0.42211360131113906	2.0		1.0	3.0	5.0	7.0		part_1
122		2.0				1.0	0.0							1.0	222.0	0.3999157421549171	1.0		3.0	5.0	3.0	4.0		part_1
123		2.0				1.0	0.0							2.0	66.0	0.41037240377590933	2.0		1.0	6.0	1.0	2.0		part_1
124		2.0				1.0	1.0							4.0	411.0	0.37743658015551773	4.0		4.0	1.0	8.0	1.0		part_1
125		2.0				1.0	0.0							3.0	190.0	0.4784923797760712	3.0		3.0	5.0	3.0	4.0		part_1
126		2.0				1.0	1.0							2.0	115.0	0.3345904904654162	2.0		2.0	4.0	6.0	8.0		part_1
127		2.0				1.0	0.0							1.0	0.0	0.49140678246476455	1.0		0.0	5.0	3.0	4.0		part_1
128		2.0				1.0	1.0							3.0	211.0	0.3676497283104254	3.0		3.0	8.0	7.0	3.0		part_1
129		2.0				1.0	1.0							4.0	65.0	0.4031894994650429	4.0		1.0	3.0	5.0	7.0		part_1
130		2.0				1.0	1.0							1.0	211.0	0.42706692331103113	1.0		3.0	8.0	7.0	3.0		part_1
131		2.0				1.0	0.0							2.0	201.0	0.40358196415490966	2.0		3.0	5.0	3.0	4.0		part_1
132		2.0				1.0	0.0							1.0	31.0	0.47315208831059863	1.0		1.0	6.0	1.0	2.0		part_1
133		2.0				1.0	0.0							2.0	384.0	0.33783022746501956	2.0		4.0	2.0	4.0	6.0		part_1
134		2.0				1.0	1.0							1.0	0.0	0.4846347679476821	1.0		0.0	4.0	6.0	8.0		part_1
135		2.0				1.0	0.0							2.0	115.0	0.3059339213104977	2.0		2.0	7.0	2.0	5.0		part_1
136		2.0				1.0	0.0							4.0	0.0	0.39616902755096817	4.0		0.0	7.0	2.0	5.0		part_1
137		2.0				1.0	1.0							4.0	179.0	0.38596805348151975	4.0		3.0	8.0	7.0	3.0		part_1
138		2.0				1.0	1.0							3.0	63.0	0.44218024494784913	3.0		1.0	3.0	5.0	7.0		part_1
139		2.0				1.0	0.0							1.0	0.0	0.48750202079463634	1.0		0.0	2.0	4.0	6.0		part_1
140		2.0				1.0	0.0							2.0	422.0	0.44436348161980277	2.0		4.0	2.0	4.0	6.0		part_1
141		2.0				1.0	0.0							1.0	187.0	0.544293333465248	1.0		3.0	5.0	3.0	4.0		part_1
142		2.0				1.0	1.0							2.0	200.0	0.48835274860994105	2.0		3.0	8.0	7.0	3.0		part_1
143		2.0				1.0	0.0							2.0	63.0	0.46626214893149154	2.0		1.0	6.0	1.0	2.0		part_1
144		2.0				1.0	0.0							1.0	55.0	0.42225653115565365	1.0		1.0	6.0	1.0	2.0		part_1
145		2.0				1.0	0.0							1.0	103.0	0.46758591446541686	1.0		2.0	7.0	2.0	5.0		part_1
146		2.0				1.0	1.0							3.0	0.0	0.42427283246433944	3.0		0.0	1.0	8.0	1.0		part_1
147		2.0				1.0	0.0							3.0	221.0	0.45671193293128454	3.0		3.0	5.0	3.0	4.0		part_1
148		2.0				1.0	0.0							4.0	221.0	0.4135080296200613	4.0		3.0	5.0	3.0	4.0		part_1
149		2.0				1.0	0.0							4.0	0.0	0.41467585593090917	4.0		0.0	7.0	2.0	5.0		part_1
150		2.0				1.0	1.0							1.0	390.0	0.5153789487758331	1.0		4.0	1.0	8.0	1.0		part_1
151		2.0				1.0	0.0							3.0	392.0	0.4933437707759367	3.0		4.0	2.0	4.0	6.0		part_1
152		2.0				1.0	1.0							2.0	96.0	0.4823670481555382	2.0		2.0	4.0	6.0	8.0		part_1
153		2.0				1.0	0.0							3.0	201.0	0.505829044620441	3.0		3.0	5.0	3.0	4.0		part_1
154		2.0				1.0	0.0							2.0	33.0	0.3043400951555668	2.0		1.0	6.0	1.0	2.0		part_1
155		2.0				1.0	0.0							2.0	73.0	0.2824799737754802	2.0		1.0	6.0	1.0	2.0		part_1
156		2.0				1.0	0.0							4.0	179.0	0.32894024684446777	4.0		3.0	5.0	3.0	4.0		part_1
157		2.0				1.0	0.0							2.0	215.0	0.3051318721554708	2.0		3.0	5.0	3.0	4.0		part_1
158		2.0				1.0	0.0							4.0	0.0	0.3173387823962912	4.0		0.0	6.0	1.0	2.0		part_1
159		2.0				1.0	0.0							2.0	211.0	0.30655772439604334	2.0		3.0	5.0	3.0	4.0		part_1
160		2.0				1.0	1.0							1.0	114.0	0.27411666815532953	1.0		2.0	4.0	6.0	8.0		part_1
161		2.0				1.0	1.0							3.0	398.0	0.33142201024111273	3.0		4.0	1.0	8.0	1.0		part_1
162		2.0				1.0	0.0							4.0	182.0	0.2976401672412976	4.0		3.0	5.0	3.0	4.0		part_1
163		2.0				1.0	1.0							4.0	57.0	0.366301058240424	4.0		1.0	3.0	5.0	7.0		part_1
164		2.0				1.0	0.0							1.0	421.0	0.34370274477532803	1.0		4.0	2.0	4.0	6.0		part_1
165		2.0				1.0	0.0							2.0	69.0	0.4012372113102174	2.0		1.0	6.0	1.0	2.0		part_1
166		2.0				1.0	1.0							2.0	0.0	0.46773252831007994	2.0		0.0	8.0	7.0	3.0		part_1
167		2.0				1.0	1.0							3.0	82.0	0.4906348891554444	3.0		2.0	4.0	6.0	8.0		part_1
168		2.0				1.0	0.0							1.0	60.0	0.2676799470855258	1.0		1.0	6.0	1.0	2.0		part_1
169		2.0				1.0	1.0							1.0	424.0	0.4018242724650918	1.0		4.0	1.0	8.0	1.0		part_1
170		2.0				1.0	1.0							4.0	125.0	0.3345285014647743	4.0		2.0	4.0	6.0	8.0		part_1
171		2.0				1.0	1.0							4.0	176.0	0.3821517411552122	4.0		3.0	8.0	7.0	3.0		part_1
172		2.0				1.0	1.0							4.0	424.0	0.359224081931643	4.0		4.0	1.0	8.0	1.0		part_1
173		2.0				1.0	1.0							2.0	97.0	0.3702658263109697	2.0		2.0	4.0	6.0	8.0		part_1
174		2.0				1.0	0.0							2.0	412.0	0.40540018431147473	2.0		4.0	2.0	4.0	6.0		part_1
175		2.0				1.0	1.0							2.0	52.0	0.33915409177643596	2.0		1.0	3.0	5.0	7.0		part_1
176		2.0				1.0	1.0							4.0	211.0	0.49597253277624986	4.0		3.0	8.0	7.0	3.0		part_1
177		2.0				1.0	0.0							4.0	424.0	0.31571822308524133	4.0		4.0	2.0	4.0	6.0		part_1
178		2.0				1.0	1.0							2.0	407.0	0.36157928224110947	2.0		4.0	1.0	8.0	1.0		part_1
179		2.0				1.0	1.0							1.0	0.0	0.3853573863107158	1.0		0.0	4.0	6.0	8.0		part_1
180		2.0				1.0	1.0							3.0	219.0	0.3531520713104328	3.0		3.0	8.0	7.0	3.0		part_1
181		2.0				1.0	1.0							3.0	99.0	0.39675842608539824	3.0		2.0	4.0	6.0	8.0		part_1
182		2.0				1.0	1.0							1.0	0.0	0.47763712808591663	1.0		0.0	1.0	8.0	1.0		part_1
183		2.0				1.0	0.0							1.0	419.0	0.44424025624084607	1.0		4.0	2.0	4.0	6.0		part_1
184		2.0				1.0	1.0							1.0	37.0	0.3768528594655436	1.0		1.0	3.0	5.0	7.0		part_1
185		2.0				1.0	1.0							1.0	379.0	0.47869845846435055	1.0		4.0	1.0	8.0	1.0		part_1
186		2.0				1.0	0.0							4.0	52.0	0.36786019177634444	4.0		1.0	6.0	1.0	2.0		part_1
187		2.0				1.0	1.0							1.0	0.0	0.41246333531034907	1.0		0.0	4.0	6.0	8.0		part_1
188		2.0				1.0	1.0							2.0	419.0	0.3679896593112062	2.0		4.0	1.0	8.0	1.0		part_1
189		2.0				1.0	1.0							1.0	209.0	0.43639101977350947	1.0		3.0	8.0	7.0	3.0		part_1
190		2.0				1.0	0.0							1.0	0.0	0.3793528704663913	1.0		0.0	5.0	3.0	4.0		part_1
191		2.0				1.0	1.0							3.0	187.0	0.5819312830844865	3.0		3.0	8.0	7.0	3.0		part_1
192		2.0				1.0	0.0							4.0	45.0	0.4165872433113691	4.0		1.0	6.0	1.0	2.0		part_1
193		2.0				1.0	0.0							3.0	74.0	0.37046529608596757	3.0		1.0	6.0	1.0	2.0		part_1
194		2.0				1.0	0.0							2.0	86.0	0.3258260416223493	2.0		2.0	7.0	2.0	5.0		part_1
195		2.0				1.0	0.0							3.0	414.0	0.3478594214666373	3.0		4.0	2.0	4.0	6.0		part_1
196		2.0				1.0	0.0							3.0	0.0	0.38356140577525366	3.0		0.0	2.0	4.0	6.0		part_1
197		2.0				1.0	0.0							4.0	379.0	0.249230767311019	4.0		4.0	2.0	4.0	6.0		part_1
198		2.0				1.0	1.0							1.0	92.0	0.3399932259999332	1.0		2.0	4.0	6.0	8.0		part_1
199		2.0				1.0	0.0							2.0	406.0	0.31860348430927843	2.0		4.0	2.0	4.0	6.0		part_1
200		3.0				1.0	0.0							3.0	72.0	0.5194996104655729	3.0		1.0	6.0	1.0	2.0		part_1
201		3.0				1.0	1.0							1.0	0.0	0.4186777943104971	1.0		0.0	8.0	7.0	3.0		part_1
202		3.0				1.0	0.0							1.0	386.0	0.44223998246707197	1.0		4.0	2.0	4.0	6.0		part_1
203		3.0				1.0	1.0							1.0	114.0	0.43156066146730154	1.0		2.0	4.0	6.0	8.0		part_1
204		3.0				1.0	0.0							2.0	211.0	0.26343692177579214	2.0		3.0	5.0	3.0	4.0		part_1
205		3.0				1.0	1.0							4.0	0.0	0.4211576007073745	4.0		0.0	8.0	7.0	3.0		part_1
206		3.0				1.0	0.0							3.0	200.0	0.3551492453098035	3.0		3.0	5.0	3.0	4.0		part_1
207		3.0				1.0	0.0							1.0	0.0	0.28696664092967694	1.0		0.0	2.0	4.0	6.0		part_1
208		3.0				1.0	1.0							4.0	53.0	0.28751487908448325	4.0		1.0	3.0	5.0	7.0		part_1
209		3.0				1.0	0.0							4.0	0.0	0.29876459746628825	4.0		0.0	5.0	3.0	4.0		part_1
210		3.0				1.0	1.0							2.0	0.0	0.27927415339581785	2.0		0.0	8.0	7.0	3.0		part_1
211		3.0				1.0	0.0							4.0	107.0	0.24360674931085669	4.0		2.0	7.0	2.0	5.0		part_1
212		3.0				1.0	0.0							4.0	380.0	0.32390830477379495	4.0		4.0	2.0	4.0	6.0		part_1
213		3.0				1.0	0.0							1.0	404.0	0.31291005246566783	1.0		4.0	2.0	4.0	6.0		part_1
214		3.0				1.0	0.0							1.0	85.0	0.3260170769317483	1.0		2.0	7.0	2.0	5.0		part_1
215		3.0				1.0	1.0							1.0	86.0	0.2798358601557993	1.0		2.0	4.0	6.0	8.0		part_1
216		3.0				1.0	1.0							3.0	73.0	0.4717279869291815	3.0		1.0	3.0	5.0	7.0		part_1
217		3.0				1.0	1.0							3.0	116.0	0.4717024699293688	3.0		2.0	4.0	6.0	8.0		part_1
218		3.0				1.0	1.0							4.0	0.0	0.5073273673115182	4.0		0.0	8.0	7.0	3.0		part_1
219		3.0				1.0	1.0							2.0	221.0	0.5191040664649336	2.0		3.0	8.0	7.0	3.0		part_1
220		3.0				2.0	1.0							3.0	404.0	0.45310341308686475	3.0		4.0	1.0	8.0	1.0		part_1
221		3.0				1.0	1.0							3.0	0.0	0.36178705715610704	3.0		0.0	3.0	5.0	7.0		part_1
222		3.0				1.0	0.0							2.0	201.0	0.3066215813105373	2.0		3.0	5.0	3.0	4.0		part_1
223		3.0				1.0	1.0							3.0	406.0	0.3518516416206694	3.0		4.0	1.0	8.0	1.0		part_1
224		3.0				1.0	1.0							1.0	0.0	0.27510239308503515	1.0		0.0	4.0	6.0	8.0		part_1
225		3.0				1.0	1.0							2.0	0.0	0.29783670724100375	2.0		0.0	3.0	5.0	7.0		part_1
226		3.0				1.0	1.0							2.0	411.0	0.30934657577563485	2.0		4.0	1.0	8.0	1.0		part_1
227		3.0				1.0	1.0							3.0	401.0	0.36600487015675753	3.0		4.0	1.0	8.0	1.0		part_1
228		3.0				1.0	1.0							1.0	207.0	0.2997030902261031	1.0		3.0	8.0	7.0	3.0		part_1
229		3.0				1.0	0.0							3.0	50.0	0.3564314297746023	3.0		1.0	6.0	1.0	2.0		part_1
230		3.0				1.0	1.0							2.0	45.0	0.27940816331101814	2.0		1.0	3.0	5.0	7.0		part_1
231		3.0				1.0	1.0							1.0	212.0	0.32420898031159595	1.0		3.0	8.0	7.0	3.0		part_1
232		3.0				1.0	0.0							4.0	100.0	0.26729520377375593	4.0		2.0	7.0	2.0	5.0		part_1
233		3.0				2.0	1.0							3.0	86.0	0.5395084482406673	3.0		2.0	4.0	6.0	8.0		part_1
234		3.0				1.0	1.0							1.0	27.0	0.416776919775657	1.0		1.0	3.0	5.0	7.0		part_1
235		3.0				1.0	0.0							3.0	37.0	0.5394263453108579	3.0		1.0	6.0	1.0	2.0		part_1
236		3.0				1.0	1.0							3.0	182.0	0.42876970946599613	3.0		3.0	8.0	7.0	3.0		part_1
237		3.0				1.0	0.0							1.0	0.0	0.40757409439720504	1.0		0.0	5.0	3.0	4.0		part_1
238		3.0				1.0	1.0							1.0	100.0	0.4411097013107792	1.0		2.0	4.0	6.0	8.0		part_1
239		3.0				1.0	1.0							2.0	113.0	0.32810094546766777	2.0		2.0	4.0	6.0	8.0		part_1
240		3.0				1.0	1.0							1.0	204.0	0.44145458931052417	1.0		3.0	8.0	7.0	3.0		part_1
241		3.0				1.0	1.0							1.0	0.0	0.40840365192889294	1.0		0.0	8.0	7.0	3.0		part_1
242		3.0				1.0	1.0							3.0	119.0	0.5660332953102625	3.0		2.0	4.0	6.0	8.0		part_1
243		3.0				1.0	1.0							4.0	34.0	0.2957014489311405	4.0		1.0	3.0	5.0	7.0		part_1
244		3.0				1.0	0.0							1.0	212.0	0.25320535646642384	1.0		3.0	5.0	3.0	4.0		part_1
245		3.0				1.0	1.0							2.0	0.0	0.27575516715478443	2.0		0.0	3.0	5.0	7.0		part_1
246		3.0				1.0	1.0							1.0	421.0	0.38891197346674744	1.0		4.0	1.0	8.0	1.0		part_1
247		3.0				1.0	0.0							3.0	413.0	0.2538884038276592	3.0		4.0	2.0	4.0	6.0		part_1
248		3.0				2.0	0.0							4.0	223.0	0.5135222702410829	4.0		3.0	5.0	3.0	4.0		part_1
249		3.0				1.0	1.0							2.0	407.0	0.32406828531202336	2.0		4.0	1.0	8.0	1.0		part_1
250		3.0				1.0	0.0							1.0	114.0	0.45962144477380207	1.0		2.0	7.0	2.0	5.0		part_1
251		3.0				1.0	1.0							3.0	384.0	0.3346499239305558	3.0		4.0	1.0	8.0	1.0		part_1
252		3.0				2.0	1.0							4.0	92.0	0.4952941247756826	4.0		2.0	4.0	6.0	8.0		part_1
253		3.0				1.0	0.0							4.0	407.0	0.6068169160862453	4.0		4.0	2.0	4.0	6.0		part_1
254		3.0				1.0	1.0							1.0	413.0	0.641442281930722	1.0		4.0	1.0	8.0	1.0		part_1
255		3.0				1.0	1.0							4.0	416.0	0.48476578046575014	4.0		4.0	1.0	8.0	1.0		part_1
256		3.0				1.0	1.0							2.0	107.0	0.3271266283118166	2.0		2.0	4.0	6.0	8.0		part_1
257		3.0				1.0	0.0							4.0	0.0	0.3051204113107815	4.0		0.0	6.0	1.0	2.0		part_1
258		3.0				1.0	1.0							2.0	407.0	0.30625660324039927	2.0		4.0	1.0	8.0	1.0		part_1
259		3.0				1.0	1.0							1.0	397.0	0.38603273377520964	1.0		4.0	1.0	8.0	1.0		part_1
260		3.0				1.0	0.0							3.0	194.0	0.34177310446648335	3.0		3.0	5.0	3.0	4.0		part_1
261		3.0				1.0	1.0							4.0	106.0	0.27470925793022616	4.0		2.0	4.0	6.0	8.0		part_1
262		3.0				1.0	0.0							1.0	92.0	0.37513768393000646	1.0		2.0	7.0	2.0	5.0		part_1
263		3.0				1.0	1.0							1.0	0.0	0.3430121443107055	1.0		0.0	3.0	5.0	7.0		part_1
264		3.0				1.0	0.0							4.0	58.0	0.5334655194674269	4.0		1.0	6.0	1.0	2.0		part_1
265		3.0				1.0	1.0							4.0	404.0	0.42271078408521134	4.0		4.0	1.0	8.0	1.0		part_1
266		3.0				1.0	0.0							2.0	80.0	0.47939399231108837	2.0		2.0	7.0	2.0	5.0		part_1
267		3.0				1.0	1.0							2.0	198.0	0.4457333264654153	2.0		3.0	8.0	7.0	3.0		part_1
268		3.0				1.0	1.0							1.0	392.0	0.42330792146640306	1.0		4.0	1.0	8.0	1.0		part_1
269		3.0				1.0	0.0							2.0	80.0	0.425399532310621	2.0		2.0	7.0	2.0	5.0		part_1
270		3.0				1.0	1.0							2.0	66.0	0.4827130229296017	2.0		1.0	3.0	5.0	7.0		part_1
271		3.0				1.0	0.0							2.0	92.0	0.3692249531559355	2.0		2.0	7.0	2.0	5.0		part_1
272		3.0				1.0	1.0							3.0	0.0	0.32454472808603896	3.0		0.0	3.0	5.0	7.0		part_1
273		3.0				1.0	1.0							3.0	41.0	0.3243548103109788	3.0		1.0	3.0	5.0	7.0		part_1
274		3.0				1.0	0.0							2.0	0.0	0.3834599057754531	2.0		0.0	6.0	1.0	2.0		part_1
275		3.0				1.0	1.0							3.0	214.0	0.35924741615599487	3.0		3.0	8.0	7.0	3.0		part_1
276		3.0				1.0	0.0							4.0	210.0	0.42969595646718517	4.0		3.0	5.0	3.0	4.0		part_1
277		3.0				1.0	0.0							4.0	383.0	0.47420287277600437	4.0		4.0	2.0	4.0	6.0		part_1
278		3.0				1.0	0.0							2.0	0.0	0.4523689116213063	2.0		0.0	7.0	2.0	5.0		part_1
279		3.0				1.0	0.0							4.0	34.0	0.5307612106207671	4.0		1.0	6.0	1.0	2.0		part_1
280		3.0				1.0	1.0							4.0	72.0	0.44198782224157185	4.0		1.0	3.0	5.0	7.0		part_1
281		3.0				1.0	1.0							3.0	50.0	0.3171807573107799	3.0		1.0	3.0	5.0	7.0		part_1
282		3.0				1.0	0.0							3.0	31.0	0.4641289230858092	3.0		1.0	6.0	1.0	2.0		part_1
283		3.0				1.0	0.0							4.0	0.0	0.3424389901701943	4.0		0.0	6.0	1.0	2.0		part_1
284		3.0				1.0	0.0							4.0	113.0	0.36459532177468645	4.0		2.0	7.0	2.0	5.0		part_1
285		3.0				1.0	0.0							3.0	51.0	0.3880595896207524	3.0		1.0	6.0	1.0	2.0		part_1
286		3.0				1.0	1.0							4.0	378.0	0.3559137537740753	4.0		4.0	1.0	8.0	1.0		part_1
287		3.0				1.0	1.0							3.0	79.0	0.3785374461549509	3.0		2.0	4.0	6.0	8.0		part_1
288		3.0				1.0	0.0							1.0	186.0	0.4347010659312218	1.0		3.0	5.0	3.0	4.0		part_1
289		3.0				1.0	0.0							1.0	118.0	0.44637374777448713	1.0		2.0	7.0	2.0	5.0		part_1
290		3.0				1.0	0.0							3.0	125.0	0.36821122792935057	3.0		2.0	7.0	2.0	5.0		part_1
291		3.0				1.0	0.0							1.0	32.0	0.4358449869305332	1.0		1.0	6.0	1.0	2.0		part_1
292		3.0				1.0	0.0							2.0	45.0	0.47109605646619457	2.0		1.0	6.0	1.0	2.0		part_1
293		3.0				1.0	1.0							2.0	121.0	0.48187919508563937	2.0		2.0	4.0	6.0	8.0		part_1
294		3.0				1.0	1.0							2.0	186.0	0.48276490992975596	2.0		3.0	8.0	7.0	3.0		part_1
295		3.0				1.0	0.0							2.0	411.0	0.3719631669991941	2.0		4.0	2.0	4.0	6.0		part_1
296		3.0				1.0	0.0							3.0	113.0	0.48309035592865257	3.0		2.0	7.0	2.0	5.0		part_1
297		3.0				1.0	0.0							3.0	97.0	0.47357362493130495	3.0		2.0	7.0	2.0	5.0		part_1
298		3.0				1.0	1.0							2.0	0.0	0.5974885613122751	2.0		0.0	4.0	6.0	8.0		part_1
299		3.0				1.0	1.0							3.0	383.0	0.4637507639290561	3.0		4.0	1.0	8.0	1.0		part_1
300		4.0				1.0	0.0							4.0	190.0	0.5102932058453007	4.0		3.0	5.0	3.0	4.0		part_1
301		4.0				1.0	0.0							4.0	0.0	0.4386456479314802	4.0		0.0	7.0	2.0	5.0		part_1
302		4.0				1.0	0.0							4.0	43.0	0.4604686534657958	4.0		1.0	6.0	1.0	2.0		part_1
303		4.0				1.0	1.0							1.0	103.0	0.37341180693692877	1.0		2.0	4.0	6.0	8.0		part_1
304		4.0				1.0	1.0							1.0	98.0	0.35011279215541435	1.0		2.0	4.0	6.0	8.0		part_1
305		4.0				1.0	0.0							3.0	401.0	0.3402572959312238	3.0		4.0	2.0	4.0	6.0		part_1
306		4.0				1.0	1.0							1.0	0.0	0.2963696526221611	1.0		0.0	1.0	8.0	1.0		part_1
307		4.0				1.0	1.0							3.0	201.0	0.3729812289311667	3.0		3.0	8.0	7.0	3.0		part_1
308		4.0				1.0	0.0							1.0	86.0	0.33090209862166375	1.0		2.0	7.0	2.0	5.0		part_1
309		4.0				1.0	0.0							3.0	0.0	0.33033696100028465	3.0		0.0	7.0	2.0	5.0		part_1
310		4.0				1.0	1.0							3.0	179.0	0.352652072930141	3.0		3.0	8.0	7.0	3.0		part_1
311		4.0				1.0	0.0							2.0	79.0	0.3772884840855113	2.0		2.0	7.0	2.0	5.0		part_1
312		4.0				1.0	0.0							4.0	194.0	0.2975068872419797	4.0		3.0	5.0	3.0	4.0		part_1
313		4.0				1.0	0.0							1.0	0.0	0.3669662656211585	1.0		0.0	2.0	4.0	6.0		part_1
314		4.0				1.0	1.0							4.0	421.0	0.3111914214659919	4.0		4.0	1.0	8.0	1.0		part_1
315		4.0				1.0	0.0							1.0	407.0	0.28971448724041693	1.0		4.0	2.0	4.0	6.0		part_1
316		4.0				1.0	1.0							3.0	43.0	0.3005427371554106	3.0		1.0	3.0	5.0	7.0		part_1
317		4.0				1.0	1.0							1.0	70.0	0.31343219262271305	1.0		1.0	3.0	5.0	7.0		part_1
318		4.0				1.0	0.0							2.0	106.0	0.34672339646567707	2.0		2.0	7.0	2.0	5.0		part_1
319		4.0				1.0	1.0							4.0	88.0	0.345989634621219	4.0		2.0	4.0	6.0	8.0		part_1
320		4.0				1.0	1.0							2.0	60.0	0.3135375744659541	2.0		1.0	3.0	5.0	7.0		part_1
321		4.0				1.0	1.0							1.0	197.0	0.2915012527737417	1.0		3.0	8.0	7.0	3.0		part_1
322		4.0				1.0	1.0							2.0	210.0	0.3033670919303404	2.0		3.0	8.0	7.0	3.0		part_1
323		4.0				1.0	0.0							2.0	0.0	0.3493568490848702	2.0		0.0	5.0	3.0	4.0		part_1
324		4.0				1.0	0.0							1.0	398.0	0.29336801239696797	1.0		4.0	2.0	4.0	6.0		part_1
325		4.0				1.0	1.0							3.0	0.0	0.3726404546214326	3.0		0.0	4.0	6.0	8.0		part_1
326		4.0				1.0	1.0							2.0	0.0	0.3285007513095479	2.0		0.0	3.0	5.0	7.0		part_1
327		4.0				1.0	1.0							4.0	0.0	0.45388051146619546	4.0		0.0	8.0	7.0	3.0		part_1
328		4.0				1.0	0.0							2.0	383.0	0.3183115113115491	2.0		4.0	2.0	4.0	6.0		part_1
329		4.0				1.0	1.0							1.0	190.0	0.37456429462145024	1.0		3.0	8.0	7.0	3.0		part_1
330		4.0				1.0	1.0							1.0	0.0	0.2870101773114584	1.0		0.0	3.0	5.0	7.0		part_1
331		4.0				1.0	0.0							2.0	179.0	0.34214537100706366	2.0		3.0	5.0	3.0	4.0		part_1
332		4.0				1.0	0.0							2.0	198.0	0.30994634908529406	2.0		3.0	5.0	3.0	4.0		part_1
333		4.0				1.0	0.0							1.0	57.0	0.28694664531030867	1.0		1.0	6.0	1.0	2.0		part_1
334		4.0				1.0	1.0							1.0	46.0	0.3446507204662339	1.0		1.0	3.0	5.0	7.0		part_1
335		4.0				1.0	1.0							1.0	69.0	0.3439236570866342	1.0		1.0	3.0	5.0	7.0		part_1
336		4.0				1.0	0.0							1.0	219.0	0.28916316462164104	1.0		3.0	5.0	3.0	4.0		part_1
337		4.0				1.0	0.0							3.0	179.0	0.3343374586220307	3.0		3.0	5.0	3.0	4.0		part_1
338		4.0				1.0	1.0							2.0	106.0	0.26866957662059576	2.0		2.0	4.0	6.0	8.0		part_1
339		4.0				1.0	0.0							3.0	95.0	0.31167244731113897	3.0		2.0	7.0	2.0	5.0		part_1
340		4.0				1.0	0.0							3.0	189.0	0.31318375946466404	3.0		3.0	5.0	3.0	4.0		part_1
341		4.0				1.0	1.0							4.0	43.0	0.34666991815356596	4.0		1.0	3.0	5.0	7.0		part_1
342		4.0				1.0	1.0							2.0	28.0	0.3034605543107318	2.0		1.0	3.0	5.0	7.0		part_1
343		4.0				1.0	1.0							1.0	0.0	0.3036219349305611	1.0		0.0	4.0	6.0	8.0		part_1
344		4.0				1.0	0.0							3.0	0.0	0.3488788739305164	3.0		0.0	6.0	1.0	2.0		part_1
345		4.0				1.0	0.0							3.0	391.0	0.35036050093003723	3.0		4.0	2.0	4.0	6.0		part_1
346		4.0				1.0	0.0							1.0	189.0	0.3295505292408052	1.0		3.0	5.0	3.0	4.0		part_1
347		4.0				1.0	1.0							1.0	199.0	0.4409321811544942	1.0		3.0	8.0	7.0	3.0		part_1
348		4.0				1.0	0.0							3.0	98.0	0.3061838936228014	3.0		2.0	7.0	2.0	5.0		part_1
349		4.0				1.0	1.0							2.0	86.0	0.30755231630973867	2.0		2.0	4.0	6.0	8.0		part_1
350		4.0				1.0	0.0							4.0	64.0	0.2958211589302664	4.0		1.0	6.0	1.0	2.0		part_1
351		4.0				1.0	0.0							1.0	376.0	0.3200895309291809	1.0		4.0	2.0	4.0	6.0		part_1
352		4.0				1.0	0.0							4.0	121.0	0.42138754762163444	4.0		2.0	7.0	2.0	5.0		part_1
353		4.0				1.0	1.0							4.0	398.0	0.48987180115545925	4.0		4.0	1.0	8.0	1.0		part_1
354		4.0				1.0	0.0							3.0	205.0	0.36550986730981094	3.0		3.0	5.0	3.0	4.0		part_1
355		4.0				1.0	1.0							1.0	0.0	0.413148422154336	1.0		0.0	1.0	8.0	1.0		part_1
356		4.0				1.0	0.0							1.0	47.0	0.44693251831085945	1.0		1.0	6.0	1.0	2.0		part_1
357		4.0				1.0	1.0							3.0	114.0	0.4123492199305474	3.0		2.0	4.0	6.0	8.0		part_1
358		4.0				1.0	0.0							4.0	53.0	0.37881219208611583	4.0		1.0	6.0	1.0	2.0		part_1
359		4.0				1.0	0.0							3.0	398.0	0.39040858031148673	3.0		4.0	2.0	4.0	6.0		part_1
360		4.0				1.0	0.0							1.0	0.0	0.35854323346575256	1.0		0.0	5.0	3.0	4.0		part_1
361		4.0				1.0	0.0							1.0	27.0	0.4826081431565399	1.0		1.0	6.0	1.0	2.0		part_1
362		4.0				1.0	0.0							2.0	0.0	0.49483678224169125	2.0		0.0	7.0	2.0	5.0		part_1
363		4.0				1.0	0.0							4.0	0.0	0.3373306599296484	4.0		0.0	2.0	4.0	6.0		part_1
364		4.0				1.0	0.0							4.0	177.0	0.5063882739304972	4.0		3.0	5.0	3.0	4.0		part_1
365		4.0				1.0	0.0							3.0	0.0	0.5122770223952102	3.0		0.0	6.0	1.0	2.0		part_1
366		4.0				1.0	1.0							4.0	422.0	0.3663666857755743	4.0		4.0	1.0	8.0	1.0		part_1
367		4.0				1.0	0.0							3.0	108.0	0.34505521939536266	3.0		2.0	7.0	2.0	5.0		part_1
368		4.0				1.0	0.0							2.0	407.0	0.3471283621547627	2.0		4.0	2.0	4.0	6.0		part_1
369		4.0				1.0	1.0							2.0	194.0	0.35734218208563107	2.0		3.0	8.0	7.0	3.0		part_1
370		4.0				1.0	0.0							4.0	0.0	0.42554411993114627	4.0		0.0	7.0	2.0	5.0		part_1
371		4.0				1.0	0.0							3.0	0.0	0.34812087777390843	3.0		0.0	2.0	4.0	6.0		part_1
372		4.0				1.0	1.0							3.0	101.0	0.4591000282416644	3.0		2.0	4.0	6.0	8.0		part_1
373		4.0				1.0	1.0							4.0	47.0	0.35908436793033616	4.0		1.0	3.0	5.0	7.0		part_1
374		4.0				1.0	1.0							3.0	108.0	0.3489350159998139	3.0		2.0	4.0	6.0	8.0		part_1
375		4.0				1.0	0.0							1.0	115.0	0.41721220599902153	1.0		2.0	7.0	2.0	5.0		part_1
376		4.0				1.0	0.0							2.0	0.0	0.4641120762407809	2.0		0.0	2.0	4.0	6.0		part_1
377		4.0				1.0	0.0							4.0	0.0	0.3274778387749393	4.0		0.0	2.0	4.0	6.0		part_1
378		4.0				1.0	1.0							1.0	36.0	0.294437170465244	1.0		1.0	3.0	5.0	7.0		part_1
379		4.0				1.0	1.0							1.0	0.0	0.31796804330952	1.0		0.0	8.0	7.0	3.0		part_1
380		4.0				1.0	1.0							1.0	58.0	0.31947612699877936	1.0		1.0	3.0	5.0	7.0		part_1
381		4.0				1.0	1.0							3.0	0.0	0.3632245854660141	3.0		0.0	1.0	8.0	1.0		part_1
382		4.0				1.0	1.0							1.0	205.0	0.2973944757741265	1.0		3.0	8.0	7.0	3.0		part_1
383		4.0				1.0	1.0							3.0	0.0	0.3314006901564426	3.0		0.0	4.0	6.0	8.0		part_1
384		4.0				1.0	0.0							2.0	114.0	0.3443450059312454	2.0		2.0	7.0	2.0	5.0		part_1
385		4.0				1.0	0.0							2.0	0.0	0.33178997724098735	2.0		0.0	7.0	2.0	5.0		part_1
386		4.0				1.0	0.0							1.0	207.0	0.3439830183106096	1.0		3.0	5.0	3.0	4.0		part_1
387		4.0				1.0	1.0							3.0	177.0	0.35683846508436545	3.0		3.0	8.0	7.0	3.0		part_1
388		4.0				1.0	1.0							4.0	223.0	0.37982726515474496	4.0		3.0	8.0	7.0	3.0		part_1
389		4.0				1.0	0.0							1.0	70.0	0.3350610356210382	1.0		1.0	6.0	1.0	2.0		part_1
390		4.0				1.0	1.0							1.0	31.0	0.4033163897747727	1.0		1.0	3.0	5.0	7.0		part_1
391		4.0				1.0	0.0							4.0	88.0	0.43687966846664494	4.0		2.0	7.0	2.0	5.0		part_1
392		4.0				1.0	1.0							1.0	0.0	0.393682960240767	1.0		0.0	1.0	8.0	1.0		part_1
393		4.0				1.0	0.0							1.0	43.0	0.4841414479287778	1.0		1.0	6.0	1.0	2.0		part_1
394		4.0				1.0	0.0							2.0	28.0	0.5071606660003454	2.0		1.0	6.0	1.0	2.0		part_1
395		4.0				1.0	0.0							4.0	209.0	0.4049820661548438	4.0		3.0	5.0	3.0	4.0		part_1
396		4.0				1.0	0.0							3.0	0.0	0.3733117293104442	3.0		0.0	7.0	2.0	5.0		part_1
397		4.0				1.0	1.0							2.0	79.0	0.3742703483094374	2.0		2.0	4.0	6.0	8.0		part_1
398		4.0				1.0	0.0							2.0	54.0	0.3280924703103665	2.0		1.0	6.0	1.0	2.0		part_1
399		4.0				1.0	0.0							4.0	63.0	0.36289132939600677	4.0		1.0	6.0	1.0	2.0		part_1
0	1.0	1.0			250.0	0.0	1.0							5.0	0.0	0.4353548273229535	5.0	250.0	1.0	3.0	5.0	7.0	0.0	part_2
1	1.0	1.0			250.0	0.0	0.0							6.0	0.0	0.685751086080927	6.0	250.0	4.0	2.0	4.0	6.0	0.0	part_2
2	1.0	1.0			250.0	0.0	1.0							6.0	0.0	0.6522548294851731	6.0	250.0	4.0	1.0	8.0	1.0	0.0	part_2
3	1.0	1.0			250.0	0.0	1.0							5.0	0.0	0.6972193786477874	5.0	250.0	1.0	3.0	5.0	7.0	0.0	part_2
4	1.0	1.0			250.0	0.0	0.0							5.0	0.0	0.5294523064039822	5.0	250.0	4.0	2.0	4.0	6.0	0.0	part_2
5	1.0	1.0			250.0	0.0	0.0							6.0	0.0	0.4278502544857474	6.0	250.0	1.0	6.0	1.0	2.0	0.0	part_2
6	4.0	1.0			250.0	0.0	1.0							6.0	0.0	0.0	0.0	250.0	4.0	1.0	8.0	1.0	1.0	part_2
7	1.0	1.0			250.0	0.0	0.0							5.0	0.0	0.4748674325674074	5.0	300.0	4.0	2.0	4.0	6.0	0.0	part_2
8	4.0	1.0			250.0	0.0	1.0							6.0	0.0	0.0	0.0	300.0	4.0	1.0	8.0	1.0	1.0	part_2
9	3.0	1.0			250.0	0.0	1.0							6.0	0.0	0.4547115021632635	6.0	350.0	1.0	3.0	5.0	7.0	1.0	part_2
10	4.0	1.0			250.0	0.0	1.0							6.0	0.0	0.0	0.0	300.0	4.0	1.0	8.0	1.0	1.0	part_2
11	1.0	1.0			250.0	0.0	0.0							5.0	0.0	0.5456414317286544	5.0	350.0	4.0	2.0	4.0	6.0	0.0	part_2
12	1.0	1.0			250.0	0.0	0.0							5.0	0.0	0.4694797684860532	5.0	350.0	3.0	5.0	3.0	4.0	0.0	part_2
13	1.0	1.0			250.0	0.0	0.0							5.0	0.0	0.7964520866462408	5.0	350.0	2.0	7.0	2.0	5.0	0.0	part_2
14	1.0	1.0			250.0	0.0	1.0							6.0	0.0	0.6499898380807281	6.0	350.0	1.0	3.0	5.0	7.0	0.0	part_2
15	1.0	1.0			250.0	0.0	0.0							6.0	0.0	0.8428395496466692	6.0	350.0	3.0	5.0	3.0	4.0	0.0	part_2
16	1.0	1.0			250.0	0.0	0.0							6.0	0.0	0.7866010894049396	6.0	350.0	1.0	6.0	1.0	2.0	0.0	part_2
17	1.0	1.0			250.0	0.0	0.0							5.0	0.0	0.742643959565612	5.0	350.0	1.0	6.0	1.0	2.0	0.0	part_2
18	4.0	1.0			250.0	0.0	1.0							5.0	0.0	0.0	0.0	350.0	2.0	4.0	6.0	8.0	1.0	part_2
19	1.0	1.0			300.0	0.0	0.0							5.0	0.0	0.4075758290000522	5.0	350.0	3.0	5.0	3.0	4.0	0.0	part_2
20	4.0	1.0			300.0	0.0	1.0							6.0	0.0	0.0	0.0	350.0	2.0	4.0	6.0	8.0	1.0	part_2
21	1.0	1.0			300.0	0.0	0.0							5.0	0.0	0.8697983800811926	5.0	400.0	2.0	7.0	2.0	5.0	0.0	part_2
22	4.0	1.0			300.0	0.0	1.0							6.0	0.0	0.0	0.0	400.0	1.0	3.0	5.0	7.0	1.0	part_2
23	1.0	1.0			300.0	0.0	1.0							6.0	0.0	0.8703396760811302	6.0	450.0	1.0	3.0	5.0	7.0	0.0	part_2
24	4.0	1.0			300.0	0.0	1.0							5.0	0.0	0.0	0.0	450.0	1.0	3.0	5.0	7.0	1.0	part_2
25	4.0	1.0			350.0	0.0	1.0							5.0	0.0	0.0	0.0	450.0	4.0	1.0	8.0	1.0	1.0	part_2
26	1.0	1.0			400.0	0.0	0.0							6.0	0.0	0.5364562385966565	6.0	450.0	1.0	6.0	1.0	2.0	0.0	part_2
27	1.0	1.0			400.0	0.0	0.0							5.0	0.0	0.5604824389993155	5.0	450.0	2.0	7.0	2.0	5.0	0.0	part_2
28	4.0	1.0			400.0	0.0	1.0							5.0	0.0	0.0	0.0	450.0	2.0	4.0	6.0	8.0	1.0	part_2
29	1.0	1.0			450.0	0.0	0.0							6.0	0.0	0.44935590508066525	6.0	450.0	1.0	6.0	1.0	2.0	0.0	part_2
30	4.0	1.0			450.0	0.0	1.0							5.0	0.0	0.0	0.0	450.0	2.0	4.0	6.0	8.0	1.0	part_2
31	1.0	1.0			500.0	0.0	0.0							6.0	0.0	0.6425194786461361	6.0	450.0	4.0	2.0	4.0	6.0	0.0	part_2
32	3.0	1.0			500.0	0.0	1.0							5.0	0.0	0.5862343994031107	5.0	450.0	1.0	3.0	5.0	7.0	1.0	part_2
33	4.0	1.0			450.0	0.0	1.0							5.0	0.0	0.0	0.0	450.0	3.0	8.0	7.0	3.0	1.0	part_2
34	4.0	1.0			500.0	0.0	1.0							5.0	0.0	0.0	0.0	450.0	2.0	4.0	6.0	8.0	1.0	part_2
35	1.0	1.0			550.0	0.0	0.0							6.0	0.0	0.5890252945664542	6.0	450.0	3.0	5.0	3.0	4.0	0.0	part_2
36	3.0	2.0			550.0	0.0	1.0							5.0	0.0	0.507047462000628	5.0	450.0	3.0	8.0	7.0	3.0	1.0	part_2
37	4.0	2.0			500.0	0.0	1.0							6.0	0.0	0.0	0.0	450.0	2.0	4.0	6.0	8.0	1.0	part_2
38	3.0	2.0			500.0	0.0	1.0							5.0	0.0	0.6205255725672032	5.0	500.0	2.0	4.0	6.0	8.0	1.0	part_2
39	1.0	2.0			450.0	0.0	1.0							5.0	0.0	0.734511064567414	5.0	500.0	3.0	8.0	7.0	3.0	0.0	part_2
40	1.0	2.0			450.0	0.0	0.0							6.0	0.0	0.7242973972424807	6.0	500.0	2.0	7.0	2.0	5.0	0.0	part_2
41	1.0	2.0			450.0	0.0	0.0							5.0	0.0	0.5105057330001728	5.0	500.0	2.0	7.0	2.0	5.0	0.0	part_2
42	1.0	2.0			450.0	0.0	0.0							5.0	0.0	0.5453096233231918	5.0	500.0	2.0	7.0	2.0	5.0	0.0	part_2
43	3.0	2.0			450.0	0.0	1.0							5.0	0.0	0.4228847409995069	5.0	500.0	1.0	3.0	5.0	7.0	1.0	part_2
44	1.0	2.0			400.0	0.0	0.0							5.0	0.0	0.6820646534033585	5.0	500.0	1.0	6.0	1.0	2.0	0.0	part_2
45	1.0	2.0			400.0	0.0	0.0							5.0	0.0	0.5352329873221606	5.0	500.0	4.0	2.0	4.0	6.0	0.0	part_2
46	3.0	2.0			400.0	0.0	1.0							6.0	0.0	0.43548536440539465	6.0	500.0	4.0	1.0	8.0	1.0	1.0	part_2
47	4.0	2.0			400.0	0.0	1.0							6.0	0.0	0.0	0.0	450.0	2.0	4.0	6.0	8.0	1.0	part_2
48	1.0	2.0			400.0	0.0	0.0							5.0	0.0	0.7077251475657249	5.0	500.0	4.0	2.0	4.0	6.0	0.0	part_2
49	1.0	2.0			400.0	0.0	0.0							5.0	0.0	0.7412622495667165	5.0	500.0	4.0	2.0	4.0	6.0	0.0	part_2
50	1.0	2.0			400.0	0.0	0.0							6.0	0.0	0.5970278620006866	6.0	500.0	3.0	5.0	3.0	4.0	0.0	part_2
51	3.0	2.0			400.0	0.0	1.0							5.0	0.0	0.496638231081306	5.0	500.0	3.0	8.0	7.0	3.0	1.0	part_2
52	4.0	2.0			350.0	0.0	1.0							5.0	0.0	0.0	0.0	500.0	3.0	8.0	7.0	3.0	1.0	part_2
53	1.0	2.0			400.0	0.0	1.0							6.0	0.0	0.5545235742447403	6.0	500.0	4.0	1.0	8.0	1.0	0.0	part_2
54	1.0	2.0			400.0	0.0	1.0							6.0	0.0	0.6567899549991125	6.0	500.0	3.0	8.0	7.0	3.0	0.0	part_2
55	1.0	2.0			400.0	0.0	0.0							5.0	0.0	0.7350608101623948	5.0	500.0	3.0	5.0	3.0	4.0	0.0	part_2
56	1.0	2.0			400.0	0.0	0.0							6.0	0.0	0.7136108770828287	6.0	500.0	1.0	6.0	1.0	2.0	0.0	part_2
57	1.0	2.0			400.0	0.0	0.0							6.0	0.0	0.7935973811618169	6.0	500.0	2.0	7.0	2.0	5.0	0.0	part_2
58	4.0	2.0			400.0	0.0	1.0							5.0	0.0	0.0	0.0	500.0	1.0	3.0	5.0	7.0	1.0	part_2
59	4.0	2.0			450.0	0.0	1.0							5.0	0.0	0.0	0.0	500.0	2.0	4.0	6.0	8.0	1.0	part_2
60	1.0	2.0			500.0	0.0	0.0							6.0	0.0	0.6938354701633216	6.0	500.0	4.0	2.0	4.0	6.0	0.0	part_2
61	1.0	2.0			500.0	0.0	0.0							5.0	0.0	0.6740656950805715	5.0	500.0	1.0	6.0	1.0	2.0	0.0	part_2
62	4.0	2.0			500.0	0.0	1.0							5.0	0.0	0.0	0.0	500.0	3.0	8.0	7.0	3.0	1.0	part_2
63	4.0	2.0			550.0	0.0	1.0							5.0	0.0	0.0	0.0	500.0	3.0	8.0	7.0	3.0	1.0	part_2
64	1.0	2.0			600.0	0.0	0.0							5.0	0.0	0.7983861741613509	5.0	500.0	1.0	6.0	1.0	2.0	0.0	part_2
65	1.0	2.0			600.0	0.0	0.0							5.0	0.0	0.6659013450807834	5.0	500.0	1.0	6.0	1.0	2.0	0.0	part_2
66	1.0	2.0			600.0	0.0	0.0							6.0	0.0	0.677199688161636	6.0	500.0	1.0	6.0	1.0	2.0	0.0	part_2
67	1.0	2.0			600.0	0.0	0.0							6.0	0.0	0.6770625745666621	6.0	500.0	4.0	2.0	4.0	6.0	0.0	part_2
68	3.0	2.0			600.0	0.0	1.0							5.0	0.0	0.7349553921612824	5.0	500.0	1.0	3.0	5.0	7.0	1.0	part_2
69	4.0	2.0			550.0	0.0	1.0							6.0	0.0	0.0	0.0	500.0	2.0	4.0	6.0	8.0	1.0	part_2
70	3.0	2.0			550.0	0.0	1.0							5.0	0.0	0.6574840775374469	5.0	550.0	4.0	1.0	8.0	1.0	1.0	part_2
71	1.0	2.0			500.0	0.0	1.0							5.0	0.0	0.850946934082458	5.0	550.0	4.0	1.0	8.0	1.0	0.0	part_2
72	1.0	3.0			500.0	0.0	0.0							5.0	0.0	0.8250154550823936	5.0	550.0	4.0	2.0	4.0	6.0	0.0	part_2
73	4.0	3.0			500.0	0.0	1.0							5.0	0.0	0.0	0.0	550.0	1.0	3.0	5.0	7.0	1.0	part_2
74	1.0	3.0			550.0	0.0	0.0							6.0	0.0	0.849054448566676	6.0	550.0	2.0	7.0	2.0	5.0	0.0	part_2
75	4.0	3.0			550.0	0.0	1.0							5.0	0.0	0.0	0.0	550.0	4.0	1.0	8.0	1.0	1.0	part_2
76	1.0	3.0			600.0	0.0	0.0							6.0	0.0	0.9533176330005517	6.0	550.0	4.0	2.0	4.0	6.0	0.0	part_2
77	1.0	3.0			600.0	0.0	0.0							6.0	0.0	0.8174381814042135	6.0	550.0	1.0	6.0	1.0	2.0	0.0	part_2
78	1.0	3.0			600.0	0.0	0.0							6.0	0.0	0.8653884701634524	6.0	550.0	3.0	5.0	3.0	4.0	0.0	part_2
79	4.0	3.0			600.0	0.0	1.0							6.0	0.0	0.0	0.0	550.0	3.0	8.0	7.0	3.0	1.0	part_2
80	1.0	3.0			600.0	0.0	0.0							6.0	0.0	0.8545008834043983	6.0	600.0	1.0	6.0	1.0	2.0	0.0	part_2
81	4.0	3.0			600.0	0.0	1.0							5.0	0.0	0.0	0.0	600.0	2.0	4.0	6.0	8.0	1.0	part_2
82	1.0	3.0			650.0	0.0	0.0							5.0	0.0	0.9341656816486648	5.0	600.0	1.0	6.0	1.0	2.0	0.0	part_2
83	4.0	3.0			650.0	0.0	1.0							5.0	0.0	0.0	0.0	600.0	4.0	1.0	8.0	1.0	1.0	part_2
84	1.0	3.0			700.0	0.0	1.0							6.0	0.0	1.1050556764039356	6.0	600.0	2.0	4.0	6.0	8.0	0.0	part_2
85	1.0	3.0			700.0	0.0	1.0							6.0	0.0	0.8241128193221812	6.0	600.0	1.0	3.0	5.0	7.0	0.0	part_2
86	3.0	3.0			700.0	0.0	1.0							5.0	0.0	0.7366872434849938	5.0	600.0	1.0	3.0	5.0	7.0	1.0	part_2
87	1.0	3.0			650.0	0.0	1.0							5.0	0.0	0.8711351720812672	5.0	600.0	3.0	8.0	7.0	3.0	0.0	part_2
88	4.0	3.0			650.0	0.0	1.0							6.0	0.0	0.0	0.0	600.0	1.0	3.0	5.0	7.0	1.0	part_2
89	4.0	3.0			650.0	0.0	1.0							6.0	0.0	0.0	0.0	650.0	2.0	4.0	6.0	8.0	1.0	part_2
90	1.0	3.0			650.0	0.0	0.0							6.0	0.0	0.7494924323218584	6.0	700.0	4.0	2.0	4.0	6.0	0.0	part_2
91	4.0	3.0			650.0	0.0	1.0							5.0	0.0	0.0	0.0	700.0	4.0	1.0	8.0	1.0	1.0	part_2
92	1.0	3.0			700.0	0.0	0.0							5.0	0.0	1.0217207491623412	5.0	700.0	1.0	6.0	1.0	2.0	0.0	part_2
93	4.0	3.0			700.0	0.0	1.0							5.0	0.0	0.0	0.0	700.0	4.0	1.0	8.0	1.0	1.0	part_2
94	4.0	3.0			750.0	0.0	1.0							5.0	0.0	0.0	0.0	700.0	2.0	4.0	6.0	8.0	1.0	part_2
95	1.0	3.0			800.0	0.0	1.0							6.0	0.0	0.8111460174040985	6.0	700.0	3.0	8.0	7.0	3.0	0.0	part_2
96	3.0	3.0			800.0	0.0	1.0							5.0	0.0	0.7545776984043187	5.0	700.0	2.0	4.0	6.0	8.0	1.0	part_2
97	1.0	3.0			750.0	0.0	0.0							6.0	0.0	1.1037824401628313	6.0	700.0	4.0	2.0	4.0	6.0	0.0	part_2
98	1.0	3.0			750.0	0.0	0.0							5.0	0.0	0.8133223180011555	5.0	700.0	3.0	5.0	3.0	4.0	0.0	part_2
99	1.0	3.0			750.0	0.0	0.0							6.0	0.0	0.8802937380824005	6.0	700.0	2.0	7.0	2.0	5.0	0.0	part_2
100	1.0	3.0			750.0	0.0	0.0							6.0	0.0	0.9953480852436769	6.0	700.0	2.0	7.0	2.0	5.0	0.0	part_2
101	4.0	3.0			750.0	0.0	1.0							6.0	0.0	0.0	0.0	700.0	2.0	4.0	6.0	8.0	1.0	part_2
102	4.0	3.0			750.0	0.0	1.0							5.0	0.0	0.0	0.0	750.0	4.0	1.0	8.0	1.0	1.0	part_2
103	1.0	3.0			800.0	0.0	0.0							6.0	0.0	1.0976497991614451	6.0	750.0	1.0	6.0	1.0	2.0	0.0	part_2
104	4.0	3.0			800.0	0.0	1.0							6.0	0.0	0.0	0.0	750.0	4.0	1.0	8.0	1.0	1.0	part_2
105	1.0	3.0			800.0	0.0	0.0							5.0	0.0	0.9528427054046915	5.0	800.0	1.0	6.0	1.0	2.0	0.0	part_2
106	1.0	3.0			800.0	0.0	0.0							6.0	0.0	0.9778797696471884	6.0	800.0	4.0	2.0	4.0	6.0	0.0	part_2
107	4.0	3.0			800.0	0.0	1.0							5.0	0.0	0.0	0.0	800.0	3.0	8.0	7.0	3.0	1.0	part_2
108	3.0	4.0			850.0	0.0	1.0							6.0	0.0	0.4183345316469058	6.0	800.0	4.0	1.0	8.0	1.0	1.0	part_2
109	1.0	4.0			850.0	0.0	0.0							5.0	0.0	0.24107926740362018	5.0	750.0	4.0	2.0	4.0	6.0	0.0	part_2
110	1.0	4.0			850.0	0.0	0.0							5.0	0.0	0.26459081224311376	5.0	750.0	3.0	5.0	3.0	4.0	0.0	part_2
111	3.0	4.0			850.0	0.0	1.0							6.0	0.0	0.27539468716167903	6.0	750.0	3.0	8.0	7.0	3.0	1.0	part_2
112	1.0	4.0			850.0	0.0	0.0							5.0	0.0	0.35465948532328184	5.0	700.0	3.0	5.0	3.0	4.0	0.0	part_2
113	1.0	4.0			850.0	0.0	0.0							5.0	0.0	0.35558258624405426	5.0	700.0	4.0	2.0	4.0	6.0	0.0	part_2
114	1.0	4.0			850.0	0.0	1.0							6.0	0.0	0.5379712164030934	6.0	700.0	1.0	3.0	5.0	7.0	0.0	part_2
115	3.0	4.0			850.0	0.0	1.0							6.0	0.0	0.3453832060822606	6.0	700.0	2.0	4.0	6.0	8.0	1.0	part_2
116	1.0	4.0			850.0	0.0	0.0							5.0	0.0	0.6049681640815834	5.0	650.0	3.0	5.0	3.0	4.0	0.0	part_2
117	3.0	4.0			850.0	0.0	1.0							5.0	0.0	0.3602174494026258	5.0	650.0	3.0	8.0	7.0	3.0	1.0	part_2
118	3.0	4.0			800.0	0.0	1.0							6.0	0.0	0.6420394119995763	6.0	650.0	3.0	8.0	7.0	3.0	1.0	part_2
119	1.0	4.0			800.0	0.0	0.0							5.0	0.0	0.283177078485096	5.0	600.0	3.0	5.0	3.0	4.0	0.0	part_2
120	1.0	4.0			800.0	0.0	0.0							5.0	0.0	0.32738354056709795	5.0	600.0	2.0	7.0	2.0	5.0	0.0	part_2
121	1.0	4.0			800.0	0.0	0.0							5.0	0.0	0.40714064016356133	5.0	600.0	1.0	6.0	1.0	2.0	0.0	part_2
122	1.0	4.0			800.0	0.0	0.0							6.0	0.0	0.64389909948477	6.0	600.0	3.0	5.0	3.0	4.0	0.0	part_2
123	1.0	4.0			800.0	0.0	0.0							5.0	0.0	0.3307885340000212	5.0	600.0	3.0	5.0	3.0	4.0	0.0	part_2
124	1.0	4.0			800.0	0.0	0.0							5.0	0.0	0.37558352532323624	5.0	600.0	2.0	7.0	2.0	5.0	0.0	part_2
125	3.0	4.0			800.0	0.0	1.0							5.0	0.0	0.4773152393227065	5.0	600.0	3.0	8.0	7.0	3.0	1.0	part_2
126	1.0	4.0			750.0	0.0	0.0							6.0	0.0	0.5690529329185665	6.0	600.0	1.0	6.0	1.0	2.0	0.0	part_2
127	3.0	4.0			750.0	0.0	1.0							6.0	0.0	0.6134587714041118	6.0	600.0	4.0	1.0	8.0	1.0	1.0	part_2
128	1.0	4.0			750.0	0.0	1.0							5.0	0.0	0.7627858916475816	5.0	550.0	3.0	8.0	7.0	3.0	0.0	part_2
129	1.0	4.0			750.0	0.0	1.0							6.0	0.0	0.48115409816273313	6.0	550.0	2.0	4.0	6.0	8.0	0.0	part_2
130	1.0	4.0			750.0	0.0	0.0							5.0	0.0	0.6737209403236193	5.0	550.0	3.0	5.0	3.0	4.0	0.0	part_2
131	3.0	4.0			750.0	0.0	1.0							6.0	0.0	0.4262875537297077	6.0	550.0	1.0	3.0	5.0	7.0	1.0	part_2
132	1.0	4.0			750.0	0.0	1.0							5.0	0.0	0.49460881375671306	5.0	500.0	4.0	1.0	8.0	1.0	0.0	part_2
133	3.0	4.0			750.0	0.0	1.0							6.0	0.0	0.6433967054035747	6.0	500.0	3.0	8.0	7.0	3.0	1.0	part_2
134	1.0	4.0			750.0	0.0	0.0							6.0	0.0	0.6665107605676894	6.0	450.0	1.0	6.0	1.0	2.0	0.0	part_2
135	3.0	4.0			750.0	0.0	1.0							6.0	0.0	0.3512677134040132	6.0	450.0	3.0	8.0	7.0	3.0	1.0	part_2
136	1.0	4.0			750.0	0.0	0.0							6.0	0.0	0.454189614565621	6.0	400.0	3.0	5.0	3.0	4.0	0.0	part_2
137	4.0	4.0			750.0	0.0	1.0							6.0	0.0	0.0	0.0	400.0	4.0	1.0	8.0	1.0	1.0	part_2
138	1.0	4.0			750.0	0.0	0.0							6.0	0.0	0.5677839106483589	6.0	450.0	4.0	2.0	4.0	6.0	0.0	part_2
139	1.0	4.0			750.0	0.0	0.0							6.0	0.0	0.39911469756589213	6.0	450.0	1.0	6.0	1.0	2.0	0.0	part_2
140	1.0	4.0			750.0	0.0	1.0							5.0	0.0	0.4018423554862238	5.0	450.0	2.0	4.0	6.0	8.0	0.0	part_2
141	3.0	4.0			750.0	0.0	1.0							5.0	0.0	0.4009681110819656	5.0	450.0	1.0	3.0	5.0	7.0	1.0	part_2
142	1.0	4.0			700.0	0.0	0.0							5.0	0.0	0.34517055316246115	5.0	450.0	4.0	2.0	4.0	6.0	0.0	part_2
143	3.0	4.0			700.0	0.0	1.0							6.0	0.0	0.42607692632191174	6.0	450.0	4.0	1.0	8.0	1.0	1.0	part_2
144	1.0	5.0			700.0	0.0	0.0							5.0	0.0	0.3822790300819179	5.0	400.0	1.0	6.0	1.0	2.0	0.0	part_2
145	3.0	5.0			700.0	0.0	1.0							6.0	0.0	0.3384662724856753	6.0	400.0	2.0	4.0	6.0	8.0	1.0	part_2
146	1.0	5.0			700.0	0.0	1.0							5.0	0.0	0.2374460020000697	5.0	350.0	1.0	3.0	5.0	7.0	0.0	part_2
147	1.0	5.0			700.0	0.0	1.0							5.0	0.0	0.36346092924395634	5.0	350.0	2.0	4.0	6.0	8.0	0.0	part_2
148	1.0	5.0			700.0	0.0	0.0							5.0	0.0	0.32841405548606417	5.0	350.0	1.0	6.0	1.0	2.0	0.0	part_2
149	1.0	5.0			700.0	0.0	0.0							6.0	0.0	0.37569269224331947	6.0	350.0	2.0	7.0	2.0	5.0	0.0	part_2
150	3.0	5.0			700.0	0.0	1.0							6.0	0.0	0.42085544929614116	6.0	350.0	4.0	1.0	8.0	1.0	1.0	part_2
151	4.0	5.0			700.0	0.0	1.0							6.0	0.0	0.0	0.0	300.0	1.0	3.0	5.0	7.0	1.0	part_2
152	3.0	5.0			700.0	0.0	1.0							5.0	0.0	0.2644505962434778	5.0	350.0	1.0	3.0	5.0	7.0	1.0	part_2
153	1.0	5.0			650.0	0.0	0.0							5.0	0.0	0.2987712401627505	5.0	350.0	1.0	6.0	1.0	2.0	0.0	part_2
154	3.0	5.0			650.0	0.0	1.0							6.0	0.0	0.43450256224241457	6.0	350.0	1.0	3.0	5.0	7.0	1.0	part_2
155	3.0	5.0			650.0	0.0	1.0							5.0	0.0	0.5711742027560831	5.0	300.0	1.0	3.0	5.0	7.0	1.0	part_2
156	1.0	5.0			600.0	0.0	0.0							5.0	0.0	0.6072656034848478	5.0	300.0	4.0	2.0	4.0	6.0	0.0	part_2
157	3.0	5.0			600.0	0.0	1.0							6.0	0.0	0.37123671200060926	6.0	300.0	4.0	1.0	8.0	1.0	1.0	part_2
158	3.0	5.0			600.0	0.0	1.0							5.0	0.0	0.5170736680811387	5.0	250.0	2.0	4.0	6.0	8.0	1.0	part_2
159	1.0	5.0			550.0	0.0	0.0							6.0	0.0	0.6990136030817666	6.0	250.0	4.0	2.0	4.0	6.0	0.0	part_2
160	1.0	5.0			550.0	0.0	1.0							6.0	0.0	0.7435470851632999	6.0	250.0	2.0	4.0	6.0	8.0	0.0	part_2
161	1.0	5.0			550.0	0.0	0.0							6.0	0.0	0.6219561022426205	6.0	250.0	2.0	7.0	2.0	5.0	0.0	part_2
162	1.0	5.0			550.0	0.0	1.0							5.0	0.0	0.45386665332262055	5.0	250.0	2.0	4.0	6.0	8.0	0.0	part_2
163	1.0	5.0			550.0	0.0	0.0							5.0	0.0	0.6342273764857964	5.0	250.0	4.0	2.0	4.0	6.0	0.0	part_2
164	1.0	5.0			550.0	0.0	0.0							6.0	0.0	0.4766619874844764	6.0	250.0	2.0	7.0	2.0	5.0	0.0	part_2
165	1.0	5.0			550.0	0.0	0.0							5.0	0.0	0.5129480314044486	5.0	250.0	2.0	7.0	2.0	5.0	0.0	part_2
166	1.0	5.0			550.0	0.0	0.0							5.0	0.0	0.6597142192440515	5.0	250.0	3.0	5.0	3.0	4.0	0.0	part_2
167	1.0	5.0			550.0	0.0	0.0							6.0	0.0	0.4700200606475846	6.0	250.0	1.0	6.0	1.0	2.0	0.0	part_2
168	4.0	5.0			550.0	0.0	1.0							6.0	0.0	0.0	0.0	250.0	2.0	4.0	6.0	8.0	1.0	part_2
169	4.0	5.0			550.0	0.0	1.0							6.0	0.0	0.0	0.0	300.0	3.0	8.0	7.0	3.0	1.0	part_2
170	1.0	5.0			550.0	0.0	1.0							5.0	0.0	0.6521322850003344	5.0	350.0	4.0	1.0	8.0	1.0	0.0	part_2
171	3.0	5.0			550.0	0.0	1.0							5.0	0.0	0.6301925341631431	5.0	350.0	3.0	8.0	7.0	3.0	1.0	part_2
172	1.0	5.0			500.0	0.0	0.0							6.0	0.0	0.7309590052445856	6.0	350.0	3.0	5.0	3.0	4.0	0.0	part_2
173	1.0	5.0			500.0	0.0	0.0							5.0	0.0	0.5187087804042676	5.0	350.0	3.0	5.0	3.0	4.0	0.0	part_2
174	4.0	5.0			500.0	0.0	1.0							6.0	0.0	0.0	0.0	350.0	3.0	8.0	7.0	3.0	1.0	part_2
175	1.0	5.0			500.0	0.0	0.0							5.0	0.0	0.30747366940522625	5.0	400.0	3.0	5.0	3.0	4.0	0.0	part_2
176	1.0	5.0			500.0	0.0	0.0							6.0	0.0	0.5652934080007981	6.0	400.0	3.0	5.0	3.0	4.0	0.0	part_2
177	4.0	5.0			500.0	0.0	1.0							6.0	0.0	0.0	0.0	400.0	1.0	3.0	5.0	7.0	1.0	part_2
178	1.0	5.0			500.0	0.0	0.0							5.0	0.0	0.46740273616160266	5.0	450.0	4.0	2.0	4.0	6.0	0.0	part_2
179	1.0	5.0			500.0	0.0	0.0							6.0	0.0	0.3545292484868696	6.0	450.0	3.0	5.0	3.0	4.0	0.0	part_2
180	1.0	6.0			500.0	0.0	1.0							6.0	0.0	0.5097772536482807	6.0	450.0	2.0	4.0	6.0	8.0	0.0	part_2
181	3.0	6.0			500.0	0.0	1.0							5.0	0.0	0.23829351724452863	5.0	450.0	4.0	1.0	8.0	1.0	1.0	part_2
182	1.0	6.0			450.0	0.0	1.0							6.0	0.0	0.3187173905662348	6.0	450.0	4.0	1.0	8.0	1.0	0.0	part_2
183	3.0	6.0			450.0	0.0	1.0							5.0	0.0	0.38745183892024215	5.0	450.0	1.0	3.0	5.0	7.0	1.0	part_2
184	1.0	6.0			400.0	0.0	0.0							5.0	0.0	0.6012426371617039	5.0	450.0	2.0	7.0	2.0	5.0	0.0	part_2
185	3.0	6.0			400.0	0.0	1.0							6.0	0.0	0.4686643311615626	6.0	450.0	3.0	8.0	7.0	3.0	1.0	part_2
186	4.0	6.0			400.0	0.0	1.0							6.0	0.0	0.0	0.0	400.0	1.0	3.0	5.0	7.0	1.0	part_2
187	3.0	6.0			400.0	0.0	1.0							6.0	0.0	0.41300009900078294	6.0	450.0	1.0	3.0	5.0	7.0	1.0	part_2
188	1.0	6.0			400.0	0.0	0.0							6.0	0.0	0.5487875872440782	6.0	400.0	4.0	2.0	4.0	6.0	0.0	part_2
189	3.0	6.0			400.0	0.0	1.0							5.0	0.0	0.38008475516107865	5.0	400.0	1.0	3.0	5.0	7.0	1.0	part_2
190	1.0	6.0			350.0	0.0	1.0							6.0	0.0	0.5611639967555675	6.0	400.0	4.0	1.0	8.0	1.0	0.0	part_2
191	4.0	6.0			350.0	0.0	1.0							6.0	0.0	0.0	0.0	400.0	1.0	3.0	5.0	7.0	1.0	part_2
192	1.0	6.0			350.0	0.0	0.0							6.0	0.0	0.5963368824031932	6.0	450.0	3.0	5.0	3.0	4.0	0.0	part_2
193	1.0	6.0			350.0	0.0	0.0							6.0	0.0	0.42989124548512336	6.0	450.0	1.0	6.0	1.0	2.0	0.0	part_2
194	1.0	6.0			350.0	0.0	0.0							5.0	0.0	0.4974419754034898	5.0	450.0	1.0	6.0	1.0	2.0	0.0	part_2
195	1.0	6.0			350.0	0.0	0.0							6.0	0.0	0.5320210424033576	6.0	450.0	2.0	7.0	2.0	5.0	0.0	part_2
196	1.0	6.0			350.0	0.0	0.0							5.0	0.0	0.5436496864040237	5.0	450.0	2.0	7.0	2.0	5.0	0.0	part_2
197	3.0	6.0			350.0	0.0	1.0							5.0	0.0	0.4775119833229837	5.0	450.0	4.0	1.0	8.0	1.0	1.0	part_2
198	1.0	6.0			300.0	0.0	0.0							6.0	0.0	0.47912675024235796	6.0	450.0	2.0	7.0	2.0	5.0	0.0	part_2
199	1.0	6.0			300.0	0.0	0.0							5.0	0.0	0.3561850095666159	5.0	450.0	2.0	7.0	2.0	5.0	0.0	part_2
200	1.0	6.0			300.0	0.0	0.0							6.0	0.0	0.5020300753221818	6.0	450.0	4.0	2.0	4.0	6.0	0.0	part_2
201	4.0	6.0			300.0	0.0	1.0							5.0	0.0	0.0	0.0	450.0	1.0	3.0	5.0	7.0	1.0	part_2
202	1.0	6.0			350.0	0.0	0.0							5.0	0.0	0.5656875804033916	5.0	450.0	3.0	5.0	3.0	4.0	0.0	part_2
203	4.0	6.0			350.0	0.0	1.0							6.0	0.0	0.0	0.0	450.0	1.0	3.0	5.0	7.0	1.0	part_2
204	1.0	6.0			350.0	0.0	0.0							5.0	0.0	0.48831074864938273	5.0	500.0	2.0	7.0	2.0	5.0	0.0	part_2
205	1.0	6.0			350.0	0.0	0.0							6.0	0.0	0.5019613778367784	6.0	500.0	2.0	7.0	2.0	5.0	0.0	part_2
206	4.0	6.0			350.0	0.0	1.0							5.0	0.0	0.0	0.0	500.0	4.0	1.0	8.0	1.0	1.0	part_2
207	4.0	6.0			400.0	0.0	1.0							5.0	0.0	0.0	0.0	500.0	1.0	3.0	5.0	7.0	1.0	part_2
208	1.0	6.0			450.0	0.0	1.0							5.0	0.0	0.5144200833219656	5.0	500.0	3.0	8.0	7.0	3.0	0.0	part_2
209	3.0	6.0			450.0	0.0	1.0							5.0	0.0	0.6287529255660047	5.0	500.0	4.0	1.0	8.0	1.0	1.0	part_2
210	4.0	6.0			400.0	0.0	1.0							6.0	0.0	0.0	0.0	500.0	3.0	8.0	7.0	3.0	1.0	part_2
211	1.0	6.0			400.0	0.0	0.0							6.0	0.0	0.35934038756568043	6.0	550.0	3.0	5.0	3.0	4.0	0.0	part_2
212	1.0	6.0			400.0	0.0	0.0							5.0	0.0	0.6188273241623392	5.0	550.0	2.0	7.0	2.0	5.0	0.0	part_2
213	1.0	6.0			400.0	0.0	0.0							5.0	0.0	0.5751799972422305	5.0	550.0	2.0	7.0	2.0	5.0	0.0	part_2
214	1.0	6.0			400.0	0.0	1.0							6.0	0.0	0.45230452424402756	6.0	550.0	1.0	3.0	5.0	7.0	0.0	part_2
215	1.0	6.0			400.0	0.0	0.0							5.0	0.0	0.4534094030805136	5.0	550.0	4.0	2.0	4.0	6.0	0.0	part_2
216	3.0	7.0			400.0	0.0	1.0							6.0	0.0	0.4688847993238596	6.0	550.0	3.0	8.0	7.0	3.0	1.0	part_2
217	3.0	7.0			400.0	0.0	1.0							6.0	0.0	0.5589540981618484	6.0	500.0	1.0	3.0	5.0	7.0	1.0	part_2
218	1.0	7.0			400.0	0.0	0.0							5.0	0.0	0.694163069321803	5.0	450.0	3.0	5.0	3.0	4.0	0.0	part_2
219	1.0	7.0			400.0	0.0	0.0							5.0	0.0	0.5823527710817871	5.0	450.0	4.0	2.0	4.0	6.0	0.0	part_2
220	1.0	7.0			400.0	0.0	1.0							5.0	0.0	0.6064669685656554	5.0	450.0	2.0	4.0	6.0	8.0	0.0	part_2
221	3.0	7.0			400.0	0.0	1.0							5.0	0.0	0.5183323493238277	5.0	450.0	2.0	4.0	6.0	8.0	1.0	part_2
222	1.0	7.0			350.0	0.0	0.0							6.0	0.0	0.5736855780014594	6.0	450.0	2.0	7.0	2.0	5.0	0.0	part_2
223	1.0	7.0			350.0	0.0	0.0							5.0	0.0	0.6087079913231719	5.0	450.0	1.0	6.0	1.0	2.0	0.0	part_2
224	4.0	7.0			350.0	0.0	1.0							6.0	0.0	0.0	0.0	450.0	3.0	8.0	7.0	3.0	1.0	part_2
225	1.0	7.0			350.0	0.0	0.0							5.0	0.0	0.6000519991630426	5.0	500.0	2.0	7.0	2.0	5.0	0.0	part_2
226	1.0	7.0			350.0	0.0	0.0							5.0	0.0	0.655684669243783	5.0	500.0	4.0	2.0	4.0	6.0	0.0	part_2
227	1.0	7.0			350.0	0.0	0.0							6.0	0.0	0.6246196444863017	6.0	500.0	3.0	5.0	3.0	4.0	0.0	part_2
228	1.0	7.0			350.0	0.0	0.0							6.0	0.0	0.5906279634855309	6.0	500.0	1.0	6.0	1.0	2.0	0.0	part_2
229	1.0	7.0			350.0	0.0	0.0							6.0	0.0	0.5014740019178134	6.0	500.0	2.0	7.0	2.0	5.0	0.0	part_2
230	1.0	7.0			350.0	0.0	0.0							6.0	0.0	0.5820817909989273	6.0	500.0	3.0	5.0	3.0	4.0	0.0	part_2
231	3.0	7.0			350.0	0.0	1.0							6.0	0.0	0.4480716981615842	6.0	500.0	4.0	1.0	8.0	1.0	1.0	part_2
232	1.0	7.0			350.0	0.0	0.0							6.0	0.0	0.6163184784054465	6.0	450.0	4.0	2.0	4.0	6.0	0.0	part_2
233	4.0	7.0			350.0	0.0	1.0							5.0	0.0	0.0	0.0	450.0	2.0	4.0	6.0	8.0	1.0	part_2
234	1.0	7.0			400.0	0.0	0.0							5.0	0.0	0.5611335953235539	5.0	450.0	4.0	2.0	4.0	6.0	0.0	part_2
235	4.0	7.0			400.0	0.0	1.0							5.0	0.0	0.0	0.0	450.0	2.0	4.0	6.0	8.0	1.0	part_2
236	1.0	7.0			450.0	0.0	0.0							5.0	0.0	0.48529397508173133	5.0	450.0	1.0	6.0	1.0	2.0	0.0	part_2
237	1.0	7.0			450.0	0.0	0.0							6.0	0.0	0.5080402934054291	6.0	450.0	3.0	5.0	3.0	4.0	0.0	part_2
238	1.0	7.0			450.0	0.0	1.0							6.0	0.0	0.373388273485034	6.0	450.0	3.0	8.0	7.0	3.0	0.0	part_2
239	1.0	7.0			450.0	0.0	0.0							6.0	0.0	0.5655056420819164	6.0	450.0	3.0	5.0	3.0	4.0	0.0	part_2
240	4.0	7.0			450.0	0.0	1.0							6.0	0.0	0.0	0.0	450.0	2.0	4.0	6.0	8.0	1.0	part_2
241	1.0	7.0			450.0	0.0	1.0							6.0	0.0	0.6567447724846716	6.0	500.0	4.0	1.0	8.0	1.0	0.0	part_2
242	1.0	7.0			450.0	0.0	0.0							6.0	0.0	0.4116078106490022	6.0	500.0	4.0	2.0	4.0	6.0	0.0	part_2
243	1.0	7.0			450.0	0.0	0.0							5.0	0.0	0.44673318724380806	5.0	500.0	1.0	6.0	1.0	2.0	0.0	part_2
244	1.0	7.0			450.0	0.0	0.0							5.0	0.0	0.5469169421630795	5.0	500.0	2.0	7.0	2.0	5.0	0.0	part_2
245	1.0	7.0			450.0	0.0	0.0							5.0	0.0	0.6046336922427145	5.0	500.0	3.0	5.0	3.0	4.0	0.0	part_2
246	1.0	7.0			450.0	0.0	0.0							5.0	0.0	0.6495806170805736	5.0	500.0	2.0	7.0	2.0	5.0	0.0	part_2
247	1.0	7.0			450.0	0.0	0.0							6.0	0.0	0.5725196740004321	6.0	500.0	1.0	6.0	1.0	2.0	0.0	part_2
248	3.0	7.0			450.0	0.0	1.0							6.0	0.0	0.4597801361614984	6.0	500.0	3.0	8.0	7.0	3.0	1.0	part_2
249	1.0	7.0			450.0	0.0	1.0							6.0	0.0	0.6186375599190796	6.0	450.0	1.0	3.0	5.0	7.0	0.0	part_2
250	1.0	7.0			450.0	0.0	0.0							6.0	0.0	0.461712882242864	6.0	450.0	4.0	2.0	4.0	6.0	0.0	part_2
251	1.0	7.0			450.0	0.0	1.0							6.0	0.0	0.6087155110817548	6.0	450.0	2.0	4.0	6.0	8.0	0.0	part_2
252	1.0	8.0			450.0	0.0	0.0							6.0	0.0	1.0062054071622697	6.0	450.0	1.0	6.0	1.0	2.0	0.0	part_2
253	1.0	8.0			450.0	0.0	0.0							6.0	0.0	0.443091194565568	6.0	450.0	2.0	7.0	2.0	5.0	0.0	part_2
254	3.0	8.0			450.0	0.0	1.0							6.0	0.0	0.37728531032371393	6.0	450.0	3.0	8.0	7.0	3.0	1.0	part_2
255	1.0	8.0			450.0	0.0	0.0							5.0	0.0	0.4678163112439506	5.0	400.0	2.0	7.0	2.0	5.0	0.0	part_2
256	1.0	8.0			450.0	0.0	1.0							5.0	0.0	0.3910086094856524	5.0	400.0	4.0	1.0	8.0	1.0	0.0	part_2
257	1.0	8.0			450.0	0.0	0.0							6.0	0.0	0.6052698242438055	6.0	400.0	2.0	7.0	2.0	5.0	0.0	part_2
258	1.0	8.0			450.0	0.0	1.0							6.0	0.0	0.593987862323047	6.0	400.0	3.0	8.0	7.0	3.0	0.0	part_2
259	1.0	8.0			450.0	0.0	0.0							6.0	0.0	0.5938094582434132	6.0	400.0	3.0	5.0	3.0	4.0	0.0	part_2
260	3.0	8.0			450.0	0.0	1.0							5.0	0.0	0.4600297580818733	5.0	400.0	4.0	1.0	8.0	1.0	1.0	part_2
261	4.0	8.0			400.0	0.0	1.0							5.0	0.0	0.0	0.0	400.0	3.0	8.0	7.0	3.0	1.0	part_2
262	1.0	8.0			450.0	0.0	0.0							6.0	0.0	0.4179329279995727	6.0	400.0	2.0	7.0	2.0	5.0	0.0	part_2
263	1.0	8.0			450.0	0.0	0.0							6.0	0.0	0.45155764564697165	6.0	400.0	4.0	2.0	4.0	6.0	0.0	part_2
264	4.0	8.0			450.0	0.0	1.0							6.0	0.0	0.0	0.0	400.0	3.0	8.0	7.0	3.0	1.0	part_2
265	1.0	8.0			450.0	0.0	0.0							6.0	0.0	0.46440690364761394	6.0	450.0	3.0	5.0	3.0	4.0	0.0	part_2
266	3.0	8.0			450.0	0.0	1.0							5.0	0.0	0.47753950232254283	5.0	450.0	4.0	1.0	8.0	1.0	1.0	part_2
267	1.0	8.0			400.0	0.0	0.0							6.0	0.0	0.49003279524367827	6.0	450.0	1.0	6.0	1.0	2.0	0.0	part_2
268	4.0	8.0			400.0	0.0	1.0							6.0	0.0	0.0	0.0	450.0	4.0	1.0	8.0	1.0	1.0	part_2
269	1.0	8.0			400.0	0.0	0.0							5.0	0.0	0.4231282252439996	5.0	500.0	4.0	2.0	4.0	6.0	0.0	part_2
270	1.0	8.0			400.0	0.0	1.0							5.0	0.0	0.4682903814045858	5.0	500.0	3.0	8.0	7.0	3.0	0.0	part_2
271	1.0	8.0			400.0	0.0	0.0							5.0	0.0	0.6836187023236562	5.0	500.0	1.0	6.0	1.0	2.0	0.0	part_2
272	1.0	8.0			400.0	0.0	0.0							5.0	0.0	0.5503304213234514	5.0	500.0	1.0	6.0	1.0	2.0	0.0	part_2
273	3.0	8.0			400.0	0.0	1.0							6.0	0.0	0.4487511643237667	6.0	500.0	2.0	4.0	6.0	8.0	1.0	part_2
274	1.0	8.0			400.0	0.0	0.0							6.0	0.0	0.46126446832386137	6.0	450.0	3.0	5.0	3.0	4.0	0.0	part_2
275	3.0	8.0			400.0	0.0	1.0							5.0	0.0	0.5064893811613729	5.0	450.0	1.0	3.0	5.0	7.0	1.0	part_2
276	4.0	8.0			350.0	0.0	1.0							5.0	0.0	0.0	0.0	450.0	3.0	8.0	7.0	3.0	1.0	part_2
277	4.0	8.0			400.0	0.0	1.0							5.0	0.0	0.0	0.0	450.0	4.0	1.0	8.0	1.0	1.0	part_2
278	1.0	8.0			450.0	0.0	0.0							6.0	0.0	0.6097232011616143	6.0	450.0	4.0	2.0	4.0	6.0	0.0	part_2
279	4.0	8.0			450.0	0.0	1.0							5.0	0.0	0.0	0.0	450.0	3.0	8.0	7.0	3.0	1.0	part_2
280	4.0	8.0			500.0	0.0	1.0							6.0	0.0	0.0	0.0	450.0	2.0	4.0	6.0	8.0	1.0	part_2
281	1.0	8.0			500.0	0.0	0.0							6.0	0.0	0.2867932469180232	6.0	500.0	2.0	7.0	2.0	5.0	0.0	part_2
282	1.0	8.0			500.0	0.0	0.0							6.0	0.0	0.3550433524851542	6.0	500.0	4.0	2.0	4.0	6.0	0.0	part_2
283	1.0	8.0			500.0	0.0	0.0							6.0	0.0	0.3783471806473244	6.0	500.0	2.0	7.0	2.0	5.0	0.0	part_2
284	1.0	8.0			500.0	0.0	0.0							5.0	0.0	0.447929696243591	5.0	500.0	3.0	5.0	3.0	4.0	0.0	part_2
285	3.0	8.0			500.0	0.0	1.0							6.0	0.0	0.4362169834857923	6.0	500.0	2.0	4.0	6.0	8.0	1.0	part_2
286	3.0	8.0			500.0	0.0	1.0							5.0	0.0	0.3138847254049324	5.0	450.0	2.0	4.0	6.0	8.0	1.0	part_2
287	1.0	8.0			450.0	0.0	0.0							5.0	0.0	0.49478260983596556	5.0	450.0	3.0	5.0	3.0	4.0	0.0	part_2
0	0.0	1.0	102.0	3.0	0.0	1.0	1.0	68.0	204.0	170.0	102.0	34.0	136.0	7.0	0.0	2.1282481189991813	4.0	0.0	1.0	3.0	5.0	7.0	0.0	part_3
1	0.0	1.0	108.0	2.0	0.0	1.0	1.0	108.0	216.0	54.0	162.0	324.0	270.0	7.0	0.0	2.990130164740549	1.0	0.0	4.0	1.0	8.0	1.0	0.0	part_3
2	0.0	1.0	39.0	1.0	0.0	2.0	1.0	156.0	234.0	117.0	195.0	39.0	78.0	7.0	0.0	0.7040779042345093	5.0	0.0	3.0	8.0	7.0	3.0	0.0	part_3
3	0.0	1.0	204.0	6.0	0.0	1.0	0.0	136.0	170.0	102.0	34.0	68.0	204.0	7.0	0.0	1.8063999294809037	6.0	0.0	4.0	2.0	4.0	6.0	0.0	part_3
4	0.0	1.0	117.0	3.0	0.0	1.0	1.0	78.0	195.0	117.0	39.0	156.0	234.0	7.0	0.0	1.8076530094949703	3.0	0.0	1.0	3.0	5.0	7.0	0.0	part_3
5	0.0	1.0	156.0	4.0	0.0	1.0	0.0	78.0	234.0	39.0	117.0	156.0	195.0	7.0	0.0	1.9326749187403038	5.0	0.0	3.0	5.0	3.0	4.0	0.0	part_3
6	0.0	1.0	294.0	6.0	0.0	1.0	0.0	147.0	196.0	294.0	245.0	98.0	49.0	7.0	0.0	2.384625854987462	3.0	0.0	4.0	2.0	4.0	6.0	0.0	part_3
7	0.0	1.0	264.0	6.0	0.0	1.0	0.0	264.0	132.0	44.0	176.0	220.0	88.0	7.0	0.0	2.6669318677268166	1.0	0.0	4.0	2.0	4.0	6.0	0.0	part_3
8	0.0	1.0	68.0	2.0	0.0	1.0	0.0	204.0	136.0	102.0	170.0	34.0	68.0	7.0	0.0	2.47565067674077	6.0	0.0	3.0	5.0	3.0	4.0	0.0	part_3
9	0.0	1.0	136.0	4.0	0.0	1.0	0.0	204.0	170.0	102.0	34.0	136.0	68.0	7.0	0.0	2.7470338229868503	5.0	0.0	2.0	7.0	2.0	5.0	0.0	part_3
10	0.0	1.0	49.0	1.0	0.0	2.0	1.0	147.0	49.0	294.0	196.0	245.0	98.0	7.0	0.0	1.6427891004805133	2.0	0.0	1.0	3.0	5.0	7.0	0.0	part_3
11	0.0	1.0	117.0	3.0	0.0	1.0	0.0	195.0	156.0	234.0	78.0	39.0	117.0	7.0	0.0	1.5529770604935038	6.0	0.0	4.0	2.0	4.0	6.0	0.0	part_3
12	0.0	1.0	78.0	2.0	0.0	1.0	0.0	195.0	78.0	156.0	117.0	39.0	234.0	7.0	0.0	2.1051973417397676	2.0	0.0	3.0	5.0	3.0	4.0	0.0	part_3
13	0.0	1.0	170.0	5.0	0.0	1.0	0.0	102.0	68.0	34.0	170.0	136.0	204.0	7.0	0.0	1.4886565597407753	4.0	0.0	3.0	5.0	3.0	4.0	0.0	part_3
14	0.0	1.0	34.0	1.0	0.0	1.0	1.0	204.0	102.0	170.0	34.0	136.0	68.0	7.0	0.0	2.5127977827269206	4.0	0.0	2.0	4.0	6.0	8.0	0.0	part_3
15	0.0	1.0	324.0	6.0	0.0	1.0	0.0	108.0	162.0	216.0	324.0	54.0	270.0	7.0	0.0	2.4246760832356813	4.0	0.0	4.0	2.0	4.0	6.0	0.0	part_3
16	0.0	1.0	196.0	4.0	0.0	1.0	0.0	49.0	294.0	98.0	245.0	147.0	196.0	7.0	0.0	4.034282576740225	6.0	0.0	1.0	6.0	1.0	2.0	0.0	part_3
17	0.0	1.0	108.0	2.0	0.0	1.0	1.0	324.0	108.0	270.0	162.0	54.0	216.0	7.0	0.0	3.2648484722212743	2.0	0.0	4.0	1.0	8.0	1.0	0.0	part_3
18	0.0	1.0	234.0	6.0	0.0	1.0	0.0	156.0	78.0	195.0	39.0	234.0	117.0	7.0	0.0	3.592734512494644	5.0	0.0	2.0	7.0	2.0	5.0	0.0	part_3
19	0.0	1.0	88.0	2.0	0.0	1.0	1.0	88.0	264.0	220.0	132.0	176.0	44.0	7.0	0.0	1.9409682429868553	1.0	0.0	3.0	8.0	7.0	3.0	0.0	part_3
20	0.0	2.0	264.0	6.0	0.0	1.0	1.0	264.0	220.0	176.0	44.0	88.0	132.0	7.0	0.0	0.7479331979866402	1.0	0.0	4.0	1.0	8.0	1.0	0.0	part_3
21	0.0	2.0	195.0	5.0	0.0	1.0	0.0	156.0	39.0	117.0	78.0	195.0	234.0	7.0	0.0	0.5117205502465367	5.0	0.0	4.0	2.0	4.0	6.0	0.0	part_3
22	0.0	2.0	88.0	2.0	0.0	1.0	0.0	176.0	44.0	132.0	88.0	220.0	264.0	7.0	0.0	0.5122654207407322	4.0	0.0	2.0	7.0	2.0	5.0	0.0	part_3
23	0.0	2.0	132.0	3.0	0.0	1.0	0.0	220.0	132.0	264.0	88.0	44.0	176.0	7.0	0.0	0.2667814649739739	2.0	0.0	1.0	6.0	1.0	2.0	0.0	part_3
24	0.0	2.0	98.0	2.0	0.0	1.0	0.0	49.0	196.0	245.0	98.0	294.0	147.0	7.0	0.0	0.3793623287419905	4.0	0.0	2.0	7.0	2.0	5.0	0.0	part_3
25	0.0	2.0	78.0	2.0	0.0	1.0	0.0	234.0	156.0	39.0	117.0	195.0	78.0	7.0	0.0	0.8548368937281339	6.0	0.0	1.0	6.0	1.0	2.0	0.0	part_3
26	0.0	2.0	39.0	1.0	0.0	1.0	1.0	195.0	117.0	78.0	39.0	234.0	156.0	7.0	0.0	1.1034191982216726	4.0	0.0	4.0	1.0	8.0	1.0	0.0	part_3
27	0.0	2.0	102.0	3.0	0.0	1.0	0.0	68.0	102.0	204.0	170.0	136.0	34.0	7.0	0.0	1.205706105727586	2.0	0.0	4.0	2.0	4.0	6.0	0.0	part_3
28	0.0	2.0	196.0	4.0	0.0	1.0	0.0	49.0	147.0	196.0	294.0	98.0	245.0	7.0	0.0	0.6887848869864683	3.0	0.0	3.0	5.0	3.0	4.0	0.0	part_3
29	0.0	2.0	54.0	1.0	0.0	1.0	1.0	270.0	54.0	108.0	324.0	216.0	162.0	7.0	0.0	0.8585970570002246	2.0	0.0	2.0	4.0	6.0	8.0	0.0	part_3
30	0.0	2.0	98.0	2.0	0.0	1.0	0.0	49.0	196.0	147.0	294.0	245.0	98.0	7.0	0.0	0.6794811814943387	6.0	0.0	4.0	2.0	4.0	6.0	0.0	part_3
31	0.0	2.0	98.0	2.0	0.0	1.0	0.0	49.0	245.0	98.0	147.0	196.0	294.0	7.0	0.0	0.5000984739872365	3.0	0.0	3.0	5.0	3.0	4.0	0.0	part_3
32	0.0	2.0	102.0	3.0	0.0	1.0	1.0	204.0	34.0	68.0	170.0	102.0	136.0	7.0	0.0	0.5246683727400523	5.0	0.0	3.0	8.0	7.0	3.0	0.0	part_3
33	0.0	2.0	39.0	1.0	0.0	1.0	1.0	39.0	234.0	117.0	156.0	78.0	195.0	7.0	0.0	0.2318863967393554	1.0	0.0	4.0	1.0	8.0	1.0	0.0	part_3
34	0.0	2.0	108.0	2.0	0.0	1.0	0.0	270.0	324.0	54.0	108.0	216.0	162.0	7.0	0.0	0.7181035199864709	4.0	0.0	1.0	6.0	1.0	2.0	0.0	part_3
35	0.0	2.0	108.0	2.0	0.0	1.0	1.0	54.0	162.0	216.0	270.0	108.0	324.0	7.0	0.0	1.043552923740208	5.0	0.0	2.0	4.0	6.0	8.0	0.0	part_3
36	0.0	2.0	176.0	4.0	0.0	1.0	1.0	132.0	44.0	264.0	176.0	220.0	88.0	7.0	0.0	1.0228302597406582	4.0	0.0	1.0	3.0	5.0	7.0	0.0	part_3
37	0.0	2.0	39.0	1.0	0.0	1.0	1.0	117.0	195.0	156.0	78.0	39.0	234.0	7.0	0.0	0.42721160374094325	5.0	0.0	1.0	3.0	5.0	7.0	0.0	part_3
38	0.0	2.0	34.0	1.0	0.0	1.0	1.0	34.0	102.0	170.0	136.0	68.0	204.0	7.0	0.0	0.7899033194807998	1.0	0.0	4.0	1.0	8.0	1.0	0.0	part_3
39	0.0	2.0	49.0	1.0	0.0	1.0	1.0	294.0	98.0	245.0	147.0	49.0	196.0	7.0	0.0	0.31643325897493924	5.0	0.0	2.0	4.0	6.0	8.0	0.0	part_3
40	0.0	3.0	54.0	1.0	0.0	1.0	1.0	108.0	162.0	324.0	216.0	270.0	54.0	7.0	0.0	0.5935305224938929	6.0	0.0	3.0	8.0	7.0	3.0	0.0	part_3
41	0.0	3.0	176.0	4.0	0.0	1.0	1.0	44.0	176.0	220.0	88.0	132.0	264.0	7.0	0.0	0.258041681987379	2.0	0.0	2.0	4.0	6.0	8.0	0.0	part_3
42	0.0	3.0	54.0	1.0	0.0	1.0	1.0	270.0	216.0	162.0	54.0	324.0	108.0	7.0	0.0	0.877613657481561	4.0	0.0	1.0	3.0	5.0	7.0	0.0	part_3
43	0.0	3.0	216.0	4.0	0.0	1.0	0.0	162.0	216.0	324.0	108.0	270.0	54.0	7.0	0.0	0.46354428623453714	2.0	0.0	2.0	7.0	2.0	5.0	0.0	part_3
44	0.0	3.0	170.0	5.0	0.0	1.0	0.0	136.0	68.0	102.0	204.0	170.0	34.0	7.0	0.0	0.8570977764957206	5.0	0.0	2.0	7.0	2.0	5.0	0.0	part_3
45	0.0	3.0	162.0	3.0	0.0	1.0	0.0	162.0	216.0	54.0	270.0	324.0	108.0	7.0	0.0	0.6778978714937693	1.0	0.0	3.0	5.0	3.0	4.0	0.0	part_3
46	0.0	3.0	68.0	2.0	0.0	1.0	1.0	136.0	102.0	34.0	68.0	204.0	170.0	7.0	0.0	0.9487799429734878	4.0	0.0	2.0	4.0	6.0	8.0	0.0	part_3
47	0.0	3.0	245.0	5.0	0.0	1.0	1.0	98.0	147.0	294.0	245.0	196.0	49.0	7.0	0.0	1.107627383495128	4.0	0.0	4.0	1.0	8.0	1.0	0.0	part_3
48	0.0	3.0	220.0	5.0	0.0	1.0	1.0	132.0	44.0	88.0	264.0	176.0	220.0	7.0	0.0	0.33372610923652246	6.0	0.0	4.0	1.0	8.0	1.0	0.0	part_3
49	0.0	3.0	39.0	1.0	0.0	1.0	1.0	156.0	39.0	234.0	117.0	78.0	195.0	7.0	0.0	1.2221985222349758	2.0	0.0	2.0	4.0	6.0	8.0	0.0	part_3
50	0.0	3.0	88.0	2.0	0.0	1.0	0.0	176.0	220.0	44.0	88.0	132.0	264.0	7.0	0.0	0.706764777234639	4.0	0.0	1.0	6.0	1.0	2.0	0.0	part_3
51	0.0	3.0	98.0	2.0	0.0	1.0	1.0	196.0	98.0	49.0	147.0	245.0	294.0	7.0	0.0	0.6179900004808587	2.0	0.0	1.0	3.0	5.0	7.0	0.0	part_3
52	0.0	3.0	54.0	1.0	0.0	1.0	1.0	216.0	324.0	162.0	270.0	54.0	108.0	7.0	0.0	0.5846071732848941	5.0	0.0	3.0	8.0	7.0	3.0	0.0	part_3
53	0.0	3.0	264.0	6.0	0.0	1.0	0.0	132.0	176.0	44.0	264.0	88.0	220.0	7.0	0.0	0.30583821023537894	4.0	0.0	4.0	2.0	4.0	6.0	0.0	part_3
54	0.0	3.0	156.0	4.0	0.0	1.0	1.0	39.0	156.0	78.0	234.0	117.0	195.0	7.0	0.0	0.7456393539741839	2.0	0.0	3.0	8.0	7.0	3.0	0.0	part_3
55	0.0	3.0	44.0	1.0	0.0	1.0	1.0	88.0	132.0	44.0	176.0	220.0	264.0	7.0	0.0	0.6774002454949368	3.0	0.0	2.0	4.0	6.0	8.0	0.0	part_3
56	0.0	3.0	54.0	1.0	0.0	1.0	1.0	216.0	324.0	162.0	108.0	54.0	270.0	7.0	0.0	0.657382090235842	5.0	0.0	1.0	3.0	5.0	7.0	0.0	part_3
57	0.0	3.0	102.0	3.0	0.0	1.0	1.0	68.0	136.0	170.0	204.0	34.0	102.0	7.0	0.0	0.2764642304937297	6.0	0.0	3.0	8.0	7.0	3.0	0.0	part_3
58	0.0	3.0	196.0	4.0	0.0	1.0	1.0	49.0	196.0	294.0	98.0	147.0	245.0	7.0	0.0	0.6245885182452184	2.0	0.0	3.0	8.0	7.0	3.0	0.0	part_3
59	0.0	3.0	156.0	4.0	0.0	1.0	0.0	117.0	78.0	156.0	195.0	234.0	39.0	7.0	0.0	0.5597840957270819	3.0	0.0	1.0	6.0	1.0	2.0	0.0	part_3
60	0.0	4.0	34.0	1.0	0.0	1.0	0.0	204.0	68.0	170.0	136.0	102.0	34.0	7.0	0.0	0.7150556614815287	6.0	0.0	1.0	6.0	1.0	2.0	0.0	part_3
61	0.0	4.0	162.0	3.0	0.0	1.0	0.0	216.0	162.0	54.0	270.0	108.0	324.0	7.0	0.0	1.4358575047408522	2.0	0.0	4.0	2.0	4.0	6.0	0.0	part_3
62	0.0	4.0	88.0	2.0	0.0	1.0	1.0	44.0	264.0	220.0	132.0	88.0	176.0	7.0	0.0	0.8056105552459485	5.0	0.0	1.0	3.0	5.0	7.0	0.0	part_3
63	0.0	4.0	132.0	3.0	0.0	1.0	0.0	44.0	176.0	132.0	220.0	264.0	88.0	7.0	0.0	1.0107951427416992	3.0	0.0	3.0	5.0	3.0	4.0	0.0	part_3
64	0.0	4.0	162.0	3.0	0.0	1.0	0.0	54.0	108.0	270.0	324.0	216.0	162.0	7.0	0.0	0.8747940429857408	6.0	0.0	3.0	5.0	3.0	4.0	0.0	part_3
65	0.0	4.0	98.0	2.0	0.0	1.0	0.0	147.0	98.0	294.0	245.0	49.0	196.0	7.0	0.0	0.6067179277542891	2.0	0.0	2.0	7.0	2.0	5.0	0.0	part_3
66	0.0	4.0	156.0	4.0	0.0	1.0	1.0	234.0	78.0	117.0	39.0	156.0	195.0	7.0	0.0	0.6180853309742815	5.0	0.0	2.0	4.0	6.0	8.0	0.0	part_3
67	0.0	4.0	68.0	2.0	0.0	1.0	0.0	102.0	170.0	34.0	204.0	68.0	136.0	7.0	0.0	1.7111626824953419	5.0	0.0	1.0	6.0	1.0	2.0	0.0	part_3
68	0.0	4.0	44.0	1.0	0.0	1.0	1.0	88.0	220.0	44.0	264.0	132.0	176.0	7.0	0.0	0.8121596282471728	3.0	0.0	3.0	8.0	7.0	3.0	0.0	part_3
69	0.0	4.0	196.0	4.0	0.0	1.0	1.0	245.0	49.0	294.0	147.0	196.0	98.0	7.0	0.0	1.0504309049865697	5.0	0.0	2.0	4.0	6.0	8.0	0.0	part_3
70	0.0	4.0	196.0	4.0	0.0	1.0	1.0	98.0	245.0	49.0	196.0	147.0	294.0	7.0	0.0	0.9381395184809662	4.0	0.0	4.0	1.0	8.0	1.0	0.0	part_3
71	0.0	4.0	162.0	3.0	0.0	1.0	0.0	108.0	324.0	216.0	270.0	162.0	54.0	7.0	0.0	0.9848589632456424	5.0	0.0	2.0	7.0	2.0	5.0	0.0	part_3
72	0.0	4.0	196.0	4.0	0.0	1.0	0.0	98.0	294.0	196.0	147.0	245.0	49.0	7.0	0.0	0.9073938759738667	3.0	0.0	1.0	6.0	1.0	2.0	0.0	part_3
73	0.0	4.0	245.0	5.0	0.0	1.0	1.0	294.0	49.0	147.0	98.0	245.0	196.0	7.0	0.0	0.7947132687404519	5.0	0.0	3.0	8.0	7.0	3.0	0.0	part_3
74	0.0	4.0	170.0	5.0	0.0	1.0	1.0	204.0	68.0	102.0	170.0	136.0	34.0	7.0	0.0	1.1228730464936234	4.0	0.0	1.0	3.0	5.0	7.0	0.0	part_3
75	0.0	4.0	102.0	3.0	0.0	1.0	1.0	136.0	170.0	204.0	102.0	34.0	68.0	7.0	0.0	0.7426487089996954	4.0	0.0	4.0	1.0	8.0	1.0	0.0	part_3
76	0.0	4.0	132.0	3.0	0.0	1.0	0.0	220.0	132.0	44.0	176.0	88.0	264.0	7.0	0.0	0.7879478047416342	2.0	0.0	3.0	5.0	3.0	4.0	0.0	part_3
77	0.0	4.0	156.0	4.0	0.0	1.0	0.0	117.0	234.0	195.0	156.0	39.0	78.0	7.0	0.0	0.9347450579734868	4.0	0.0	2.0	7.0	2.0	5.0	0.0	part_3
78	0.0	4.0	162.0	3.0	0.0	1.0	0.0	324.0	216.0	54.0	270.0	108.0	162.0	7.0	0.0	1.0045347529739956	6.0	0.0	1.0	6.0	1.0	2.0	0.0	part_3
79	0.0	4.0	264.0	6.0	0.0	1.0	0.0	88.0	44.0	264.0	132.0	176.0	220.0	7.0	0.0	0.9028633089856157	3.0	0.0	2.0	7.0	2.0	5.0	0.0	part_3
