	accuracy	block	chosen_bidding_amount	chosen_bidding_level	left_SSD	num_trial_presentations	paired_with_stopping	possible_bid_1	possible_bid_2	possible_bid_3	possible_bid_4	possible_bid_5	possible_bid_6	quadrant	raw_reward_magnitude	reaction_time	response	right_SSD	stepwise_reward_magnitude	stim_color	stim_reward	stim_shape	stop_signal_trial_type	which_part
0		1.0				1.0	0.0							2.0	404.0	0.32695159841387067	2.0		4.0	5.0	4.0	3.0		part_1
1		1.0				1.0	1.0							4.0	0.0	0.32744722784264013	4.0		0.0	7.0	6.0	6.0		part_1
2		1.0				1.0	1.0							2.0	0.0	0.3157877434132388	2.0		0.0	3.0	7.0	1.0		part_1
3		1.0				1.0	1.0							2.0	109.0	0.30541430478479015	2.0		2.0	7.0	6.0	6.0		part_1
4		1.0				1.0	1.0							2.0	397.0	0.29469897094531916	2.0		4.0	1.0	8.0	4.0		part_1
5		1.0				1.0	0.0							4.0	422.0	0.28342572641849983	4.0		4.0	5.0	4.0	3.0		part_1
6		1.0				1.0	0.0							1.0	0.0	0.30878745378140593	1.0		0.0	4.0	2.0	7.0		part_1
7		1.0				1.0	0.0							1.0	193.0	0.3418161278386833	1.0		3.0	6.0	3.0	5.0		part_1
8		1.0				1.0	1.0							2.0	0.0	0.45462328189751133	2.0		0.0	8.0	5.0	2.0		part_1
9		1.0				1.0	0.0							3.0	383.0	0.3210314394746092	3.0		4.0	5.0	4.0	3.0		part_1
10		1.0				1.0	1.0							1.0	0.0	0.2767013189441059	1.0		0.0	1.0	8.0	4.0		part_1
11		1.0				1.0	0.0							4.0	103.0	0.28703053594654193	4.0		2.0	4.0	2.0	7.0		part_1
12		1.0				1.0	0.0							2.0	388.0	0.24252677036565728	2.0		4.0	5.0	4.0	3.0		part_1
13		1.0				1.0	1.0							2.0	47.0	0.26604223841422936	2.0		1.0	8.0	5.0	2.0		part_1
14		1.0				1.0	0.0							1.0	395.0	0.36797663884499343	1.0		4.0	5.0	4.0	3.0		part_1
15		1.0				1.0	0.0							1.0	209.0	0.32336603141447995	1.0		3.0	6.0	3.0	5.0		part_1
16		1.0				1.0	0.0							2.0	378.0	0.25715335678250995	2.0		4.0	5.0	4.0	3.0		part_1
17		1.0				1.0	0.0							3.0	78.0	0.5269717294140719	3.0		2.0	4.0	2.0	7.0		part_1
18		1.0				1.0	0.0							3.0	114.0	0.4721858364137006	3.0		2.0	4.0	2.0	7.0		part_1
19		1.0				1.0	0.0							2.0	181.0	0.2694649368932005	2.0		3.0	6.0	3.0	5.0		part_1
20		1.0				2.0	0.0							3.0	179.0	0.28223840842110803	3.0		3.0	6.0	3.0	5.0		part_1
21		1.0				1.0	1.0							1.0	72.0	0.34966938931756886	1.0		1.0	8.0	5.0	2.0		part_1
22		1.0				1.0	0.0							2.0	193.0	0.4628391509395442	2.0		3.0	6.0	3.0	5.0		part_1
23		1.0				1.0	0.0							1.0	84.0	0.6782048439417849	1.0		2.0	4.0	2.0	7.0		part_1
24		1.0				1.0	1.0							4.0	411.0	0.37402564631338464	4.0		4.0	1.0	8.0	4.0		part_1
25		1.0				1.0	0.0							1.0	0.0	0.32948952037259005	1.0		0.0	2.0	1.0	8.0		part_1
26		1.0				1.0	0.0							2.0	0.0	0.3430212129460415	2.0		0.0	2.0	1.0	8.0		part_1
27		1.0				1.0	0.0							1.0	407.0	0.32040320400119526	1.0		4.0	5.0	4.0	3.0		part_1
28		1.0				1.0	1.0							2.0	103.0	0.39920709989382885	2.0		2.0	7.0	6.0	6.0		part_1
29		1.0				1.0	1.0							1.0	195.0	0.3445206737887929	1.0		3.0	3.0	7.0	1.0		part_1
30		1.0				1.0	0.0							2.0	96.0	0.3440548789440072	2.0		2.0	4.0	2.0	7.0		part_1
31		1.0				1.0	1.0							1.0	101.0	0.3548533483117353	1.0		2.0	7.0	6.0	6.0		part_1
32		1.0				1.0	1.0							3.0	50.0	0.44587432589469245	3.0		1.0	8.0	5.0	2.0		part_1
33		1.0				1.0	0.0							3.0	0.0	0.38000654789357213	3.0		0.0	5.0	4.0	3.0		part_1
34		1.0				1.0	1.0							2.0	187.0	0.35746816041501006	2.0		3.0	3.0	7.0	1.0		part_1
35		1.0				1.0	0.0							3.0	410.0	0.33539683594426606	3.0		4.0	5.0	4.0	3.0		part_1
36		1.0				1.0	1.0							2.0	190.0	0.3590685089438921	2.0		3.0	3.0	7.0	1.0		part_1
37		1.0				1.0	1.0							2.0	212.0	0.3474047184208757	2.0		3.0	3.0	7.0	1.0		part_1
38		1.0				1.0	1.0							3.0	417.0	0.33784647841821425	3.0		4.0	1.0	8.0	4.0		part_1
39		1.0				1.0	1.0							2.0	107.0	0.41735111389425583	2.0		2.0	7.0	6.0	6.0		part_1
40		1.0				1.0	0.0							2.0	42.0	0.49647578094300115	2.0		1.0	2.0	1.0	8.0		part_1
41		1.0				1.0	1.0							1.0	0.0	0.3499242538382532	1.0		0.0	7.0	6.0	6.0		part_1
42		1.0				1.0	0.0							2.0	56.0	0.4643706388960709	2.0		1.0	2.0	1.0	8.0		part_1
43		1.0				1.0	0.0							3.0	216.0	0.31699035831115907	3.0		3.0	6.0	3.0	5.0		part_1
44		1.0				1.0	1.0							3.0	212.0	0.3287846998355235	3.0		3.0	3.0	7.0	1.0		part_1
45		1.0				1.0	1.0							4.0	113.0	0.39604603594489163	4.0		2.0	7.0	6.0	6.0		part_1
46		1.0				1.0	0.0							4.0	0.0	0.41955521347699687	4.0		0.0	5.0	4.0	3.0		part_1
47		1.0				1.0	1.0							2.0	179.0	0.39946045984106604	2.0		3.0	3.0	7.0	1.0		part_1
48		1.0				1.0	0.0							4.0	56.0	0.27394874341553077	4.0		1.0	2.0	1.0	8.0		part_1
49		1.0				1.0	0.0							3.0	194.0	0.46685606794198975	3.0		3.0	6.0	3.0	5.0		part_1
50		1.0				1.0	1.0							4.0	412.0	0.3106334379481268	4.0		4.0	1.0	8.0	4.0		part_1
51		1.0				1.0	0.0							2.0	219.0	0.3002857794708689	2.0		3.0	6.0	3.0	5.0		part_1
52		1.0				1.0	0.0							1.0	400.0	0.36790514025778975	1.0		4.0	5.0	4.0	3.0		part_1
53		1.0				1.0	0.0							4.0	408.0	0.35723818141559605	4.0		4.0	5.0	4.0	3.0		part_1
54		1.0				1.0	1.0							3.0	44.0	0.4806831578389392	3.0		1.0	8.0	5.0	2.0		part_1
55		1.0				1.0	0.0							2.0	0.0	0.3573575244154199	2.0		0.0	6.0	3.0	5.0		part_1
56		1.0				1.0	0.0							2.0	392.0	0.335687918945041	2.0		4.0	5.0	4.0	3.0		part_1
57		1.0				1.0	1.0							2.0	388.0	0.3476150054775644	2.0		4.0	1.0	8.0	4.0		part_1
58		1.0				1.0	0.0							4.0	178.0	0.41620707984111505	4.0		3.0	6.0	3.0	5.0		part_1
59		1.0				1.0	0.0							1.0	223.0	0.32564019136771094	1.0		3.0	6.0	3.0	5.0		part_1
60		1.0				1.0	0.0							4.0	217.0	0.3600655804184498	4.0		3.0	6.0	3.0	5.0		part_1
61		1.0				1.0	1.0							4.0	415.0	0.32655950637126807	4.0		4.0	1.0	8.0	4.0		part_1
62		1.0				1.0	0.0							4.0	206.0	0.3267315013654297	4.0		3.0	6.0	3.0	5.0		part_1
63		1.0				1.0	1.0							3.0	0.0	0.2943492128906655	3.0		0.0	3.0	7.0	1.0		part_1
64		1.0				1.0	1.0							1.0	179.0	0.2945517917833058	1.0		3.0	3.0	7.0	1.0		part_1
65		1.0				1.0	0.0							2.0	0.0	0.36384591884416295	2.0		0.0	4.0	2.0	7.0		part_1
66		1.0				1.0	1.0							4.0	0.0	0.45418682994204573	4.0		0.0	8.0	5.0	2.0		part_1
67		1.0				1.0	1.0							4.0	393.0	0.3969058614675305	4.0		4.0	1.0	8.0	4.0		part_1
68		1.0				1.0	0.0							1.0	110.0	0.3768487228444428	1.0		2.0	4.0	2.0	7.0		part_1
69		1.0				1.0	1.0							2.0	198.0	0.4103217024166952	2.0		3.0	3.0	7.0	1.0		part_1
70		1.0				1.0	1.0							4.0	92.0	0.32193161484610755	4.0		2.0	7.0	6.0	6.0		part_1
71		1.0				1.0	0.0							1.0	212.0	0.36691533125849674	1.0		3.0	6.0	3.0	5.0		part_1
72		1.0				1.0	1.0							3.0	191.0	0.32130253637296846	3.0		3.0	3.0	7.0	1.0		part_1
73		1.0				1.0	1.0							1.0	181.0	0.31092471484589623	1.0		3.0	3.0	7.0	1.0		part_1
74		1.0				1.0	1.0							1.0	84.0	0.31183308889740147	1.0		2.0	7.0	6.0	6.0		part_1
75		1.0				1.0	0.0							2.0	409.0	0.3359463443121058	2.0		4.0	5.0	4.0	3.0		part_1
76		1.0				1.0	1.0							3.0	42.0	0.3229287767826463	3.0		1.0	8.0	5.0	2.0		part_1
77		1.0				1.0	1.0							3.0	417.0	0.48122233331378084	3.0		4.0	1.0	8.0	4.0		part_1
78		1.0				1.0	1.0							3.0	405.0	0.3357446628433536	3.0		4.0	1.0	8.0	4.0		part_1
79		1.0				1.0	1.0							1.0	79.0	0.3023154689435614	1.0		2.0	7.0	6.0	6.0		part_1
80		1.0				1.0	0.0							3.0	103.0	0.38197790941921994	3.0		2.0	4.0	2.0	7.0		part_1
81		1.0				1.0	0.0							2.0	44.0	0.3722803618948092	2.0		1.0	2.0	1.0	8.0		part_1
82		1.0				1.0	1.0							4.0	0.0	0.42752891036798246	4.0		0.0	1.0	8.0	4.0		part_1
83		1.0				1.0	1.0							1.0	410.0	0.3050921069443575	1.0		4.0	1.0	8.0	4.0		part_1
84		1.0				1.0	0.0							2.0	72.0	0.4077970224170713	2.0		1.0	2.0	1.0	8.0		part_1
85		1.0				1.0	1.0							4.0	206.0	0.4080262894713087	4.0		3.0	3.0	7.0	1.0		part_1
86		1.0				1.0	0.0							2.0	93.0	0.4209188494205591	2.0		2.0	4.0	2.0	7.0		part_1
87		1.0				1.0	0.0							1.0	107.0	0.35270974179002224	1.0		2.0	4.0	2.0	7.0		part_1
88		1.0				1.0	0.0							1.0	412.0	0.4092112363068736	1.0		4.0	5.0	4.0	3.0		part_1
89		1.0				1.0	1.0							3.0	114.0	0.35260596330772387	3.0		2.0	7.0	6.0	6.0		part_1
90		1.0				1.0	0.0							3.0	176.0	0.3659012638963759	3.0		3.0	6.0	3.0	5.0		part_1
91		1.0				1.0	1.0							3.0	80.0	0.3986926444704295	3.0		2.0	7.0	6.0	6.0		part_1
92		1.0				1.0	0.0							4.0	393.0	0.33306191695010057	4.0		4.0	5.0	4.0	3.0		part_1
93		1.0				1.0	1.0							1.0	125.0	0.2773362319494481	1.0		2.0	7.0	6.0	6.0		part_1
94		1.0				1.0	1.0							1.0	395.0	0.334673182311235	1.0		4.0	1.0	8.0	4.0		part_1
95		1.0				1.0	0.0							4.0	417.0	0.33366349094285397	4.0		4.0	5.0	4.0	3.0		part_1
96		1.0				1.0	1.0							1.0	0.0	0.36825550036883214	1.0		0.0	7.0	6.0	6.0		part_1
97		1.0				1.0	1.0							2.0	0.0	0.5164555309456773	2.0		0.0	1.0	8.0	4.0		part_1
98		1.0				1.0	1.0							4.0	400.0	0.40482231547503034	4.0		4.0	1.0	8.0	4.0		part_1
99		1.0				1.0	1.0							3.0	422.0	0.4487128248947556	3.0		4.0	1.0	8.0	4.0		part_1
100		2.0				1.0	0.0							2.0	79.0	0.4777402938925661	2.0		2.0	4.0	2.0	7.0		part_1
101		2.0				1.0	1.0							4.0	27.0	0.3328656039448106	4.0		1.0	8.0	5.0	2.0		part_1
102		2.0				1.0	1.0							2.0	26.0	0.40176836137106875	2.0		1.0	8.0	5.0	2.0		part_1
103		2.0				1.0	1.0							2.0	78.0	0.368610618308594	2.0		2.0	7.0	6.0	6.0		part_1
104		2.0				1.0	0.0							3.0	64.0	0.3101874764179229	3.0		1.0	2.0	1.0	8.0		part_1
105		2.0				1.0	0.0							3.0	0.0	0.37933789731323486	3.0		0.0	5.0	4.0	3.0		part_1
106		2.0				1.0	1.0							2.0	183.0	0.346190684416797	2.0		3.0	3.0	7.0	1.0		part_1
107		2.0				1.0	1.0							1.0	52.0	0.42652487447776366	1.0		1.0	8.0	5.0	2.0		part_1
108		2.0				1.0	0.0							2.0	0.0	0.33586497446958674	2.0		0.0	6.0	3.0	5.0		part_1
109		2.0				1.0	1.0							3.0	176.0	0.3133318538457388	3.0		3.0	3.0	7.0	1.0		part_1
110		2.0				1.0	0.0							3.0	43.0	0.38271592083765427	3.0		1.0	2.0	1.0	8.0		part_1
111		2.0				1.0	1.0							2.0	392.0	0.33893787731358316	2.0		4.0	1.0	8.0	4.0		part_1
112		2.0				1.0	0.0							3.0	88.0	0.37252993047150085	3.0		2.0	4.0	2.0	7.0		part_1
113		2.0				1.0	0.0							3.0	87.0	0.3500288634750177	3.0		2.0	4.0	2.0	7.0		part_1
114		2.0				1.0	1.0							3.0	193.0	0.315894999417651	3.0		3.0	3.0	7.0	1.0		part_1
115		2.0				1.0	1.0							2.0	0.0	0.29436292741593206	2.0		0.0	1.0	8.0	4.0		part_1
116		2.0				1.0	0.0							3.0	0.0	0.29534256589977304	3.0		0.0	5.0	4.0	3.0		part_1
117		2.0				1.0	0.0							2.0	216.0	0.2729136893103714	2.0		3.0	6.0	3.0	5.0		part_1
118		2.0				1.0	1.0							4.0	0.0	0.34152070641721366	4.0		0.0	8.0	5.0	2.0		part_1
119		2.0				1.0	0.0							1.0	77.0	0.40981866689253366	1.0		2.0	4.0	2.0	7.0		part_1
120		2.0				1.0	0.0							2.0	0.0	0.44374131046788534	2.0		0.0	5.0	4.0	3.0		part_1
121		2.0				1.0	0.0							1.0	0.0	0.3425824907826609	1.0		0.0	2.0	1.0	8.0		part_1
122		2.0				1.0	0.0							1.0	401.0	0.33182984431186924	1.0		4.0	5.0	4.0	3.0		part_1
123		2.0				1.0	0.0							1.0	32.0	0.33467005247075576	1.0		1.0	2.0	1.0	8.0		part_1
124		2.0				1.0	1.0							4.0	108.0	0.43593214041902684	4.0		2.0	7.0	6.0	6.0		part_1
125		2.0				1.0	0.0							3.0	74.0	0.4240940654708538	3.0		1.0	2.0	1.0	8.0		part_1
126		2.0				1.0	1.0							4.0	412.0	0.37869104894343764	4.0		4.0	1.0	8.0	4.0		part_1
127		2.0				1.0	1.0							2.0	386.0	0.3574661003658548	2.0		4.0	1.0	8.0	4.0		part_1
128		2.0				1.0	0.0							3.0	68.0	0.39186391731345793	3.0		1.0	2.0	1.0	8.0		part_1
129		2.0				1.0	0.0							3.0	195.0	0.34856242247042246	3.0		3.0	6.0	3.0	5.0		part_1
130		2.0				1.0	1.0							2.0	214.0	0.5746451974773663	2.0		3.0	3.0	7.0	1.0		part_1
131		2.0				1.0	0.0							4.0	208.0	0.3372113499426632	4.0		3.0	6.0	3.0	5.0		part_1
132		2.0				1.0	0.0							3.0	0.0	0.33778131484723417	3.0		0.0	2.0	1.0	8.0		part_1
133		2.0				1.0	0.0							2.0	191.0	0.36175280941824894	2.0		3.0	6.0	3.0	5.0		part_1
134		2.0				1.0	1.0							1.0	0.0	0.3287421338391141	1.0		0.0	3.0	7.0	1.0		part_1
135		2.0				1.0	0.0							3.0	386.0	0.36235613484313944	3.0		4.0	5.0	4.0	3.0		part_1
136		2.0				1.0	0.0							4.0	0.0	0.4967234078940237	4.0		0.0	2.0	1.0	8.0		part_1
137		2.0				1.0	0.0							2.0	0.0	0.4528716603672365	2.0		0.0	4.0	2.0	7.0		part_1
138		2.0				1.0	1.0							1.0	0.0	0.3198537925054552	1.0		0.0	7.0	6.0	6.0		part_1
139		2.0				1.0	1.0							1.0	0.0	0.3195613684147247	1.0		0.0	3.0	7.0	1.0		part_1
140		2.0				1.0	0.0							1.0	191.0	0.4095976828393759	1.0		3.0	6.0	3.0	5.0		part_1
141		2.0				1.0	0.0							2.0	35.0	0.3200938832524116	2.0		1.0	2.0	1.0	8.0		part_1
142		2.0				1.0	1.0							4.0	194.0	0.3662758523132652	4.0		3.0	3.0	7.0	1.0		part_1
143		2.0				1.0	1.0							2.0	87.0	0.4121829747891752	2.0		2.0	7.0	6.0	6.0		part_1
144		2.0				1.0	0.0							2.0	102.0	0.4004736258430057	2.0		2.0	4.0	2.0	7.0		part_1
145		2.0				1.0	1.0							1.0	401.0	0.37826586836308707	1.0		4.0	1.0	8.0	4.0		part_1
146		2.0				1.0	1.0							1.0	378.0	0.39142068278306397	1.0		4.0	1.0	8.0	4.0		part_1
147		2.0				1.0	1.0							4.0	82.0	0.5029079143132549	4.0		2.0	7.0	6.0	6.0		part_1
148		2.0				1.0	0.0							2.0	388.0	0.3473906289509614	2.0		4.0	5.0	4.0	3.0		part_1
149		2.0				1.0	1.0							2.0	392.0	0.3600631374210934	2.0		4.0	1.0	8.0	4.0		part_1
150		2.0				1.0	1.0							4.0	223.0	0.34762271036743186	4.0		3.0	3.0	7.0	1.0		part_1
151		2.0				1.0	0.0							3.0	0.0	0.43893776789627736	3.0		0.0	5.0	4.0	3.0		part_1
152		2.0				1.0	1.0							1.0	113.0	0.4631929934184882	1.0		2.0	7.0	6.0	6.0		part_1
153		2.0				1.0	1.0							2.0	409.0	0.2831942998964223	2.0		4.0	1.0	8.0	4.0		part_1
154		2.0				1.0	1.0							4.0	378.0	0.6867053057867452	4.0		4.0	1.0	8.0	4.0		part_1
155		2.0				1.0	1.0							1.0	38.0	0.37468515046930406	1.0		1.0	8.0	5.0	2.0		part_1
156		2.0				1.0	1.0							4.0	85.0	0.29464579389605206	4.0		2.0	7.0	6.0	6.0		part_1
157		2.0				1.0	1.0							3.0	183.0	0.37359015046968125	3.0		3.0	3.0	7.0	1.0		part_1
158		2.0				1.0	0.0							2.0	108.0	0.364638065417239	2.0		2.0	4.0	2.0	7.0		part_1
159		2.0				1.0	0.0							4.0	106.0	0.32934105141612235	4.0		2.0	4.0	2.0	7.0		part_1
160		2.0				1.0	0.0							4.0	187.0	0.3419930528398254	4.0		3.0	6.0	3.0	5.0		part_1
161		2.0				1.0	1.0							4.0	56.0	0.30861311400076374	4.0		1.0	8.0	5.0	2.0		part_1
162		2.0				1.0	0.0							4.0	0.0	0.3428978594165528	4.0		0.0	6.0	3.0	5.0		part_1
163		2.0				1.0	1.0							2.0	383.0	0.4217473474200233	2.0		4.0	1.0	8.0	4.0		part_1
164		2.0				1.0	1.0							3.0	125.0	0.31063970889226766	3.0		2.0	7.0	6.0	6.0		part_1
165		2.0				1.0	1.0							1.0	208.0	0.27847198436938925	1.0		3.0	3.0	7.0	1.0		part_1
166		2.0				1.0	1.0							2.0	37.0	0.4464474768974469	2.0		1.0	8.0	5.0	2.0		part_1
167		2.0				1.0	0.0							3.0	69.0	0.43615695294283796	3.0		1.0	2.0	1.0	8.0		part_1
168		2.0				1.0	1.0							4.0	38.0	0.39250034594442695	4.0		1.0	8.0	5.0	2.0		part_1
169		2.0				1.0	1.0							2.0	0.0	0.382306721941859	2.0		0.0	7.0	6.0	6.0		part_1
170		2.0				1.0	0.0							2.0	50.0	0.4495675752623356	2.0		1.0	2.0	1.0	8.0		part_1
171		2.0				1.0	1.0							3.0	191.0	0.4143561294695246	3.0		3.0	3.0	7.0	1.0		part_1
172		2.0				1.0	1.0							4.0	0.0	0.4041574364673579	4.0		0.0	1.0	8.0	4.0		part_1
173		2.0				1.0	1.0							2.0	407.0	0.2828062559419777	2.0		4.0	1.0	8.0	4.0		part_1
174		2.0				1.0	0.0							4.0	85.0	0.39388986399717396	4.0		2.0	4.0	2.0	7.0		part_1
175		2.0				1.0	1.0							1.0	0.0	0.3280977364775026	1.0		0.0	1.0	8.0	4.0		part_1
176		2.0				1.0	1.0							4.0	178.0	0.35109280690085143	4.0		3.0	3.0	7.0	1.0		part_1
177		2.0				1.0	1.0							3.0	0.0	0.37510137131175725	3.0		0.0	7.0	6.0	6.0		part_1
178		2.0				1.0	0.0							3.0	114.0	0.37444160247105174	3.0		2.0	4.0	2.0	7.0		part_1
179		2.0				1.0	1.0							3.0	393.0	0.3183517393699731	3.0		4.0	1.0	8.0	4.0		part_1
180		2.0				1.0	0.0							1.0	52.0	0.2975103859498631	1.0		1.0	2.0	1.0	8.0		part_1
181		2.0				1.0	0.0							2.0	190.0	0.6467158023733646	2.0		3.0	6.0	3.0	5.0		part_1
182		2.0				1.0	1.0							2.0	32.0	0.34322592389798956	2.0		1.0	8.0	5.0	2.0		part_1
183		2.0				1.0	1.0							3.0	69.0	0.3323069664184004	3.0		1.0	8.0	5.0	2.0		part_1
184		2.0				1.0	1.0							1.0	215.0	0.32222054647718323	1.0		3.0	3.0	7.0	1.0		part_1
185		2.0				1.0	1.0							3.0	121.0	0.44674480989488075	3.0		2.0	7.0	6.0	6.0		part_1
186		2.0				1.0	0.0							3.0	0.0	0.40098279394442216	3.0		0.0	6.0	3.0	5.0		part_1
187		2.0				1.0	1.0							3.0	420.0	0.40074561189248925	3.0		4.0	1.0	8.0	4.0		part_1
188		2.0				1.0	1.0							4.0	0.0	0.40267859536834294	4.0		0.0	3.0	7.0	1.0		part_1
189		2.0				1.0	1.0							2.0	74.0	0.3241911979421275	2.0		1.0	8.0	5.0	2.0		part_1
190		2.0				1.0	0.0							2.0	115.0	0.5491571089951321	2.0		2.0	4.0	2.0	7.0		part_1
191		2.0				1.0	1.0							1.0	209.0	0.44868257194320904	1.0		3.0	3.0	7.0	1.0		part_1
192		2.0				1.0	1.0							3.0	399.0	0.30296939189429395	3.0		4.0	1.0	8.0	4.0		part_1
193		2.0				1.0	1.0							4.0	186.0	0.36106679831573274	4.0		3.0	3.0	7.0	1.0		part_1
194		2.0				1.0	1.0							1.0	88.0	0.3269663978353492	1.0		2.0	7.0	6.0	6.0		part_1
195		2.0				1.0	0.0							2.0	0.0	0.46365824494569097	2.0		0.0	4.0	2.0	7.0		part_1
196		2.0				1.0	1.0							2.0	89.0	0.4082045818940969	2.0		2.0	7.0	6.0	6.0		part_1
197		2.0				1.0	0.0							3.0	34.0	0.4072326182576944	3.0		1.0	2.0	1.0	8.0		part_1
198		2.0				1.0	0.0							1.0	0.0	0.45219960578833707	1.0		0.0	4.0	2.0	7.0		part_1
199		2.0				1.0	0.0							4.0	125.0	0.3529885649404605	4.0		2.0	4.0	2.0	7.0		part_1
200		3.0				1.0	0.0							3.0	121.0	0.3231669734668685	3.0		2.0	4.0	2.0	7.0		part_1
201		3.0				1.0	0.0							2.0	417.0	0.32427693031786475	2.0		4.0	5.0	4.0	3.0		part_1
202		3.0				1.0	0.0							1.0	409.0	0.30277423184452346	1.0		4.0	5.0	4.0	3.0		part_1
203		3.0				1.0	0.0							4.0	82.0	0.267243982416403	4.0		2.0	4.0	2.0	7.0		part_1
204		3.0				1.0	0.0							1.0	45.0	0.38216083884617547	1.0		1.0	2.0	1.0	8.0		part_1
205		3.0				1.0	0.0							1.0	75.0	0.3139663309411844	1.0		1.0	2.0	1.0	8.0		part_1
206		3.0				1.0	1.0							4.0	79.0	0.28113518489408307	4.0		2.0	7.0	6.0	6.0		part_1
207		3.0				1.0	0.0							3.0	214.0	0.3050487529471866	3.0		3.0	6.0	3.0	5.0		part_1
208		3.0				1.0	1.0							3.0	85.0	0.40774894836795283	3.0		2.0	7.0	6.0	6.0		part_1
209		3.0				1.0	0.0							1.0	183.0	0.5528631823690375	1.0		3.0	6.0	3.0	5.0		part_1
210		3.0				1.0	1.0							1.0	404.0	0.4528796248996514	1.0		4.0	1.0	8.0	4.0		part_1
211		3.0				1.0	0.0							2.0	215.0	0.5322682693149545	2.0		3.0	6.0	3.0	5.0		part_1
212		3.0				1.0	1.0							4.0	212.0	0.3180386357853422	4.0		3.0	3.0	7.0	1.0		part_1
213		3.0				1.0	0.0							4.0	35.0	0.4539531498448923	4.0		1.0	2.0	1.0	8.0		part_1
214		3.0				1.0	0.0							1.0	113.0	0.2625760184673709	1.0		2.0	4.0	2.0	7.0		part_1
215		3.0				1.0	0.0							1.0	0.0	0.4214193609004724	1.0		0.0	4.0	2.0	7.0		part_1
216		3.0				1.0	0.0							4.0	401.0	0.511612073838478	4.0		4.0	5.0	4.0	3.0		part_1
217		3.0				1.0	0.0							3.0	411.0	0.6132657943671802	3.0		4.0	5.0	4.0	3.0		part_1
218		3.0				1.0	1.0							2.0	0.0	0.3432892664714018	2.0		0.0	1.0	8.0	4.0		part_1
219		3.0				1.0	0.0							4.0	186.0	0.3773264364717761	4.0		3.0	6.0	3.0	5.0		part_1
220		3.0				1.0	0.0							4.0	50.0	0.34454692984581925	4.0		1.0	2.0	1.0	8.0		part_1
221		3.0				1.0	0.0							2.0	80.0	0.3697002114713541	2.0		2.0	4.0	2.0	7.0		part_1
222		3.0				1.0	0.0							4.0	399.0	0.3791184993679053	4.0		4.0	5.0	4.0	3.0		part_1
223		3.0				1.0	0.0							4.0	420.0	0.4024909184736316	4.0		4.0	5.0	4.0	3.0		part_1
224		3.0				1.0	1.0							4.0	0.0	0.45025352694210596	4.0		0.0	8.0	5.0	2.0		part_1
225		3.0				1.0	0.0							1.0	113.0	0.4826600709420745	1.0		2.0	4.0	2.0	7.0		part_1
226		3.0				1.0	0.0							3.0	178.0	0.3372111959470203	3.0		3.0	6.0	3.0	5.0		part_1
227		3.0				1.0	1.0							1.0	83.0	0.6416618563671364	1.0		2.0	7.0	6.0	6.0		part_1
228		3.0				1.0	0.0							3.0	397.0	0.31460348241671454	3.0		4.0	5.0	4.0	3.0		part_1
229		3.0				1.0	1.0							2.0	50.0	0.3721621754739317	2.0		1.0	8.0	5.0	2.0		part_1
230		3.0				1.0	1.0							1.0	67.0	0.36217620400566375	1.0		1.0	8.0	5.0	2.0		part_1
231		3.0				1.0	1.0							4.0	409.0	0.37450668431119993	4.0		4.0	1.0	8.0	4.0		part_1
232		3.0				1.0	0.0							3.0	0.0	0.3421482028425089	3.0		0.0	2.0	1.0	8.0		part_1
233		3.0				1.0	1.0							3.0	223.0	0.3406701549029094	3.0		3.0	3.0	7.0	1.0		part_1
234		3.0				1.0	0.0							3.0	198.0	0.3528810894713388	3.0		3.0	6.0	3.0	5.0		part_1
235		3.0				1.0	0.0							1.0	201.0	0.31876067836856237	1.0		3.0	6.0	3.0	5.0		part_1
236		3.0				1.0	0.0							4.0	0.0	0.30914814046991523	4.0		0.0	4.0	2.0	7.0		part_1
237		3.0				1.0	1.0							1.0	0.0	0.5228578954702243	1.0		0.0	7.0	6.0	6.0		part_1
238		3.0				1.0	0.0							4.0	51.0	0.3230028149409918	4.0		1.0	2.0	1.0	8.0		part_1
239		3.0				1.0	1.0							1.0	94.0	0.28827337147231447	1.0		2.0	7.0	6.0	6.0		part_1
240		3.0				1.0	0.0							4.0	0.0	0.27626943300128914	4.0		0.0	4.0	2.0	7.0		part_1
241		3.0				1.0	1.0							2.0	0.0	0.4573551164721721	2.0		0.0	3.0	7.0	1.0		part_1
242		3.0				1.0	0.0							4.0	179.0	0.3899602858364233	4.0		3.0	6.0	3.0	5.0		part_1
243		3.0				1.0	0.0							4.0	0.0	0.32291383384290384	4.0		0.0	6.0	3.0	5.0		part_1
244		3.0				1.0	1.0							1.0	40.0	0.35962552983983187	1.0		1.0	8.0	5.0	2.0		part_1
245		3.0				1.0	1.0							3.0	56.0	0.32494864147156477	3.0		1.0	8.0	5.0	2.0		part_1
246		3.0				1.0	0.0							1.0	202.0	0.37175216884497786	1.0		3.0	6.0	3.0	5.0		part_1
247		3.0				1.0	1.0							4.0	35.0	0.35909848183655413	4.0		1.0	8.0	5.0	2.0		part_1
248		3.0				1.0	0.0							1.0	108.0	0.3600414403626928	1.0		2.0	4.0	2.0	7.0		part_1
249		3.0				1.0	0.0							1.0	0.0	0.3949372274146299	1.0		0.0	4.0	2.0	7.0		part_1
250		3.0				1.0	1.0							4.0	43.0	0.5079903083678801	4.0		1.0	8.0	5.0	2.0		part_1
251		3.0				1.0	1.0							1.0	386.0	0.4749707099472289	1.0		4.0	1.0	8.0	4.0		part_1
252		3.0				1.0	1.0							3.0	103.0	0.3288141878947499	3.0		2.0	7.0	6.0	6.0		part_1
253		3.0				1.0	0.0							3.0	383.0	0.4084216073679272	3.0		4.0	5.0	4.0	3.0		part_1
254		3.0				1.0	1.0							2.0	419.0	0.4426746043172898	2.0		4.0	1.0	8.0	4.0		part_1
255		3.0				1.0	0.0							2.0	35.0	0.5007657324167667	2.0		1.0	2.0	1.0	8.0		part_1
256		3.0				1.0	1.0							3.0	207.0	0.36454672894615214	3.0		3.0	3.0	7.0	1.0		part_1
257		3.0				1.0	0.0							1.0	191.0	0.2878423068978009	1.0		3.0	6.0	3.0	5.0		part_1
258		3.0				1.0	0.0							4.0	95.0	0.32012416894576745	4.0		2.0	4.0	2.0	7.0		part_1
259		3.0				1.0	0.0							4.0	386.0	0.49014863293996314	4.0		4.0	5.0	4.0	3.0		part_1
260		3.0				1.0	0.0							4.0	67.0	0.38941155941574834	4.0		1.0	2.0	1.0	8.0		part_1
261		3.0				1.0	1.0							4.0	108.0	0.48117579394602217	4.0		2.0	7.0	6.0	6.0		part_1
262		3.0				1.0	0.0							2.0	212.0	0.3470785923709627	2.0		3.0	6.0	3.0	5.0		part_1
263		3.0				1.0	0.0							4.0	0.0	0.2895138643725659	4.0		0.0	6.0	3.0	5.0		part_1
264		3.0				1.0	1.0							2.0	75.0	0.3576529339479748	2.0		1.0	8.0	5.0	2.0		part_1
265		3.0				1.0	1.0							1.0	0.0	0.2919221813135664	1.0		0.0	3.0	7.0	1.0		part_1
266		3.0				1.0	0.0							1.0	74.0	0.3708631298941327	1.0		1.0	2.0	1.0	8.0		part_1
267		3.0				1.0	1.0							1.0	188.0	0.3261445873140474	1.0		3.0	3.0	7.0	1.0		part_1
268		3.0				1.0	1.0							4.0	51.0	0.382199959254649	4.0		1.0	8.0	5.0	2.0		part_1
269		3.0				1.0	1.0							1.0	0.0	0.2825465754722245	1.0		0.0	7.0	6.0	6.0		part_1
270		3.0				2.0	0.0							1.0	38.0	0.351761883313884	1.0		1.0	2.0	1.0	8.0		part_1
271		3.0				1.0	0.0							3.0	405.0	0.48515017878526123	3.0		4.0	5.0	4.0	3.0		part_1
272		3.0				1.0	0.0							3.0	0.0	0.4299838387814816	3.0		0.0	5.0	4.0	3.0		part_1
273		3.0				1.0	0.0							4.0	119.0	0.40952592631219886	4.0		2.0	4.0	2.0	7.0		part_1
274		3.0				1.0	1.0							3.0	408.0	0.3859486274741357	3.0		4.0	1.0	8.0	4.0		part_1
275		3.0				1.0	1.0							1.0	402.0	0.38865468047879403	1.0		4.0	1.0	8.0	4.0		part_1
276		3.0				1.0	1.0							2.0	0.0	0.5338357669970719	2.0		0.0	1.0	8.0	4.0		part_1
277		3.0				1.0	0.0							2.0	402.0	0.4346613528468879	2.0		4.0	5.0	4.0	3.0		part_1
278		3.0				1.0	0.0							3.0	0.0	0.41031001436931547	3.0		0.0	5.0	4.0	3.0		part_1
279		3.0				1.0	0.0							2.0	89.0	0.42418989993893774	2.0		2.0	4.0	2.0	7.0		part_1
280		3.0				1.0	1.0							1.0	202.0	0.3787927439479972	1.0		3.0	3.0	7.0	1.0		part_1
281		3.0				1.0	1.0							3.0	123.0	0.42374310684681404	3.0		2.0	7.0	6.0	6.0		part_1
282		3.0				1.0	0.0							2.0	220.0	0.39066939747863216	2.0		3.0	6.0	3.0	5.0		part_1
283		3.0				1.0	1.0							1.0	58.0	0.31278997294430155	1.0		1.0	8.0	5.0	2.0		part_1
284		3.0				1.0	0.0							2.0	0.0	0.3695309478935087	2.0		0.0	5.0	4.0	3.0		part_1
285		3.0				1.0	1.0							3.0	45.0	0.47003307937120553	3.0		1.0	8.0	5.0	2.0		part_1
286		3.0				1.0	0.0							4.0	0.0	0.538617468373559	4.0		0.0	5.0	4.0	3.0		part_1
287		3.0				1.0	1.0							1.0	201.0	0.3487345439425553	1.0		3.0	3.0	7.0	1.0		part_1
288		3.0				1.0	0.0							1.0	0.0	0.3724814893648727	1.0		0.0	2.0	1.0	8.0		part_1
289		3.0				1.0	0.0							3.0	392.0	0.3602153414685745	3.0		4.0	5.0	4.0	3.0		part_1
290		3.0				1.0	1.0							4.0	219.0	0.36113457484316314	4.0		3.0	3.0	7.0	1.0		part_1
291		3.0				1.0	1.0							2.0	93.0	0.37323134641337674	2.0		2.0	7.0	6.0	6.0		part_1
292		3.0				1.0	1.0							3.0	96.0	0.329759255371755	3.0		2.0	7.0	6.0	6.0		part_1
293		3.0				1.0	1.0							1.0	220.0	0.3402792528941063	1.0		3.0	3.0	7.0	1.0		part_1
294		3.0				1.0	0.0							2.0	207.0	0.4987272469443269	2.0		3.0	6.0	3.0	5.0		part_1
295		3.0				1.0	1.0							4.0	58.0	0.3751027774706017	4.0		1.0	8.0	5.0	2.0		part_1
296		3.0				1.0	0.0							4.0	225.0	0.5110972363108885	4.0		3.0	6.0	3.0	5.0		part_1
297		3.0				1.0	1.0							1.0	62.0	0.3778422959439922	1.0		1.0	8.0	5.0	2.0		part_1
298		3.0				1.0	1.0							2.0	119.0	0.4350184844734031	2.0		2.0	7.0	6.0	6.0		part_1
299		3.0				1.0	1.0							3.0	44.0	0.3335476343127084	3.0		1.0	8.0	5.0	2.0		part_1
300		4.0				1.0	1.0							1.0	376.0	0.4446643107876298	1.0		4.0	1.0	8.0	4.0		part_1
301		4.0				1.0	0.0							4.0	73.0	0.3335285278953961	4.0		1.0	2.0	1.0	8.0		part_1
302		4.0				1.0	1.0							3.0	0.0	0.29993696078599896	3.0		0.0	1.0	8.0	4.0		part_1
303		4.0				1.0	0.0							2.0	0.0	0.277621007997368	2.0		0.0	6.0	3.0	5.0		part_1
304		4.0				1.0	1.0							2.0	225.0	0.3675881218368886	2.0		3.0	3.0	7.0	1.0		part_1
305		4.0				1.0	0.0							3.0	40.0	0.3002544399496401	3.0		1.0	2.0	1.0	8.0		part_1
306		4.0				1.0	0.0							1.0	101.0	0.39096002493897686	1.0		2.0	4.0	2.0	7.0		part_1
307		4.0				1.0	1.0							4.0	217.0	0.3133844583717291	4.0		3.0	3.0	7.0	1.0		part_1
308		4.0				1.0	0.0							4.0	58.0	0.42707661131134955	4.0		1.0	2.0	1.0	8.0		part_1
309		4.0				1.0	1.0							3.0	216.0	0.4376146594149759	3.0		3.0	3.0	7.0	1.0		part_1
310		4.0				1.0	0.0							3.0	62.0	0.39264404678397113	3.0		1.0	2.0	1.0	8.0		part_1
311		4.0				1.0	0.0							3.0	92.0	0.3718817193148425	3.0		2.0	4.0	2.0	7.0		part_1
312		4.0				1.0	1.0							2.0	56.0	0.2949426303675864	2.0		1.0	8.0	5.0	2.0		part_1
313		4.0				1.0	0.0							2.0	32.0	0.36258939794061007	2.0		1.0	2.0	1.0	8.0		part_1
314		4.0				1.0	0.0							1.0	26.0	0.3404888683653553	1.0		1.0	2.0	1.0	8.0		part_1
315		4.0				1.0	1.0							3.0	0.0	0.30699236947111785	3.0		0.0	8.0	5.0	2.0		part_1
316		4.0				1.0	0.0							3.0	0.0	0.39646320441534044	3.0		0.0	2.0	1.0	8.0		part_1
317		4.0				1.0	0.0							1.0	38.0	0.3300978908446268	1.0		1.0	2.0	1.0	8.0		part_1
318		4.0				1.0	1.0							4.0	114.0	0.3971619762596674	4.0		2.0	7.0	6.0	6.0		part_1
319		4.0				1.0	0.0							2.0	29.0	0.4885142603670829	2.0		1.0	2.0	1.0	8.0		part_1
320		4.0				1.0	0.0							2.0	0.0	0.5236633153108414	2.0		0.0	4.0	2.0	7.0		part_1
321		4.0				2.0	1.0							4.0	68.0	0.4450395254752948	4.0		1.0	8.0	5.0	2.0		part_1
322		4.0				1.0	0.0							1.0	419.0	0.4022206220033695	1.0		4.0	5.0	4.0	3.0		part_1
323		4.0				1.0	1.0							3.0	73.0	0.3452372953106533	3.0		1.0	8.0	5.0	2.0		part_1
324		4.0				1.0	0.0							3.0	123.0	0.3449633699419792	3.0		2.0	4.0	2.0	7.0		part_1
325		4.0				1.0	1.0							4.0	101.0	0.3340674674109323	4.0		2.0	7.0	6.0	6.0		part_1
326		4.0				1.0	0.0							2.0	101.0	0.3920356029411778	2.0		2.0	4.0	2.0	7.0		part_1
327		4.0				1.0	1.0							4.0	95.0	0.3142124658988905	4.0		2.0	7.0	6.0	6.0		part_1
328		4.0				1.0	1.0							2.0	388.0	0.3932581214758102	2.0		4.0	1.0	8.0	4.0		part_1
329		4.0				1.0	1.0							3.0	191.0	0.30251889131614007	3.0		3.0	3.0	7.0	1.0		part_1
330		4.0				1.0	1.0							1.0	0.0	0.27090107647381956	1.0		0.0	7.0	6.0	6.0		part_1
331		4.0				1.0	0.0							1.0	44.0	0.450650114522432	1.0		1.0	2.0	1.0	8.0		part_1
332		4.0				1.0	1.0							3.0	0.0	0.3276588134103804	3.0		0.0	8.0	5.0	2.0		part_1
333		4.0				1.0	1.0							1.0	110.0	0.37286653742194176	1.0		2.0	7.0	6.0	6.0		part_1
334		4.0				1.0	0.0							4.0	220.0	0.47411028284113854	4.0		3.0	6.0	3.0	5.0		part_1
335		4.0				1.0	1.0							1.0	379.0	0.3750762854178902	1.0		4.0	1.0	8.0	4.0		part_1
336		4.0				1.0	0.0							4.0	109.0	0.3412408893709653	4.0		2.0	4.0	2.0	7.0		part_1
337		4.0				1.0	0.0							1.0	0.0	0.3753014204194187	1.0		0.0	6.0	3.0	5.0		part_1
338		4.0				1.0	1.0							3.0	421.0	0.29678360394609626	3.0		4.0	1.0	8.0	4.0		part_1
339		4.0				1.0	1.0							1.0	0.0	0.42217226441425737	1.0		0.0	8.0	5.0	2.0		part_1
340		4.0				1.0	0.0							3.0	415.0	0.41086572447238723	3.0		4.0	5.0	4.0	3.0		part_1
341		4.0				1.0	1.0							3.0	0.0	0.5464428124178085	3.0		0.0	3.0	7.0	1.0		part_1
342		4.0				1.0	0.0							2.0	376.0	0.3781866878416622	2.0		4.0	5.0	4.0	3.0		part_1
343		4.0				1.0	0.0							4.0	183.0	0.3558367253135657	4.0		3.0	6.0	3.0	5.0		part_1
344		4.0				1.0	1.0							2.0	29.0	0.3355065613723127	2.0		1.0	8.0	5.0	2.0		part_1
345		4.0				1.0	0.0							2.0	0.0	0.43547637131268857	2.0		0.0	6.0	3.0	5.0		part_1
346		4.0				1.0	1.0							2.0	0.0	0.3809337914790376	2.0		0.0	1.0	8.0	4.0		part_1
347		4.0				1.0	0.0							2.0	421.0	0.3933771764714038	2.0		4.0	5.0	4.0	3.0		part_1
348		4.0				1.0	0.0							1.0	412.0	0.370482470789284	1.0		4.0	5.0	4.0	3.0		part_1
349		4.0				1.0	1.0							3.0	402.0	0.3589340029502637	3.0		4.0	1.0	8.0	4.0		part_1
350		4.0				1.0	1.0							4.0	0.0	0.32665694147726754	4.0		0.0	7.0	6.0	6.0		part_1
351		4.0				1.0	1.0							1.0	401.0	0.29302200147503754	1.0		4.0	1.0	8.0	4.0		part_1
352		4.0				1.0	1.0							2.0	0.0	0.41711804394435603	2.0		0.0	8.0	5.0	2.0		part_1
353		4.0				1.0	0.0							3.0	188.0	0.3498759579451871	3.0		3.0	6.0	3.0	5.0		part_1
354		4.0				1.0	0.0							1.0	212.0	0.4310857513701194	1.0		3.0	6.0	3.0	5.0		part_1
355		4.0				1.0	1.0							2.0	35.0	0.3623864984183456	2.0		1.0	8.0	5.0	2.0		part_1
356		4.0				1.0	1.0							1.0	32.0	0.36314071336528286	1.0		1.0	8.0	5.0	2.0		part_1
357		4.0				1.0	1.0							3.0	102.0	0.32897172241064254	3.0		2.0	7.0	6.0	6.0		part_1
358		4.0				1.0	0.0							3.0	0.0	0.33072791141603375	3.0		0.0	6.0	3.0	5.0		part_1
359		4.0				1.0	0.0							4.0	379.0	0.44386831489100587	4.0		4.0	5.0	4.0	3.0		part_1
360		4.0				1.0	1.0							3.0	56.0	0.4203337103681406	3.0		1.0	8.0	5.0	2.0		part_1
361		4.0				1.0	0.0							4.0	0.0	0.3986119168403093	4.0		0.0	2.0	1.0	8.0		part_1
362		4.0				1.0	0.0							4.0	402.0	0.3662617094742018	4.0		4.0	5.0	4.0	3.0		part_1
363		4.0				1.0	0.0							4.0	37.0	0.43379289794393117	4.0		1.0	2.0	1.0	8.0		part_1
364		4.0				1.0	1.0							4.0	381.0	0.3673192313144682	4.0		4.0	1.0	8.0	4.0		part_1
365		4.0				1.0	1.0							3.0	35.0	0.4007806183726643	3.0		1.0	8.0	5.0	2.0		part_1
366		4.0				1.0	1.0							3.0	115.0	0.5474623553745914	3.0		2.0	7.0	6.0	6.0		part_1
367		4.0				1.0	1.0							4.0	383.0	0.3694655574145145	4.0		4.0	1.0	8.0	4.0		part_1
368		4.0				1.0	0.0							4.0	79.0	0.3354318052515737	4.0		2.0	4.0	2.0	7.0		part_1
369		4.0				1.0	0.0							3.0	223.0	0.4038018368446501	3.0		3.0	6.0	3.0	5.0		part_1
370		4.0				1.0	0.0							1.0	56.0	0.4286462678355747	1.0		1.0	2.0	1.0	8.0		part_1
371		4.0				1.0	1.0							1.0	74.0	0.5736713828955544	1.0		1.0	8.0	5.0	2.0		part_1
372		4.0				1.0	0.0							1.0	378.0	0.4960949448432075	1.0		4.0	5.0	4.0	3.0		part_1
373		4.0				1.0	1.0							2.0	106.0	0.5189907617896097	2.0		2.0	7.0	6.0	6.0		part_1
374		4.0				1.0	1.0							4.0	193.0	0.4068029078989639	4.0		3.0	3.0	7.0	1.0		part_1
375		4.0				1.0	1.0							4.0	64.0	0.3616031298370217	4.0		1.0	8.0	5.0	2.0		part_1
376		4.0				1.0	1.0							2.0	0.0	0.373359731369419	2.0		0.0	3.0	7.0	1.0		part_1
377		4.0				1.0	0.0							3.0	381.0	0.3631964909436647	3.0		4.0	5.0	4.0	3.0		part_1
378		4.0				1.0	0.0							4.0	27.0	0.5104085623679566	4.0		1.0	2.0	1.0	8.0		part_1
379		4.0				1.0	0.0							1.0	393.0	0.3191351487839711	1.0		4.0	5.0	4.0	3.0		part_1
380		4.0				1.0	1.0							2.0	178.0	0.4106321002545883	2.0		3.0	3.0	7.0	1.0		part_1
381		4.0				1.0	0.0							3.0	0.0	0.34227284278313164	3.0		0.0	2.0	1.0	8.0		part_1
382		4.0				1.0	0.0							2.0	94.0	0.33208765947347274	2.0		2.0	4.0	2.0	7.0		part_1
383		4.0				1.0	0.0							1.0	85.0	0.4020583322562743	1.0		2.0	4.0	2.0	7.0		part_1
384		4.0				1.0	0.0							4.0	47.0	0.4238259142584866	4.0		1.0	2.0	1.0	8.0		part_1
385		4.0				1.0	1.0							2.0	220.0	0.3806111029407475	2.0		3.0	3.0	7.0	1.0		part_1
386		4.0				1.0	1.0							4.0	216.0	0.4023441608369467	4.0		3.0	3.0	7.0	1.0		part_1
387		4.0				1.0	0.0							3.0	56.0	0.41360164578509284	3.0		1.0	2.0	1.0	8.0		part_1
388		4.0				1.0	0.0							3.0	83.0	0.5485267694675713	3.0		2.0	4.0	2.0	7.0		part_1
389		4.0				1.0	1.0							1.0	72.0	0.3597076623700559	1.0		1.0	8.0	5.0	2.0		part_1
390		4.0				1.0	0.0							3.0	72.0	0.4042979909499991	3.0		1.0	2.0	1.0	8.0		part_1
391		4.0				1.0	1.0							2.0	77.0	0.3373562754204613	2.0		2.0	7.0	6.0	6.0		part_1
392		4.0				1.0	0.0							1.0	108.0	0.48464848936419	1.0		2.0	4.0	2.0	7.0		part_1
393		4.0				1.0	1.0							4.0	34.0	0.33854035026161	4.0		1.0	8.0	5.0	2.0		part_1
394		4.0				1.0	1.0							4.0	0.0	0.42786150699976133	4.0		0.0	3.0	7.0	1.0		part_1
395		4.0				1.0	1.0							3.0	0.0	0.4510074648933369	3.0		0.0	8.0	5.0	2.0		part_1
396		4.0				2.0	1.0							1.0	108.0	0.4203541873139329	1.0		2.0	7.0	6.0	6.0		part_1
397		4.0				1.0	0.0							4.0	125.0	0.35155304947693367	4.0		2.0	4.0	2.0	7.0		part_1
398		4.0				1.0	0.0							2.0	58.0	0.3427102594723692	2.0		1.0	2.0	1.0	8.0		part_1
399		4.0				1.0	1.0							2.0	0.0	0.4109454543722677	2.0		0.0	8.0	5.0	2.0		part_1
0	4.0	1.0			250.0	0.0	1.0							5.0	0.0	0.0	0.0	250.0	1.0	8.0	5.0	2.0	1.0	part_2
1	1.0	1.0			300.0	0.0	0.0							6.0	0.0	0.6305584947403986	6.0	250.0	4.0	5.0	4.0	3.0	0.0	part_2
2	1.0	1.0			300.0	0.0	0.0							5.0	0.0	0.7657098858107929	5.0	250.0	2.0	4.0	2.0	7.0	0.0	part_2
3	1.0	1.0			300.0	0.0	0.0							6.0	0.0	1.1491294460647623	6.0	250.0	2.0	4.0	2.0	7.0	0.0	part_2
4	4.0	1.0			300.0	0.0	1.0							6.0	0.0	0.0	0.0	250.0	4.0	1.0	8.0	4.0	1.0	part_2
5	1.0	1.0			300.0	0.0	0.0							5.0	0.0	0.6779327296098927	5.0	300.0	4.0	5.0	4.0	3.0	0.0	part_2
6	1.0	1.0			300.0	0.0	0.0							5.0	0.0	0.8140815649385331	5.0	300.0	4.0	5.0	4.0	3.0	0.0	part_2
7	1.0	1.0			300.0	0.0	0.0							6.0	0.0	0.8714431256157695	6.0	300.0	3.0	6.0	3.0	5.0	0.0	part_2
8	4.0	1.0			300.0	0.0	1.0							5.0	0.0	0.0	0.0	300.0	4.0	1.0	8.0	4.0	1.0	part_2
9	1.0	1.0			350.0	0.0	0.0							6.0	0.0	0.4017907038141857	6.0	300.0	1.0	2.0	1.0	8.0	0.0	part_2
10	1.0	1.0			350.0	0.0	0.0							6.0	0.0	1.097982959872752	6.0	300.0	2.0	4.0	2.0	7.0	0.0	part_2
11	4.0	1.0			350.0	0.0	1.0							6.0	0.0	0.0	0.0	300.0	3.0	3.0	7.0	1.0	1.0	part_2
12	1.0	1.0			350.0	0.0	0.0							5.0	0.0	0.6510039019340184	5.0	350.0	4.0	5.0	4.0	3.0	0.0	part_2
13	1.0	1.0			350.0	0.0	0.0							6.0	0.0	1.078749828680884	6.0	350.0	2.0	4.0	2.0	7.0	0.0	part_2
14	1.0	1.0			350.0	0.0	0.0							5.0	0.0	0.9780113387387246	5.0	350.0	1.0	2.0	1.0	8.0	0.0	part_2
15	1.0	1.0			350.0	0.0	0.0							6.0	0.0	1.0464223828093964	6.0	350.0	3.0	6.0	3.0	5.0	0.0	part_2
16	4.0	1.0			350.0	0.0	1.0							6.0	0.0	0.0	0.0	350.0	2.0	7.0	6.0	6.0	1.0	part_2
17	1.0	1.0			350.0	0.0	0.0							5.0	0.0	0.340888641672791	5.0	400.0	1.0	2.0	1.0	8.0	0.0	part_2
18	1.0	1.0			350.0	0.0	0.0							5.0	0.0	0.8574046546782483	5.0	400.0	2.0	4.0	2.0	7.0	0.0	part_2
19	1.0	1.0			350.0	0.0	1.0							6.0	0.0	0.8937277030636324	6.0	400.0	3.0	3.0	7.0	1.0	0.0	part_2
20	4.0	1.0			350.0	0.0	1.0							6.0	0.0	0.0	0.0	400.0	1.0	8.0	5.0	2.0	1.0	part_2
21	4.0	1.0			350.0	0.0	1.0							5.0	0.0	0.0	0.0	450.0	4.0	1.0	8.0	4.0	1.0	part_2
22	1.0	1.0			400.0	0.0	0.0							6.0	0.0	0.8385518801223952	6.0	450.0	1.0	2.0	1.0	8.0	0.0	part_2
23	1.0	1.0			400.0	0.0	1.0							5.0	0.0	0.9407481258676853	5.0	450.0	3.0	3.0	7.0	1.0	0.0	part_2
24	4.0	1.0			400.0	0.0	1.0							6.0	0.0	0.0	0.0	450.0	2.0	7.0	6.0	6.0	1.0	part_2
25	1.0	1.0			400.0	0.0	1.0							6.0	0.0	0.919750938002835	6.0	500.0	4.0	1.0	8.0	4.0	0.0	part_2
26	4.0	1.0			400.0	0.0	1.0							5.0	0.0	0.0	0.0	500.0	4.0	1.0	8.0	4.0	1.0	part_2
27	1.0	1.0			450.0	0.0	0.0							6.0	0.0	0.9435150786812301	6.0	500.0	2.0	4.0	2.0	7.0	0.0	part_2
28	1.0	1.0			450.0	0.0	0.0							5.0	0.0	0.9891141556217917	5.0	500.0	1.0	2.0	1.0	8.0	0.0	part_2
29	4.0	1.0			450.0	0.0	1.0							5.0	0.0	0.0	0.0	500.0	4.0	1.0	8.0	4.0	1.0	part_2
30	4.0	1.0			500.0	0.0	1.0							6.0	0.0	0.0	0.0	500.0	2.0	7.0	6.0	6.0	1.0	part_2
31	1.0	1.0			500.0	0.0	0.0							5.0	0.0	0.946806758067396	5.0	550.0	1.0	2.0	1.0	8.0	0.0	part_2
32	4.0	1.0			500.0	0.0	1.0							5.0	0.0	0.0	0.0	550.0	2.0	7.0	6.0	6.0	1.0	part_2
33	1.0	1.0			550.0	0.0	0.0							5.0	0.0	1.2973543608168256	5.0	550.0	4.0	5.0	4.0	3.0	0.0	part_2
34	1.0	1.0			550.0	0.0	0.0							5.0	0.0	1.1649847698718077	5.0	550.0	1.0	2.0	1.0	8.0	0.0	part_2
35	4.0	1.0			550.0	0.0	1.0							5.0	0.0	0.0	0.0	550.0	3.0	3.0	7.0	1.0	1.0	part_2
36	3.0	2.0			600.0	0.0	1.0							5.0	0.0	0.4453431156143779	5.0	550.0	1.0	8.0	5.0	2.0	1.0	part_2
37	1.0	2.0			550.0	0.0	0.0							5.0	0.0	0.34642930755217094	5.0	550.0	4.0	5.0	4.0	3.0	0.0	part_2
38	3.0	2.0			550.0	0.0	1.0							6.0	0.0	0.29153659073926974	6.0	550.0	4.0	1.0	8.0	4.0	1.0	part_2
39	1.0	2.0			550.0	0.0	1.0							5.0	0.0	0.5829663039403385	5.0	500.0	3.0	3.0	7.0	1.0	0.0	part_2
40	3.0	2.0			550.0	0.0	1.0							5.0	0.0	0.3361899986775825	5.0	500.0	2.0	7.0	6.0	6.0	1.0	part_2
41	3.0	2.0			500.0	0.0	1.0							5.0	0.0	0.586085258742969	5.0	500.0	4.0	1.0	8.0	4.0	1.0	part_2
42	1.0	2.0			450.0	0.0	0.0							6.0	0.0	0.6321765028114896	6.0	500.0	2.0	4.0	2.0	7.0	0.0	part_2
43	3.0	2.0			450.0	0.0	1.0							6.0	0.0	0.6422394304900081	6.0	500.0	4.0	1.0	8.0	4.0	1.0	part_2
44	4.0	2.0			450.0	0.0	1.0							6.0	0.0	0.0	0.0	450.0	1.0	8.0	5.0	2.0	1.0	part_2
45	1.0	2.0			450.0	0.0	1.0							6.0	0.0	0.486230882932432	6.0	500.0	2.0	7.0	6.0	6.0	0.0	part_2
46	1.0	2.0			450.0	0.0	0.0							6.0	0.0	0.7136348866115441	6.0	500.0	4.0	5.0	4.0	3.0	0.0	part_2
47	1.0	2.0			450.0	0.0	0.0							6.0	0.0	0.4878948545519961	6.0	500.0	1.0	2.0	1.0	8.0	0.0	part_2
48	1.0	2.0			450.0	0.0	1.0							6.0	0.0	0.648222280680784	6.0	500.0	1.0	8.0	5.0	2.0	0.0	part_2
49	1.0	2.0			450.0	0.0	1.0							5.0	0.0	0.5355906180047896	5.0	500.0	3.0	3.0	7.0	1.0	0.0	part_2
50	4.0	2.0			450.0	0.0	1.0							5.0	0.0	0.0	0.0	500.0	2.0	7.0	6.0	6.0	1.0	part_2
51	1.0	2.0			500.0	0.0	0.0							5.0	0.0	0.526578471675748	5.0	500.0	4.0	5.0	4.0	3.0	0.0	part_2
52	1.0	2.0			500.0	0.0	0.0							6.0	0.0	0.4357817581258132	6.0	500.0	3.0	6.0	3.0	5.0	0.0	part_2
53	4.0	2.0			500.0	0.0	1.0							6.0	0.0	0.0	0.0	500.0	1.0	8.0	5.0	2.0	1.0	part_2
54	3.0	2.0			500.0	0.0	1.0							5.0	0.0	0.4510711049370002	5.0	550.0	2.0	7.0	6.0	6.0	1.0	part_2
55	1.0	2.0			450.0	0.0	0.0							6.0	0.0	0.6861539464298403	6.0	550.0	2.0	4.0	2.0	7.0	0.0	part_2
56	1.0	2.0			450.0	0.0	0.0							5.0	0.0	0.6869642994934111	5.0	550.0	1.0	2.0	1.0	8.0	0.0	part_2
57	3.0	2.0			450.0	0.0	1.0							6.0	0.0	0.3620122277352493	6.0	550.0	1.0	8.0	5.0	2.0	1.0	part_2
58	1.0	2.0			450.0	0.0	0.0							5.0	0.0	0.6549132929358166	5.0	500.0	4.0	5.0	4.0	3.0	0.0	part_2
59	1.0	2.0			450.0	0.0	1.0							6.0	0.0	0.6784342609389569	6.0	500.0	1.0	8.0	5.0	2.0	0.0	part_2
60	1.0	2.0			450.0	0.0	0.0							5.0	0.0	0.4878110566205578	5.0	500.0	3.0	6.0	3.0	5.0	0.0	part_2
61	3.0	2.0			450.0	0.0	1.0							5.0	0.0	0.5690355906772311	5.0	500.0	3.0	3.0	7.0	1.0	1.0	part_2
62	3.0	2.0			400.0	0.0	1.0							6.0	0.0	0.602985311554221	6.0	500.0	4.0	1.0	8.0	4.0	1.0	part_2
63	3.0	2.0			400.0	0.0	1.0							5.0	0.0	0.3104812799356296	5.0	450.0	4.0	1.0	8.0	4.0	1.0	part_2
64	1.0	2.0			350.0	0.0	0.0							5.0	0.0	0.5379829768062336	5.0	450.0	3.0	6.0	3.0	5.0	0.0	part_2
65	1.0	2.0			350.0	0.0	0.0							6.0	0.0	0.3012851776802563	6.0	450.0	2.0	4.0	2.0	7.0	0.0	part_2
66	1.0	2.0			350.0	0.0	0.0							5.0	0.0	0.2903113508145907	5.0	450.0	3.0	6.0	3.0	5.0	0.0	part_2
67	1.0	2.0			350.0	0.0	0.0							5.0	0.0	0.40417740187695017	5.0	450.0	1.0	2.0	1.0	8.0	0.0	part_2
68	3.0	2.0			350.0	0.0	1.0							6.0	0.0	0.2585792596801184	6.0	450.0	1.0	8.0	5.0	2.0	1.0	part_2
69	4.0	2.0			350.0	0.0	1.0							5.0	0.0	0.0	0.0	400.0	4.0	1.0	8.0	4.0	1.0	part_2
70	4.0	2.0			400.0	0.0	1.0							6.0	0.0	0.0	0.0	400.0	2.0	7.0	6.0	6.0	1.0	part_2
71	1.0	2.0			400.0	0.0	0.0							5.0	0.0	0.4875254579310422	5.0	450.0	3.0	6.0	3.0	5.0	0.0	part_2
72	1.0	3.0			400.0	0.0	0.0							6.0	0.0	0.5951879756175913	6.0	450.0	2.0	4.0	2.0	7.0	0.0	part_2
73	1.0	3.0			400.0	0.0	0.0							5.0	0.0	0.6060827610635897	5.0	450.0	1.0	2.0	1.0	8.0	0.0	part_2
74	4.0	3.0			400.0	0.0	1.0							5.0	0.0	0.0	0.0	450.0	2.0	7.0	6.0	6.0	1.0	part_2
75	4.0	3.0			450.0	0.0	1.0							5.0	0.0	0.0	0.0	450.0	1.0	8.0	5.0	2.0	1.0	part_2
76	1.0	3.0			500.0	0.0	0.0							6.0	0.0	0.5428296018726542	6.0	450.0	4.0	5.0	4.0	3.0	0.0	part_2
77	3.0	3.0			500.0	0.0	1.0							5.0	0.0	0.5766878046124475	5.0	450.0	1.0	8.0	5.0	2.0	1.0	part_2
78	1.0	3.0			450.0	0.0	0.0							5.0	0.0	0.7015760348731419	5.0	450.0	2.0	4.0	2.0	7.0	0.0	part_2
79	1.0	3.0			450.0	0.0	0.0							6.0	0.0	0.6226224445490516	6.0	450.0	4.0	5.0	4.0	3.0	0.0	part_2
80	4.0	3.0			450.0	0.0	1.0							6.0	0.0	0.0	0.0	450.0	2.0	7.0	6.0	6.0	1.0	part_2
81	1.0	3.0			450.0	0.0	0.0							5.0	0.0	0.3884056568786036	5.0	500.0	4.0	5.0	4.0	3.0	0.0	part_2
82	4.0	3.0			450.0	0.0	1.0							6.0	0.0	0.0	0.0	500.0	4.0	1.0	8.0	4.0	1.0	part_2
83	4.0	3.0			450.0	0.0	1.0							6.0	0.0	0.0	0.0	550.0	2.0	7.0	6.0	6.0	1.0	part_2
84	1.0	3.0			450.0	0.0	1.0							6.0	0.0	0.785159990125976	6.0	600.0	1.0	8.0	5.0	2.0	0.0	part_2
85	1.0	3.0			450.0	0.0	0.0							6.0	0.0	0.7405244258770836	6.0	600.0	4.0	5.0	4.0	3.0	0.0	part_2
86	4.0	3.0			450.0	0.0	1.0							6.0	0.0	0.0	0.0	600.0	1.0	8.0	5.0	2.0	1.0	part_2
87	1.0	3.0			450.0	0.0	0.0							5.0	0.0	0.5391260808173683	5.0	650.0	3.0	6.0	3.0	5.0	0.0	part_2
88	1.0	3.0			450.0	0.0	0.0							5.0	0.0	0.7987029357391293	5.0	650.0	1.0	2.0	1.0	8.0	0.0	part_2
89	1.0	3.0			450.0	0.0	0.0							5.0	0.0	0.6771612116135657	5.0	650.0	4.0	5.0	4.0	3.0	0.0	part_2
90	1.0	3.0			450.0	0.0	0.0							5.0	0.0	0.8116326105518965	5.0	650.0	3.0	6.0	3.0	5.0	0.0	part_2
91	3.0	3.0			450.0	0.0	1.0							6.0	0.0	0.352686120873841	6.0	650.0	3.0	3.0	7.0	1.0	1.0	part_2
92	4.0	3.0			450.0	0.0	1.0							6.0	0.0	0.0	0.0	600.0	3.0	3.0	7.0	1.0	1.0	part_2
93	4.0	3.0			450.0	0.0	1.0							5.0	0.0	0.0	0.0	650.0	1.0	8.0	5.0	2.0	1.0	part_2
94	1.0	3.0			500.0	0.0	0.0							6.0	0.0	0.8262616061911103	6.0	650.0	2.0	4.0	2.0	7.0	0.0	part_2
95	4.0	3.0			500.0	0.0	1.0							6.0	0.0	0.0	0.0	650.0	3.0	3.0	7.0	1.0	1.0	part_2
96	1.0	3.0			500.0	0.0	0.0							5.0	0.0	0.6832718950608978	5.0	700.0	2.0	4.0	2.0	7.0	0.0	part_2
97	1.0	3.0			500.0	0.0	0.0							6.0	0.0	0.7724559786147438	6.0	700.0	4.0	5.0	4.0	3.0	0.0	part_2
98	1.0	3.0			500.0	0.0	0.0							5.0	0.0	0.4484035899367882	5.0	700.0	2.0	4.0	2.0	7.0	0.0	part_2
99	4.0	3.0			500.0	0.0	1.0							5.0	0.0	0.0	0.0	700.0	3.0	3.0	7.0	1.0	1.0	part_2
100	1.0	3.0			550.0	0.0	0.0							5.0	0.0	0.9343450876767747	5.0	700.0	3.0	6.0	3.0	5.0	0.0	part_2
101	1.0	3.0			550.0	0.0	0.0							6.0	0.0	0.6990069348103134	6.0	700.0	4.0	5.0	4.0	3.0	0.0	part_2
102	1.0	3.0			550.0	0.0	1.0							6.0	0.0	0.5742469799370156	6.0	700.0	3.0	3.0	7.0	1.0	0.0	part_2
103	1.0	3.0			550.0	0.0	0.0							5.0	0.0	0.5764626745512942	5.0	700.0	1.0	2.0	1.0	8.0	0.0	part_2
104	3.0	3.0			550.0	0.0	1.0							6.0	0.0	0.7450761894288007	6.0	700.0	4.0	1.0	8.0	4.0	1.0	part_2
105	4.0	3.0			550.0	0.0	1.0							6.0	0.0	0.0	0.0	650.0	2.0	7.0	6.0	6.0	1.0	part_2
106	3.0	3.0			550.0	0.0	1.0							5.0	0.0	0.5788408358130255	5.0	700.0	3.0	3.0	7.0	1.0	1.0	part_2
107	1.0	3.0			500.0	0.0	0.0							6.0	0.0	0.5915620126761496	6.0	700.0	3.0	6.0	3.0	5.0	0.0	part_2
108	1.0	4.0			500.0	0.0	0.0							6.0	0.0	0.8160914458785555	6.0	700.0	3.0	6.0	3.0	5.0	0.0	part_2
109	4.0	4.0			500.0	0.0	1.0							5.0	0.0	0.0	0.0	700.0	2.0	7.0	6.0	6.0	1.0	part_2
110	1.0	4.0			550.0	0.0	0.0							6.0	0.0	0.7048355680017266	6.0	700.0	1.0	2.0	1.0	8.0	0.0	part_2
111	1.0	4.0			550.0	0.0	0.0							5.0	0.0	0.7062198226194596	5.0	700.0	3.0	6.0	3.0	5.0	0.0	part_2
112	4.0	4.0			550.0	0.0	1.0							5.0	0.0	0.0	0.0	700.0	1.0	8.0	5.0	2.0	1.0	part_2
113	3.0	4.0			600.0	0.0	1.0							6.0	0.0	0.5724576707434608	6.0	700.0	1.0	8.0	5.0	2.0	1.0	part_2
114	3.0	4.0			600.0	0.0	1.0							6.0	0.0	0.7542489916741033	6.0	650.0	2.0	7.0	6.0	6.0	1.0	part_2
115	1.0	4.0			600.0	0.0	0.0							6.0	0.0	0.8321551656117663	6.0	600.0	4.0	5.0	4.0	3.0	0.0	part_2
116	1.0	4.0			600.0	0.0	0.0							5.0	0.0	0.7888292898715008	5.0	600.0	2.0	4.0	2.0	7.0	0.0	part_2
117	4.0	4.0			600.0	0.0	1.0							6.0	0.0	0.0	0.0	600.0	1.0	8.0	5.0	2.0	1.0	part_2
118	1.0	4.0			600.0	0.0	0.0							5.0	0.0	0.3751099397413782	5.0	650.0	3.0	6.0	3.0	5.0	0.0	part_2
119	1.0	4.0			600.0	0.0	0.0							5.0	0.0	0.7015945310049574	5.0	650.0	4.0	5.0	4.0	3.0	0.0	part_2
120	1.0	4.0			600.0	0.0	1.0							5.0	0.0	0.6567474088151357	5.0	650.0	3.0	3.0	7.0	1.0	0.0	part_2
121	1.0	4.0			600.0	0.0	0.0							5.0	0.0	0.7252464856792358	5.0	650.0	4.0	5.0	4.0	3.0	0.0	part_2
122	3.0	4.0			600.0	0.0	1.0							5.0	0.0	0.6595444289341685	5.0	650.0	1.0	8.0	5.0	2.0	1.0	part_2
123	1.0	4.0			550.0	0.0	0.0							6.0	0.0	0.6364721490681404	6.0	650.0	3.0	6.0	3.0	5.0	0.0	part_2
124	1.0	4.0			550.0	0.0	0.0							6.0	0.0	0.7954429970632191	6.0	650.0	4.0	5.0	4.0	3.0	0.0	part_2
125	3.0	4.0			550.0	0.0	1.0							5.0	0.0	0.3701582306166529	5.0	650.0	2.0	7.0	6.0	6.0	1.0	part_2
126	4.0	4.0			500.0	0.0	1.0							5.0	0.0	0.0	0.0	650.0	3.0	3.0	7.0	1.0	1.0	part_2
127	4.0	4.0			550.0	0.0	1.0							5.0	0.0	0.0	0.0	650.0	2.0	7.0	6.0	6.0	1.0	part_2
128	1.0	4.0			600.0	0.0	1.0							5.0	0.0	0.6086795730661834	5.0	650.0	1.0	8.0	5.0	2.0	0.0	part_2
129	1.0	4.0			600.0	0.0	0.0							5.0	0.0	0.776760477485368	5.0	650.0	2.0	4.0	2.0	7.0	0.0	part_2
130	3.0	4.0			600.0	0.0	1.0							5.0	0.0	0.732746154673805	5.0	650.0	3.0	3.0	7.0	1.0	1.0	part_2
131	1.0	4.0			550.0	0.0	1.0							5.0	0.0	0.8693827776151011	5.0	650.0	1.0	8.0	5.0	2.0	0.0	part_2
132	1.0	4.0			550.0	0.0	0.0							6.0	0.0	0.3744975878726109	6.0	650.0	4.0	5.0	4.0	3.0	0.0	part_2
133	1.0	4.0			550.0	0.0	0.0							6.0	0.0	0.7136938444673433	6.0	650.0	1.0	2.0	1.0	8.0	0.0	part_2
134	1.0	4.0			550.0	0.0	0.0							6.0	0.0	0.4445399116812041	6.0	650.0	2.0	4.0	2.0	7.0	0.0	part_2
135	1.0	4.0			550.0	0.0	0.0							6.0	0.0	0.5227222186804283	6.0	650.0	3.0	6.0	3.0	5.0	0.0	part_2
136	1.0	4.0			550.0	0.0	1.0							5.0	0.0	0.7263747896795394	5.0	650.0	4.0	1.0	8.0	4.0	0.0	part_2
137	1.0	4.0			550.0	0.0	0.0							5.0	0.0	0.7059970435511786	5.0	650.0	3.0	6.0	3.0	5.0	0.0	part_2
138	1.0	4.0			550.0	0.0	1.0							6.0	0.0	0.6732649846744607	6.0	650.0	2.0	7.0	6.0	6.0	0.0	part_2
139	3.0	4.0			550.0	0.0	1.0							5.0	0.0	0.5634015566829476	5.0	650.0	1.0	8.0	5.0	2.0	1.0	part_2
140	1.0	4.0			500.0	0.0	0.0							6.0	0.0	0.7308452974903048	6.0	650.0	2.0	4.0	2.0	7.0	0.0	part_2
141	1.0	4.0			500.0	0.0	1.0							6.0	0.0	0.8428562297413009	6.0	650.0	4.0	1.0	8.0	4.0	0.0	part_2
142	1.0	4.0			500.0	0.0	0.0							5.0	0.0	0.7089804958741297	5.0	650.0	2.0	4.0	2.0	7.0	0.0	part_2
143	4.0	4.0			500.0	0.0	1.0							6.0	0.0	0.0	0.0	650.0	3.0	3.0	7.0	1.0	1.0	part_2
144	3.0	5.0			500.0	0.0	1.0							6.0	0.0	0.6999358609391493	6.0	700.0	2.0	7.0	6.0	6.0	1.0	part_2
145	3.0	5.0			500.0	0.0	1.0							6.0	0.0	0.553238839682308	6.0	650.0	4.0	1.0	8.0	4.0	1.0	part_2
146	1.0	5.0			500.0	0.0	0.0							6.0	0.0	0.6682907931317459	6.0	600.0	2.0	4.0	2.0	7.0	0.0	part_2
147	1.0	5.0			500.0	0.0	0.0							5.0	0.0	0.5682174329413101	5.0	600.0	4.0	5.0	4.0	3.0	0.0	part_2
148	3.0	5.0			500.0	0.0	1.0							5.0	0.0	0.6456345630649594	5.0	600.0	1.0	8.0	5.0	2.0	1.0	part_2
149	1.0	5.0			450.0	0.0	0.0							6.0	0.0	0.567789468812407	6.0	600.0	2.0	4.0	2.0	7.0	0.0	part_2
150	4.0	5.0			450.0	0.0	1.0							5.0	0.0	0.0	0.0	600.0	3.0	3.0	7.0	1.0	1.0	part_2
151	1.0	5.0			500.0	0.0	0.0							6.0	0.0	0.6945411436754512	6.0	600.0	1.0	2.0	1.0	8.0	0.0	part_2
152	1.0	5.0			500.0	0.0	0.0							6.0	0.0	0.5252918330006651	6.0	600.0	1.0	2.0	1.0	8.0	0.0	part_2
153	1.0	5.0			500.0	0.0	0.0							5.0	0.0	0.595377395489777	5.0	600.0	3.0	6.0	3.0	5.0	0.0	part_2
154	3.0	5.0			500.0	0.0	1.0							5.0	0.0	0.4598229109760723	5.0	600.0	3.0	3.0	7.0	1.0	1.0	part_2
155	4.0	5.0			450.0	0.0	1.0							5.0	0.0	0.0	0.0	600.0	1.0	8.0	5.0	2.0	1.0	part_2
156	4.0	5.0			500.0	0.0	1.0							5.0	0.0	0.0	0.0	600.0	2.0	7.0	6.0	6.0	1.0	part_2
157	1.0	5.0			550.0	0.0	0.0							5.0	0.0	0.7210596298173186	5.0	600.0	2.0	4.0	2.0	7.0	0.0	part_2
158	5.0	5.0			550.0	0.0	0.0							5.0	0.0	0.0	0.0	600.0	1.0	2.0	1.0	8.0	0.0	part_2
159	1.0	5.0			550.0	0.0	0.0							5.0	0.0	0.464476894994732	5.0	600.0	3.0	6.0	3.0	5.0	0.0	part_2
160	4.0	5.0			550.0	0.0	1.0							5.0	0.0	0.0	0.0	600.0	4.0	1.0	8.0	4.0	1.0	part_2
161	3.0	5.0			600.0	0.0	1.0							6.0	0.0	0.4426720979390666	6.0	600.0	4.0	1.0	8.0	4.0	1.0	part_2
162	1.0	5.0			600.0	0.0	0.0							6.0	0.0	0.7139225934879505	6.0	550.0	1.0	2.0	1.0	8.0	0.0	part_2
163	1.0	5.0			600.0	0.0	1.0							5.0	0.0	1.1986801468083286	5.0	550.0	2.0	7.0	6.0	6.0	0.0	part_2
164	1.0	5.0			600.0	0.0	0.0							6.0	0.0	0.6711625768075464	6.0	550.0	3.0	6.0	3.0	5.0	0.0	part_2
165	1.0	5.0			600.0	0.0	1.0							6.0	0.0	0.3468899694926222	6.0	550.0	2.0	7.0	6.0	6.0	0.0	part_2
166	3.0	5.0			600.0	0.0	1.0							6.0	0.0	0.4367384919387405	6.0	550.0	3.0	3.0	7.0	1.0	1.0	part_2
167	4.0	5.0			600.0	0.0	1.0							5.0	0.0	0.0	0.0	500.0	2.0	7.0	6.0	6.0	1.0	part_2
168	1.0	5.0			650.0	0.0	0.0							6.0	0.0	0.6177639270026702	6.0	500.0	1.0	2.0	1.0	8.0	0.0	part_2
169	3.0	5.0			650.0	0.0	1.0							5.0	0.0	0.36152499348827405	5.0	500.0	3.0	3.0	7.0	1.0	1.0	part_2
170	1.0	5.0			600.0	0.0	0.0							5.0	0.0	0.7447847328076023	5.0	500.0	4.0	5.0	4.0	3.0	0.0	part_2
171	1.0	5.0			600.0	0.0	1.0							5.0	0.0	0.5080846688724705	5.0	500.0	4.0	1.0	8.0	4.0	0.0	part_2
172	1.0	5.0			600.0	0.0	0.0							5.0	0.0	0.3737924837405444	5.0	500.0	2.0	4.0	2.0	7.0	0.0	part_2
173	1.0	5.0			600.0	0.0	0.0							5.0	0.0	0.2969675466156332	5.0	500.0	2.0	4.0	2.0	7.0	0.0	part_2
174	3.0	5.0			600.0	0.0	1.0							5.0	0.0	0.3073700058157556	5.0	500.0	1.0	8.0	5.0	2.0	1.0	part_2
175	1.0	5.0			550.0	0.0	1.0							6.0	0.0	0.2861865678714821	6.0	500.0	4.0	1.0	8.0	4.0	0.0	part_2
176	1.0	5.0			550.0	0.0	1.0							6.0	0.0	0.63511567000387	6.0	500.0	2.0	7.0	6.0	6.0	0.0	part_2
177	1.0	5.0			550.0	0.0	0.0							6.0	0.0	0.333735963809886	6.0	500.0	1.0	2.0	1.0	8.0	0.0	part_2
178	1.0	5.0			550.0	0.0	0.0							5.0	0.0	0.31205937061895384	5.0	500.0	1.0	2.0	1.0	8.0	0.0	part_2
179	1.0	5.0			550.0	0.0	1.0							6.0	0.0	0.24564520273997914	6.0	500.0	4.0	1.0	8.0	4.0	0.0	part_2
180	3.0	6.0			550.0	0.0	1.0							6.0	0.0	0.3574337810641737	6.0	500.0	3.0	3.0	7.0	1.0	1.0	part_2
181	1.0	6.0			550.0	0.0	0.0							5.0	0.0	0.3239217650043429	5.0	450.0	1.0	2.0	1.0	8.0	0.0	part_2
182	1.0	6.0			550.0	0.0	0.0							6.0	0.0	0.31501537667645607	6.0	450.0	1.0	2.0	1.0	8.0	0.0	part_2
183	1.0	6.0			550.0	0.0	0.0							5.0	0.0	0.28119729548780015	5.0	450.0	1.0	2.0	1.0	8.0	0.0	part_2
184	3.0	6.0			550.0	0.0	1.0							5.0	0.0	0.3606909808149794	5.0	450.0	2.0	7.0	6.0	6.0	1.0	part_2
185	3.0	6.0			500.0	0.0	1.0							6.0	0.0	0.23813498661183985	6.0	450.0	4.0	1.0	8.0	4.0	1.0	part_2
186	1.0	6.0			500.0	0.0	0.0							6.0	0.0	0.34124984061782015	6.0	400.0	3.0	6.0	3.0	5.0	0.0	part_2
187	1.0	6.0			500.0	0.0	0.0							6.0	0.0	0.3182656779390527	6.0	400.0	3.0	6.0	3.0	5.0	0.0	part_2
188	1.0	6.0			500.0	0.0	1.0							5.0	0.0	0.3076272821854218	5.0	400.0	4.0	1.0	8.0	4.0	0.0	part_2
189	1.0	6.0			500.0	0.0	0.0							5.0	0.0	0.30811228674429003	5.0	400.0	2.0	4.0	2.0	7.0	0.0	part_2
190	3.0	6.0			500.0	0.0	1.0							5.0	0.0	0.2641630155558232	5.0	400.0	3.0	3.0	7.0	1.0	1.0	part_2
191	3.0	6.0			450.0	0.0	1.0							6.0	0.0	0.25390798362059286	6.0	400.0	3.0	3.0	7.0	1.0	1.0	part_2
192	1.0	6.0			450.0	0.0	0.0							6.0	0.0	0.4357732236821903	6.0	350.0	3.0	6.0	3.0	5.0	0.0	part_2
193	1.0	6.0			450.0	0.0	0.0							5.0	0.0	0.4128495108743664	5.0	350.0	2.0	4.0	2.0	7.0	0.0	part_2
194	3.0	6.0			450.0	0.0	1.0							5.0	0.0	0.325715604427387	5.0	350.0	3.0	3.0	7.0	1.0	1.0	part_2
195	4.0	6.0			400.0	0.0	1.0							5.0	0.0	0.0	0.0	350.0	2.0	7.0	6.0	6.0	1.0	part_2
196	3.0	6.0			450.0	0.0	1.0							5.0	0.0	0.3491494226109353	5.0	350.0	4.0	1.0	8.0	4.0	1.0	part_2
197	1.0	6.0			400.0	0.0	0.0							6.0	0.0	0.5743113777425606	6.0	350.0	1.0	2.0	1.0	8.0	0.0	part_2
198	1.0	6.0			400.0	0.0	0.0							6.0	0.0	0.3052398626750801	6.0	350.0	2.0	4.0	2.0	7.0	0.0	part_2
199	1.0	6.0			400.0	0.0	0.0							6.0	0.0	0.4649722011236008	6.0	350.0	3.0	6.0	3.0	5.0	0.0	part_2
200	1.0	6.0			400.0	0.0	0.0							5.0	0.0	0.35282678881048923	5.0	350.0	2.0	4.0	2.0	7.0	0.0	part_2
201	1.0	6.0			400.0	0.0	0.0							6.0	0.0	0.36474343154986855	6.0	350.0	2.0	4.0	2.0	7.0	0.0	part_2
202	1.0	6.0			400.0	0.0	1.0							6.0	0.0	0.36475513087498257	6.0	350.0	1.0	8.0	5.0	2.0	0.0	part_2
203	1.0	6.0			400.0	0.0	0.0							6.0	0.0	0.35481893787073204	6.0	350.0	3.0	6.0	3.0	5.0	0.0	part_2
204	1.0	6.0			400.0	0.0	1.0							5.0	0.0	0.6257163395566749	5.0	350.0	4.0	1.0	8.0	4.0	0.0	part_2
205	4.0	6.0			400.0	0.0	1.0							5.0	0.0	0.0	0.0	350.0	4.0	1.0	8.0	4.0	1.0	part_2
206	1.0	6.0			450.0	0.0	0.0							6.0	0.0	0.7618387224865728	6.0	350.0	1.0	2.0	1.0	8.0	0.0	part_2
207	1.0	6.0			450.0	0.0	0.0							6.0	0.0	0.6612855386192678	6.0	350.0	3.0	6.0	3.0	5.0	0.0	part_2
208	4.0	6.0			450.0	0.0	1.0							5.0	0.0	0.0	0.0	350.0	1.0	8.0	5.0	2.0	1.0	part_2
209	1.0	6.0			500.0	0.0	0.0							6.0	0.0	0.4268157176193199	6.0	350.0	1.0	2.0	1.0	8.0	0.0	part_2
210	4.0	6.0			500.0	0.0	1.0							6.0	0.0	0.0	0.0	350.0	1.0	8.0	5.0	2.0	1.0	part_2
211	1.0	6.0			500.0	0.0	0.0							6.0	0.0	0.5526646808721125	6.0	400.0	1.0	2.0	1.0	8.0	0.0	part_2
212	4.0	6.0			500.0	0.0	1.0							5.0	0.0	0.0	0.0	400.0	2.0	7.0	6.0	6.0	1.0	part_2
213	4.0	6.0			550.0	0.0	1.0							6.0	0.0	0.0	0.0	400.0	3.0	3.0	7.0	1.0	1.0	part_2
214	3.0	6.0			550.0	0.0	1.0							6.0	0.0	0.5335439807386138	6.0	450.0	4.0	1.0	8.0	4.0	1.0	part_2
215	1.0	6.0			550.0	0.0	0.0							6.0	0.0	0.8039474438701291	6.0	400.0	4.0	5.0	4.0	3.0	0.0	part_2
216	1.0	7.0			550.0	0.0	0.0							5.0	0.0	0.6605418378094328	5.0	400.0	4.0	5.0	4.0	3.0	0.0	part_2
217	1.0	7.0			550.0	0.0	0.0							6.0	0.0	0.5261315776151605	6.0	400.0	2.0	4.0	2.0	7.0	0.0	part_2
218	1.0	7.0			550.0	0.0	0.0							6.0	0.0	0.4594777136808261	6.0	400.0	4.0	5.0	4.0	3.0	0.0	part_2
219	3.0	7.0			550.0	0.0	1.0							6.0	0.0	0.5296171330046491	6.0	400.0	3.0	3.0	7.0	1.0	1.0	part_2
220	1.0	7.0			550.0	0.0	0.0							6.0	0.0	0.5736388007426285	6.0	350.0	1.0	2.0	1.0	8.0	0.0	part_2
221	4.0	7.0			550.0	0.0	1.0							6.0	0.0	0.0	0.0	350.0	4.0	1.0	8.0	4.0	1.0	part_2
222	1.0	7.0			550.0	0.0	0.0							6.0	0.0	0.5081011929942179	6.0	400.0	2.0	4.0	2.0	7.0	0.0	part_2
223	1.0	7.0			550.0	0.0	0.0							6.0	0.0	0.599451659611077	6.0	400.0	4.0	5.0	4.0	3.0	0.0	part_2
224	4.0	7.0			550.0	0.0	1.0							6.0	0.0	0.0	0.0	400.0	2.0	7.0	6.0	6.0	1.0	part_2
225	1.0	7.0			550.0	0.0	0.0							6.0	0.0	0.4776363828132162	6.0	450.0	4.0	5.0	4.0	3.0	0.0	part_2
226	3.0	7.0			550.0	0.0	1.0							5.0	0.0	0.5337110146792838	5.0	450.0	4.0	1.0	8.0	4.0	1.0	part_2
227	4.0	7.0			500.0	0.0	1.0							5.0	0.0	0.0	0.0	450.0	1.0	8.0	5.0	2.0	1.0	part_2
228	1.0	7.0			550.0	0.0	0.0							6.0	0.0	0.6821808077438618	6.0	450.0	1.0	2.0	1.0	8.0	0.0	part_2
229	1.0	7.0			550.0	0.0	0.0							5.0	0.0	0.5031553959343	5.0	450.0	3.0	6.0	3.0	5.0	0.0	part_2
230	1.0	7.0			550.0	0.0	0.0							5.0	0.0	0.6833398798116832	5.0	450.0	2.0	4.0	2.0	7.0	0.0	part_2
231	1.0	7.0			550.0	0.0	0.0							5.0	0.0	0.6053681038756622	5.0	450.0	1.0	2.0	1.0	8.0	0.0	part_2
232	3.0	7.0			550.0	0.0	1.0							6.0	0.0	0.5179420216736617	6.0	450.0	1.0	8.0	5.0	2.0	1.0	part_2
233	1.0	7.0			550.0	0.0	0.0							6.0	0.0	0.81021769974177	6.0	400.0	3.0	6.0	3.0	5.0	0.0	part_2
234	1.0	7.0			550.0	0.0	1.0							6.0	0.0	0.8792769608116942	6.0	400.0	2.0	7.0	6.0	6.0	0.0	part_2
235	1.0	7.0			550.0	0.0	0.0							5.0	0.0	0.372782745063887	5.0	400.0	3.0	6.0	3.0	5.0	0.0	part_2
236	1.0	7.0			550.0	0.0	0.0							5.0	0.0	0.7448060648093815	5.0	400.0	2.0	4.0	2.0	7.0	0.0	part_2
237	1.0	7.0			550.0	0.0	0.0							5.0	0.0	0.4639047284872504	5.0	400.0	3.0	6.0	3.0	5.0	0.0	part_2
238	1.0	7.0			550.0	0.0	0.0							6.0	0.0	0.3412274258080288	6.0	400.0	3.0	6.0	3.0	5.0	0.0	part_2
239	3.0	7.0			550.0	0.0	1.0							6.0	0.0	0.37603769380802987	6.0	400.0	1.0	8.0	5.0	2.0	1.0	part_2
240	1.0	7.0			550.0	0.0	0.0							6.0	0.0	0.6592003807381843	6.0	350.0	3.0	6.0	3.0	5.0	0.0	part_2
241	3.0	7.0			550.0	0.0	1.0							5.0	0.0	0.693059396740864	5.0	350.0	2.0	7.0	6.0	6.0	1.0	part_2
242	1.0	7.0			500.0	0.0	1.0							6.0	0.0	0.9856617558107246	6.0	350.0	2.0	7.0	6.0	6.0	0.0	part_2
243	1.0	7.0			500.0	0.0	0.0							6.0	0.0	0.5606163370612194	6.0	350.0	4.0	5.0	4.0	3.0	0.0	part_2
244	1.0	7.0			500.0	0.0	1.0							6.0	0.0	0.42490759481006535	6.0	350.0	4.0	1.0	8.0	4.0	0.0	part_2
245	3.0	7.0			500.0	0.0	1.0							5.0	0.0	0.5846306857420132	5.0	350.0	2.0	7.0	6.0	6.0	1.0	part_2
246	1.0	7.0			450.0	0.0	0.0							6.0	0.0	0.7417789768733201	6.0	350.0	4.0	5.0	4.0	3.0	0.0	part_2
247	3.0	7.0			450.0	0.0	1.0							5.0	0.0	0.42893379187444225	5.0	350.0	1.0	8.0	5.0	2.0	1.0	part_2
248	1.0	7.0			400.0	0.0	0.0							6.0	0.0	0.3848890566805494	6.0	350.0	3.0	6.0	3.0	5.0	0.0	part_2
249	1.0	7.0			400.0	0.0	0.0							5.0	0.0	0.7099769498745445	5.0	350.0	1.0	2.0	1.0	8.0	0.0	part_2
250	1.0	7.0			400.0	0.0	0.0							5.0	0.0	0.5545135316788219	5.0	350.0	2.0	4.0	2.0	7.0	0.0	part_2
251	4.0	7.0			400.0	0.0	1.0							5.0	0.0	0.0	0.0	350.0	2.0	7.0	6.0	6.0	1.0	part_2
252	1.0	8.0			450.0	0.0	0.0							6.0	0.0	0.4342728009360144	6.0	350.0	1.0	2.0	1.0	8.0	0.0	part_2
253	1.0	8.0			450.0	0.0	0.0							6.0	0.0	0.3799309308742522	6.0	350.0	4.0	5.0	4.0	3.0	0.0	part_2
254	1.0	8.0			450.0	0.0	1.0							6.0	0.0	0.5925167734894785	6.0	350.0	1.0	8.0	5.0	2.0	0.0	part_2
255	3.0	8.0			450.0	0.0	1.0							6.0	0.0	0.35786916405777447	6.0	350.0	3.0	3.0	7.0	1.0	1.0	part_2
256	1.0	8.0			450.0	0.0	1.0							5.0	0.0	0.6179758447397035	5.0	300.0	3.0	3.0	7.0	1.0	0.0	part_2
257	4.0	8.0			450.0	0.0	1.0							6.0	0.0	0.0	0.0	300.0	4.0	1.0	8.0	4.0	1.0	part_2
258	1.0	8.0			450.0	0.0	0.0							5.0	0.0	0.4952016378156259	5.0	350.0	4.0	5.0	4.0	3.0	0.0	part_2
259	3.0	8.0			450.0	0.0	1.0							5.0	0.0	0.6198969838151243	5.0	350.0	2.0	7.0	6.0	6.0	1.0	part_2
260	1.0	8.0			400.0	0.0	1.0							6.0	0.0	0.6220390716116526	6.0	350.0	1.0	8.0	5.0	2.0	0.0	part_2
261	1.0	8.0			400.0	0.0	0.0							5.0	0.0	0.6907129167375388	5.0	350.0	4.0	5.0	4.0	3.0	0.0	part_2
262	1.0	8.0			400.0	0.0	1.0							6.0	0.0	0.5222122625491465	6.0	350.0	2.0	7.0	6.0	6.0	0.0	part_2
263	1.0	8.0			400.0	0.0	0.0							6.0	0.0	0.4670805618079612	6.0	350.0	2.0	4.0	2.0	7.0	0.0	part_2
264	1.0	8.0			400.0	0.0	1.0							6.0	0.0	0.6462719959381502	6.0	350.0	2.0	7.0	6.0	6.0	0.0	part_2
265	3.0	8.0			400.0	0.0	1.0							6.0	0.0	0.4338205217354698	6.0	350.0	3.0	3.0	7.0	1.0	1.0	part_2
266	4.0	8.0			400.0	0.0	1.0							6.0	0.0	0.0	0.0	300.0	3.0	3.0	7.0	1.0	1.0	part_2
267	3.0	8.0			400.0	0.0	1.0							5.0	0.0	0.4702564248145791	5.0	350.0	4.0	1.0	8.0	4.0	1.0	part_2
268	1.0	8.0			350.0	0.0	0.0							5.0	0.0	0.44704949119477533	5.0	350.0	2.0	4.0	2.0	7.0	0.0	part_2
269	4.0	8.0			350.0	0.0	1.0							5.0	0.0	0.0	0.0	350.0	1.0	8.0	5.0	2.0	1.0	part_2
270	4.0	8.0			400.0	0.0	1.0							6.0	0.0	0.0	0.0	350.0	3.0	3.0	7.0	1.0	1.0	part_2
271	4.0	8.0			400.0	0.0	1.0							6.0	0.0	0.0	0.0	400.0	1.0	8.0	5.0	2.0	1.0	part_2
272	1.0	8.0			400.0	0.0	1.0							5.0	0.0	0.5980896730688983	5.0	450.0	3.0	3.0	7.0	1.0	0.0	part_2
273	1.0	8.0			400.0	0.0	0.0							5.0	0.0	0.4739074786193669	5.0	450.0	1.0	2.0	1.0	8.0	0.0	part_2
274	3.0	8.0			400.0	0.0	1.0							5.0	0.0	0.49827201473817695	5.0	450.0	4.0	1.0	8.0	4.0	1.0	part_2
275	4.0	8.0			350.0	0.0	1.0							5.0	0.0	0.0	0.0	450.0	4.0	1.0	8.0	4.0	1.0	part_2
276	3.0	8.0			400.0	0.0	1.0							6.0	0.0	0.44386773267615354	6.0	450.0	4.0	1.0	8.0	4.0	1.0	part_2
277	1.0	8.0			400.0	0.0	0.0							5.0	0.0	0.5685173148085596	5.0	400.0	3.0	6.0	3.0	5.0	0.0	part_2
278	1.0	8.0			400.0	0.0	0.0							5.0	0.0	0.55623970986926	5.0	400.0	4.0	5.0	4.0	3.0	0.0	part_2
279	4.0	8.0			400.0	0.0	1.0							6.0	0.0	0.0	0.0	400.0	3.0	3.0	7.0	1.0	1.0	part_2
280	1.0	8.0			400.0	0.0	0.0							5.0	0.0	0.6034280706735444	5.0	450.0	3.0	6.0	3.0	5.0	0.0	part_2
281	1.0	8.0			400.0	0.0	0.0							5.0	0.0	0.6151299775519874	5.0	450.0	4.0	5.0	4.0	3.0	0.0	part_2
282	1.0	8.0			400.0	0.0	1.0							5.0	0.0	0.718341503488773	5.0	450.0	1.0	8.0	5.0	2.0	0.0	part_2
283	1.0	8.0			400.0	0.0	1.0							6.0	0.0	0.6281419647420989	6.0	450.0	3.0	3.0	7.0	1.0	0.0	part_2
284	1.0	8.0			400.0	0.0	0.0							5.0	0.0	0.5745247257436858	5.0	450.0	3.0	6.0	3.0	5.0	0.0	part_2
285	1.0	8.0			400.0	0.0	0.0							5.0	0.0	0.8225625979393953	5.0	450.0	1.0	2.0	1.0	8.0	0.0	part_2
286	1.0	8.0			400.0	0.0	0.0							6.0	0.0	0.4626021608710289	6.0	450.0	4.0	5.0	4.0	3.0	0.0	part_2
287	3.0	8.0			400.0	0.0	1.0							5.0	0.0	0.4299963158046012	5.0	450.0	3.0	3.0	7.0	1.0	1.0	part_2
0	0.0	1.0	220.0	5.0	0.0	1.0	0.0	176.0	264.0	88.0	220.0	132.0	44.0	7.0	0.0	2.363354489993071	4.0	0.0	3.0	6.0	3.0	5.0	0.0	part_3
1	0.0	1.0	156.0	4.0	0.0	1.0	1.0	117.0	39.0	234.0	78.0	156.0	195.0	7.0	0.0	1.4919744913931936	5.0	0.0	3.0	3.0	7.0	1.0	0.0	part_3
2	0.0	1.0	44.0	1.0	0.0	1.0	1.0	132.0	88.0	220.0	44.0	176.0	264.0	7.0	0.0	2.0776160763998632	4.0	0.0	2.0	7.0	6.0	6.0	0.0	part_3
3	0.0	1.0	108.0	2.0	0.0	1.0	1.0	216.0	270.0	324.0	54.0	162.0	108.0	7.0	0.0	1.9549465257950942	6.0	0.0	1.0	8.0	5.0	2.0	0.0	part_3
4	0.0	1.0	195.0	5.0	0.0	1.0	1.0	78.0	234.0	117.0	195.0	156.0	39.0	7.0	0.0	2.541222226791433	4.0	0.0	4.0	1.0	8.0	4.0	0.0	part_3
5	0.0	1.0	108.0	2.0	0.0	1.0	1.0	54.0	108.0	270.0	216.0	324.0	162.0	7.0	0.0	2.5531161663966486	2.0	0.0	3.0	3.0	7.0	1.0	0.0	part_3
6	0.0	1.0	270.0	5.0	0.0	1.0	0.0	216.0	324.0	54.0	162.0	108.0	270.0	7.0	0.0	2.139937803200155	6.0	0.0	4.0	5.0	4.0	3.0	0.0	part_3
7	0.0	1.0	196.0	4.0	0.0	1.0	0.0	147.0	294.0	98.0	245.0	196.0	49.0	7.0	0.0	2.1387129109934904	5.0	0.0	1.0	2.0	1.0	8.0	0.0	part_3
8	0.0	1.0	220.0	5.0	0.0	1.0	0.0	132.0	264.0	88.0	220.0	44.0	176.0	7.0	0.0	2.546255278393801	4.0	0.0	4.0	5.0	4.0	3.0	0.0	part_3
9	0.0	1.0	136.0	4.0	0.0	1.0	1.0	136.0	102.0	68.0	34.0	170.0	204.0	7.0	0.0	1.6581411459919764	1.0	0.0	1.0	8.0	5.0	2.0	0.0	part_3
10	0.0	1.0	264.0	6.0	0.0	1.0	1.0	132.0	264.0	220.0	88.0	176.0	44.0	7.0	0.0	2.806521414400777	2.0	0.0	3.0	3.0	7.0	1.0	0.0	part_3
11	0.0	1.0	102.0	3.0	0.0	1.0	1.0	102.0	204.0	68.0	34.0	170.0	136.0	7.0	0.0	2.3577988507895498	1.0	0.0	3.0	3.0	7.0	1.0	0.0	part_3
12	0.0	1.0	156.0	4.0	0.0	1.0	1.0	195.0	39.0	156.0	234.0	78.0	117.0	7.0	0.0	1.8419759329917724	3.0	0.0	3.0	3.0	7.0	1.0	0.0	part_3
13	0.0	1.0	204.0	6.0	0.0	1.0	0.0	102.0	34.0	170.0	68.0	204.0	136.0	7.0	0.0	1.337514848994033	5.0	0.0	4.0	5.0	4.0	3.0	0.0	part_3
14	0.0	1.0	34.0	1.0	0.0	1.0	1.0	102.0	34.0	136.0	204.0	170.0	68.0	7.0	0.0	1.325704184397182	2.0	0.0	2.0	7.0	6.0	6.0	0.0	part_3
15	0.0	1.0	147.0	3.0	0.0	1.0	0.0	294.0	98.0	196.0	245.0	147.0	49.0	7.0	0.0	2.2716075815988006	5.0	0.0	3.0	6.0	3.0	5.0	0.0	part_3
16	0.0	1.0	68.0	2.0	0.0	1.0	0.0	204.0	170.0	68.0	102.0	34.0	136.0	7.0	0.0	2.3528776083985576	3.0	0.0	2.0	4.0	2.0	7.0	0.0	part_3
17	0.0	1.0	39.0	1.0	0.0	1.0	1.0	156.0	234.0	195.0	78.0	39.0	117.0	7.0	0.0	1.1484127673975308	5.0	0.0	2.0	7.0	6.0	6.0	0.0	part_3
18	0.0	1.0	78.0	2.0	0.0	1.0	0.0	195.0	39.0	117.0	156.0	78.0	234.0	7.0	0.0	1.9726783693986363	5.0	0.0	1.0	2.0	1.0	8.0	0.0	part_3
19	0.0	1.0	162.0	3.0	0.0	1.0	1.0	162.0	108.0	54.0	216.0	324.0	270.0	7.0	0.0	3.401503622189921	1.0	0.0	1.0	8.0	5.0	2.0	0.0	part_3
20	0.0	2.0	234.0	6.0	0.0	1.0	0.0	195.0	39.0	78.0	117.0	234.0	156.0	7.0	0.0	1.4232226323802024	5.0	0.0	2.0	4.0	2.0	7.0	0.0	part_3
21	0.0	2.0	117.0	3.0	0.0	1.0	0.0	78.0	117.0	234.0	156.0	195.0	39.0	7.0	0.0	1.5585679573923699	2.0	0.0	3.0	6.0	3.0	5.0	0.0	part_3
22	0.0	2.0	108.0	2.0	0.0	1.0	0.0	108.0	162.0	54.0	270.0	324.0	216.0	7.0	0.0	1.3560883247992024	1.0	0.0	2.0	4.0	2.0	7.0	0.0	part_3
23	0.0	2.0	156.0	4.0	0.0	1.0	1.0	234.0	195.0	117.0	78.0	39.0	156.0	7.0	0.0	2.0325478795930394	6.0	0.0	4.0	1.0	8.0	4.0	0.0	part_3
24	0.0	2.0	270.0	5.0	0.0	1.0	1.0	270.0	216.0	108.0	162.0	324.0	54.0	7.0	0.0	2.5953981973798363	1.0	0.0	4.0	1.0	8.0	4.0	0.0	part_3
25	0.0	2.0	44.0	1.0	0.0	1.0	1.0	132.0	176.0	88.0	220.0	264.0	44.0	7.0	0.0	1.2929234035982518	6.0	0.0	2.0	7.0	6.0	6.0	0.0	part_3
26	0.0	2.0	54.0	1.0	0.0	1.0	0.0	162.0	270.0	108.0	324.0	216.0	54.0	7.0	0.0	1.6758781813841779	6.0	0.0	1.0	2.0	1.0	8.0	0.0	part_3
27	0.0	2.0	245.0	5.0	0.0	1.0	1.0	294.0	196.0	49.0	147.0	98.0	245.0	7.0	0.0	1.655155834800098	6.0	0.0	4.0	1.0	8.0	4.0	0.0	part_3
28	0.0	2.0	147.0	3.0	0.0	1.0	1.0	49.0	147.0	245.0	294.0	98.0	196.0	7.0	0.0	2.2756603243906284	2.0	0.0	1.0	8.0	5.0	2.0	0.0	part_3
29	0.0	2.0	147.0	3.0	0.0	1.0	1.0	98.0	147.0	196.0	245.0	49.0	294.0	7.0	0.0	2.354280072999245	2.0	0.0	1.0	8.0	5.0	2.0	0.0	part_3
30	0.0	2.0	196.0	4.0	0.0	1.0	1.0	147.0	98.0	49.0	196.0	245.0	294.0	7.0	0.0	3.504048719580169	4.0	0.0	3.0	3.0	7.0	1.0	0.0	part_3
31	0.0	2.0	68.0	2.0	0.0	1.0	0.0	34.0	102.0	68.0	170.0	204.0	136.0	7.0	0.0	1.9750207303804928	3.0	0.0	1.0	2.0	1.0	8.0	0.0	part_3
32	0.0	2.0	117.0	3.0	0.0	1.0	1.0	78.0	156.0	234.0	195.0	117.0	39.0	7.0	0.0	1.942464584193658	5.0	0.0	1.0	8.0	5.0	2.0	0.0	part_3
33	0.0	2.0	220.0	5.0	0.0	1.0	1.0	132.0	88.0	220.0	264.0	44.0	176.0	7.0	0.0	2.494991869192745	3.0	0.0	4.0	1.0	8.0	4.0	0.0	part_3
34	0.0	2.0	68.0	2.0	0.0	1.0	0.0	136.0	170.0	34.0	68.0	204.0	102.0	7.0	0.0	1.3921213097928558	4.0	0.0	1.0	2.0	1.0	8.0	0.0	part_3
35	0.0	2.0	136.0	4.0	0.0	1.0	0.0	170.0	34.0	68.0	204.0	136.0	102.0	7.0	0.0	1.5170585357918753	5.0	0.0	2.0	4.0	2.0	7.0	0.0	part_3
36	0.0	2.0	170.0	5.0	0.0	1.0	1.0	68.0	34.0	170.0	102.0	204.0	136.0	7.0	0.0	2.756722647791321	3.0	0.0	3.0	3.0	7.0	1.0	0.0	part_3
37	0.0	2.0	196.0	4.0	0.0	1.0	0.0	147.0	245.0	49.0	98.0	196.0	294.0	7.0	0.0	1.4398045131965773	5.0	0.0	1.0	2.0	1.0	8.0	0.0	part_3
38	0.0	2.0	54.0	1.0	0.0	1.0	1.0	54.0	162.0	270.0	216.0	324.0	108.0	7.0	0.0	1.0939673765969928	1.0	0.0	2.0	7.0	6.0	6.0	0.0	part_3
39	0.0	2.0	108.0	2.0	0.0	1.0	0.0	108.0	162.0	324.0	270.0	54.0	216.0	7.0	0.0	3.152087704394944	1.0	0.0	1.0	2.0	1.0	8.0	0.0	part_3
40	0.0	3.0	162.0	3.0	0.0	1.0	0.0	270.0	54.0	108.0	324.0	162.0	216.0	7.0	0.0	2.335159670386929	5.0	0.0	2.0	4.0	2.0	7.0	0.0	part_3
41	0.0	3.0	294.0	6.0	0.0	1.0	0.0	196.0	294.0	147.0	245.0	98.0	49.0	7.0	0.0	1.3674957851981162	2.0	0.0	4.0	5.0	4.0	3.0	0.0	part_3
42	0.0	3.0	136.0	4.0	0.0	1.0	1.0	34.0	204.0	68.0	170.0	136.0	102.0	7.0	0.0	3.9452838560027885	5.0	0.0	4.0	1.0	8.0	4.0	0.0	part_3
43	0.0	3.0	132.0	3.0	0.0	1.0	0.0	44.0	176.0	88.0	264.0	220.0	132.0	7.0	0.0	3.405937734991312	6.0	0.0	3.0	6.0	3.0	5.0	0.0	part_3
44	0.0	3.0	162.0	3.0	0.0	1.0	1.0	54.0	324.0	270.0	162.0	216.0	108.0	7.0	0.0	2.8000460513940197	4.0	0.0	3.0	3.0	7.0	1.0	0.0	part_3
45	0.0	3.0	49.0	1.0	0.0	1.0	1.0	49.0	245.0	147.0	196.0	294.0	98.0	7.0	0.0	0.8766030837941798	1.0	0.0	2.0	7.0	6.0	6.0	0.0	part_3
46	0.0	3.0	136.0	4.0	0.0	1.0	1.0	204.0	102.0	68.0	136.0	170.0	34.0	7.0	0.0	2.6461462959923665	4.0	0.0	4.0	1.0	8.0	4.0	0.0	part_3
47	0.0	3.0	147.0	3.0	0.0	1.0	0.0	49.0	147.0	294.0	245.0	196.0	98.0	7.0	0.0	1.6455071143936948	2.0	0.0	2.0	4.0	2.0	7.0	0.0	part_3
48	0.0	3.0	170.0	5.0	0.0	1.0	0.0	170.0	68.0	34.0	102.0	204.0	136.0	7.0	0.0	3.242900722383638	1.0	0.0	3.0	6.0	3.0	5.0	0.0	part_3
49	0.0	3.0	54.0	1.0	0.0	1.0	1.0	324.0	270.0	162.0	216.0	54.0	108.0	7.0	0.0	1.4887715035947622	5.0	0.0	2.0	7.0	6.0	6.0	0.0	part_3
50	0.0	3.0	132.0	3.0	0.0	1.0	1.0	88.0	176.0	132.0	264.0	220.0	44.0	7.0	0.0	3.526190848198894	3.0	0.0	1.0	8.0	5.0	2.0	0.0	part_3
51	0.0	3.0	88.0	2.0	0.0	1.0	0.0	264.0	176.0	132.0	44.0	220.0	88.0	7.0	0.0	1.884913923793647	6.0	0.0	1.0	2.0	1.0	8.0	0.0	part_3
52	0.0	3.0	234.0	6.0	0.0	1.0	0.0	117.0	39.0	78.0	156.0	234.0	195.0	7.0	0.0	1.8305759737995686	5.0	0.0	4.0	5.0	4.0	3.0	0.0	part_3
53	0.0	3.0	162.0	3.0	0.0	1.0	0.0	54.0	270.0	216.0	324.0	108.0	162.0	7.0	0.0	3.281674739999289	6.0	0.0	3.0	6.0	3.0	5.0	0.0	part_3
54	0.0	3.0	117.0	3.0	0.0	1.0	1.0	117.0	78.0	195.0	234.0	39.0	156.0	7.0	0.0	2.6088918058012496	1.0	0.0	1.0	8.0	5.0	2.0	0.0	part_3
55	0.0	3.0	234.0	6.0	0.0	1.0	0.0	234.0	117.0	156.0	78.0	195.0	39.0	7.0	0.0	1.2366494899906684	1.0	0.0	4.0	5.0	4.0	3.0	0.0	part_3
56	0.0	3.0	98.0	2.0	0.0	1.0	0.0	98.0	147.0	294.0	245.0	196.0	49.0	7.0	0.0	3.1063848457997665	1.0	0.0	2.0	4.0	2.0	7.0	0.0	part_3
57	0.0	3.0	78.0	2.0	0.0	1.0	0.0	117.0	78.0	195.0	234.0	39.0	156.0	7.0	0.0	2.397155847385875	2.0	0.0	2.0	4.0	2.0	7.0	0.0	part_3
58	0.0	3.0	245.0	5.0	0.0	1.0	1.0	147.0	294.0	196.0	49.0	245.0	98.0	7.0	0.0	2.2861820573889418	5.0	0.0	4.0	1.0	8.0	4.0	0.0	part_3
59	0.0	3.0	264.0	6.0	0.0	1.0	1.0	88.0	132.0	176.0	264.0	44.0	220.0	7.0	0.0	2.5135759779950604	4.0	0.0	4.0	1.0	8.0	4.0	0.0	part_3
60	0.0	4.0	204.0	6.0	0.0	1.0	0.0	34.0	68.0	102.0	204.0	136.0	170.0	7.0	0.0	1.3994376137925428	4.0	0.0	4.0	5.0	4.0	3.0	0.0	part_3
61	0.0	4.0	132.0	3.0	0.0	1.0	0.0	220.0	132.0	88.0	176.0	44.0	264.0	7.0	0.0	1.6132255003976752	2.0	0.0	2.0	4.0	2.0	7.0	0.0	part_3
62	0.0	4.0	108.0	2.0	0.0	1.0	0.0	324.0	270.0	54.0	162.0	216.0	108.0	7.0	0.0	1.7952768401955836	6.0	0.0	3.0	6.0	3.0	5.0	0.0	part_3
63	0.0	4.0	34.0	1.0	0.0	1.0	1.0	170.0	68.0	34.0	136.0	204.0	102.0	7.0	0.0	1.6050103433954064	3.0	0.0	2.0	7.0	6.0	6.0	0.0	part_3
64	0.0	4.0	147.0	3.0	0.0	1.0	1.0	49.0	245.0	147.0	294.0	196.0	98.0	7.0	0.0	2.7313393487929716	3.0	0.0	3.0	3.0	7.0	1.0	0.0	part_3
65	0.0	4.0	39.0	1.0	0.0	1.0	1.0	234.0	156.0	117.0	195.0	78.0	39.0	7.0	0.0	1.3591807225893717	6.0	0.0	2.0	7.0	6.0	6.0	0.0	part_3
66	0.0	4.0	176.0	4.0	0.0	1.0	1.0	176.0	220.0	88.0	44.0	132.0	264.0	7.0	0.0	2.6323586832004366	1.0	0.0	3.0	3.0	7.0	1.0	0.0	part_3
67	0.0	4.0	170.0	5.0	0.0	1.0	0.0	102.0	170.0	34.0	136.0	204.0	68.0	7.0	0.0	2.2503396663814783	2.0	0.0	3.0	6.0	3.0	5.0	0.0	part_3
68	0.0	4.0	132.0	3.0	0.0	1.0	0.0	132.0	264.0	220.0	176.0	88.0	44.0	7.0	0.0	1.5655740384027013	1.0	0.0	2.0	4.0	2.0	7.0	0.0	part_3
69	0.0	4.0	147.0	3.0	0.0	1.0	0.0	196.0	294.0	49.0	147.0	98.0	245.0	7.0	0.0	3.05087352659757	4.0	0.0	3.0	6.0	3.0	5.0	0.0	part_3
70	0.0	4.0	88.0	2.0	0.0	1.0	0.0	88.0	264.0	220.0	44.0	132.0	176.0	7.0	0.0	1.342775296398031	1.0	0.0	1.0	2.0	1.0	8.0	0.0	part_3
71	0.0	4.0	156.0	4.0	0.0	1.0	0.0	78.0	195.0	156.0	117.0	234.0	39.0	7.0	0.0	2.457494677393697	3.0	0.0	3.0	6.0	3.0	5.0	0.0	part_3
72	0.0	4.0	294.0	6.0	0.0	1.0	0.0	245.0	49.0	294.0	98.0	196.0	147.0	7.0	0.0	1.1978130609932123	3.0	0.0	4.0	5.0	4.0	3.0	0.0	part_3
73	0.0	4.0	264.0	6.0	0.0	1.0	0.0	176.0	264.0	220.0	132.0	88.0	44.0	7.0	0.0	1.9294507766026072	2.0	0.0	4.0	5.0	4.0	3.0	0.0	part_3
74	0.0	4.0	176.0	4.0	0.0	1.0	1.0	264.0	88.0	132.0	44.0	176.0	220.0	7.0	0.0	2.403929422798683	5.0	0.0	1.0	8.0	5.0	2.0	0.0	part_3
75	0.0	4.0	170.0	5.0	0.0	1.0	1.0	136.0	34.0	102.0	170.0	68.0	204.0	7.0	0.0	1.7066964905825444	4.0	0.0	1.0	8.0	5.0	2.0	0.0	part_3
76	0.0	4.0	270.0	5.0	0.0	1.0	1.0	216.0	162.0	270.0	324.0	54.0	108.0	7.0	0.0	3.103832329994475	3.0	0.0	4.0	1.0	8.0	4.0	0.0	part_3
77	0.0	4.0	78.0	2.0	0.0	1.0	0.0	78.0	195.0	234.0	117.0	156.0	39.0	7.0	0.0	2.3299792959951446	1.0	0.0	1.0	2.0	1.0	8.0	0.0	part_3
78	0.0	4.0	324.0	6.0	0.0	1.0	0.0	162.0	108.0	216.0	54.0	324.0	270.0	7.0	0.0	1.710835701196629	5.0	0.0	4.0	5.0	4.0	3.0	0.0	part_3
79	0.0	4.0	294.0	6.0	0.0	1.0	1.0	196.0	98.0	294.0	245.0	147.0	49.0	7.0	0.0	2.1726781479883357	3.0	0.0	2.0	7.0	6.0	6.0	0.0	part_3
