	accuracy	block	chosen_bidding_amount	chosen_bidding_level	left_SSD	num_trial_presentations	paired_with_stopping	possible_bid_1	possible_bid_2	possible_bid_3	possible_bid_4	possible_bid_5	possible_bid_6	quadrant	raw_reward_magnitude	reaction_time	response	right_SSD	stepwise_reward_magnitude	stim_color	stim_reward	stim_shape	stop_signal_trial_type	which_part
0		1.0				1.0	0.0							3.0	194.0	0.3735809999823232	3.0		3.0	5.0	3.0	4.0		part_1
1		1.0				1.0	0.0							4.0	0.0	0.48615533956831314	4.0		0.0	2.0	2.0	1.0		part_1
2		1.0				1.0	1.0							1.0	222.0	0.7566247309998744	1.0		3.0	7.0	7.0	2.0		part_1
3		1.0				1.0	0.0							4.0	61.0	0.41911023339616804	4.0		1.0	8.0	1.0	7.0		part_1
4		1.0				1.0	1.0							2.0	0.0	0.31960564577502737	2.0		0.0	3.0	6.0	6.0		part_1
5		1.0				1.0	0.0							4.0	391.0	0.37517194858583025	4.0		4.0	4.0	4.0	5.0		part_1
6		1.0				1.0	1.0							3.0	207.0	0.3540525857749799	3.0		3.0	7.0	7.0	2.0		part_1
7		1.0				1.0	0.0							2.0	417.0	0.3768491303785595	2.0		4.0	4.0	4.0	5.0		part_1
8		1.0				1.0	1.0							2.0	411.0	0.3657958253786546	2.0		4.0	6.0	8.0	3.0		part_1
9		1.0				1.0	0.0							2.0	122.0	0.41210575558579876	2.0		2.0	2.0	2.0	1.0		part_1
10		1.0				1.0	0.0							1.0	49.0	0.3783234445859307	1.0		1.0	8.0	1.0	7.0		part_1
11		1.0				1.0	1.0							4.0	90.0	0.4005682147931111	4.0		2.0	3.0	6.0	6.0		part_1
12		1.0				1.0	1.0							3.0	391.0	0.391174674793092	3.0		4.0	6.0	8.0	3.0		part_1
13		1.0				1.0	0.0							2.0	402.0	0.30121646358588805	2.0		4.0	4.0	4.0	5.0		part_1
14		1.0				1.0	0.0							4.0	408.0	0.34658099839634815	4.0		4.0	4.0	4.0	5.0		part_1
15		1.0				1.0	1.0							4.0	105.0	0.36002432317150124	4.0		2.0	3.0	6.0	6.0		part_1
16		1.0				1.0	0.0							3.0	69.0	0.3706109145857681	3.0		1.0	8.0	1.0	7.0		part_1
17		1.0				1.0	1.0							1.0	0.0	0.3143555083963747	1.0		0.0	7.0	7.0	2.0		part_1
18		1.0				1.0	1.0							1.0	190.0	0.40641837518933244	1.0		3.0	7.0	7.0	2.0		part_1
19		1.0				1.0	1.0							1.0	385.0	0.40601807877533247	1.0		4.0	6.0	8.0	3.0		part_1
20		1.0				1.0	0.0							4.0	204.0	0.3497639205679661	4.0		3.0	5.0	3.0	4.0		part_1
21		1.0				1.0	1.0							1.0	0.0	0.3392835573963566	1.0		0.0	7.0	7.0	2.0		part_1
22		1.0				1.0	1.0							2.0	0.0	0.4428338713787525	2.0		0.0	1.0	5.0	8.0		part_1
23		1.0				1.0	0.0							2.0	189.0	0.3067152099822579	2.0		3.0	5.0	3.0	4.0		part_1
24		1.0				1.0	1.0							4.0	37.0	0.37500575337867303	4.0		1.0	1.0	5.0	8.0		part_1
25		1.0				1.0	1.0							4.0	198.0	0.33157863698238543	4.0		3.0	7.0	7.0	2.0		part_1
26		1.0				1.0	0.0							4.0	407.0	0.35345725058596145	4.0		4.0	4.0	4.0	5.0		part_1
27		1.0				1.0	1.0							3.0	0.0	0.34213598198221007	3.0		0.0	1.0	5.0	8.0		part_1
28		1.0				1.0	0.0							2.0	392.0	0.45662886160380367	2.0		4.0	4.0	4.0	5.0		part_1
29		1.0				1.0	0.0							1.0	178.0	0.3896035941716036	1.0		3.0	5.0	3.0	4.0		part_1
30		1.0				1.0	1.0							1.0	69.0	0.3574420715860924	1.0		1.0	1.0	5.0	8.0		part_1
31		1.0				1.0	0.0							1.0	54.0	0.3567278531716056	1.0		1.0	8.0	1.0	7.0		part_1
32		1.0				1.0	1.0							2.0	0.0	0.3134393133964295	2.0		0.0	3.0	6.0	6.0		part_1
33		1.0				1.0	0.0							2.0	61.0	0.3360737083787626	2.0		1.0	8.0	1.0	7.0		part_1
34		1.0				1.0	0.0							1.0	56.0	0.3804946867930994	1.0		1.0	8.0	1.0	7.0		part_1
35		1.0				1.0	0.0							3.0	59.0	0.34807435137872744	3.0		1.0	8.0	1.0	7.0		part_1
36		1.0				1.0	0.0							3.0	0.0	0.3925966227752724	3.0		0.0	8.0	1.0	7.0		part_1
37		1.0				1.0	1.0							3.0	200.0	0.31487105017140493	3.0		3.0	7.0	7.0	2.0		part_1
38		1.0				1.0	1.0							3.0	46.0	0.3493723371716442	3.0		1.0	1.0	5.0	8.0		part_1
39		1.0				2.0	1.0							1.0	376.0	0.43983702179298234	1.0		4.0	6.0	8.0	3.0		part_1
40		1.0				1.0	1.0							2.0	404.0	0.5203867393963719	2.0		4.0	6.0	8.0	3.0		part_1
41		1.0				1.0	1.0							3.0	0.0	0.4176709757930439	3.0		0.0	7.0	7.0	2.0		part_1
42		1.0				1.0	1.0							4.0	223.0	0.5216432503787019	4.0		3.0	7.0	7.0	2.0		part_1
43		1.0				1.0	0.0							3.0	46.0	0.4077464577928822	3.0		1.0	8.0	1.0	7.0		part_1
44		1.0				1.0	1.0							4.0	117.0	0.46527126679302455	4.0		2.0	3.0	6.0	6.0		part_1
45		1.0				1.0	0.0							4.0	0.0	0.45494530979294723	4.0		0.0	8.0	1.0	7.0		part_1
46		1.0				1.0	1.0							1.0	98.0	0.4562490531891399	1.0		2.0	3.0	6.0	6.0		part_1
47		1.0				1.0	0.0							4.0	0.0	0.4457090467751641	4.0		0.0	4.0	4.0	5.0		part_1
48		1.0				1.0	0.0							4.0	186.0	0.4340681555856918	4.0		3.0	5.0	3.0	4.0		part_1
49		1.0				1.0	1.0							2.0	407.0	0.4906296163785555	2.0		4.0	6.0	8.0	3.0		part_1
50		1.0				1.0	1.0							1.0	85.0	0.47934819558577146	1.0		2.0	3.0	6.0	6.0		part_1
51		1.0				1.0	1.0							3.0	404.0	0.46917662218925216	3.0		4.0	6.0	8.0	3.0		part_1
52		1.0				1.0	0.0							4.0	404.0	0.4810238697928071	4.0		4.0	4.0	4.0	5.0		part_1
53		1.0				1.0	1.0							4.0	418.0	0.48201023856813663	4.0		4.0	6.0	8.0	3.0		part_1
54		1.0				1.0	1.0							3.0	215.0	0.36982730837848976	3.0		3.0	7.0	7.0	2.0		part_1
55		1.0				1.0	0.0							3.0	109.0	0.3362654563786691	3.0		2.0	2.0	2.0	1.0		part_1
56		1.0				1.0	0.0							2.0	63.0	0.38314401358593386	2.0		1.0	8.0	1.0	7.0		part_1
57		1.0				1.0	1.0							2.0	198.0	0.3838193477929508	2.0		3.0	7.0	7.0	2.0		part_1
58		1.0				1.0	1.0							3.0	78.0	0.384048075982264	3.0		2.0	3.0	6.0	6.0		part_1
59		1.0				1.0	1.0							2.0	399.0	0.36125061958591687	2.0		4.0	6.0	8.0	3.0		part_1
60		1.0				1.0	0.0							4.0	407.0	0.38424429300039264	4.0		4.0	4.0	4.0	5.0		part_1
61		1.0				1.0	1.0							1.0	109.0	0.34036323379314126	1.0		2.0	3.0	6.0	6.0		part_1
62		1.0				1.0	1.0							1.0	65.0	0.3410570813962295	1.0		1.0	1.0	5.0	8.0		part_1
63		1.0				1.0	1.0							2.0	385.0	0.37505986998212393	2.0		4.0	6.0	8.0	3.0		part_1
64		1.0				1.0	1.0							1.0	0.0	0.24049916160356588	1.0		0.0	3.0	6.0	6.0		part_1
65		1.0				1.0	1.0							1.0	87.0	0.39891394556843807	1.0		2.0	3.0	6.0	6.0		part_1
66		1.0				1.0	1.0							1.0	62.0	0.33269262598241767	1.0		1.0	1.0	5.0	8.0		part_1
67		1.0				1.0	1.0							2.0	378.0	0.4552901747752003	2.0		4.0	6.0	8.0	3.0		part_1
68		1.0				1.0	0.0							3.0	62.0	0.389781453982323	3.0		1.0	8.0	1.0	7.0		part_1
69		1.0				1.0	1.0							2.0	207.0	0.31089211598236943	2.0		3.0	7.0	7.0	2.0		part_1
70		1.0				1.0	1.0							2.0	195.0	0.31149119277506543	2.0		3.0	7.0	7.0	2.0		part_1
71		1.0				1.0	0.0							1.0	116.0	0.4475198333784647	1.0		2.0	2.0	2.0	1.0		part_1
72		1.0				1.0	0.0							1.0	0.0	0.3361394859821303	1.0		0.0	4.0	4.0	5.0		part_1
73		1.0				1.0	1.0							3.0	420.0	0.4247398571719714	3.0		4.0	6.0	8.0	3.0		part_1
74		1.0				1.0	1.0							1.0	0.0	0.36936951618963576	1.0		0.0	6.0	8.0	3.0		part_1
75		1.0				1.0	1.0							1.0	415.0	0.3820461927748511	1.0		4.0	6.0	8.0	3.0		part_1
76		1.0				1.0	1.0							4.0	0.0	0.3485695675685747	4.0		0.0	6.0	8.0	3.0		part_1
77		1.0				1.0	0.0							2.0	193.0	0.3388564085857979	2.0		3.0	5.0	3.0	4.0		part_1
78		1.0				1.0	1.0							1.0	382.0	0.32656806237901037	1.0		4.0	6.0	8.0	3.0		part_1
79		1.0				1.0	1.0							2.0	83.0	0.42893804698223903	2.0		2.0	3.0	6.0	6.0		part_1
80		1.0				1.0	0.0							4.0	0.0	0.3951116627749798	4.0		0.0	2.0	2.0	1.0		part_1
81		1.0				1.0	0.0							1.0	25.0	0.4402922227923227	1.0		1.0	8.0	1.0	7.0		part_1
82		1.0				1.0	1.0							4.0	391.0	0.4424467973785795	4.0		4.0	6.0	8.0	3.0		part_1
83		1.0				1.0	0.0							4.0	185.0	0.3758530521895409	4.0		3.0	5.0	3.0	4.0		part_1
84		1.0				1.0	0.0							2.0	183.0	0.3187393243961196	2.0		3.0	5.0	3.0	4.0		part_1
85		1.0				1.0	0.0							4.0	87.0	0.4876118483789469	4.0		2.0	2.0	2.0	1.0		part_1
86		1.0				1.0	1.0							1.0	193.0	0.3531690859822447	1.0		3.0	7.0	7.0	2.0		part_1
87		1.0				1.0	1.0							4.0	92.0	0.3648581570000715	4.0		2.0	3.0	6.0	6.0		part_1
88		1.0				1.0	1.0							2.0	77.0	0.4347366450001573	2.0		2.0	3.0	6.0	6.0		part_1
89		1.0				1.0	0.0							1.0	117.0	0.4357569161898027	1.0		2.0	2.0	2.0	1.0		part_1
90		1.0				1.0	0.0							1.0	411.0	0.35738954317184835	1.0		4.0	4.0	4.0	5.0		part_1
91		1.0				1.0	1.0							3.0	49.0	0.37928634599984434	3.0		1.0	1.0	5.0	8.0		part_1
92		1.0				1.0	1.0							4.0	216.0	0.4234765021892599	4.0		3.0	7.0	7.0	2.0		part_1
93		1.0				1.0	1.0							3.0	402.0	0.3454702303783961	3.0		4.0	6.0	8.0	3.0		part_1
94		1.0				1.0	0.0							1.0	0.0	0.3247494689821906	1.0		0.0	2.0	2.0	1.0		part_1
95		1.0				1.0	0.0							3.0	37.0	0.38147577358586204	3.0		1.0	8.0	1.0	7.0		part_1
96		1.0				1.0	0.0							3.0	112.0	0.37094008118947386	3.0		2.0	2.0	2.0	1.0		part_1
97		1.0				1.0	1.0							3.0	109.0	0.3139465177923739	3.0		2.0	3.0	6.0	6.0		part_1
98		1.0				1.0	0.0							3.0	0.0	0.37140693937863034	3.0		0.0	4.0	4.0	5.0		part_1
99		1.0				1.0	0.0							1.0	52.0	0.43930618337890337	1.0		1.0	8.0	1.0	7.0		part_1
100		2.0				1.0	1.0							3.0	0.0	0.47244308958579495	3.0		0.0	6.0	8.0	3.0		part_1
101		2.0				1.0	0.0							4.0	391.0	0.405906433189557	4.0		4.0	4.0	4.0	5.0		part_1
102		2.0				1.0	1.0							1.0	403.0	0.34075070398239404	1.0		4.0	6.0	8.0	3.0		part_1
103		2.0				1.0	1.0							3.0	422.0	0.3728298353785249	3.0		4.0	6.0	8.0	3.0		part_1
104		2.0				1.0	1.0							3.0	197.0	0.3396386959998381	3.0		3.0	7.0	7.0	2.0		part_1
105		2.0				1.0	1.0							2.0	25.0	0.342065196585736	2.0		1.0	1.0	5.0	8.0		part_1
106		2.0				1.0	1.0							4.0	123.0	0.39820972877487293	4.0		2.0	3.0	6.0	6.0		part_1
107		2.0				1.0	1.0							1.0	222.0	0.2859264647750024	1.0		3.0	7.0	7.0	2.0		part_1
108		2.0				1.0	0.0							2.0	109.0	0.33277432539625806	2.0		2.0	2.0	2.0	1.0		part_1
109		2.0				1.0	0.0							1.0	385.0	0.3557089905857538	1.0		4.0	4.0	4.0	5.0		part_1
110		2.0				1.0	1.0							4.0	0.0	0.33275170379283736	4.0		0.0	1.0	5.0	8.0		part_1
111		2.0				1.0	1.0							2.0	54.0	0.33384013058594064	2.0		1.0	1.0	5.0	8.0		part_1
112		2.0				1.0	0.0							1.0	193.0	0.3670983690003595	1.0		3.0	5.0	3.0	4.0		part_1
113		2.0				1.0	0.0							3.0	198.0	0.35779168477483836	3.0		3.0	5.0	3.0	4.0		part_1
114		2.0				1.0	1.0							4.0	53.0	0.34691936718945726	4.0		1.0	1.0	5.0	8.0		part_1
115		2.0				1.0	0.0							4.0	37.0	0.38077769337860445	4.0		1.0	8.0	1.0	7.0		part_1
116		2.0				1.0	0.0							4.0	86.0	0.30224761658564603	4.0		2.0	2.0	2.0	1.0		part_1
117		2.0				1.0	0.0							2.0	186.0	0.4492585169823542	2.0		3.0	5.0	3.0	4.0		part_1
118		2.0				1.0	0.0							2.0	190.0	0.39340146677477605	2.0		3.0	5.0	3.0	4.0		part_1
119		2.0				1.0	1.0							4.0	27.0	0.4042723867928544	4.0		1.0	1.0	5.0	8.0		part_1
120		2.0				1.0	1.0							3.0	384.0	0.3945318753785614	3.0		4.0	6.0	8.0	3.0		part_1
121		2.0				1.0	1.0							3.0	87.0	0.3834978575682726	3.0		2.0	3.0	6.0	6.0		part_1
122		2.0				1.0	1.0							3.0	219.0	0.36180027877480825	3.0		3.0	7.0	7.0	2.0		part_1
123		2.0				1.0	0.0							3.0	395.0	0.3957837277926046	3.0		4.0	4.0	4.0	5.0		part_1
124		2.0				1.0	1.0							2.0	178.0	0.40906292918953113	2.0		3.0	7.0	7.0	2.0		part_1
125		2.0				1.0	0.0							3.0	375.0	0.37463448418930057	3.0		4.0	4.0	4.0	5.0		part_1
126		2.0				1.0	0.0							4.0	0.0	0.39760452058544615	4.0		0.0	5.0	3.0	4.0		part_1
127		2.0				1.0	1.0							4.0	0.0	0.3652027993784941	4.0		0.0	1.0	5.0	8.0		part_1
128		2.0				1.0	1.0							3.0	0.0	0.38716782356823387	3.0		0.0	1.0	5.0	8.0		part_1
129		2.0				1.0	1.0							4.0	59.0	0.3436918261718347	4.0		1.0	1.0	5.0	8.0		part_1
130		2.0				1.0	0.0							2.0	222.0	0.356180478585884	2.0		3.0	5.0	3.0	4.0		part_1
131		2.0				1.0	1.0							1.0	407.0	0.3667320305858084	1.0		4.0	6.0	8.0	3.0		part_1
132		2.0				1.0	0.0							1.0	0.0	0.42384078037866857	1.0		0.0	8.0	1.0	7.0		part_1
133		2.0				1.0	0.0							4.0	92.0	0.3463518849821412	4.0		2.0	2.0	2.0	1.0		part_1
134		2.0				1.0	1.0							1.0	0.0	0.2894787761892985	1.0		0.0	6.0	8.0	3.0		part_1
135		2.0				1.0	0.0							4.0	206.0	0.3349917085679408	4.0		3.0	5.0	3.0	4.0		part_1
136		2.0				1.0	1.0							2.0	180.0	0.32495208000000275	2.0		3.0	7.0	7.0	2.0		part_1
137		2.0				1.0	0.0							2.0	378.0	0.38306073598232615	2.0		4.0	4.0	4.0	5.0		part_1
138		2.0				1.0	1.0							2.0	0.0	0.3499070107927764	2.0		0.0	6.0	8.0	3.0		part_1
139		2.0				1.0	0.0							1.0	399.0	0.33768063977504426	1.0		4.0	4.0	4.0	5.0		part_1
140		2.0				1.0	0.0							2.0	64.0	0.3379437455682819	2.0		1.0	8.0	1.0	7.0		part_1
141		2.0				1.0	0.0							1.0	98.0	0.36140775818967086	1.0		2.0	2.0	2.0	1.0		part_1
142		2.0				1.0	1.0							4.0	111.0	0.3728665203784658	4.0		2.0	3.0	6.0	6.0		part_1
143		2.0				1.0	0.0							1.0	201.0	0.3739763085386585	1.0		3.0	5.0	3.0	4.0		part_1
144		2.0				1.0	0.0							1.0	117.0	0.4315076233783657	1.0		2.0	2.0	2.0	1.0		part_1
145		2.0				1.0	0.0							3.0	71.0	0.3864463195859571	3.0		1.0	8.0	1.0	7.0		part_1
146		2.0				1.0	0.0							1.0	123.0	0.33064931177477774	1.0		2.0	2.0	2.0	1.0		part_1
147		2.0				1.0	1.0							2.0	0.0	0.37602694237875767	2.0		0.0	7.0	7.0	2.0		part_1
148		2.0				1.0	1.0							2.0	0.0	0.3539832343785747	2.0		0.0	7.0	7.0	2.0		part_1
149		2.0				1.0	0.0							3.0	85.0	0.4341985343962733	3.0		2.0	2.0	2.0	1.0		part_1
150		2.0				1.0	1.0							3.0	0.0	0.4001030891895425	3.0		0.0	7.0	7.0	2.0		part_1
151		2.0				1.0	0.0							2.0	90.0	0.36808763518956766	2.0		2.0	2.0	2.0	1.0		part_1
152		2.0				1.0	1.0							2.0	54.0	0.35544546298206114	2.0		1.0	1.0	5.0	8.0		part_1
153		2.0				1.0	0.0							4.0	0.0	0.5477379293788545	4.0		0.0	5.0	3.0	4.0		part_1
154		2.0				1.0	1.0							3.0	86.0	0.5709098747925054	3.0		2.0	3.0	6.0	6.0		part_1
155		2.0				1.0	1.0							3.0	81.0	0.3468078276032429	3.0		2.0	3.0	6.0	6.0		part_1
156		2.0				1.0	0.0							3.0	419.0	0.3130001831896152	3.0		4.0	4.0	4.0	5.0		part_1
157		2.0				1.0	0.0							4.0	79.0	0.4712174527926436	4.0		2.0	2.0	2.0	1.0		part_1
158		2.0				1.0	1.0							3.0	51.0	0.38184863458582186	3.0		1.0	1.0	5.0	8.0		part_1
159		2.0				1.0	0.0							1.0	202.0	0.3604975281896259	1.0		3.0	5.0	3.0	4.0		part_1
160		2.0				1.0	1.0							4.0	211.0	0.3052352727750076	4.0		3.0	7.0	7.0	2.0		part_1
161		2.0				1.0	0.0							2.0	111.0	0.3729246465682081	2.0		2.0	2.0	2.0	1.0		part_1
162		2.0				1.0	0.0							4.0	0.0	0.271893550378536	4.0		0.0	4.0	4.0	5.0		part_1
163		2.0				1.0	1.0							2.0	53.0	0.27250940077510677	2.0		1.0	1.0	5.0	8.0		part_1
164		2.0				1.0	0.0							3.0	409.0	0.34105397798248305	3.0		4.0	4.0	4.0	5.0		part_1
165		2.0				1.0	1.0							3.0	46.0	0.3630003313965062	3.0		1.0	1.0	5.0	8.0		part_1
166		2.0				1.0	0.0							4.0	32.0	0.44398637658605367	4.0		1.0	8.0	1.0	7.0		part_1
167		2.0				1.0	1.0							4.0	392.0	0.43301145879286196	4.0		4.0	6.0	8.0	3.0		part_1
168		2.0				1.0	0.0							4.0	0.0	0.37538455598223663	4.0		0.0	2.0	2.0	1.0		part_1
169		2.0				1.0	1.0							3.0	398.0	0.37577621779291803	3.0		4.0	6.0	8.0	3.0		part_1
170		2.0				1.0	0.0							1.0	392.0	0.38848437158594606	1.0		4.0	4.0	4.0	5.0		part_1
171		2.0				1.0	1.0							3.0	26.0	0.34355670979266506	3.0		1.0	1.0	5.0	8.0		part_1
172		2.0				1.0	0.0							3.0	94.0	0.35553661277481297	3.0		2.0	2.0	2.0	1.0		part_1
173		2.0				1.0	0.0							1.0	87.0	0.3463165881717032	1.0		2.0	2.0	2.0	1.0		part_1
174		2.0				1.0	1.0							1.0	63.0	0.35702420358620657	1.0		1.0	1.0	5.0	8.0		part_1
175		2.0				1.0	0.0							4.0	385.0	0.4263774955857116	4.0		4.0	4.0	4.0	5.0		part_1
176		2.0				1.0	1.0							3.0	0.0	0.31321127837873064	3.0		0.0	3.0	6.0	6.0		part_1
177		2.0				1.0	1.0							2.0	102.0	0.32642284677467615	2.0		2.0	3.0	6.0	6.0		part_1
178		2.0				1.0	1.0							3.0	194.0	0.3360200427928248	3.0		3.0	7.0	7.0	2.0		part_1
179		2.0				1.0	0.0							4.0	83.0	0.34831506718956007	4.0		2.0	2.0	2.0	1.0		part_1
180		2.0				1.0	1.0							2.0	178.0	0.32728139081018526	2.0		3.0	7.0	7.0	2.0		part_1
181		2.0				1.0	1.0							2.0	210.0	0.2819843229822254	2.0		3.0	7.0	7.0	2.0		part_1
182		2.0				1.0	1.0							1.0	109.0	0.27143571958595203	1.0		2.0	3.0	6.0	6.0		part_1
183		2.0				1.0	1.0							2.0	86.0	0.31780283277475974	2.0		2.0	3.0	6.0	6.0		part_1
184		2.0				1.0	1.0							4.0	92.0	0.32993866439665	4.0		2.0	3.0	6.0	6.0		part_1
185		2.0				1.0	1.0							3.0	193.0	0.2954958761893067	3.0		3.0	7.0	7.0	2.0		part_1
186		2.0				1.0	1.0							3.0	397.0	0.3289439037748707	3.0		4.0	6.0	8.0	3.0		part_1
187		2.0				1.0	0.0							1.0	398.0	0.37652432639652034	1.0		4.0	4.0	4.0	5.0		part_1
188		2.0				1.0	0.0							1.0	46.0	0.3551138507923497	1.0		1.0	8.0	1.0	7.0		part_1
189		2.0				1.0	1.0							1.0	180.0	0.523865370378644	1.0		3.0	7.0	7.0	2.0		part_1
190		2.0				1.0	1.0							3.0	87.0	0.3200751419999506	3.0		2.0	3.0	6.0	6.0		part_1
191		2.0				1.0	1.0							1.0	37.0	0.3564832767929147	1.0		1.0	1.0	5.0	8.0		part_1
192		2.0				1.0	0.0							2.0	78.0	0.3896043083782388	2.0		2.0	2.0	2.0	1.0		part_1
193		2.0				1.0	0.0							2.0	411.0	0.28868723658615636	2.0		4.0	4.0	4.0	5.0		part_1
194		2.0				1.0	0.0							4.0	0.0	0.48037196898258117	4.0		0.0	8.0	1.0	7.0		part_1
195		2.0				1.0	0.0							1.0	418.0	0.4027820851897559	1.0		4.0	4.0	4.0	5.0		part_1
196		2.0				1.0	1.0							4.0	55.0	0.37008450737857856	4.0		1.0	1.0	5.0	8.0		part_1
197		2.0				1.0	0.0							4.0	419.0	0.39279264217157106	4.0		4.0	4.0	4.0	5.0		part_1
198		2.0				1.0	1.0							2.0	0.0	0.4279851767751097	2.0		0.0	3.0	6.0	6.0		part_1
199		2.0				1.0	0.0							2.0	392.0	0.41564583798253807	2.0		4.0	4.0	4.0	5.0		part_1
200		3.0				1.0	1.0							4.0	419.0	0.44975438337860396	4.0		4.0	6.0	8.0	3.0		part_1
201		3.0				2.0	1.0							2.0	61.0	0.3723550595859706	2.0		1.0	1.0	5.0	8.0		part_1
202		3.0				1.0	0.0							2.0	102.0	0.3634995731717936	2.0		2.0	2.0	2.0	1.0		part_1
203		3.0				1.0	0.0							2.0	105.0	0.3176099693782817	2.0		2.0	2.0	2.0	1.0		part_1
204		3.0				1.0	0.0							4.0	178.0	0.3746590439823194	4.0		3.0	5.0	3.0	4.0		part_1
205		3.0				1.0	0.0							3.0	0.0	0.36367139079266053	3.0		0.0	4.0	4.0	5.0		part_1
206		3.0				1.0	0.0							4.0	90.0	0.3647157897926263	4.0		2.0	2.0	2.0	1.0		part_1
207		3.0				1.0	0.0							3.0	422.0	0.43333518158578954	3.0		4.0	4.0	4.0	5.0		part_1
208		3.0				1.0	0.0							1.0	198.0	0.41082620337874687	1.0		3.0	5.0	3.0	4.0		part_1
209		3.0				1.0	1.0							4.0	0.0	0.37712422158574554	4.0		0.0	1.0	5.0	8.0		part_1
210		3.0				1.0	0.0							2.0	32.0	0.4230633961892636	2.0		1.0	8.0	1.0	7.0		part_1
211		3.0				1.0	1.0							2.0	0.0	0.33460704798199004	2.0		0.0	3.0	6.0	6.0		part_1
212		3.0				1.0	1.0							4.0	122.0	0.42373081458572415	4.0		2.0	3.0	6.0	6.0		part_1
213		3.0				1.0	0.0							2.0	222.0	0.33456192317180466	2.0		3.0	5.0	3.0	4.0		part_1
214		3.0				1.0	0.0							1.0	75.0	0.3588833925682593	1.0		1.0	8.0	1.0	7.0		part_1
215		3.0				1.0	1.0							3.0	417.0	0.35829292258586065	3.0		4.0	6.0	8.0	3.0		part_1
216		3.0				1.0	0.0							3.0	0.0	0.3585519025677968	3.0		0.0	4.0	4.0	5.0		part_1
217		3.0				1.0	0.0							2.0	85.0	0.3046713505855223	2.0		2.0	2.0	2.0	1.0		part_1
218		3.0				1.0	0.0							3.0	0.0	0.38230477758588677	3.0		0.0	5.0	3.0	4.0		part_1
219		3.0				1.0	1.0							1.0	418.0	0.33773916553809613	1.0		4.0	6.0	8.0	3.0		part_1
220		3.0				1.0	1.0							3.0	90.0	0.45005376539620556	3.0		2.0	3.0	6.0	6.0		part_1
221		3.0				1.0	1.0							2.0	66.0	0.35115414556821634	2.0		1.0	1.0	5.0	8.0		part_1
222		3.0				1.0	1.0							3.0	183.0	0.34025436679257837	3.0		3.0	7.0	7.0	2.0		part_1
223		3.0				1.0	0.0							4.0	56.0	0.3847537627748352	4.0		1.0	8.0	1.0	7.0		part_1
224		3.0				1.0	0.0							1.0	205.0	0.3177886963785568	1.0		3.0	5.0	3.0	4.0		part_1
225		3.0				1.0	1.0							2.0	118.0	0.30817930758621515	2.0		2.0	3.0	6.0	6.0		part_1
226		3.0				1.0	0.0							1.0	0.0	0.3431230739820421	1.0		0.0	2.0	2.0	1.0		part_1
227		3.0				1.0	0.0							2.0	0.0	0.30843657758578047	2.0		0.0	5.0	3.0	4.0		part_1
228		3.0				1.0	0.0							2.0	178.0	0.2990191499820867	2.0		3.0	5.0	3.0	4.0		part_1
229		3.0				1.0	0.0							2.0	382.0	0.33190373979277865	2.0		4.0	4.0	4.0	5.0		part_1
230		3.0				1.0	0.0							4.0	206.0	0.3661654201714555	4.0		3.0	5.0	3.0	4.0		part_1
231		3.0				1.0	0.0							2.0	111.0	0.3011751035855923	2.0		2.0	2.0	2.0	1.0		part_1
232		3.0				1.0	1.0							1.0	116.0	0.3694055301721164	1.0		2.0	3.0	6.0	6.0		part_1
233		3.0				1.0	0.0							3.0	0.0	0.5152286915681543	3.0		0.0	2.0	2.0	1.0		part_1
234		3.0				1.0	0.0							1.0	223.0	0.34787806458598425	1.0		3.0	5.0	3.0	4.0		part_1
235		3.0				1.0	0.0							2.0	415.0	0.34675739037857056	2.0		4.0	4.0	4.0	5.0		part_1
236		3.0				1.0	1.0							2.0	0.0	0.33623589439639545	2.0		0.0	6.0	8.0	3.0		part_1
237		3.0				1.0	1.0							3.0	79.0	0.3825684916209866	3.0		2.0	3.0	6.0	6.0		part_1
238		3.0				1.0	1.0							2.0	375.0	0.30469146537870984	2.0		4.0	6.0	8.0	3.0		part_1
239		3.0				1.0	1.0							4.0	61.0	0.39464775537862806	4.0		1.0	1.0	5.0	8.0		part_1
240		3.0				1.0	1.0							4.0	94.0	0.3396814857751451	4.0		2.0	3.0	6.0	6.0		part_1
241		3.0				1.0	1.0							1.0	185.0	0.3726125999824035	1.0		3.0	7.0	7.0	2.0		part_1
242		3.0				1.0	1.0							1.0	0.0	0.35071954439627007	1.0		0.0	3.0	6.0	6.0		part_1
243		3.0				1.0	0.0							2.0	420.0	0.3074631271897488	2.0		4.0	4.0	4.0	5.0		part_1
244		3.0				1.0	0.0							1.0	0.0	0.34055589677518583	1.0		0.0	4.0	4.0	5.0		part_1
245		3.0				1.0	1.0							1.0	33.0	0.3759290185680584	1.0		1.0	1.0	5.0	8.0		part_1
246		3.0				1.0	0.0							3.0	0.0	0.3529437221718581	3.0		0.0	2.0	2.0	1.0		part_1
247		3.0				1.0	1.0							3.0	117.0	0.3538274181896668	3.0		2.0	3.0	6.0	6.0		part_1
248		3.0				1.0	0.0							4.0	0.0	0.34269686237848873	4.0		0.0	5.0	3.0	4.0		part_1
249		3.0				1.0	1.0							3.0	0.0	0.2982845729820838	3.0		0.0	7.0	7.0	2.0		part_1
250		3.0				1.0	1.0							1.0	205.0	0.4450639057927219	1.0		3.0	7.0	7.0	2.0		part_1
251		3.0				1.0	0.0							1.0	198.0	0.3449627123964092	1.0		3.0	5.0	3.0	4.0		part_1
252		3.0				1.0	0.0							3.0	418.0	0.3453721829823735	3.0		4.0	4.0	4.0	5.0		part_1
253		3.0				1.0	0.0							3.0	0.0	0.33453352558581173	3.0		0.0	2.0	2.0	1.0		part_1
254		3.0				1.0	0.0							1.0	33.0	0.3802090921717536	1.0		1.0	8.0	1.0	7.0		part_1
255		3.0				1.0	0.0							2.0	34.0	0.35804441979280455	2.0		1.0	8.0	1.0	7.0		part_1
256		3.0				1.0	1.0							3.0	186.0	0.31248975798234824	3.0		3.0	7.0	7.0	2.0		part_1
257		3.0				1.0	0.0							4.0	0.0	0.4592988307927044	4.0		0.0	8.0	1.0	7.0		part_1
258		3.0				1.0	0.0							1.0	378.0	0.4163212357748307	1.0		4.0	4.0	4.0	5.0		part_1
259		3.0				1.0	1.0							2.0	0.0	0.3264740493964382	2.0		0.0	6.0	8.0	3.0		part_1
260		3.0				1.0	0.0							3.0	200.0	0.451149599774908	3.0		3.0	5.0	3.0	4.0		part_1
261		3.0				1.0	0.0							1.0	40.0	0.3739516851896951	1.0		1.0	8.0	1.0	7.0		part_1
262		3.0				1.0	1.0							1.0	102.0	0.33892109477483245	1.0		2.0	3.0	6.0	6.0		part_1
263		3.0				1.0	1.0							4.0	202.0	0.3510982683783368	4.0		3.0	7.0	7.0	2.0		part_1
264		3.0				1.0	0.0							3.0	124.0	0.32966262079253283	3.0		2.0	2.0	2.0	1.0		part_1
265		3.0				1.0	0.0							4.0	211.0	0.3403544365860398	4.0		3.0	5.0	3.0	4.0		part_1
266		3.0				1.0	0.0							1.0	0.0	0.3431630144496012	1.0		0.0	5.0	3.0	4.0		part_1
267		3.0				1.0	1.0							1.0	0.0	0.46545769298199957	1.0		0.0	7.0	7.0	2.0		part_1
268		3.0				1.0	1.0							4.0	0.0	0.3880562979820752	4.0		0.0	7.0	7.0	2.0		part_1
269		3.0				1.0	0.0							2.0	53.0	0.3667806223961634	2.0		1.0	8.0	1.0	7.0		part_1
270		3.0				1.0	1.0							4.0	206.0	0.32151674337819713	4.0		3.0	7.0	7.0	2.0		part_1
271		3.0				1.0	1.0							4.0	415.0	0.3337137837747832	4.0		4.0	6.0	8.0	3.0		part_1
272		3.0				1.0	0.0							3.0	195.0	0.34422702637857583	3.0		3.0	5.0	3.0	4.0		part_1
273		3.0				1.0	0.0							3.0	87.0	0.3462636351891888	3.0		2.0	2.0	2.0	1.0		part_1
274		3.0				1.0	0.0							2.0	0.0	0.3800507807750364	2.0		0.0	4.0	4.0	5.0		part_1
275		3.0				1.0	0.0							2.0	180.0	0.3133569115861974	2.0		3.0	5.0	3.0	4.0		part_1
276		3.0				1.0	1.0							4.0	388.0	0.39119307539613146	4.0		4.0	6.0	8.0	3.0		part_1
277		3.0				1.0	0.0							3.0	0.0	0.3259410207747351	3.0		0.0	4.0	4.0	5.0		part_1
278		3.0				1.0	0.0							3.0	185.0	0.3585931735860868	3.0		3.0	5.0	3.0	4.0		part_1
279		3.0				1.0	1.0							2.0	214.0	0.3374302539823475	2.0		3.0	7.0	7.0	2.0		part_1
280		3.0				1.0	0.0							1.0	388.0	0.34872556658592657	1.0		4.0	4.0	4.0	5.0		part_1
281		3.0				1.0	1.0							4.0	0.0	0.3607620667748961	4.0		0.0	6.0	8.0	3.0		part_1
282		3.0				1.0	0.0							3.0	215.0	0.3381743881896	3.0		3.0	5.0	3.0	4.0		part_1
283		3.0				1.0	1.0							3.0	64.0	0.2950258293785737	3.0		1.0	1.0	5.0	8.0		part_1
284		3.0				1.0	1.0							1.0	111.0	0.328954078586321	1.0		2.0	3.0	6.0	6.0		part_1
285		3.0				1.0	0.0							4.0	55.0	0.4866911127928688	4.0		1.0	8.0	1.0	7.0		part_1
286		3.0				1.0	1.0							1.0	189.0	0.36499247958590786	1.0		3.0	7.0	7.0	2.0		part_1
287		3.0				1.0	0.0							2.0	0.0	0.3323225103963523	2.0		0.0	5.0	3.0	4.0		part_1
288		3.0				1.0	1.0							4.0	102.0	0.32020547379306663	4.0		2.0	3.0	6.0	6.0		part_1
289		3.0				1.0	1.0							4.0	411.0	0.29835329479283246	4.0		4.0	6.0	8.0	3.0		part_1
290		3.0				1.0	1.0							3.0	105.0	0.33266739598229833	3.0		2.0	3.0	6.0	6.0		part_1
291		3.0				1.0	0.0							1.0	222.0	0.3569877635859484	1.0		3.0	5.0	3.0	4.0		part_1
292		3.0				1.0	0.0							3.0	207.0	0.29978623518945824	3.0		3.0	5.0	3.0	4.0		part_1
293		3.0				1.0	0.0							3.0	45.0	0.32313612773941713	3.0		1.0	8.0	1.0	7.0		part_1
294		3.0				1.0	1.0							3.0	41.0	0.3118552013434055	3.0		1.0	1.0	5.0	8.0		part_1
295		3.0				1.0	0.0							3.0	384.0	0.45843259492858124	3.0		4.0	4.0	4.0	5.0		part_1
296		3.0				1.0	0.0							4.0	48.0	0.3796408171360781	4.0		1.0	8.0	1.0	7.0		part_1
297		3.0				1.0	1.0							1.0	0.0	0.33613325060377974	1.0		0.0	1.0	5.0	8.0		part_1
298		3.0				1.0	0.0							4.0	411.0	0.30321029873948646	4.0		4.0	4.0	4.0	5.0		part_1
299		3.0				1.0	0.0							4.0	109.0	0.4172928593961842	4.0		2.0	2.0	2.0	1.0		part_1
300		4.0				1.0	0.0							4.0	41.0	0.5752884623966565	4.0		1.0	8.0	1.0	7.0		part_1
301		4.0				1.0	1.0							4.0	0.0	0.3406757875859512	4.0		0.0	1.0	5.0	8.0		part_1
302		4.0				1.0	0.0							4.0	0.0	0.35098639060379355	4.0		0.0	5.0	3.0	4.0		part_1
303		4.0				1.0	1.0							3.0	0.0	0.3521498325862922	3.0		0.0	1.0	5.0	8.0		part_1
304		4.0				1.0	1.0							4.0	206.0	0.36326722317153326	4.0		3.0	7.0	7.0	2.0		part_1
305		4.0				1.0	1.0							1.0	98.0	0.3413533397924766	1.0		2.0	3.0	6.0	6.0		part_1
306		4.0				1.0	0.0							1.0	403.0	0.3650136125861536	1.0		4.0	4.0	4.0	5.0		part_1
307		4.0				1.0	1.0							2.0	0.0	0.3542191877750156	2.0		0.0	6.0	8.0	3.0		part_1
308		4.0				1.0	0.0							3.0	105.0	0.37691086600034396	3.0		2.0	2.0	2.0	1.0		part_1
309		4.0				1.0	0.0							2.0	0.0	0.32280352618954566	2.0		0.0	5.0	3.0	4.0		part_1
310		4.0				1.0	1.0							3.0	186.0	0.32238957839672366	3.0		3.0	7.0	7.0	2.0		part_1
311		4.0				1.0	1.0							2.0	85.0	0.28809792317179017	2.0		2.0	3.0	6.0	6.0		part_1
312		4.0				1.0	1.0							2.0	178.0	0.32420361018967014	2.0		3.0	7.0	7.0	2.0		part_1
313		4.0				1.0	1.0							1.0	60.0	0.3575848053787922	1.0		1.0	1.0	5.0	8.0		part_1
314		4.0				1.0	0.0							1.0	81.0	0.3695870947926778	1.0		2.0	2.0	2.0	1.0		part_1
315		4.0				1.0	0.0							3.0	397.0	0.33481966939643826	3.0		4.0	4.0	4.0	5.0		part_1
316		4.0				1.0	0.0							3.0	197.0	0.3694602685859536	3.0		3.0	5.0	3.0	4.0		part_1
317		4.0				1.0	1.0							1.0	34.0	0.33665547179271016	1.0		1.0	1.0	5.0	8.0		part_1
318		4.0				1.0	0.0							4.0	51.0	0.3367737009821212	4.0		1.0	8.0	1.0	7.0		part_1
319		4.0				1.0	0.0							2.0	99.0	0.33831175018940485	2.0		2.0	2.0	2.0	1.0		part_1
320		4.0				1.0	0.0							4.0	209.0	0.3383861353786415	4.0		3.0	5.0	3.0	4.0		part_1
321		4.0				1.0	0.0							3.0	378.0	0.3392370491892507	3.0		4.0	4.0	4.0	5.0		part_1
322		4.0				1.0	1.0							2.0	209.0	0.3529920729820333	2.0		3.0	7.0	7.0	2.0		part_1
323		4.0				1.0	1.0							4.0	201.0	0.3289119217924963	4.0		3.0	7.0	7.0	2.0		part_1
324		4.0				1.0	0.0							2.0	210.0	0.30704225898216464	2.0		3.0	5.0	3.0	4.0		part_1
325		4.0				1.0	0.0							2.0	410.0	0.285160165396519	2.0		4.0	4.0	4.0	5.0		part_1
326		4.0				1.0	1.0							3.0	67.0	0.3428821533784685	3.0		1.0	1.0	5.0	8.0		part_1
327		4.0				1.0	1.0							2.0	36.0	0.2655588395682571	2.0		1.0	1.0	5.0	8.0		part_1
328		4.0				1.0	0.0							4.0	0.0	0.3337791031717643	4.0		0.0	2.0	2.0	1.0		part_1
329		4.0				1.0	0.0							3.0	0.0	0.3440473197747451	3.0		0.0	5.0	3.0	4.0		part_1
330		4.0				1.0	0.0							2.0	0.0	0.3341426521719768	2.0		0.0	4.0	4.0	5.0		part_1
331		4.0				1.0	1.0							4.0	222.0	0.41438246637881093	4.0		3.0	7.0	7.0	2.0		part_1
332		4.0				1.0	1.0							2.0	117.0	0.3121176117929281	2.0		2.0	3.0	6.0	6.0		part_1
333		4.0				1.0	0.0							4.0	102.0	0.3681818409822881	4.0		2.0	2.0	2.0	1.0		part_1
334		4.0				1.0	0.0							2.0	54.0	0.2798947993787806	2.0		1.0	8.0	1.0	7.0		part_1
335		4.0				1.0	1.0							1.0	395.0	0.359799605189437	1.0		4.0	6.0	8.0	3.0		part_1
336		4.0				2.0	0.0							1.0	0.0	0.372116142982577	1.0		0.0	2.0	2.0	1.0		part_1
337		4.0				1.0	0.0							3.0	415.0	0.3815236021896453	3.0		4.0	4.0	4.0	5.0		part_1
338		4.0				1.0	1.0							4.0	185.0	0.38313515539630316	4.0		3.0	7.0	7.0	2.0		part_1
339		4.0				1.0	0.0							1.0	98.0	0.3163194619819478	1.0		2.0	2.0	2.0	1.0		part_1
340		4.0				1.0	1.0							4.0	378.0	0.34940939077478106	4.0		4.0	6.0	8.0	3.0		part_1
341		4.0				1.0	0.0							3.0	86.0	0.373897627396218	3.0		2.0	2.0	2.0	1.0		part_1
342		4.0				1.0	1.0							1.0	198.0	0.3633680769999046	1.0		3.0	7.0	7.0	2.0		part_1
343		4.0				1.0	1.0							1.0	0.0	0.3406162389824203	1.0		0.0	3.0	6.0	6.0		part_1
344		4.0				1.0	0.0							4.0	121.0	0.4102457987928574	4.0		2.0	2.0	2.0	1.0		part_1
345		4.0				1.0	0.0							1.0	404.0	0.35488888741429037	1.0		4.0	4.0	4.0	5.0		part_1
346		4.0				1.0	0.0							4.0	207.0	0.35350009218973355	4.0		3.0	5.0	3.0	4.0		part_1
347		4.0				1.0	0.0							1.0	53.0	0.3873920463788636	1.0		1.0	8.0	1.0	7.0		part_1
348		4.0				1.0	0.0							4.0	0.0	0.42163506177485033	4.0		0.0	8.0	1.0	7.0		part_1
349		4.0				1.0	1.0							1.0	410.0	0.3444028049998451	1.0		4.0	6.0	8.0	3.0		part_1
350		4.0				1.0	0.0							2.0	60.0	0.34525201037877196	2.0		1.0	8.0	1.0	7.0		part_1
351		4.0				1.0	1.0							4.0	0.0	0.3334431223961474	4.0		0.0	6.0	8.0	3.0		part_1
352		4.0				1.0	0.0							4.0	66.0	0.3785528157927729	4.0		1.0	8.0	1.0	7.0		part_1
353		4.0				1.0	0.0							3.0	36.0	0.4127942901895949	3.0		1.0	8.0	1.0	7.0		part_1
354		4.0				1.0	1.0							1.0	204.0	0.33571512539674586	1.0		3.0	7.0	7.0	2.0		part_1
355		4.0				1.0	0.0							4.0	77.0	0.37110355518962024	4.0		2.0	2.0	2.0	1.0		part_1
356		4.0				1.0	0.0							3.0	92.0	0.35926645118934175	3.0		2.0	2.0	2.0	1.0		part_1
357		4.0				1.0	0.0							4.0	0.0	0.4386551427746781	4.0		0.0	8.0	1.0	7.0		part_1
358		4.0				1.0	1.0							4.0	32.0	0.3725398599822256	4.0		1.0	1.0	5.0	8.0		part_1
359		4.0				1.0	1.0							2.0	392.0	0.3386931235859265	2.0		4.0	6.0	8.0	3.0		part_1
360		4.0				1.0	1.0							2.0	75.0	0.3271069279821859	2.0		1.0	1.0	5.0	8.0		part_1
361		4.0				1.0	1.0							4.0	44.0	0.4072306013781599	4.0		1.0	1.0	5.0	8.0		part_1
362		4.0				1.0	1.0							4.0	40.0	0.36312256479277494	4.0		1.0	1.0	5.0	8.0		part_1
363		4.0				1.0	0.0							4.0	219.0	0.38614583117168877	4.0		3.0	5.0	3.0	4.0		part_1
364		4.0				1.0	1.0							2.0	56.0	0.3299366601895599	2.0		1.0	1.0	5.0	8.0		part_1
365		4.0				1.0	1.0							3.0	409.0	0.319714353774998	3.0		4.0	6.0	8.0	3.0		part_1
366		4.0				1.0	0.0							3.0	27.0	0.3526167473960413	3.0		1.0	8.0	1.0	7.0		part_1
367		4.0				1.0	0.0							2.0	44.0	0.40963021258585286	2.0		1.0	8.0	1.0	7.0		part_1
368		4.0				1.0	0.0							3.0	214.0	0.3310480309819468	3.0		3.0	5.0	3.0	4.0		part_1
369		4.0				1.0	1.0							3.0	0.0	0.355027021792921	3.0		0.0	3.0	6.0	6.0		part_1
370		4.0				1.0	0.0							1.0	102.0	0.4009215575856615	1.0		2.0	2.0	2.0	1.0		part_1
371		4.0				1.0	1.0							2.0	121.0	0.35801070237857857	2.0		2.0	3.0	6.0	6.0		part_1
372		4.0				1.0	0.0							2.0	0.0	0.43524566018959376	2.0		0.0	8.0	1.0	7.0		part_1
373		4.0				1.0	1.0							2.0	124.0	0.3799685431895341	2.0		2.0	3.0	6.0	6.0		part_1
374		4.0				1.0	0.0							4.0	376.0	0.4589466141896992	4.0		4.0	4.0	4.0	5.0		part_1
375		4.0				1.0	0.0							4.0	0.0	0.4032282677931107	4.0		0.0	8.0	1.0	7.0		part_1
376		4.0				1.0	1.0							1.0	99.0	0.38330780118985786	1.0		2.0	3.0	6.0	6.0		part_1
377		4.0				1.0	1.0							3.0	71.0	0.3924324697927659	3.0		1.0	1.0	5.0	8.0		part_1
378		4.0				1.0	1.0							4.0	378.0	0.3615865721717455	4.0		4.0	6.0	8.0	3.0		part_1
379		4.0				1.0	1.0							2.0	408.0	0.37125807079291917	2.0		4.0	6.0	8.0	3.0		part_1
380		4.0				1.0	1.0							3.0	52.0	0.3837301645858133	3.0		1.0	1.0	5.0	8.0		part_1
381		4.0				1.0	0.0							2.0	65.0	0.3845151799823725	2.0		1.0	8.0	1.0	7.0		part_1
382		4.0				1.0	1.0							4.0	0.0	0.36225374939613175	4.0		0.0	3.0	6.0	6.0		part_1
383		4.0				1.0	0.0							1.0	117.0	0.38481333218987857	1.0		2.0	2.0	2.0	1.0		part_1
384		4.0				1.0	1.0							2.0	56.0	0.36358857518962395	2.0		1.0	1.0	5.0	8.0		part_1
385		4.0				1.0	1.0							2.0	419.0	0.34138370818982366	2.0		4.0	6.0	8.0	3.0		part_1
386		4.0				1.0	1.0							1.0	32.0	0.4222772915677524	1.0		1.0	1.0	5.0	8.0		part_1
387		4.0				1.0	1.0							1.0	411.0	0.38747407479286267	1.0		4.0	6.0	8.0	3.0		part_1
388		4.0				1.0	1.0							4.0	0.0	0.3542718653789052	4.0		0.0	1.0	5.0	8.0		part_1
389		4.0				1.0	1.0							4.0	48.0	0.41262153337856944	4.0		1.0	1.0	5.0	8.0		part_1
390		4.0				1.0	1.0							2.0	0.0	0.35701188918937987	2.0		0.0	7.0	7.0	2.0		part_1
391		4.0				1.0	0.0							4.0	0.0	0.4018866725677981	4.0		0.0	8.0	1.0	7.0		part_1
392		4.0				1.0	0.0							3.0	26.0	0.41281201879291984	3.0		1.0	8.0	1.0	7.0		part_1
393		4.0				1.0	0.0							3.0	118.0	0.3680121995862464	3.0		2.0	2.0	2.0	1.0		part_1
394		4.0				1.0	0.0							1.0	216.0	0.42497501137859217	1.0		3.0	5.0	3.0	4.0		part_1
395		4.0				1.0	1.0							4.0	392.0	0.347148286189622	4.0		4.0	6.0	8.0	3.0		part_1
396		4.0				1.0	1.0							1.0	45.0	0.3713141044495387	1.0		1.0	1.0	5.0	8.0		part_1
397		4.0				1.0	1.0							2.0	112.0	0.33844309777532544	2.0		2.0	3.0	6.0	6.0		part_1
398		4.0				1.0	0.0							3.0	180.0	0.31384994256814025	3.0		3.0	5.0	3.0	4.0		part_1
399		4.0				1.0	0.0							4.0	67.0	0.32640395858561533	4.0		1.0	8.0	1.0	7.0		part_1
0	2.0	1.0			250.0	0.0	1.0							6.0	0.0	0.4583005685817625	2.0	250.0	2.0	3.0	6.0	6.0	0.0	part_2
1	1.0	1.0			250.0	0.0	0.0							6.0	0.0	0.43856110274509774	6.0	250.0	2.0	2.0	2.0	1.0	0.0	part_2
2	1.0	1.0			250.0	0.0	0.0							6.0	0.0	0.291626992745023	6.0	250.0	4.0	4.0	4.0	5.0	0.0	part_2
3	1.0	1.0			250.0	0.0	0.0							5.0	0.0	0.34838675990840784	5.0	250.0	4.0	4.0	4.0	5.0	0.0	part_2
4	1.0	1.0			250.0	0.0	0.0							5.0	0.0	0.35122318641788297	5.0	250.0	3.0	5.0	3.0	4.0	0.0	part_2
5	1.0	1.0			250.0	0.0	0.0							6.0	0.0	0.2952841470000749	6.0	250.0	4.0	4.0	4.0	5.0	0.0	part_2
6	1.0	1.0			250.0	0.0	0.0							6.0	0.0	0.295985134908733	6.0	250.0	3.0	5.0	3.0	4.0	0.0	part_2
7	1.0	1.0			250.0	0.0	0.0							5.0	0.0	0.285445667163458	5.0	250.0	2.0	2.0	2.0	1.0	0.0	part_2
8	4.0	1.0			250.0	0.0	1.0							5.0	0.0	0.0	0.0	250.0	3.0	7.0	7.0	2.0	1.0	part_2
9	1.0	1.0			300.0	0.0	0.0							5.0	0.0	0.37708663274497667	5.0	250.0	3.0	5.0	3.0	4.0	0.0	part_2
10	3.0	1.0			300.0	0.0	1.0							6.0	0.0	0.35512420190889316	6.0	250.0	3.0	7.0	7.0	2.0	1.0	part_2
11	3.0	1.0			300.0	0.0	1.0							6.0	0.0	0.3333960564177687	6.0	200.0	2.0	3.0	6.0	6.0	1.0	part_2
12	1.0	1.0			300.0	0.0	0.0							5.0	0.0	0.33391910216323595	5.0	150.0	3.0	5.0	3.0	4.0	0.0	part_2
13	3.0	1.0			300.0	0.0	1.0							6.0	0.0	0.3572025247453894	6.0	150.0	3.0	7.0	7.0	2.0	1.0	part_2
14	1.0	1.0			300.0	0.0	0.0							5.0	0.0	0.32367445690852037	5.0	100.0	3.0	5.0	3.0	4.0	0.0	part_2
15	1.0	1.0			300.0	0.0	0.0							6.0	0.0	0.44992364232712134	6.0	100.0	2.0	2.0	2.0	1.0	0.0	part_2
16	1.0	1.0			300.0	0.0	0.0							6.0	0.0	0.3936571947451739	6.0	100.0	2.0	2.0	2.0	1.0	0.0	part_2
17	3.0	1.0			300.0	0.0	1.0							5.0	0.0	0.31010620516326526	5.0	100.0	4.0	6.0	8.0	3.0	1.0	part_2
18	1.0	1.0			250.0	0.0	0.0							5.0	0.0	0.385204009908648	5.0	100.0	2.0	2.0	2.0	1.0	0.0	part_2
19	1.0	1.0			250.0	0.0	0.0							6.0	0.0	0.31732766641789567	6.0	100.0	2.0	2.0	2.0	1.0	0.0	part_2
20	3.0	1.0			250.0	0.0	1.0							5.0	0.0	0.30685285141817076	5.0	100.0	3.0	7.0	7.0	2.0	1.0	part_2
21	1.0	1.0			200.0	0.0	0.0							5.0	0.0	0.32987587549041564	5.0	100.0	2.0	2.0	2.0	1.0	0.0	part_2
22	1.0	1.0			200.0	0.0	0.0							6.0	0.0	0.3079206443271687	6.0	100.0	1.0	8.0	1.0	7.0	0.0	part_2
23	3.0	1.0			200.0	0.0	1.0							6.0	0.0	0.2765609630000654	6.0	100.0	1.0	1.0	5.0	8.0	1.0	part_2
24	1.0	1.0			200.0	0.0	0.0							6.0	0.0	0.3322482197449972	6.0	50.0	1.0	8.0	1.0	7.0	0.0	part_2
25	3.0	1.0			200.0	0.0	1.0							5.0	0.0	0.31048736349021056	5.0	50.0	2.0	3.0	6.0	6.0	1.0	part_2
26	1.0	1.0			150.0	0.0	0.0							5.0	0.0	0.2999686573270992	5.0	50.0	1.0	8.0	1.0	7.0	0.0	part_2
27	3.0	1.0			150.0	0.0	1.0							5.0	0.0	0.24596924858178681	5.0	50.0	2.0	3.0	6.0	6.0	1.0	part_2
28	1.0	1.0			100.0	0.0	0.0							5.0	0.0	0.290637567745307	5.0	50.0	2.0	2.0	2.0	1.0	0.0	part_2
29	1.0	1.0			100.0	0.0	0.0							6.0	0.0	0.30249471874503797	6.0	50.0	3.0	5.0	3.0	4.0	0.0	part_2
30	3.0	1.0			100.0	0.0	1.0							5.0	0.0	0.25861790107228444	5.0	50.0	4.0	6.0	8.0	3.0	1.0	part_2
31	3.0	1.0			50.0	0.0	1.0							5.0	0.0	0.2948349904904717	5.0	50.0	2.0	3.0	6.0	6.0	1.0	part_2
32	1.0	1.0			0.0	0.0	0.0							5.0	0.0	0.2939506311636251	5.0	50.0	3.0	5.0	3.0	4.0	0.0	part_2
33	1.0	1.0			0.0	0.0	1.0							5.0	0.0	0.23887717049046842	5.0	50.0	1.0	1.0	5.0	8.0	0.0	part_2
34	3.0	1.0			0.0	0.0	1.0							5.0	0.0	0.25039812832710595	5.0	50.0	3.0	7.0	7.0	2.0	1.0	part_2
35	3.0	1.0			0.0	0.0	1.0							5.0	0.0	0.2865590046540092	5.0	50.0	2.0	3.0	6.0	6.0	1.0	part_2
36	1.0	2.0			0.0	0.0	1.0							5.0	0.0	0.40243980332706997	5.0	50.0	1.0	1.0	5.0	8.0	0.0	part_2
37	1.0	2.0			0.0	0.0	1.0							5.0	0.0	0.3357142821632806	5.0	50.0	1.0	1.0	5.0	8.0	0.0	part_2
38	1.0	2.0			0.0	0.0	0.0							5.0	0.0	0.30360244683652127	5.0	50.0	2.0	2.0	2.0	1.0	0.0	part_2
39	1.0	2.0			0.0	0.0	0.0							5.0	0.0	0.30298190421626714	5.0	50.0	4.0	4.0	4.0	5.0	0.0	part_2
40	1.0	2.0			0.0	0.0	0.0							6.0	0.0	0.31672024032695845	6.0	50.0	2.0	2.0	2.0	1.0	0.0	part_2
41	3.0	2.0			0.0	0.0	1.0							6.0	0.0	0.3721122289084633	6.0	50.0	2.0	3.0	6.0	6.0	1.0	part_2
42	1.0	2.0			0.0	0.0	0.0							6.0	0.0	0.36166097774503214	6.0	0.0	3.0	5.0	3.0	4.0	0.0	part_2
43	1.0	2.0			0.0	0.0	0.0							5.0	0.0	0.3283800930726102	5.0	0.0	1.0	8.0	1.0	7.0	0.0	part_2
44	1.0	2.0			0.0	0.0	0.0							6.0	0.0	0.2964458604901665	6.0	0.0	1.0	8.0	1.0	7.0	0.0	part_2
45	1.0	2.0			0.0	0.0	0.0							5.0	0.0	0.25244551158175454	5.0	0.0	4.0	4.0	4.0	5.0	0.0	part_2
46	1.0	2.0			0.0	0.0	1.0							5.0	0.0	0.3651589064907057	5.0	0.0	3.0	7.0	7.0	2.0	0.0	part_2
47	1.0	2.0			0.0	0.0	0.0							5.0	0.0	0.26432026816337384	5.0	0.0	4.0	4.0	4.0	5.0	0.0	part_2
48	1.0	2.0			0.0	0.0	0.0							6.0	0.0	0.3228209114176934	6.0	0.0	3.0	5.0	3.0	4.0	0.0	part_2
49	3.0	2.0			0.0	0.0	1.0							5.0	0.0	0.23216593149027176	5.0	0.0	1.0	1.0	5.0	8.0	1.0	part_2
50	1.0	2.0			0.0	0.0	1.0							5.0	0.0	0.3457719329085194	5.0	0.0	2.0	3.0	6.0	6.0	0.0	part_2
51	1.0	2.0			0.0	0.0	0.0							6.0	0.0	0.31241706874561714	6.0	0.0	3.0	5.0	3.0	4.0	0.0	part_2
52	1.0	2.0			0.0	0.0	1.0							6.0	0.0	0.33758432458216703	6.0	0.0	4.0	6.0	8.0	3.0	0.0	part_2
53	1.0	2.0			0.0	0.0	0.0							5.0	0.0	0.3044875357454657	5.0	0.0	1.0	8.0	1.0	7.0	0.0	part_2
54	3.0	2.0			0.0	0.0	1.0							6.0	0.0	0.270986303582049	6.0	0.0	1.0	1.0	5.0	8.0	1.0	part_2
55	3.0	2.0			0.0	0.0	1.0							5.0	0.0	0.2614348046536179	5.0	0.0	3.0	7.0	7.0	2.0	1.0	part_2
56	3.0	2.0			0.0	0.0	1.0							5.0	0.0	0.4185273509083345	5.0	0.0	3.0	7.0	7.0	2.0	1.0	part_2
57	1.0	2.0			0.0	0.0	0.0							6.0	0.0	0.3851121289999355	6.0	0.0	4.0	4.0	4.0	5.0	0.0	part_2
58	1.0	2.0			0.0	0.0	0.0							5.0	0.0	0.30737460190857746	5.0	0.0	1.0	8.0	1.0	7.0	0.0	part_2
59	3.0	2.0			0.0	0.0	1.0							6.0	0.0	0.4320373629088863	6.0	0.0	4.0	6.0	8.0	3.0	1.0	part_2
60	3.0	2.0			0.0	0.0	1.0							5.0	0.0	0.2768129873270482	5.0	0.0	3.0	7.0	7.0	2.0	1.0	part_2
61	1.0	2.0			0.0	0.0	1.0							5.0	0.0	0.3447423479083227	5.0	0.0	1.0	1.0	5.0	8.0	0.0	part_2
62	3.0	2.0			0.0	0.0	1.0							6.0	0.0	0.41273527490875495	6.0	0.0	3.0	7.0	7.0	2.0	1.0	part_2
63	3.0	2.0			0.0	0.0	1.0							6.0	0.0	0.33580970774528396	6.0	0.0	3.0	7.0	7.0	2.0	1.0	part_2
64	1.0	2.0			0.0	0.0	0.0							5.0	0.0	0.34629467132754144	5.0	0.0	3.0	5.0	3.0	4.0	0.0	part_2
65	1.0	2.0			0.0	0.0	0.0							6.0	0.0	0.301621656653424	6.0	0.0	4.0	4.0	4.0	5.0	0.0	part_2
66	3.0	2.0			0.0	0.0	1.0							5.0	0.0	0.22467098590868773	5.0	0.0	4.0	6.0	8.0	3.0	1.0	part_2
67	1.0	2.0			0.0	0.0	0.0							5.0	0.0	0.2939201474900983	5.0	0.0	3.0	5.0	3.0	4.0	0.0	part_2
68	1.0	2.0			0.0	0.0	0.0							5.0	0.0	0.3058516087453427	5.0	0.0	4.0	4.0	4.0	5.0	0.0	part_2
69	3.0	2.0			0.0	0.0	1.0							5.0	0.0	0.30555024832756317	5.0	0.0	4.0	6.0	8.0	3.0	1.0	part_2
70	3.0	2.0			0.0	0.0	1.0							5.0	0.0	0.251289050745072	5.0	0.0	1.0	1.0	5.0	8.0	1.0	part_2
71	3.0	2.0			0.0	0.0	1.0							5.0	0.0	0.2618008250001367	5.0	0.0	2.0	3.0	6.0	6.0	1.0	part_2
72	1.0	3.0			0.0	0.0	0.0							6.0	0.0	1.2296502684180268	6.0	0.0	4.0	4.0	4.0	5.0	0.0	part_2
73	1.0	3.0			0.0	0.0	0.0							5.0	0.0	0.3079432776539761	5.0	0.0	3.0	5.0	3.0	4.0	0.0	part_2
74	1.0	3.0			0.0	0.0	0.0							5.0	0.0	0.39932086749058726	5.0	0.0	2.0	2.0	2.0	1.0	0.0	part_2
75	1.0	3.0			0.0	0.0	0.0							6.0	0.0	0.3649853293268279	6.0	0.0	1.0	8.0	1.0	7.0	0.0	part_2
76	3.0	3.0			0.0	0.0	1.0							6.0	0.0	0.3337716177452421	6.0	0.0	1.0	1.0	5.0	8.0	1.0	part_2
77	1.0	3.0			0.0	0.0	0.0							5.0	0.0	0.5360855290728068	5.0	0.0	3.0	5.0	3.0	4.0	0.0	part_2
78	3.0	3.0			0.0	0.0	1.0							6.0	0.0	0.40326437216344857	6.0	0.0	4.0	6.0	8.0	3.0	1.0	part_2
79	1.0	3.0			0.0	0.0	0.0							5.0	0.0	0.4703839283270099	5.0	0.0	1.0	8.0	1.0	7.0	0.0	part_2
80	3.0	3.0			0.0	0.0	1.0							5.0	0.0	0.4491001967453485	5.0	0.0	1.0	1.0	5.0	8.0	1.0	part_2
81	1.0	3.0			0.0	0.0	0.0							6.0	0.0	0.4372665594901264	6.0	0.0	4.0	4.0	4.0	5.0	0.0	part_2
82	3.0	3.0			0.0	0.0	1.0							6.0	0.0	0.4724312917455791	6.0	0.0	4.0	6.0	8.0	3.0	1.0	part_2
83	1.0	3.0			0.0	0.0	1.0							6.0	0.0	0.3958533330001046	6.0	0.0	2.0	3.0	6.0	6.0	0.0	part_2
84	3.0	3.0			0.0	0.0	1.0							6.0	0.0	0.5301298347449119	6.0	0.0	2.0	3.0	6.0	6.0	1.0	part_2
85	1.0	3.0			0.0	0.0	0.0							6.0	0.0	0.5644668216536957	6.0	0.0	2.0	2.0	2.0	1.0	0.0	part_2
86	1.0	3.0			0.0	0.0	0.0							6.0	0.0	0.5222714640726736	6.0	0.0	1.0	8.0	1.0	7.0	0.0	part_2
87	1.0	3.0			0.0	0.0	0.0							6.0	0.0	0.2864589139085183	6.0	0.0	4.0	4.0	4.0	5.0	0.0	part_2
88	3.0	3.0			0.0	0.0	1.0							5.0	0.0	0.6357054319087183	5.0	0.0	1.0	1.0	5.0	8.0	1.0	part_2
89	1.0	3.0			0.0	0.0	0.0							5.0	0.0	0.5903791376731533	5.0	0.0	1.0	8.0	1.0	7.0	0.0	part_2
90	1.0	3.0			0.0	0.0	0.0							6.0	0.0	0.3229189557450809	6.0	0.0	1.0	8.0	1.0	7.0	0.0	part_2
91	3.0	3.0			0.0	0.0	1.0							5.0	0.0	0.8623475084905294	5.0	0.0	4.0	6.0	8.0	3.0	1.0	part_2
92	3.0	3.0			0.0	0.0	1.0							5.0	0.0	0.8517811736537624	5.0	0.0	1.0	1.0	5.0	8.0	1.0	part_2
93	1.0	3.0			0.0	0.0	1.0							6.0	0.0	0.5269438427453679	6.0	0.0	3.0	7.0	7.0	2.0	0.0	part_2
94	3.0	3.0			0.0	0.0	1.0							5.0	0.0	0.8774240730003839	5.0	0.0	3.0	7.0	7.0	2.0	1.0	part_2
95	1.0	3.0			0.0	0.0	1.0							6.0	0.0	0.5066024808629663	6.0	0.0	4.0	6.0	8.0	3.0	0.0	part_2
96	3.0	3.0			0.0	0.0	1.0							6.0	0.0	0.6432519817453795	6.0	0.0	3.0	7.0	7.0	2.0	1.0	part_2
97	3.0	3.0			0.0	0.0	1.0							6.0	0.0	0.44201547632701477	6.0	0.0	3.0	7.0	7.0	2.0	1.0	part_2
98	1.0	3.0			0.0	0.0	0.0							5.0	0.0	0.37496759332680085	5.0	0.0	2.0	2.0	2.0	1.0	0.0	part_2
99	1.0	3.0			0.0	0.0	0.0							6.0	0.0	0.33020889416366117	6.0	0.0	4.0	4.0	4.0	5.0	0.0	part_2
100	3.0	3.0			0.0	0.0	1.0							5.0	0.0	1.0049151706534758	5.0	0.0	4.0	6.0	8.0	3.0	1.0	part_2
101	1.0	3.0			0.0	0.0	1.0							6.0	0.0	0.5120275065819442	6.0	0.0	3.0	7.0	7.0	2.0	0.0	part_2
102	3.0	3.0			0.0	0.0	1.0							5.0	0.0	0.5015571860726595	5.0	0.0	3.0	7.0	7.0	2.0	1.0	part_2
103	3.0	3.0			0.0	0.0	1.0							6.0	0.0	0.8272094721633039	6.0	0.0	4.0	6.0	8.0	3.0	1.0	part_2
104	1.0	3.0			0.0	0.0	0.0							5.0	0.0	0.5026392836539344	5.0	0.0	3.0	5.0	3.0	4.0	0.0	part_2
105	1.0	3.0			0.0	0.0	0.0							6.0	0.0	0.4806511077454161	6.0	0.0	3.0	5.0	3.0	4.0	0.0	part_2
106	3.0	3.0			0.0	0.0	1.0							5.0	0.0	0.8412915940721177	5.0	0.0	1.0	1.0	5.0	8.0	1.0	part_2
107	1.0	3.0			0.0	0.0	1.0							5.0	0.0	0.4714333653269023	5.0	0.0	2.0	3.0	6.0	6.0	0.0	part_2
108	4.0	4.0			0.0	0.0	1.0							5.0	0.0	0.0	0.0	0.0	4.0	6.0	8.0	3.0	1.0	part_2
109	1.0	4.0			50.0	0.0	0.0							5.0	0.0	0.4798179803265157	5.0	0.0	3.0	5.0	3.0	4.0	0.0	part_2
110	4.0	4.0			50.0	0.0	1.0							5.0	0.0	0.0	0.0	0.0	3.0	7.0	7.0	2.0	1.0	part_2
111	1.0	4.0			100.0	0.0	0.0							6.0	0.0	0.4253427061630646	6.0	0.0	2.0	2.0	2.0	1.0	0.0	part_2
112	4.0	4.0			100.0	0.0	1.0							6.0	0.0	0.0	0.0	0.0	3.0	7.0	7.0	2.0	1.0	part_2
113	4.0	4.0			100.0	0.0	1.0							5.0	0.0	0.0	0.0	50.0	4.0	6.0	8.0	3.0	1.0	part_2
114	1.0	4.0			150.0	0.0	0.0							6.0	0.0	0.6966302641640141	6.0	50.0	2.0	2.0	2.0	1.0	0.0	part_2
115	1.0	4.0			150.0	0.0	1.0							6.0	0.0	0.5405613931634434	6.0	50.0	2.0	3.0	6.0	6.0	0.0	part_2
116	4.0	4.0			150.0	0.0	1.0							6.0	0.0	0.0	0.0	50.0	1.0	1.0	5.0	8.0	1.0	part_2
117	1.0	4.0			150.0	0.0	0.0							5.0	0.0	0.6549053353273848	5.0	100.0	1.0	8.0	1.0	7.0	0.0	part_2
118	1.0	4.0			150.0	0.0	0.0							5.0	0.0	0.4974906114903206	5.0	100.0	4.0	4.0	4.0	5.0	0.0	part_2
119	1.0	4.0			150.0	0.0	0.0							5.0	0.0	0.49726014283623954	5.0	100.0	4.0	4.0	4.0	5.0	0.0	part_2
120	3.0	4.0			150.0	0.0	1.0							5.0	0.0	0.35402295807216433	5.0	100.0	1.0	1.0	5.0	8.0	1.0	part_2
121	4.0	4.0			100.0	0.0	1.0							5.0	0.0	0.0	0.0	100.0	3.0	7.0	7.0	2.0	1.0	part_2
122	1.0	4.0			150.0	0.0	1.0							6.0	0.0	0.5118819554900256	6.0	100.0	4.0	6.0	8.0	3.0	0.0	part_2
123	4.0	4.0			150.0	0.0	1.0							6.0	0.0	0.0	0.0	100.0	1.0	1.0	5.0	8.0	1.0	part_2
124	4.0	4.0			150.0	0.0	1.0							6.0	0.0	0.0	0.0	150.0	2.0	3.0	6.0	6.0	1.0	part_2
125	1.0	4.0			150.0	0.0	0.0							5.0	0.0	0.4130368066544179	5.0	200.0	1.0	8.0	1.0	7.0	0.0	part_2
126	1.0	4.0			150.0	0.0	0.0							5.0	0.0	0.40281627565400413	5.0	200.0	1.0	8.0	1.0	7.0	0.0	part_2
127	4.0	4.0			150.0	0.0	1.0							5.0	0.0	0.0	0.0	200.0	3.0	7.0	7.0	2.0	1.0	part_2
128	1.0	4.0			200.0	0.0	1.0							5.0	0.0	0.48366282758070156	5.0	200.0	3.0	7.0	7.0	2.0	0.0	part_2
129	1.0	4.0			200.0	0.0	0.0							6.0	0.0	0.40607777465447725	6.0	200.0	1.0	8.0	1.0	7.0	0.0	part_2
130	1.0	4.0			200.0	0.0	0.0							5.0	0.0	0.5407414935807537	5.0	200.0	1.0	8.0	1.0	7.0	0.0	part_2
131	1.0	4.0			200.0	0.0	0.0							5.0	0.0	0.3949031625816133	5.0	200.0	3.0	5.0	3.0	4.0	0.0	part_2
132	1.0	4.0			200.0	0.0	0.0							5.0	0.0	0.3864052024900957	5.0	200.0	3.0	5.0	3.0	4.0	0.0	part_2
133	3.0	4.0			200.0	0.0	1.0							6.0	0.0	0.38565788590949523	6.0	200.0	4.0	6.0	8.0	3.0	1.0	part_2
134	1.0	4.0			200.0	0.0	0.0							5.0	0.0	0.6229513301641418	5.0	150.0	3.0	5.0	3.0	4.0	0.0	part_2
135	1.0	4.0			200.0	0.0	0.0							6.0	0.0	0.5113484554904062	6.0	150.0	1.0	8.0	1.0	7.0	0.0	part_2
136	1.0	4.0			200.0	0.0	0.0							6.0	0.0	0.5132153935810493	6.0	150.0	4.0	4.0	4.0	5.0	0.0	part_2
137	4.0	4.0			200.0	0.0	1.0							6.0	0.0	0.0	0.0	150.0	4.0	6.0	8.0	3.0	1.0	part_2
138	4.0	4.0			200.0	0.0	1.0							5.0	0.0	0.0	0.0	200.0	2.0	3.0	6.0	6.0	1.0	part_2
139	1.0	4.0			250.0	0.0	0.0							5.0	0.0	0.5034029899088637	5.0	200.0	4.0	4.0	4.0	5.0	0.0	part_2
140	1.0	4.0			250.0	0.0	0.0							6.0	0.0	0.7401711173260992	6.0	200.0	3.0	5.0	3.0	4.0	0.0	part_2
141	4.0	4.0			250.0	0.0	1.0							6.0	0.0	0.0	0.0	200.0	1.0	1.0	5.0	8.0	1.0	part_2
142	4.0	4.0			250.0	0.0	1.0							5.0	0.0	0.0	0.0	250.0	4.0	6.0	8.0	3.0	1.0	part_2
143	4.0	4.0			300.0	0.0	1.0							5.0	0.0	0.0	0.0	250.0	2.0	3.0	6.0	6.0	1.0	part_2
144	1.0	5.0			350.0	0.0	0.0							6.0	0.0	0.8336347835811466	6.0	250.0	4.0	4.0	4.0	5.0	0.0	part_2
145	1.0	5.0			350.0	0.0	0.0							5.0	0.0	0.5083674133265959	5.0	250.0	4.0	4.0	4.0	5.0	0.0	part_2
146	1.0	5.0			350.0	0.0	0.0							5.0	0.0	0.3749401817449325	5.0	250.0	1.0	8.0	1.0	7.0	0.0	part_2
147	3.0	5.0			350.0	0.0	1.0							6.0	0.0	0.37478905749048863	6.0	250.0	3.0	7.0	7.0	2.0	1.0	part_2
148	1.0	5.0			350.0	0.0	1.0							5.0	0.0	0.46633043674501096	5.0	200.0	4.0	6.0	8.0	3.0	0.0	part_2
149	1.0	5.0			350.0	0.0	0.0							5.0	0.0	0.4093704673268803	5.0	200.0	1.0	8.0	1.0	7.0	0.0	part_2
150	4.0	5.0			350.0	0.0	1.0							5.0	0.0	0.0	0.0	200.0	1.0	1.0	5.0	8.0	1.0	part_2
151	1.0	5.0			400.0	0.0	0.0							6.0	0.0	0.9187660391635291	6.0	200.0	4.0	4.0	4.0	5.0	0.0	part_2
152	1.0	5.0			400.0	0.0	1.0							6.0	0.0	1.0096386425811943	6.0	200.0	2.0	3.0	6.0	6.0	0.0	part_2
153	1.0	5.0			400.0	0.0	0.0							6.0	0.0	0.7960513437446934	6.0	200.0	3.0	5.0	3.0	4.0	0.0	part_2
154	4.0	5.0			400.0	0.0	1.0							5.0	0.0	0.0	0.0	200.0	4.0	6.0	8.0	3.0	1.0	part_2
155	4.0	5.0			450.0	0.0	1.0							5.0	0.0	0.0	0.0	200.0	3.0	7.0	7.0	2.0	1.0	part_2
156	1.0	5.0			500.0	0.0	0.0							5.0	0.0	0.6853814621645142	5.0	200.0	1.0	8.0	1.0	7.0	0.0	part_2
157	1.0	5.0			500.0	0.0	0.0							5.0	0.0	0.7780852266541842	5.0	200.0	4.0	4.0	4.0	5.0	0.0	part_2
158	1.0	5.0			500.0	0.0	0.0							5.0	0.0	0.6998835199992754	5.0	200.0	4.0	4.0	4.0	5.0	0.0	part_2
159	4.0	5.0			500.0	0.0	1.0							6.0	0.0	0.0	0.0	200.0	2.0	3.0	6.0	6.0	1.0	part_2
160	4.0	5.0			500.0	0.0	1.0							6.0	0.0	0.0	0.0	250.0	1.0	1.0	5.0	8.0	1.0	part_2
161	1.0	5.0			500.0	0.0	0.0							5.0	0.0	1.388902641581808	5.0	300.0	2.0	2.0	2.0	1.0	0.0	part_2
162	4.0	5.0			500.0	0.0	1.0							6.0	0.0	0.0	0.0	300.0	4.0	6.0	8.0	3.0	1.0	part_2
163	3.0	5.0			500.0	0.0	1.0							6.0	0.0	0.39858201823608397	6.0	350.0	3.0	7.0	7.0	2.0	1.0	part_2
164	1.0	5.0			500.0	0.0	0.0							5.0	0.0	0.9973179655817148	5.0	300.0	2.0	2.0	2.0	1.0	0.0	part_2
165	1.0	5.0			500.0	0.0	0.0							6.0	0.0	0.9418534731639738	6.0	300.0	4.0	4.0	4.0	5.0	0.0	part_2
166	1.0	5.0			500.0	0.0	0.0							6.0	0.0	0.7838371326542983	6.0	300.0	4.0	4.0	4.0	5.0	0.0	part_2
167	4.0	5.0			500.0	0.0	1.0							5.0	0.0	0.0	0.0	300.0	4.0	6.0	8.0	3.0	1.0	part_2
168	1.0	5.0			550.0	0.0	0.0							6.0	0.0	1.382254197000293	6.0	300.0	1.0	8.0	1.0	7.0	0.0	part_2
169	4.0	5.0			550.0	0.0	1.0							5.0	0.0	0.0	0.0	300.0	3.0	7.0	7.0	2.0	1.0	part_2
170	1.0	5.0			600.0	0.0	1.0							6.0	0.0	1.1142000590716634	6.0	300.0	4.0	6.0	8.0	3.0	0.0	part_2
171	1.0	5.0			600.0	0.0	0.0							6.0	0.0	0.9684805385813888	6.0	300.0	2.0	2.0	2.0	1.0	0.0	part_2
172	1.0	5.0			600.0	0.0	0.0							6.0	0.0	0.9368159340720013	6.0	300.0	1.0	8.0	1.0	7.0	0.0	part_2
173	4.0	5.0			600.0	0.0	1.0							6.0	0.0	0.0	0.0	300.0	3.0	7.0	7.0	2.0	1.0	part_2
174	1.0	5.0			600.0	0.0	1.0							5.0	0.0	1.184358529745623	5.0	350.0	1.0	1.0	5.0	8.0	0.0	part_2
175	1.0	5.0			600.0	0.0	0.0							6.0	0.0	1.184860946164008	6.0	350.0	2.0	2.0	2.0	1.0	0.0	part_2
176	1.0	5.0			600.0	0.0	0.0							5.0	0.0	1.0623552824908984	5.0	350.0	1.0	8.0	1.0	7.0	0.0	part_2
177	1.0	5.0			600.0	0.0	0.0							5.0	0.0	0.9289038117449309	5.0	350.0	3.0	5.0	3.0	4.0	0.0	part_2
178	1.0	5.0			600.0	0.0	0.0							5.0	0.0	1.086554804581283	5.0	350.0	2.0	2.0	2.0	1.0	0.0	part_2
179	4.0	5.0			600.0	0.0	1.0							6.0	0.0	0.0	0.0	350.0	4.0	6.0	8.0	3.0	1.0	part_2
180	4.0	6.0			600.0	0.0	1.0							6.0	0.0	0.0	0.0	400.0	1.0	1.0	5.0	8.0	1.0	part_2
181	4.0	6.0			600.0	0.0	1.0							6.0	0.0	0.0	0.0	450.0	3.0	7.0	7.0	2.0	1.0	part_2
182	1.0	6.0			600.0	0.0	0.0							6.0	0.0	0.5901599226544931	6.0	500.0	3.0	5.0	3.0	4.0	0.0	part_2
183	1.0	6.0			600.0	0.0	0.0							6.0	0.0	0.5446149781637359	6.0	500.0	4.0	4.0	4.0	5.0	0.0	part_2
184	4.0	6.0			600.0	0.0	1.0							6.0	0.0	0.0	0.0	500.0	2.0	3.0	6.0	6.0	1.0	part_2
185	1.0	6.0			600.0	0.0	0.0							6.0	0.0	0.9410146305808667	6.0	550.0	3.0	5.0	3.0	4.0	0.0	part_2
186	1.0	6.0			600.0	0.0	0.0							5.0	0.0	0.6368470151637666	5.0	550.0	4.0	4.0	4.0	5.0	0.0	part_2
187	1.0	6.0			600.0	0.0	0.0							6.0	0.0	0.7612930220720955	6.0	550.0	4.0	4.0	4.0	5.0	0.0	part_2
188	4.0	6.0			600.0	0.0	1.0							5.0	0.0	0.0	0.0	550.0	1.0	1.0	5.0	8.0	1.0	part_2
189	4.0	6.0			650.0	0.0	1.0							6.0	0.0	0.0	0.0	550.0	2.0	3.0	6.0	6.0	1.0	part_2
190	1.0	6.0			650.0	0.0	0.0							6.0	0.0	1.0343640989085543	6.0	600.0	3.0	5.0	3.0	4.0	0.0	part_2
191	1.0	6.0			650.0	0.0	0.0							5.0	0.0	0.9236966344897155	5.0	600.0	2.0	2.0	2.0	1.0	0.0	part_2
192	1.0	6.0			650.0	0.0	0.0							6.0	0.0	1.0692501921639632	6.0	600.0	2.0	2.0	2.0	1.0	0.0	part_2
193	4.0	6.0			650.0	0.0	1.0							6.0	0.0	0.0	0.0	600.0	1.0	1.0	5.0	8.0	1.0	part_2
194	4.0	6.0			650.0	0.0	1.0							6.0	0.0	0.0	0.0	650.0	2.0	3.0	6.0	6.0	1.0	part_2
195	1.0	6.0			650.0	0.0	1.0							6.0	0.0	0.9365831940713178	6.0	700.0	3.0	7.0	7.0	2.0	0.0	part_2
196	1.0	6.0			650.0	0.0	0.0							6.0	0.0	0.9050725157449051	6.0	700.0	1.0	8.0	1.0	7.0	0.0	part_2
197	1.0	6.0			650.0	0.0	0.0							6.0	0.0	1.2196237674907024	6.0	700.0	3.0	5.0	3.0	4.0	0.0	part_2
198	3.0	6.0			650.0	0.0	1.0							6.0	0.0	0.41055896774469147	6.0	700.0	1.0	1.0	5.0	8.0	1.0	part_2
199	4.0	6.0			650.0	0.0	1.0							5.0	0.0	0.0	0.0	650.0	1.0	1.0	5.0	8.0	1.0	part_2
200	1.0	6.0			700.0	0.0	0.0							6.0	0.0	0.4909441656545823	6.0	650.0	1.0	8.0	1.0	7.0	0.0	part_2
201	4.0	6.0			700.0	0.0	1.0							5.0	0.0	0.0	0.0	650.0	4.0	6.0	8.0	3.0	1.0	part_2
202	4.0	6.0			750.0	0.0	1.0							6.0	0.0	0.0	0.0	650.0	1.0	1.0	5.0	8.0	1.0	part_2
203	1.0	6.0			750.0	0.0	0.0							5.0	0.0	0.5722314966542399	5.0	700.0	4.0	4.0	4.0	5.0	0.0	part_2
204	1.0	6.0			750.0	0.0	0.0							5.0	0.0	0.6533915957452336	5.0	700.0	4.0	4.0	4.0	5.0	0.0	part_2
205	1.0	6.0			750.0	0.0	0.0							5.0	0.0	1.226886341327372	5.0	700.0	2.0	2.0	2.0	1.0	0.0	part_2
206	1.0	6.0			750.0	0.0	0.0							6.0	0.0	0.5406288814901927	6.0	700.0	2.0	2.0	2.0	1.0	0.0	part_2
207	1.0	6.0			750.0	0.0	0.0							5.0	0.0	0.9806785775808748	5.0	700.0	2.0	2.0	2.0	1.0	0.0	part_2
208	1.0	6.0			750.0	0.0	1.0							5.0	0.0	0.8469355791639828	5.0	700.0	2.0	3.0	6.0	6.0	0.0	part_2
209	4.0	6.0			750.0	0.0	1.0							5.0	0.0	0.0	0.0	700.0	2.0	3.0	6.0	6.0	1.0	part_2
210	4.0	6.0			800.0	0.0	1.0							6.0	0.0	0.0	0.0	700.0	4.0	6.0	8.0	3.0	1.0	part_2
211	1.0	6.0			800.0	0.0	0.0							6.0	0.0	1.1533771075810364	6.0	750.0	3.0	5.0	3.0	4.0	0.0	part_2
212	4.0	6.0			800.0	0.0	1.0							5.0	0.0	0.0	0.0	750.0	4.0	6.0	8.0	3.0	1.0	part_2
213	1.0	6.0			850.0	0.0	0.0							6.0	0.0	0.737903139744958	6.0	750.0	1.0	8.0	1.0	7.0	0.0	part_2
214	1.0	6.0			850.0	0.0	0.0							5.0	0.0	0.9754305262576963	5.0	750.0	2.0	2.0	2.0	1.0	0.0	part_2
215	1.0	6.0			850.0	0.0	0.0							6.0	0.0	0.7627442990724376	6.0	750.0	1.0	8.0	1.0	7.0	0.0	part_2
216	4.0	7.0			850.0	0.0	1.0							6.0	0.0	0.0	0.0	750.0	1.0	1.0	5.0	8.0	1.0	part_2
217	1.0	7.0			850.0	0.0	1.0							5.0	0.0	0.7971713443266708	5.0	800.0	2.0	3.0	6.0	6.0	0.0	part_2
218	3.0	7.0			850.0	0.0	1.0							5.0	0.0	0.9660444555811409	5.0	800.0	4.0	6.0	8.0	3.0	1.0	part_2
219	1.0	7.0			800.0	0.0	0.0							5.0	0.0	0.6184247743267406	5.0	800.0	1.0	8.0	1.0	7.0	0.0	part_2
220	3.0	7.0			800.0	0.0	1.0							6.0	0.0	0.810913136581803	6.0	800.0	2.0	3.0	6.0	6.0	1.0	part_2
221	1.0	7.0			800.0	0.0	1.0							6.0	0.0	0.9134437583270483	6.0	750.0	3.0	7.0	7.0	2.0	0.0	part_2
222	1.0	7.0			800.0	0.0	0.0							5.0	0.0	1.082283734163866	5.0	750.0	2.0	2.0	2.0	1.0	0.0	part_2
223	4.0	7.0			800.0	0.0	1.0							5.0	0.0	0.0	0.0	750.0	2.0	3.0	6.0	6.0	1.0	part_2
224	4.0	7.0			850.0	0.0	1.0							5.0	0.0	0.0	0.0	750.0	1.0	1.0	5.0	8.0	1.0	part_2
225	1.0	7.0			900.0	0.0	0.0							6.0	0.0	0.6019793934183326	6.0	750.0	4.0	4.0	4.0	5.0	0.0	part_2
226	4.0	7.0			900.0	0.0	1.0							6.0	0.0	0.0	0.0	750.0	1.0	1.0	5.0	8.0	1.0	part_2
227	4.0	7.0			900.0	0.0	1.0							6.0	0.0	0.0	0.0	800.0	1.0	1.0	5.0	8.0	1.0	part_2
228	1.0	7.0			900.0	0.0	0.0							5.0	0.0	0.7827973597459277	5.0	850.0	3.0	5.0	3.0	4.0	0.0	part_2
229	1.0	7.0			900.0	0.0	0.0							5.0	0.0	0.7270029393266668	5.0	850.0	4.0	4.0	4.0	5.0	0.0	part_2
230	1.0	7.0			900.0	0.0	0.0							6.0	0.0	0.6951189957453607	6.0	850.0	2.0	2.0	2.0	1.0	0.0	part_2
231	1.0	7.0			900.0	0.0	0.0							6.0	0.0	0.7064603334902131	6.0	850.0	1.0	8.0	1.0	7.0	0.0	part_2
232	3.0	7.0			900.0	0.0	1.0							5.0	0.0	0.8990066779997505	5.0	850.0	2.0	3.0	6.0	6.0	1.0	part_2
233	3.0	7.0			850.0	0.0	1.0							5.0	0.0	0.6189035710713142	5.0	850.0	3.0	7.0	7.0	2.0	1.0	part_2
234	1.0	7.0			800.0	0.0	1.0							6.0	0.0	1.2735097321638023	6.0	850.0	1.0	1.0	5.0	8.0	0.0	part_2
235	1.0	7.0			800.0	0.0	0.0							6.0	0.0	0.7224476015817345	6.0	850.0	2.0	2.0	2.0	1.0	0.0	part_2
236	1.0	7.0			800.0	0.0	1.0							6.0	0.0	0.9592741166543419	6.0	850.0	3.0	7.0	7.0	2.0	0.0	part_2
237	3.0	7.0			800.0	0.0	1.0							6.0	0.0	0.9362141935816908	6.0	850.0	4.0	6.0	8.0	3.0	1.0	part_2
238	1.0	7.0			800.0	0.0	0.0							5.0	0.0	0.600317221908881	5.0	800.0	4.0	4.0	4.0	5.0	0.0	part_2
239	1.0	7.0			800.0	0.0	0.0							6.0	0.0	0.5897381751638022	6.0	800.0	1.0	8.0	1.0	7.0	0.0	part_2
240	1.0	7.0			800.0	0.0	0.0							6.0	0.0	1.0626872829088825	6.0	800.0	3.0	5.0	3.0	4.0	0.0	part_2
241	1.0	7.0			800.0	0.0	0.0							5.0	0.0	0.5585588925814591	5.0	800.0	1.0	8.0	1.0	7.0	0.0	part_2
242	1.0	7.0			800.0	0.0	1.0							6.0	0.0	1.1331336684907	6.0	800.0	4.0	6.0	8.0	3.0	0.0	part_2
243	1.0	7.0			800.0	0.0	0.0							6.0	0.0	0.617245982491113	6.0	800.0	4.0	4.0	4.0	5.0	0.0	part_2
244	1.0	7.0			800.0	0.0	0.0							5.0	0.0	0.8520900885814626	5.0	800.0	3.0	5.0	3.0	4.0	0.0	part_2
245	1.0	7.0			800.0	0.0	0.0							6.0	0.0	0.549576871071622	6.0	800.0	2.0	2.0	2.0	1.0	0.0	part_2
246	1.0	7.0			800.0	0.0	0.0							5.0	0.0	0.9222475840724655	5.0	800.0	2.0	2.0	2.0	1.0	0.0	part_2
247	3.0	7.0			800.0	0.0	1.0							6.0	0.0	0.6864545475818886	6.0	800.0	2.0	3.0	6.0	6.0	1.0	part_2
248	1.0	7.0			800.0	0.0	0.0							5.0	0.0	0.5862926507452357	5.0	750.0	1.0	8.0	1.0	7.0	0.0	part_2
249	1.0	7.0			800.0	0.0	0.0							5.0	0.0	0.6881283819084274	5.0	750.0	1.0	8.0	1.0	7.0	0.0	part_2
250	4.0	7.0			800.0	0.0	1.0							5.0	0.0	0.0	0.0	750.0	2.0	3.0	6.0	6.0	1.0	part_2
251	4.0	7.0			850.0	0.0	1.0							5.0	0.0	0.0	0.0	750.0	2.0	3.0	6.0	6.0	1.0	part_2
252	1.0	8.0			900.0	0.0	1.0							6.0	0.0	0.8835511337447315	6.0	750.0	1.0	1.0	5.0	8.0	0.0	part_2
253	3.0	8.0			900.0	0.0	1.0							6.0	0.0	0.37774951516348665	6.0	750.0	4.0	6.0	8.0	3.0	1.0	part_2
254	1.0	8.0			900.0	0.0	0.0							6.0	0.0	0.7603692404190951	6.0	700.0	2.0	2.0	2.0	1.0	0.0	part_2
255	1.0	8.0			900.0	0.0	1.0							6.0	0.0	0.5714897205816669	6.0	700.0	4.0	6.0	8.0	3.0	0.0	part_2
256	1.0	8.0			900.0	0.0	0.0							6.0	0.0	0.6957393270722605	6.0	700.0	3.0	5.0	3.0	4.0	0.0	part_2
257	3.0	8.0			900.0	0.0	1.0							5.0	0.0	0.5953020966535405	5.0	700.0	3.0	7.0	7.0	2.0	1.0	part_2
258	1.0	8.0			850.0	0.0	0.0							5.0	0.0	0.5736729416539674	5.0	700.0	4.0	4.0	4.0	5.0	0.0	part_2
259	4.0	8.0			850.0	0.0	1.0							6.0	0.0	0.0	0.0	700.0	2.0	3.0	6.0	6.0	1.0	part_2
260	3.0	8.0			850.0	0.0	1.0							5.0	0.0	0.8605850457452107	5.0	750.0	2.0	3.0	6.0	6.0	1.0	part_2
261	1.0	8.0			800.0	0.0	1.0							6.0	0.0	1.1391526807456103	6.0	750.0	1.0	1.0	5.0	8.0	0.0	part_2
262	1.0	8.0			800.0	0.0	0.0							6.0	0.0	0.6099575610005559	6.0	750.0	3.0	5.0	3.0	4.0	0.0	part_2
263	3.0	8.0			800.0	0.0	1.0							5.0	0.0	0.8355420795815007	5.0	750.0	1.0	1.0	5.0	8.0	1.0	part_2
264	1.0	8.0			750.0	0.0	0.0							6.0	0.0	0.6006954597451113	6.0	750.0	1.0	8.0	1.0	7.0	0.0	part_2
265	1.0	8.0			750.0	0.0	1.0							6.0	0.0	0.9395829185814364	6.0	750.0	2.0	3.0	6.0	6.0	0.0	part_2
266	1.0	8.0			750.0	0.0	1.0							5.0	0.0	1.0192868447447836	5.0	750.0	4.0	6.0	8.0	3.0	0.0	part_2
267	1.0	8.0			750.0	0.0	0.0							6.0	0.0	0.5802608690719353	6.0	750.0	3.0	5.0	3.0	4.0	0.0	part_2
268	1.0	8.0			750.0	0.0	0.0							6.0	0.0	0.49241499190884497	6.0	750.0	2.0	2.0	2.0	1.0	0.0	part_2
269	1.0	8.0			750.0	0.0	0.0							6.0	0.0	0.616433863581733	6.0	750.0	1.0	8.0	1.0	7.0	0.0	part_2
270	1.0	8.0			750.0	0.0	0.0							5.0	0.0	0.6290430760718664	5.0	750.0	2.0	2.0	2.0	1.0	0.0	part_2
271	3.0	8.0			750.0	0.0	1.0							5.0	0.0	0.888714681908823	5.0	750.0	4.0	6.0	8.0	3.0	1.0	part_2
272	4.0	8.0			700.0	0.0	1.0							6.0	0.0	0.0	0.0	750.0	2.0	3.0	6.0	6.0	1.0	part_2
273	1.0	8.0			700.0	0.0	0.0							5.0	0.0	0.6312742854906901	5.0	800.0	4.0	4.0	4.0	5.0	0.0	part_2
274	1.0	8.0			700.0	0.0	0.0							6.0	0.0	0.5314134003265281	6.0	800.0	2.0	2.0	2.0	1.0	0.0	part_2
275	1.0	8.0			700.0	0.0	1.0							6.0	0.0	1.014472303909315	6.0	800.0	4.0	6.0	8.0	3.0	0.0	part_2
276	1.0	8.0			700.0	0.0	0.0							5.0	0.0	0.6110881606546172	5.0	800.0	2.0	2.0	2.0	1.0	0.0	part_2
277	1.0	8.0			700.0	0.0	1.0							5.0	0.0	0.88157415432579	5.0	800.0	1.0	1.0	5.0	8.0	0.0	part_2
278	3.0	8.0			700.0	0.0	1.0							5.0	0.0	0.8267857764903965	5.0	800.0	4.0	6.0	8.0	3.0	1.0	part_2
279	3.0	8.0			650.0	0.0	1.0							6.0	0.0	0.7929111583262056	6.0	800.0	2.0	3.0	6.0	6.0	1.0	part_2
280	1.0	8.0			650.0	0.0	1.0							6.0	0.0	0.5133299970002554	6.0	750.0	3.0	7.0	7.0	2.0	0.0	part_2
281	1.0	8.0			650.0	0.0	1.0							6.0	0.0	0.5366090840716424	6.0	750.0	3.0	7.0	7.0	2.0	0.0	part_2
282	1.0	8.0			650.0	0.0	0.0							6.0	0.0	0.570220155745119	6.0	750.0	3.0	5.0	3.0	4.0	0.0	part_2
283	1.0	8.0			650.0	0.0	0.0							5.0	0.0	0.6399856816542524	5.0	750.0	3.0	5.0	3.0	4.0	0.0	part_2
284	3.0	8.0			650.0	0.0	1.0							6.0	0.0	0.436461287581551	6.0	750.0	1.0	1.0	5.0	8.0	1.0	part_2
285	1.0	8.0			650.0	0.0	0.0							6.0	0.0	0.5618795153268366	6.0	700.0	4.0	4.0	4.0	5.0	0.0	part_2
286	3.0	8.0			650.0	0.0	1.0							5.0	0.0	0.4397402974900615	5.0	700.0	3.0	7.0	7.0	2.0	1.0	part_2
287	4.0	8.0			600.0	0.0	1.0							5.0	0.0	0.0	0.0	700.0	2.0	3.0	6.0	6.0	1.0	part_2
0	0.0	1.0	49.0	1.0	0.0	2.0	0.0	147.0	49.0	196.0	245.0	98.0	294.0	7.0	0.0	0.8195506906176888	2.0	0.0	1.0	8.0	1.0	7.0	0.0	part_3
1	0.0	1.0	54.0	1.0	0.0	1.0	1.0	216.0	54.0	324.0	162.0	108.0	270.0	7.0	0.0	1.5401624082769558	2.0	0.0	1.0	1.0	5.0	8.0	0.0	part_3
2	0.0	1.0	102.0	3.0	0.0	1.0	0.0	136.0	102.0	204.0	68.0	170.0	34.0	7.0	0.0	1.7997343588085641	2.0	0.0	2.0	2.0	2.0	1.0	0.0	part_3
3	0.0	1.0	176.0	4.0	0.0	1.0	1.0	220.0	264.0	176.0	132.0	44.0	88.0	7.0	0.0	1.260607080808768	3.0	0.0	4.0	6.0	8.0	3.0	0.0	part_3
4	0.0	1.0	216.0	4.0	0.0	1.0	0.0	270.0	216.0	324.0	54.0	108.0	162.0	7.0	0.0	1.4765987354248864	2.0	0.0	2.0	2.0	2.0	1.0	0.0	part_3
5	0.0	1.0	176.0	4.0	0.0	1.0	0.0	44.0	132.0	88.0	264.0	220.0	176.0	7.0	0.0	1.499632607426065	6.0	0.0	3.0	5.0	3.0	4.0	0.0	part_3
6	0.0	1.0	204.0	6.0	0.0	1.0	0.0	68.0	136.0	102.0	34.0	170.0	204.0	7.0	0.0	2.9296078348088486	6.0	0.0	4.0	4.0	4.0	5.0	0.0	part_3
7	0.0	1.0	34.0	1.0	0.0	1.0	1.0	204.0	170.0	34.0	136.0	68.0	102.0	7.0	0.0	1.8719884120000643	3.0	0.0	1.0	1.0	5.0	8.0	0.0	part_3
8	0.0	1.0	88.0	2.0	0.0	1.0	1.0	176.0	88.0	44.0	264.0	132.0	220.0	7.0	0.0	2.1553315606170145	2.0	0.0	3.0	7.0	7.0	2.0	0.0	part_3
9	0.0	1.0	54.0	1.0	0.0	1.0	1.0	108.0	54.0	162.0	270.0	216.0	324.0	7.0	0.0	2.290790546277094	2.0	0.0	3.0	7.0	7.0	2.0	0.0	part_3
10	0.0	1.0	98.0	2.0	0.0	1.0	1.0	49.0	98.0	245.0	196.0	147.0	294.0	7.0	0.0	2.5503834934252154	2.0	0.0	3.0	7.0	7.0	2.0	0.0	part_3
11	0.0	1.0	324.0	6.0	0.0	1.0	0.0	54.0	216.0	324.0	162.0	270.0	108.0	7.0	0.0	2.427985122851169	3.0	0.0	4.0	4.0	4.0	5.0	0.0	part_3
12	0.0	1.0	49.0	1.0	0.0	1.0	0.0	245.0	196.0	98.0	294.0	49.0	147.0	7.0	0.0	4.050419523234268	5.0	0.0	1.0	8.0	1.0	7.0	0.0	part_3
13	0.0	1.0	68.0	2.0	0.0	1.0	0.0	102.0	34.0	68.0	170.0	204.0	136.0	7.0	0.0	2.2466098274253454	3.0	0.0	1.0	8.0	1.0	7.0	0.0	part_3
14	0.0	1.0	68.0	2.0	0.0	1.0	1.0	102.0	204.0	136.0	68.0	34.0	170.0	7.0	0.0	1.5717757008515036	4.0	0.0	3.0	7.0	7.0	2.0	0.0	part_3
15	0.0	1.0	147.0	3.0	0.0	1.0	0.0	196.0	294.0	147.0	98.0	245.0	49.0	7.0	0.0	1.5280333232340126	3.0	0.0	3.0	5.0	3.0	4.0	0.0	part_3
16	0.0	1.0	117.0	3.0	0.0	1.0	0.0	78.0	156.0	234.0	195.0	39.0	117.0	7.0	0.0	2.180715311425047	6.0	0.0	2.0	2.0	2.0	1.0	0.0	part_3
17	0.0	1.0	170.0	5.0	0.0	1.0	1.0	204.0	34.0	170.0	102.0	136.0	68.0	7.0	0.0	1.59789712523434	3.0	0.0	4.0	6.0	8.0	3.0	0.0	part_3
18	0.0	1.0	132.0	3.0	0.0	1.0	1.0	176.0	88.0	220.0	132.0	264.0	44.0	7.0	0.0	1.6998543400004564	4.0	0.0	3.0	7.0	7.0	2.0	0.0	part_3
19	0.0	1.0	108.0	2.0	0.0	1.0	1.0	216.0	162.0	54.0	324.0	270.0	108.0	7.0	0.0	2.870920512425073	6.0	0.0	2.0	3.0	6.0	6.0	0.0	part_3
20	0.0	2.0	68.0	2.0	0.0	1.0	1.0	68.0	102.0	204.0	34.0	170.0	136.0	7.0	0.0	1.6280075372342253	1.0	0.0	1.0	1.0	5.0	8.0	0.0	part_3
21	0.0	2.0	176.0	4.0	0.0	1.0	0.0	132.0	88.0	176.0	44.0	220.0	264.0	7.0	0.0	1.820838778425241	3.0	0.0	3.0	5.0	3.0	4.0	0.0	part_3
22	0.0	2.0	170.0	5.0	0.0	1.0	1.0	204.0	68.0	170.0	102.0	34.0	136.0	7.0	0.0	1.2022737904253518	3.0	0.0	4.0	6.0	8.0	3.0	0.0	part_3
23	0.0	2.0	39.0	1.0	0.0	1.0	1.0	39.0	117.0	78.0	195.0	156.0	234.0	7.0	0.0	1.1490020652345265	1.0	0.0	1.0	1.0	5.0	8.0	0.0	part_3
24	0.0	2.0	162.0	3.0	0.0	1.0	0.0	108.0	324.0	54.0	270.0	216.0	162.0	7.0	0.0	2.104748379234479	6.0	0.0	3.0	5.0	3.0	4.0	0.0	part_3
25	0.0	2.0	294.0	6.0	0.0	1.0	0.0	245.0	98.0	49.0	294.0	196.0	147.0	7.0	0.0	1.9705615404254786	4.0	0.0	4.0	4.0	4.0	5.0	0.0	part_3
26	0.0	2.0	156.0	4.0	0.0	1.0	0.0	117.0	39.0	78.0	156.0	195.0	234.0	7.0	0.0	2.4902307304255373	4.0	0.0	2.0	2.0	2.0	1.0	0.0	part_3
27	0.0	2.0	147.0	3.0	0.0	1.0	1.0	245.0	196.0	49.0	98.0	294.0	147.0	7.0	0.0	2.23368335361738	6.0	0.0	3.0	7.0	7.0	2.0	0.0	part_3
28	0.0	2.0	88.0	2.0	0.0	1.0	0.0	176.0	264.0	88.0	220.0	132.0	44.0	7.0	0.0	1.412898941851381	3.0	0.0	1.0	8.0	1.0	7.0	0.0	part_3
29	0.0	2.0	98.0	2.0	0.0	1.0	1.0	196.0	245.0	147.0	98.0	49.0	294.0	7.0	0.0	2.426259570660477	4.0	0.0	1.0	1.0	5.0	8.0	0.0	part_3
30	0.0	2.0	117.0	3.0	0.0	1.0	0.0	117.0	78.0	156.0	39.0	195.0	234.0	7.0	0.0	2.673542243617703	1.0	0.0	1.0	8.0	1.0	7.0	0.0	part_3
31	0.0	2.0	39.0	1.0	0.0	1.0	1.0	39.0	195.0	117.0	78.0	156.0	234.0	7.0	0.0	2.584914110043428	1.0	0.0	1.0	1.0	5.0	8.0	0.0	part_3
32	0.0	2.0	176.0	4.0	0.0	1.0	1.0	132.0	264.0	176.0	88.0	220.0	44.0	7.0	0.0	1.461132751277546	3.0	0.0	2.0	3.0	6.0	6.0	0.0	part_3
33	0.0	2.0	170.0	5.0	0.0	1.0	1.0	136.0	68.0	170.0	204.0	34.0	102.0	7.0	0.0	1.8128145328519167	3.0	0.0	2.0	3.0	6.0	6.0	0.0	part_3
34	0.0	2.0	156.0	4.0	0.0	1.0	0.0	39.0	156.0	117.0	78.0	195.0	234.0	7.0	0.0	3.1176040094260316	2.0	0.0	4.0	4.0	4.0	5.0	0.0	part_3
35	0.0	2.0	132.0	3.0	0.0	1.0	0.0	88.0	220.0	176.0	132.0	264.0	44.0	7.0	0.0	2.8938609936176363	4.0	0.0	2.0	2.0	2.0	1.0	0.0	part_3
36	0.0	2.0	264.0	6.0	0.0	1.0	0.0	44.0	176.0	264.0	220.0	132.0	88.0	7.0	0.0	1.894668291661219	3.0	0.0	4.0	4.0	4.0	5.0	0.0	part_3
37	0.0	2.0	204.0	6.0	0.0	1.0	0.0	34.0	68.0	170.0	102.0	136.0	204.0	7.0	0.0	3.1882821892349966	6.0	0.0	4.0	4.0	4.0	5.0	0.0	part_3
38	0.0	2.0	234.0	6.0	0.0	1.0	0.0	156.0	117.0	195.0	78.0	234.0	39.0	7.0	0.0	2.8075166598091528	5.0	0.0	3.0	5.0	3.0	4.0	0.0	part_3
39	0.0	2.0	102.0	3.0	0.0	1.0	1.0	170.0	68.0	102.0	136.0	34.0	204.0	7.0	0.0	2.605478238277101	3.0	0.0	2.0	3.0	6.0	6.0	0.0	part_3
40	0.0	3.0	102.0	3.0	0.0	1.0	0.0	136.0	170.0	102.0	68.0	204.0	34.0	7.0	0.0	3.3458010444255706	3.0	0.0	2.0	2.0	2.0	1.0	0.0	part_3
41	0.0	3.0	108.0	2.0	0.0	1.0	0.0	270.0	324.0	108.0	162.0	54.0	216.0	7.0	0.0	1.6247787102338407	3.0	0.0	3.0	5.0	3.0	4.0	0.0	part_3
42	0.0	3.0	98.0	2.0	0.0	1.0	0.0	147.0	98.0	49.0	245.0	196.0	294.0	7.0	0.0	3.3589274484693306	2.0	0.0	2.0	2.0	2.0	1.0	0.0	part_3
43	0.0	3.0	39.0	1.0	0.0	1.0	1.0	78.0	234.0	195.0	39.0	156.0	117.0	7.0	0.0	4.171481219808811	4.0	0.0	3.0	7.0	7.0	2.0	0.0	part_3
44	0.0	3.0	54.0	1.0	0.0	1.0	1.0	162.0	54.0	324.0	216.0	108.0	270.0	7.0	0.0	3.9265477554254176	2.0	0.0	3.0	7.0	7.0	2.0	0.0	part_3
45	0.0	3.0	88.0	2.0	0.0	1.0	1.0	220.0	176.0	264.0	132.0	44.0	88.0	7.0	0.0	1.8454726272775588	6.0	0.0	1.0	1.0	5.0	8.0	0.0	part_3
46	0.0	3.0	196.0	4.0	0.0	1.0	0.0	49.0	196.0	147.0	245.0	294.0	98.0	7.0	0.0	3.0180198022344484	2.0	0.0	3.0	5.0	3.0	4.0	0.0	part_3
47	0.0	3.0	132.0	3.0	0.0	1.0	0.0	176.0	88.0	264.0	132.0	220.0	44.0	7.0	0.0	1.7805057406176275	4.0	0.0	2.0	2.0	2.0	1.0	0.0	part_3
48	0.0	3.0	68.0	2.0	0.0	1.0	0.0	170.0	102.0	68.0	136.0	34.0	204.0	7.0	0.0	3.560541670042767	3.0	0.0	1.0	8.0	1.0	7.0	0.0	part_3
49	0.0	3.0	68.0	2.0	0.0	1.0	1.0	204.0	170.0	34.0	102.0	136.0	68.0	7.0	0.0	3.7517699518512018	6.0	0.0	3.0	7.0	7.0	2.0	0.0	part_3
50	0.0	3.0	220.0	5.0	0.0	1.0	1.0	132.0	176.0	88.0	264.0	220.0	44.0	7.0	0.0	1.8179858952780705	5.0	0.0	4.0	6.0	8.0	3.0	0.0	part_3
51	0.0	3.0	176.0	4.0	0.0	1.0	1.0	264.0	44.0	176.0	88.0	132.0	220.0	7.0	0.0	2.202072914617929	3.0	0.0	2.0	3.0	6.0	6.0	0.0	part_3
52	0.0	3.0	156.0	4.0	0.0	1.0	1.0	117.0	195.0	156.0	39.0	78.0	234.0	7.0	0.0	1.5063348018520628	3.0	0.0	2.0	3.0	6.0	6.0	0.0	part_3
53	0.0	3.0	294.0	6.0	0.0	1.0	0.0	98.0	196.0	147.0	245.0	294.0	49.0	7.0	0.0	2.1715220798087103	5.0	0.0	4.0	4.0	4.0	5.0	0.0	part_3
54	0.0	3.0	108.0	2.0	0.0	1.0	0.0	216.0	324.0	108.0	162.0	270.0	54.0	7.0	0.0	2.160083238808511	3.0	0.0	2.0	2.0	2.0	1.0	0.0	part_3
55	0.0	3.0	54.0	1.0	0.0	1.0	0.0	54.0	270.0	216.0	162.0	324.0	108.0	7.0	0.0	3.2074010894248204	1.0	0.0	1.0	8.0	1.0	7.0	0.0	part_3
56	0.0	3.0	264.0	6.0	0.0	1.0	0.0	44.0	132.0	264.0	88.0	176.0	220.0	7.0	0.0	2.1287412202345877	3.0	0.0	4.0	4.0	4.0	5.0	0.0	part_3
57	0.0	3.0	294.0	6.0	0.0	1.0	1.0	147.0	294.0	98.0	245.0	196.0	49.0	7.0	0.0	2.43298932842481	2.0	0.0	4.0	6.0	8.0	3.0	0.0	part_3
58	0.0	3.0	324.0	6.0	0.0	1.0	1.0	162.0	270.0	324.0	54.0	108.0	216.0	7.0	0.0	2.008100695851681	3.0	0.0	4.0	6.0	8.0	3.0	0.0	part_3
59	0.0	3.0	204.0	6.0	0.0	1.0	0.0	34.0	68.0	204.0	102.0	136.0	170.0	7.0	0.0	1.7611606472346466	3.0	0.0	3.0	5.0	3.0	4.0	0.0	part_3
60	0.0	4.0	195.0	5.0	0.0	1.0	1.0	117.0	195.0	78.0	39.0	156.0	234.0	7.0	0.0	1.5218780456179957	2.0	0.0	2.0	3.0	6.0	6.0	0.0	part_3
61	0.0	4.0	220.0	5.0	0.0	1.0	0.0	176.0	220.0	88.0	132.0	264.0	44.0	7.0	0.0	1.4998022412337377	2.0	0.0	1.0	8.0	1.0	7.0	0.0	part_3
62	0.0	4.0	88.0	2.0	0.0	1.0	1.0	264.0	176.0	220.0	44.0	88.0	132.0	7.0	0.0	1.455813590850994	5.0	0.0	1.0	1.0	5.0	8.0	0.0	part_3
63	0.0	4.0	34.0	1.0	0.0	1.0	0.0	68.0	102.0	204.0	136.0	34.0	170.0	7.0	0.0	1.3789219212349053	5.0	0.0	3.0	5.0	3.0	4.0	0.0	part_3
64	0.0	4.0	234.0	6.0	0.0	1.0	1.0	78.0	195.0	156.0	234.0	39.0	117.0	7.0	0.0	1.3693073504255153	4.0	0.0	4.0	6.0	8.0	3.0	0.0	part_3
65	0.0	4.0	78.0	2.0	0.0	1.0	0.0	156.0	78.0	195.0	39.0	117.0	234.0	7.0	0.0	2.000767461425312	2.0	0.0	3.0	5.0	3.0	4.0	0.0	part_3
66	0.0	4.0	270.0	5.0	0.0	1.0	1.0	54.0	108.0	216.0	270.0	324.0	162.0	7.0	0.0	1.6644711246181032	4.0	0.0	4.0	6.0	8.0	3.0	0.0	part_3
67	0.0	4.0	78.0	2.0	0.0	1.0	1.0	195.0	156.0	78.0	117.0	234.0	39.0	7.0	0.0	3.386995549425592	3.0	0.0	3.0	7.0	7.0	2.0	0.0	part_3
68	0.0	4.0	294.0	6.0	0.0	1.0	1.0	196.0	245.0	49.0	98.0	147.0	294.0	7.0	0.0	2.251561248425787	6.0	0.0	4.0	6.0	8.0	3.0	0.0	part_3
69	0.0	4.0	49.0	1.0	0.0	1.0	1.0	49.0	294.0	147.0	196.0	98.0	245.0	7.0	0.0	1.5089846322771336	1.0	0.0	1.0	1.0	5.0	8.0	0.0	part_3
70	0.0	4.0	234.0	6.0	0.0	1.0	1.0	117.0	39.0	78.0	156.0	195.0	234.0	7.0	0.0	2.2190256552339633	6.0	0.0	4.0	6.0	8.0	3.0	0.0	part_3
71	0.0	4.0	234.0	6.0	0.0	1.0	0.0	234.0	156.0	117.0	78.0	195.0	39.0	7.0	0.0	1.3979421894700863	1.0	0.0	4.0	4.0	4.0	5.0	0.0	part_3
72	0.0	4.0	78.0	2.0	0.0	1.0	0.0	156.0	234.0	39.0	195.0	78.0	117.0	7.0	0.0	0.9268114246169716	5.0	0.0	1.0	8.0	1.0	7.0	0.0	part_3
73	0.0	4.0	54.0	1.0	0.0	1.0	0.0	324.0	216.0	54.0	108.0	162.0	270.0	7.0	0.0	2.0660489918091116	3.0	0.0	1.0	8.0	1.0	7.0	0.0	part_3
74	0.0	4.0	54.0	1.0	0.0	1.0	1.0	270.0	162.0	324.0	216.0	54.0	108.0	7.0	0.0	2.7069428632339623	5.0	0.0	1.0	1.0	5.0	8.0	0.0	part_3
75	0.0	4.0	270.0	5.0	0.0	1.0	0.0	108.0	54.0	270.0	324.0	216.0	162.0	7.0	0.0	2.4385551984696576	3.0	0.0	4.0	4.0	4.0	5.0	0.0	part_3
76	0.0	4.0	162.0	3.0	0.0	1.0	1.0	54.0	270.0	162.0	216.0	324.0	108.0	7.0	0.0	1.4829325070431878	3.0	0.0	2.0	3.0	6.0	6.0	0.0	part_3
77	0.0	4.0	49.0	1.0	0.0	1.0	1.0	147.0	196.0	49.0	294.0	245.0	98.0	7.0	0.0	0.5833880538521043	3.0	0.0	2.0	3.0	6.0	6.0	0.0	part_3
78	0.0	4.0	196.0	4.0	0.0	1.0	1.0	245.0	147.0	196.0	98.0	49.0	294.0	7.0	0.0	0.8882869332337577	3.0	0.0	2.0	3.0	6.0	6.0	0.0	part_3
79	0.0	4.0	196.0	4.0	0.0	1.0	0.0	196.0	49.0	147.0	245.0	98.0	294.0	7.0	0.0	2.386304873809422	1.0	0.0	2.0	2.0	2.0	1.0	0.0	part_3
