	accuracy	block	chosen_bidding_amount	chosen_bidding_level	left_SSD	num_trial_presentations	paired_with_stopping	possible_bid_1	possible_bid_2	possible_bid_3	possible_bid_4	possible_bid_5	possible_bid_6	quadrant	raw_reward_magnitude	reaction_time	response	right_SSD	stepwise_reward_magnitude	stim_color	stim_reward	stim_shape	stop_signal_trial_type	which_part
0		1.0				1.0	1.0							1.0	0.0	0.47434488908038475	1.0		0.0	5.0	5.0	1.0		part_1
1		1.0				1.0	0.0							1.0	77.0	0.5079456210369244	1.0		2.0	8.0	2.0	4.0		part_1
2		1.0				1.0	1.0							3.0	55.0	0.6207985836226726	3.0		1.0	5.0	5.0	1.0		part_1
3		1.0				1.0	0.0							4.0	60.0	0.4855139035353204	4.0		1.0	2.0	1.0	6.0		part_1
4		1.0				1.0	1.0							4.0	86.0	0.6009202570421621	4.0		2.0	3.0	6.0	8.0		part_1
5		1.0				1.0	0.0							1.0	0.0	0.5337864145694766	1.0		0.0	6.0	3.0	3.0		part_1
6		1.0				1.0	1.0							3.0	400.0	0.5214837135426933	3.0		4.0	4.0	8.0	2.0		part_1
7		1.0				1.0	1.0							3.0	120.0	0.5105947032134281	3.0		2.0	3.0	6.0	8.0		part_1
8		1.0				1.0	0.0							4.0	391.0	0.44566699501592666	4.0		4.0	7.0	4.0	5.0		part_1
9		1.0				1.0	0.0							1.0	423.0	0.43463128911389504	1.0		4.0	7.0	4.0	5.0		part_1
10		1.0				1.0	0.0							1.0	50.0	0.6703335315687582	1.0		1.0	2.0	1.0	6.0		part_1
11		1.0				1.0	0.0							3.0	27.0	0.3667837860266445	3.0		1.0	2.0	1.0	6.0		part_1
12		1.0				1.0	0.0							2.0	396.0	0.5139052280137548	2.0		4.0	7.0	4.0	5.0		part_1
13		1.0				1.0	1.0							3.0	75.0	0.4359885260782903	3.0		1.0	5.0	5.0	1.0		part_1
14		1.0				1.0	1.0							2.0	98.0	0.47154104759101756	2.0		2.0	3.0	6.0	8.0		part_1
15		1.0				1.0	0.0							2.0	416.0	0.427284898571088	2.0		4.0	7.0	4.0	5.0		part_1
16		1.0				1.0	1.0							3.0	0.0	0.39248227153439075	3.0		0.0	4.0	8.0	2.0		part_1
17		1.0				1.0	0.0							3.0	64.0	0.4260346086230129	3.0		1.0	2.0	1.0	6.0		part_1
18		1.0				1.0	0.0							1.0	55.0	0.4388610930473078	1.0		1.0	2.0	1.0	6.0		part_1
19		1.0				1.0	1.0							2.0	200.0	0.4729587890469702	2.0		3.0	1.0	7.0	7.0		part_1
20		1.0				1.0	0.0							3.0	87.0	0.4741649150237208	3.0		2.0	8.0	2.0	4.0		part_1
21		1.0				1.0	0.0							4.0	187.0	0.4734883210476255	4.0		3.0	6.0	3.0	3.0		part_1
22		1.0				1.0	1.0							3.0	192.0	0.3624390240292996	3.0		3.0	1.0	7.0	7.0		part_1
23		1.0				1.0	0.0							4.0	125.0	0.3853300455084536	4.0		2.0	8.0	2.0	4.0		part_1
24		1.0				1.0	0.0							3.0	63.0	0.43014824562123977	3.0		1.0	2.0	1.0	6.0		part_1
25		1.0				1.0	0.0							2.0	0.0	0.5774733320431551	2.0		0.0	8.0	2.0	4.0		part_1
26		1.0				1.0	1.0							2.0	0.0	0.4543709105346352	2.0		0.0	3.0	6.0	8.0		part_1
27		1.0				1.0	0.0							1.0	398.0	0.5102956460905261	1.0		4.0	7.0	4.0	5.0		part_1
28		1.0				1.0	0.0							3.0	113.0	0.41124334451160394	3.0		2.0	8.0	2.0	4.0		part_1
29		1.0				1.0	0.0							3.0	56.0	0.3194974900834495	3.0		1.0	2.0	1.0	6.0		part_1
30		1.0				1.0	0.0							3.0	98.0	0.343962291997741	3.0		2.0	8.0	2.0	4.0		part_1
31		1.0				1.0	0.0							2.0	179.0	0.4808110275043873	2.0		3.0	6.0	3.0	3.0		part_1
32		1.0				1.0	1.0							4.0	62.0	0.5598362605378497	4.0		1.0	5.0	5.0	1.0		part_1
33		1.0				1.0	0.0							1.0	107.0	0.5367899948760169	1.0		2.0	8.0	2.0	4.0		part_1
34		1.0				1.0	0.0							1.0	395.0	0.4134297675336711	1.0		4.0	7.0	4.0	5.0		part_1
35		1.0				1.0	1.0							2.0	107.0	0.4034720261115581	2.0		2.0	3.0	6.0	8.0		part_1
36		1.0				1.0	1.0							3.0	183.0	0.34719992862665094	3.0		3.0	1.0	7.0	7.0		part_1
37		1.0				1.0	0.0							3.0	419.0	0.42550824099453166	3.0		4.0	7.0	4.0	5.0		part_1
38		1.0				1.0	0.0							1.0	53.0	0.43916742205328774	1.0		1.0	2.0	1.0	6.0		part_1
39		1.0				1.0	1.0							3.0	70.0	0.3607837005838519	3.0		1.0	5.0	5.0	1.0		part_1
40		1.0				1.0	0.0							4.0	57.0	0.6975613880204037	4.0		1.0	2.0	1.0	6.0		part_1
41		1.0				1.0	1.0							4.0	27.0	0.4399121395399561	4.0		1.0	5.0	5.0	1.0		part_1
42		1.0				1.0	0.0							3.0	0.0	0.40626756504934747	3.0		0.0	7.0	4.0	5.0		part_1
43		1.0				1.0	1.0							3.0	417.0	0.3856701300246641	3.0		4.0	4.0	8.0	2.0		part_1
44		1.0				1.0	0.0							3.0	0.0	0.35046243862598203	3.0		0.0	8.0	2.0	4.0		part_1
45		1.0				1.0	1.0							3.0	0.0	0.29619151799124666	3.0		0.0	4.0	8.0	2.0		part_1
46		1.0				1.0	0.0							1.0	35.0	0.5344178735103924	1.0		1.0	2.0	1.0	6.0		part_1
47		1.0				1.0	0.0							1.0	87.0	0.49946398704196326	1.0		2.0	8.0	2.0	4.0		part_1
48		1.0				1.0	0.0							3.0	86.0	0.3531899680820061	3.0		2.0	8.0	2.0	4.0		part_1
49		1.0				1.0	1.0							4.0	0.0	0.3993878055771347	4.0		0.0	1.0	7.0	7.0		part_1
50		1.0				1.0	0.0							3.0	204.0	0.4001173540164018	3.0		3.0	6.0	3.0	3.0		part_1
51		1.0				1.0	0.0							1.0	0.0	0.4691356416005874	1.0		0.0	2.0	1.0	6.0		part_1
52		1.0				1.0	0.0							2.0	412.0	0.6949868411029456	2.0		4.0	7.0	4.0	5.0		part_1
53		1.0				1.0	0.0							2.0	222.0	0.481273866535048	2.0		3.0	6.0	3.0	3.0		part_1
54		1.0				1.0	0.0							3.0	118.0	0.3902870115271071	3.0		2.0	8.0	2.0	4.0		part_1
55		1.0				1.0	0.0							4.0	411.0	0.4130774555815151	4.0		4.0	7.0	4.0	5.0		part_1
56		1.0				1.0	0.0							3.0	414.0	0.40369406301761046	3.0		4.0	7.0	4.0	5.0		part_1
57		1.0				1.0	0.0							1.0	110.0	0.4725081570504699	1.0		2.0	8.0	2.0	4.0		part_1
58		1.0				1.0	0.0							3.0	0.0	0.336483299601241	3.0		0.0	6.0	3.0	3.0		part_1
59		1.0				1.0	1.0							1.0	88.0	0.4833834945166018	1.0		2.0	3.0	6.0	8.0		part_1
60		1.0				1.0	0.0							4.0	196.0	0.46241867005301174	4.0		3.0	6.0	3.0	3.0		part_1
61		1.0				1.0	0.0							4.0	0.0	0.46211364150804	4.0		0.0	8.0	2.0	4.0		part_1
62		1.0				1.0	1.0							4.0	206.0	0.3505460625165142	4.0		3.0	1.0	7.0	7.0		part_1
63		1.0				1.0	0.0							2.0	0.0	0.3952373120409902	2.0		0.0	6.0	3.0	3.0		part_1
64		1.0				1.0	0.0							4.0	381.0	0.3059619584673783	4.0		4.0	7.0	4.0	5.0		part_1
65		1.0				1.0	1.0							4.0	380.0	0.4300387911061989	4.0		4.0	4.0	8.0	2.0		part_1
66		1.0				1.0	1.0							4.0	0.0	0.3306210415321402	4.0		0.0	1.0	7.0	7.0		part_1
67		1.0				1.0	1.0							4.0	34.0	0.41019393257738557	4.0		1.0	5.0	5.0	1.0		part_1
68		1.0				1.0	0.0							4.0	206.0	0.342188241018448	4.0		3.0	6.0	3.0	3.0		part_1
69		1.0				1.0	0.0							2.0	0.0	0.4440392045653425	2.0		0.0	6.0	3.0	3.0		part_1
70		1.0				1.0	1.0							4.0	101.0	0.38953842302726116	4.0		2.0	3.0	6.0	8.0		part_1
71		1.0				1.0	1.0							3.0	119.0	0.42282232153229415	3.0		2.0	3.0	6.0	8.0		part_1
72		1.0				1.0	0.0							3.0	211.0	0.35621579459984787	3.0		3.0	6.0	3.0	3.0		part_1
73		1.0				1.0	0.0							2.0	0.0	0.4913796375185484	2.0		0.0	7.0	4.0	5.0		part_1
74		1.0				1.0	0.0							4.0	391.0	0.5041938955255318	4.0		4.0	7.0	4.0	5.0		part_1
75		1.0				1.0	1.0							1.0	396.0	0.6614838770474307	1.0		4.0	4.0	8.0	2.0		part_1
76		1.0				1.0	0.0							1.0	390.0	0.40438238104979973	1.0		4.0	7.0	4.0	5.0		part_1
77		1.0				1.0	1.0							3.0	112.0	0.3237265841162298	3.0		2.0	3.0	6.0	8.0		part_1
78		1.0				1.0	1.0							4.0	121.0	0.31517800808069296	4.0		2.0	3.0	6.0	8.0		part_1
79		1.0				1.0	1.0							3.0	214.0	0.3487414705741685	3.0		3.0	1.0	7.0	7.0		part_1
80		1.0				1.0	1.0							4.0	391.0	0.2816170040896395	4.0		4.0	4.0	8.0	2.0		part_1
81		1.0				1.0	0.0							2.0	0.0	0.4285847455903422	2.0		0.0	7.0	4.0	5.0		part_1
82		1.0				1.0	1.0							4.0	0.0	0.4295305675768759	4.0		0.0	4.0	8.0	2.0		part_1
83		1.0				1.0	1.0							1.0	35.0	0.46294962405227125	1.0		1.0	5.0	5.0	1.0		part_1
84		1.0				1.0	0.0							2.0	192.0	0.4422087690618355	2.0		3.0	6.0	3.0	3.0		part_1
85		1.0				1.0	0.0							4.0	400.0	0.45311353002034593	4.0		4.0	7.0	4.0	5.0		part_1
86		1.0				1.0	0.0							1.0	186.0	0.4882221341104014	1.0		3.0	6.0	3.0	3.0		part_1
87		1.0				1.0	1.0							3.0	87.0	0.3517426110483939	3.0		2.0	3.0	6.0	8.0		part_1
88		1.0				1.0	1.0							2.0	423.0	0.3994762700458523	2.0		4.0	4.0	8.0	2.0		part_1
89		1.0				1.0	0.0							2.0	75.0	0.4004664405074436	2.0		2.0	8.0	2.0	4.0		part_1
90		1.0				1.0	1.0							1.0	213.0	0.42202411353355274	1.0		3.0	1.0	7.0	7.0		part_1
91		1.0				1.0	1.0							3.0	124.0	0.3207995560223935	3.0		2.0	3.0	6.0	8.0		part_1
92		1.0				1.0	0.0							2.0	90.0	0.3215247420303058	2.0		2.0	8.0	2.0	4.0		part_1
93		1.0				1.0	0.0							2.0	0.0	0.4008685720473295	2.0		0.0	2.0	1.0	6.0		part_1
94		1.0				1.0	0.0							1.0	31.0	0.3576935530436458	1.0		1.0	2.0	1.0	6.0		part_1
95		1.0				1.0	0.0							2.0	29.0	0.40375288351788186	2.0		1.0	2.0	1.0	6.0		part_1
96		1.0				1.0	0.0							2.0	200.0	0.4492993570456747	2.0		3.0	6.0	3.0	3.0		part_1
97		1.0				1.0	0.0							4.0	86.0	0.35865450103301555	4.0		2.0	8.0	2.0	4.0		part_1
98		1.0				1.0	1.0							3.0	0.0	0.40471974104002584	3.0		0.0	3.0	6.0	8.0		part_1
99		1.0				1.0	1.0							3.0	0.0	0.4373908985435264	3.0		0.0	1.0	7.0	7.0		part_1
100		2.0				1.0	0.0							1.0	101.0	0.4155552975280443	1.0		2.0	8.0	2.0	4.0		part_1
101		2.0				1.0	1.0							4.0	0.0	0.45008596508705523	4.0		0.0	3.0	6.0	8.0		part_1
102		2.0				1.0	1.0							1.0	384.0	0.3274991185317049	1.0		4.0	4.0	8.0	2.0		part_1
103		2.0				1.0	0.0							4.0	34.0	0.4515278120234143	4.0		1.0	2.0	1.0	6.0		part_1
104		2.0				1.0	0.0							2.0	176.0	0.430197255598614	2.0		3.0	6.0	3.0	3.0		part_1
105		2.0				1.0	1.0							4.0	0.0	0.6424362105317414	4.0		0.0	4.0	8.0	2.0		part_1
106		2.0				1.0	1.0							2.0	77.0	0.35229399854142684	2.0		2.0	3.0	6.0	8.0		part_1
107		2.0				1.0	1.0							3.0	196.0	0.39640085404971614	3.0		3.0	1.0	7.0	7.0		part_1
108		2.0				1.0	0.0							3.0	0.0	0.35289789650414605	3.0		0.0	6.0	3.0	3.0		part_1
109		2.0				1.0	1.0							1.0	198.0	0.5114208725717617	1.0		3.0	1.0	7.0	7.0		part_1
110		2.0				1.0	0.0							4.0	95.0	0.34279973205411807	4.0		2.0	8.0	2.0	4.0		part_1
111		2.0				1.0	0.0							2.0	88.0	0.36530632157518994	2.0		2.0	8.0	2.0	4.0		part_1
112		2.0				1.0	1.0							3.0	0.0	0.4227169525111094	3.0		0.0	1.0	7.0	7.0		part_1
113		2.0				1.0	1.0							1.0	60.0	0.35643111204262823	1.0		1.0	5.0	5.0	1.0		part_1
114		2.0				1.0	0.0							3.0	177.0	0.345755976595683	3.0		3.0	6.0	3.0	3.0		part_1
115		2.0				1.0	0.0							4.0	410.0	0.36800921708345413	4.0		4.0	7.0	4.0	5.0		part_1
116		2.0				1.0	1.0							1.0	68.0	0.3695591340219835	1.0		1.0	5.0	5.0	1.0		part_1
117		2.0				1.0	1.0							3.0	55.0	0.345971557602752	3.0		1.0	5.0	5.0	1.0		part_1
118		2.0				1.0	0.0							4.0	0.0	0.3582969039998716	4.0		0.0	2.0	1.0	6.0		part_1
119		2.0				1.0	1.0							1.0	56.0	0.35864841353031807	1.0		1.0	5.0	5.0	1.0		part_1
120		2.0				1.0	1.0							3.0	64.0	0.41534811559540685	3.0		1.0	5.0	5.0	1.0		part_1
121		2.0				1.0	0.0							2.0	113.0	0.4401396840257803	2.0		2.0	8.0	2.0	4.0		part_1
122		2.0				1.0	1.0							3.0	118.0	0.3479066700238036	3.0		2.0	3.0	6.0	8.0		part_1
123		2.0				1.0	0.0							2.0	91.0	0.396342976091546	2.0		2.0	8.0	2.0	4.0		part_1
124		2.0				1.0	1.0							4.0	382.0	0.46231900952989236	4.0		4.0	4.0	8.0	2.0		part_1
125		2.0				1.0	1.0							3.0	402.0	0.3619725616008509	3.0		4.0	4.0	8.0	2.0		part_1
126		2.0				1.0	0.0							1.0	0.0	0.3292336235754192	1.0		0.0	7.0	4.0	5.0		part_1
127		2.0				1.0	0.0							1.0	213.0	0.3644890931027476	1.0		3.0	6.0	3.0	3.0		part_1
128		2.0				1.0	1.0							1.0	103.0	0.37488873105030507	1.0		2.0	3.0	6.0	8.0		part_1
129		2.0				1.0	1.0							3.0	0.0	0.35203232253843453	3.0		0.0	4.0	8.0	2.0		part_1
130		2.0				1.0	1.0							1.0	36.0	0.3209558725793613	1.0		1.0	5.0	5.0	1.0		part_1
131		2.0				1.0	1.0							4.0	0.0	0.5576816315879114	4.0		0.0	4.0	8.0	2.0		part_1
132		2.0				1.0	0.0							1.0	196.0	0.36673070353572257	1.0		3.0	6.0	3.0	3.0		part_1
133		2.0				1.0	0.0							1.0	0.0	0.502679310113308	1.0		0.0	2.0	1.0	6.0		part_1
134		2.0				1.0	1.0							2.0	45.0	0.5819902715011267	2.0		1.0	5.0	5.0	1.0		part_1
135		2.0				1.0	0.0							3.0	48.0	0.8972793181164889	3.0		1.0	2.0	1.0	6.0		part_1
136		2.0				1.0	1.0							3.0	423.0	0.6377422265795758	3.0		4.0	4.0	8.0	2.0		part_1
137		2.0				1.0	0.0							4.0	381.0	0.5932769745704718	4.0		4.0	7.0	4.0	5.0		part_1
138		2.0				1.0	0.0							3.0	68.0	0.5264923345384886	3.0		1.0	2.0	1.0	6.0		part_1
139		2.0				1.0	1.0							4.0	124.0	0.5392748630401911	4.0		2.0	3.0	6.0	8.0		part_1
140		2.0				1.0	0.0							2.0	384.0	0.4389067665906623	2.0		4.0	7.0	4.0	5.0		part_1
141		2.0				1.0	0.0							4.0	53.0	0.9330433235300006	4.0		1.0	2.0	1.0	6.0		part_1
142		2.0				1.0	0.0							4.0	183.0	0.506976298041991	4.0		3.0	6.0	3.0	3.0		part_1
143		2.0				1.0	0.0							4.0	99.0	0.4049767950200476	4.0		2.0	8.0	2.0	4.0		part_1
144		2.0				1.0	1.0							3.0	0.0	0.5076532120874617	3.0		0.0	5.0	5.0	1.0		part_1
145		2.0				1.0	1.0							4.0	54.0	0.518671302110306	4.0		1.0	5.0	5.0	1.0		part_1
146		2.0				1.0	1.0							3.0	0.0	0.4061293361155549	3.0		0.0	1.0	7.0	7.0		part_1
147		2.0				1.0	1.0							1.0	58.0	0.554717832535971	1.0		1.0	5.0	5.0	1.0		part_1
148		2.0				1.0	0.0							2.0	218.0	0.46560417699220125	2.0		3.0	6.0	3.0	3.0		part_1
149		2.0				1.0	1.0							1.0	86.0	0.43153936258750036	1.0		2.0	3.0	6.0	8.0		part_1
150		2.0				1.0	1.0							2.0	28.0	0.44491781351098325	2.0		1.0	5.0	5.0	1.0		part_1
151		2.0				1.0	1.0							2.0	91.0	0.3769811730890069	2.0		2.0	3.0	6.0	8.0		part_1
152		2.0				1.0	0.0							4.0	0.0	0.42162014661880676	4.0		0.0	8.0	2.0	4.0		part_1
153		2.0				1.0	0.0							2.0	0.0	0.3547766941192094	2.0		0.0	8.0	2.0	4.0		part_1
154		2.0				1.0	0.0							2.0	379.0	0.37757794903882314	2.0		4.0	7.0	4.0	5.0		part_1
155		2.0				1.0	1.0							2.0	106.0	0.3800712475349428	2.0		2.0	3.0	6.0	8.0		part_1
156		2.0				1.0	1.0							1.0	207.0	0.5156284360127756	1.0		3.0	1.0	7.0	7.0		part_1
157		2.0				1.0	0.0							2.0	190.0	0.390486625576159	2.0		3.0	6.0	3.0	3.0		part_1
158		2.0				1.0	1.0							2.0	392.0	0.3915354485361604	2.0		4.0	4.0	8.0	2.0		part_1
159		2.0				1.0	0.0							3.0	221.0	0.48110824957257137	3.0		3.0	6.0	3.0	3.0		part_1
160		2.0				1.0	1.0							4.0	186.0	0.5154488750558812	4.0		3.0	1.0	7.0	7.0		part_1
161		2.0				1.0	1.0							4.0	69.0	0.47137934851343744	4.0		1.0	5.0	5.0	1.0		part_1
162		2.0				1.0	1.0							2.0	221.0	0.42722218911512755	2.0		3.0	1.0	7.0	7.0		part_1
163		2.0				1.0	1.0							4.0	381.0	0.4951834415405756	4.0		4.0	4.0	8.0	2.0		part_1
164		2.0				1.0	0.0							2.0	36.0	0.45091961610887665	2.0		1.0	2.0	1.0	6.0		part_1
165		2.0				1.0	0.0							2.0	121.0	0.4968712150293868	2.0		2.0	8.0	2.0	4.0		part_1
166		2.0				1.0	1.0							4.0	0.0	0.44101944359135814	4.0		0.0	1.0	7.0	7.0		part_1
167		2.0				1.0	0.0							3.0	61.0	0.5434748675324954	3.0		1.0	2.0	1.0	6.0		part_1
168		2.0				1.0	0.0							1.0	83.0	0.8816349250846542	1.0		2.0	8.0	2.0	4.0		part_1
169		2.0				1.0	1.0							1.0	0.0	0.47694571608735714	1.0		0.0	4.0	8.0	2.0		part_1
170		2.0				1.0	1.0							3.0	411.0	0.678950497545884	3.0		4.0	4.0	8.0	2.0		part_1
171		2.0				1.0	0.0							3.0	402.0	0.43329177811392583	3.0		4.0	7.0	4.0	5.0		part_1
172		2.0				1.0	1.0							4.0	206.0	0.3653657565737376	4.0		3.0	1.0	7.0	7.0		part_1
173		2.0				1.0	0.0							3.0	223.0	0.3761301896010991	3.0		3.0	6.0	3.0	3.0		part_1
174		2.0				1.0	1.0							2.0	222.0	0.42259816599835176	2.0		3.0	1.0	7.0	7.0		part_1
175		2.0				1.0	1.0							3.0	407.0	0.36608186358353123	3.0		4.0	4.0	8.0	2.0		part_1
176		2.0				1.0	0.0							2.0	45.0	0.41315019951434806	2.0		1.0	2.0	1.0	6.0		part_1
177		2.0				1.0	1.0							3.0	0.0	0.35724758557626046	3.0		0.0	5.0	5.0	1.0		part_1
178		2.0				1.0	0.0							4.0	379.0	0.32450504101871047	4.0		4.0	7.0	4.0	5.0		part_1
179		2.0				1.0	0.0							1.0	396.0	0.4032804155140184	1.0		4.0	7.0	4.0	5.0		part_1
180		2.0				1.0	1.0							1.0	125.0	0.41576380250626244	1.0		2.0	3.0	6.0	8.0		part_1
181		2.0				2.0	0.0							3.0	0.0	0.46126527959131636	3.0		0.0	6.0	3.0	3.0		part_1
182		2.0				1.0	1.0							2.0	401.0	0.3939454765204573	2.0		4.0	4.0	8.0	2.0		part_1
183		2.0				1.0	1.0							2.0	103.0	0.48398942851054017	2.0		2.0	3.0	6.0	8.0		part_1
184		2.0				1.0	0.0							1.0	117.0	0.4867036000796361	1.0		2.0	8.0	2.0	4.0		part_1
185		2.0				1.0	0.0							1.0	38.0	0.47548939057742245	1.0		1.0	2.0	1.0	6.0		part_1
186		2.0				1.0	0.0							2.0	413.0	0.35154212708584964	2.0		4.0	7.0	4.0	5.0		part_1
187		2.0				1.0	1.0							3.0	0.0	0.41988374208449386	3.0		0.0	1.0	7.0	7.0		part_1
188		2.0				1.0	1.0							4.0	190.0	0.4534661955985939	4.0		3.0	1.0	7.0	7.0		part_1
189		2.0				1.0	1.0							2.0	0.0	0.39905449908110313	2.0		0.0	3.0	6.0	8.0		part_1
190		2.0				1.0	0.0							1.0	0.0	0.3987581795081496	1.0		0.0	2.0	1.0	6.0		part_1
191		2.0				1.0	1.0							1.0	61.0	0.4906147710426012	1.0		1.0	5.0	5.0	1.0		part_1
192		2.0				1.0	0.0							1.0	28.0	0.4453517315996578	1.0		1.0	2.0	1.0	6.0		part_1
193		2.0				1.0	1.0							4.0	0.0	0.4221490895142779	4.0		0.0	3.0	6.0	8.0		part_1
194		2.0				1.0	0.0							4.0	103.0	0.40153049808577634	4.0		2.0	8.0	2.0	4.0		part_1
195		2.0				1.0	0.0							4.0	190.0	0.4235882475768449	4.0		3.0	6.0	3.0	3.0		part_1
196		2.0				1.0	0.0							4.0	0.0	0.35812187210831326	4.0		0.0	7.0	4.0	5.0		part_1
197		2.0				1.0	1.0							2.0	381.0	0.4151920605072519	2.0		4.0	4.0	8.0	2.0		part_1
198		2.0				1.0	0.0							4.0	91.0	0.3805760295217624	4.0		2.0	8.0	2.0	4.0		part_1
199		2.0				1.0	1.0							3.0	413.0	0.4927907625969965	3.0		4.0	4.0	8.0	2.0		part_1
200		3.0				1.0	1.0							4.0	200.0	0.42662207811372355	4.0		3.0	1.0	7.0	7.0		part_1
201		3.0				1.0	1.0							2.0	197.0	0.4276113630767213	2.0		3.0	1.0	7.0	7.0		part_1
202		3.0				1.0	0.0							1.0	194.0	0.37231625503045507	1.0		3.0	6.0	3.0	3.0		part_1
203		3.0				1.0	1.0							2.0	223.0	0.4639915680018021	2.0		3.0	1.0	7.0	7.0		part_1
204		3.0				1.0	0.0							2.0	0.0	0.464772740524495	2.0		0.0	2.0	1.0	6.0		part_1
205		3.0				1.0	1.0							1.0	0.0	0.4187806481058942	1.0		0.0	3.0	6.0	8.0		part_1
206		3.0				1.0	1.0							3.0	177.0	0.5421638290572446	3.0		3.0	1.0	7.0	7.0		part_1
207		3.0				1.0	1.0							1.0	416.0	0.4531387815368362	1.0		4.0	4.0	8.0	2.0		part_1
208		3.0				1.0	1.0							4.0	396.0	0.37670220303698443	4.0		4.0	4.0	8.0	2.0		part_1
209		3.0				1.0	0.0							1.0	406.0	0.43226001207949594	1.0		4.0	7.0	4.0	5.0		part_1
210		3.0				1.0	1.0							3.0	0.0	0.3428634730516933	3.0		0.0	3.0	6.0	8.0		part_1
211		3.0				1.0	1.0							2.0	206.0	0.4336734030221123	2.0		3.0	1.0	7.0	7.0		part_1
212		3.0				1.0	0.0							4.0	0.0	0.3998860710853478	4.0		0.0	2.0	1.0	6.0		part_1
213		3.0				1.0	0.0							3.0	124.0	0.4010505159967579	3.0		2.0	8.0	2.0	4.0		part_1
214		3.0				1.0	1.0							4.0	0.0	0.44573061852133833	4.0		0.0	5.0	5.0	1.0		part_1
215		3.0				1.0	0.0							3.0	220.0	0.3799587780958973	3.0		3.0	6.0	3.0	3.0		part_1
216		3.0				1.0	0.0							1.0	408.0	0.5162750045128632	1.0		4.0	7.0	4.0	5.0		part_1
217		3.0				1.0	0.0							1.0	417.0	0.43666918759117834	1.0		4.0	7.0	4.0	5.0		part_1
218		3.0				1.0	0.0							4.0	219.0	0.3708974479959579	4.0		3.0	6.0	3.0	3.0		part_1
219		3.0				1.0	1.0							1.0	113.0	0.5051726355450228	1.0		2.0	3.0	6.0	8.0		part_1
220		3.0				1.0	0.0							3.0	77.0	0.35932986352418084	3.0		2.0	8.0	2.0	4.0		part_1
221		3.0				1.0	1.0							1.0	408.0	0.5183298445917899	1.0		4.0	4.0	8.0	2.0		part_1
222		3.0				1.0	1.0							1.0	101.0	0.46129736001603305	1.0		2.0	3.0	6.0	8.0		part_1
223		3.0				1.0	1.0							1.0	406.0	0.38313684103195556	1.0		4.0	4.0	8.0	2.0		part_1
224		3.0				1.0	0.0							4.0	0.0	0.4071291495783953	4.0		0.0	8.0	2.0	4.0		part_1
225		3.0				1.0	1.0							1.0	399.0	0.40722328959964216	1.0		4.0	4.0	8.0	2.0		part_1
226		3.0				1.0	0.0							3.0	207.0	0.384870497538941	3.0		3.0	6.0	3.0	3.0		part_1
227		3.0				2.0	1.0							3.0	0.0	0.5219867220293963	3.0		0.0	1.0	7.0	7.0		part_1
228		3.0				1.0	0.0							2.0	58.0	0.46594914062006865	2.0		1.0	2.0	1.0	6.0		part_1
229		3.0				1.0	1.0							2.0	211.0	0.3775096051103901	2.0		3.0	1.0	7.0	7.0		part_1
230		3.0				1.0	0.0							1.0	183.0	0.3766202286060434	1.0		3.0	6.0	3.0	3.0		part_1
231		3.0				1.0	1.0							3.0	63.0	0.3892865630914457	3.0		1.0	5.0	5.0	1.0		part_1
232		3.0				1.0	0.0							4.0	206.0	0.3901549030415481	4.0		3.0	6.0	3.0	3.0		part_1
233		3.0				1.0	1.0							3.0	0.0	0.3884991040540626	3.0		0.0	5.0	5.0	1.0		part_1
234		3.0				1.0	1.0							4.0	0.0	0.3682461085409159	4.0		0.0	3.0	6.0	8.0		part_1
235		3.0				1.0	1.0							2.0	386.0	0.447297339051147	2.0		4.0	4.0	8.0	2.0		part_1
236		3.0				1.0	1.0							4.0	91.0	0.3905802855733782	4.0		2.0	3.0	6.0	8.0		part_1
237		3.0				1.0	1.0							4.0	31.0	0.33503458357881755	4.0		1.0	5.0	5.0	1.0		part_1
238		3.0				1.0	0.0							2.0	52.0	0.4149473715078784	2.0		1.0	2.0	1.0	6.0		part_1
239		3.0				1.0	1.0							1.0	53.0	0.5391631281090667	1.0		1.0	5.0	5.0	1.0		part_1
240		3.0				1.0	0.0							2.0	382.0	0.38216805952833965	2.0		4.0	7.0	4.0	5.0		part_1
241		3.0				1.0	0.0							3.0	30.0	0.5621693651046371	3.0		1.0	2.0	1.0	6.0		part_1
242		3.0				1.0	1.0							2.0	417.0	0.3939109690836631	2.0		4.0	4.0	8.0	2.0		part_1
243		3.0				1.0	1.0							2.0	390.0	0.3742420395137742	2.0		4.0	4.0	8.0	2.0		part_1
244		3.0				1.0	1.0							4.0	41.0	0.40753117261920124	4.0		1.0	5.0	5.0	1.0		part_1
245		3.0				1.0	0.0							3.0	423.0	0.3859483661071863	3.0		4.0	7.0	4.0	5.0		part_1
246		3.0				1.0	1.0							4.0	113.0	0.4864600930304732	4.0		2.0	3.0	6.0	8.0		part_1
247		3.0				1.0	0.0							1.0	69.0	0.47703773753892165	1.0		1.0	2.0	1.0	6.0		part_1
248		3.0				1.0	1.0							4.0	76.0	0.2969264121056767	4.0		2.0	3.0	6.0	8.0		part_1
249		3.0				1.0	0.0							3.0	380.0	0.4102396821108414	3.0		4.0	7.0	4.0	5.0		part_1
250		3.0				1.0	0.0							4.0	112.0	0.35399503010557964	4.0		2.0	8.0	2.0	4.0		part_1
251		3.0				1.0	1.0							1.0	398.0	0.41209921857807785	1.0		4.0	4.0	8.0	2.0		part_1
252		3.0				1.0	1.0							2.0	33.0	0.4354134785680799	2.0		1.0	5.0	5.0	1.0		part_1
253		3.0				1.0	0.0							4.0	418.0	0.3230253175715916	4.0		4.0	7.0	4.0	5.0		part_1
254		3.0				1.0	0.0							1.0	200.0	0.3784074905415764	1.0		3.0	6.0	3.0	3.0		part_1
255		3.0				1.0	1.0							3.0	395.0	0.39127865253249183	3.0		4.0	4.0	8.0	2.0		part_1
256		3.0				1.0	0.0							3.0	399.0	0.3901566416025162	3.0		4.0	7.0	4.0	5.0		part_1
257		3.0				1.0	1.0							1.0	400.0	0.449307442017016	1.0		4.0	4.0	8.0	2.0		part_1
258		3.0				1.0	0.0							2.0	99.0	0.41497012053150684	2.0		2.0	8.0	2.0	4.0		part_1
259		3.0				1.0	0.0							2.0	70.0	0.41686537556233816	2.0		1.0	2.0	1.0	6.0		part_1
260		3.0				1.0	1.0							1.0	52.0	0.4835984820238082	1.0		1.0	5.0	5.0	1.0		part_1
261		3.0				1.0	1.0							2.0	0.0	0.3373286265414208	2.0		0.0	1.0	7.0	7.0		part_1
262		3.0				1.0	0.0							3.0	376.0	0.4063183025282342	3.0		4.0	7.0	4.0	5.0		part_1
263		3.0				1.0	1.0							3.0	50.0	0.36089588557661045	3.0		1.0	5.0	5.0	1.0		part_1
264		3.0				1.0	1.0							4.0	376.0	0.4410157851089025	4.0		4.0	4.0	8.0	2.0		part_1
265		3.0				1.0	1.0							2.0	83.0	0.39769299811450765	2.0		2.0	3.0	6.0	8.0		part_1
266		3.0				1.0	1.0							3.0	199.0	0.5203807670768583	3.0		3.0	1.0	7.0	7.0		part_1
267		3.0				1.0	0.0							3.0	0.0	0.3638578485843027	3.0		0.0	2.0	1.0	6.0		part_1
268		3.0				1.0	1.0							2.0	26.0	0.32067679753527045	2.0		1.0	5.0	5.0	1.0		part_1
269		3.0				1.0	0.0							3.0	401.0	0.3530690040497575	3.0		4.0	7.0	4.0	5.0		part_1
270		3.0				1.0	1.0							3.0	38.0	0.3989670160372043	3.0		1.0	5.0	5.0	1.0		part_1
271		3.0				1.0	1.0							2.0	45.0	0.333384038603981	2.0		1.0	5.0	5.0	1.0		part_1
272		3.0				1.0	0.0							4.0	407.0	0.5686779005336575	4.0		4.0	7.0	4.0	5.0		part_1
273		3.0				1.0	0.0							2.0	0.0	0.37922277057077736	2.0		0.0	7.0	4.0	5.0		part_1
274		3.0				1.0	0.0							3.0	90.0	0.3437050609936705	3.0		2.0	8.0	2.0	4.0		part_1
275		3.0				1.0	0.0							4.0	26.0	0.43535270303254947	4.0		1.0	2.0	1.0	6.0		part_1
276		3.0				1.0	0.0							3.0	0.0	0.3342572726251092	3.0		0.0	6.0	3.0	3.0		part_1
277		3.0				1.0	1.0							1.0	204.0	0.402452756112325	1.0		3.0	1.0	7.0	7.0		part_1
278		3.0				1.0	0.0							3.0	55.0	0.30299892702896614	3.0		1.0	2.0	1.0	6.0		part_1
279		3.0				1.0	1.0							4.0	195.0	0.4141252809931757	4.0		3.0	1.0	7.0	7.0		part_1
280		3.0				1.0	1.0							1.0	196.0	0.42621726605284493	1.0		3.0	1.0	7.0	7.0		part_1
281		3.0				1.0	1.0							2.0	0.0	0.49649101360409986	2.0		0.0	4.0	8.0	2.0		part_1
282		3.0				1.0	1.0							4.0	0.0	0.5619952355045825	4.0		0.0	3.0	6.0	8.0		part_1
283		3.0				1.0	1.0							2.0	176.0	0.3384338370815385	2.0		3.0	1.0	7.0	7.0		part_1
284		3.0				1.0	1.0							1.0	90.0	0.5085431299958145	1.0		2.0	3.0	6.0	8.0		part_1
285		3.0				1.0	1.0							2.0	41.0	0.3520402990980074	2.0		1.0	5.0	5.0	1.0		part_1
286		3.0				1.0	1.0							1.0	408.0	0.35210952305351384	1.0		4.0	4.0	8.0	2.0		part_1
287		3.0				1.0	1.0							1.0	0.0	0.4638689015991986	1.0		0.0	3.0	6.0	8.0		part_1
288		3.0				1.0	0.0							4.0	88.0	0.48748375904688146	4.0		2.0	8.0	2.0	4.0		part_1
289		3.0				1.0	0.0							2.0	92.0	0.35383783211000264	2.0		2.0	8.0	2.0	4.0		part_1
290		3.0				1.0	1.0							4.0	422.0	0.42072151160391513	4.0		4.0	4.0	8.0	2.0		part_1
291		3.0				1.0	0.0							2.0	0.0	0.36567611401551403	2.0		0.0	6.0	3.0	3.0		part_1
292		3.0				1.0	1.0							3.0	220.0	0.5019542560476111	3.0		3.0	1.0	7.0	7.0		part_1
293		3.0				1.0	0.0							2.0	0.0	0.35499215153686237	2.0		0.0	8.0	2.0	4.0		part_1
294		3.0				1.0	1.0							4.0	419.0	0.3680202600226039	4.0		4.0	4.0	8.0	2.0		part_1
295		3.0				1.0	1.0							3.0	379.0	0.3672102560813073	3.0		4.0	4.0	8.0	2.0		part_1
296		3.0				1.0	1.0							4.0	187.0	0.4242115970264422	4.0		3.0	1.0	7.0	7.0		part_1
297		3.0				1.0	1.0							3.0	48.0	0.36799559560313355	3.0		1.0	5.0	5.0	1.0		part_1
298		3.0				1.0	0.0							1.0	75.0	0.5606537430285243	1.0		1.0	2.0	1.0	6.0		part_1
299		3.0				1.0	0.0							1.0	0.0	0.5512689910829067	1.0		0.0	7.0	4.0	5.0		part_1
300		4.0				1.0	0.0							1.0	422.0	0.40095248249417637	1.0		4.0	7.0	4.0	5.0		part_1
301		4.0				1.0	0.0							2.0	101.0	0.402790997599368	2.0		2.0	8.0	2.0	4.0		part_1
302		4.0				1.0	1.0							2.0	29.0	0.402023907576222	2.0		1.0	5.0	5.0	1.0		part_1
303		4.0				1.0	0.0							2.0	61.0	0.3691694045846816	2.0		1.0	2.0	1.0	6.0		part_1
304		4.0				1.0	0.0							1.0	212.0	0.46064677550748456	1.0		3.0	6.0	3.0	3.0		part_1
305		4.0				1.0	0.0							4.0	0.0	0.38109764308319427	4.0		0.0	6.0	3.0	3.0		part_1
306		4.0				1.0	1.0							3.0	0.0	0.40470399646437727	3.0		0.0	5.0	5.0	1.0		part_1
307		4.0				1.0	0.0							3.0	0.0	0.4049813806050224	3.0		0.0	8.0	2.0	4.0		part_1
308		4.0				1.0	1.0							1.0	0.0	0.3841283467190806	1.0		0.0	4.0	8.0	2.0		part_1
309		4.0				1.0	1.0							3.0	179.0	0.4398788075777702	3.0		3.0	1.0	7.0	7.0		part_1
310		4.0				1.0	0.0							4.0	197.0	0.3953035020531388	4.0		3.0	6.0	3.0	3.0		part_1
311		4.0				1.0	0.0							1.0	417.0	0.40678386759827845	1.0		4.0	7.0	4.0	5.0		part_1
312		4.0				1.0	1.0							3.0	99.0	0.4538878760795342	3.0		2.0	3.0	6.0	8.0		part_1
313		4.0				1.0	1.0							2.0	414.0	0.4200883185258135	2.0		4.0	4.0	8.0	2.0		part_1
314		4.0				1.0	1.0							2.0	391.0	0.45483672752743587	2.0		4.0	4.0	8.0	2.0		part_1
315		4.0				1.0	0.0							4.0	43.0	0.5335333025141153	4.0		1.0	2.0	1.0	6.0		part_1
316		4.0				1.0	0.0							2.0	376.0	0.4784182455332484	2.0		4.0	7.0	4.0	5.0		part_1
317		4.0				1.0	0.0							4.0	33.0	0.38743902707938105	4.0		1.0	2.0	1.0	6.0		part_1
318		4.0				1.0	0.0							2.0	45.0	0.48977240252133925	2.0		1.0	2.0	1.0	6.0		part_1
319		4.0				1.0	0.0							4.0	0.0	0.3773305460490519	4.0		0.0	2.0	1.0	6.0		part_1
320		4.0				1.0	0.0							4.0	0.0	0.42427595357003156	4.0		0.0	7.0	4.0	5.0		part_1
321		4.0				1.0	1.0							1.0	38.0	0.4346256671124138	1.0		1.0	5.0	5.0	1.0		part_1
322		4.0				1.0	1.0							4.0	0.0	0.380775934580015	4.0		0.0	5.0	5.0	1.0		part_1
323		4.0				1.0	1.0							4.0	57.0	0.42454522354819346	4.0		1.0	5.0	5.0	1.0		part_1
324		4.0				1.0	1.0							1.0	190.0	0.4609450395364547	1.0		3.0	1.0	7.0	7.0		part_1
325		4.0				1.0	0.0							2.0	41.0	0.42597467958694324	2.0		1.0	2.0	1.0	6.0		part_1
326		4.0				1.0	0.0							2.0	386.0	0.4608274160127621	2.0		4.0	7.0	4.0	5.0		part_1
327		4.0				1.0	1.0							2.0	61.0	0.4833440200309269	2.0		1.0	5.0	5.0	1.0		part_1
328		4.0				1.0	1.0							4.0	90.0	0.4614011215453502	4.0		2.0	3.0	6.0	8.0		part_1
329		4.0				1.0	1.0							4.0	87.0	0.4394153555040248	4.0		2.0	3.0	6.0	8.0		part_1
330		4.0				1.0	1.0							4.0	219.0	0.3949044445762411	4.0		3.0	1.0	7.0	7.0		part_1
331		4.0				1.0	0.0							2.0	199.0	0.4402430940535851	2.0		3.0	6.0	3.0	3.0		part_1
332		4.0				1.0	0.0							3.0	195.0	0.5308146060415311	3.0		3.0	6.0	3.0	3.0		part_1
333		4.0				1.0	0.0							2.0	179.0	0.5764171450282447	2.0		3.0	6.0	3.0	3.0		part_1
334		4.0				1.0	1.0							4.0	0.0	0.4311521980998805	4.0		0.0	1.0	7.0	7.0		part_1
335		4.0				1.0	1.0							2.0	218.0	0.3762257370253792	2.0		3.0	1.0	7.0	7.0		part_1
336		4.0				1.0	1.0							2.0	0.0	0.4883306510746479	2.0		0.0	5.0	5.0	1.0		part_1
337		4.0				1.0	1.0							3.0	53.0	0.4434377719881013	3.0		1.0	5.0	5.0	1.0		part_1
338		4.0				1.0	1.0							4.0	223.0	0.4892961385048693	4.0		3.0	1.0	7.0	7.0		part_1
339		4.0				1.0	1.0							4.0	30.0	0.332769435539376	4.0		1.0	5.0	5.0	1.0		part_1
340		4.0				1.0	0.0							3.0	214.0	0.36675721663050354	3.0		3.0	6.0	3.0	3.0		part_1
341		4.0				1.0	1.0							4.0	410.0	0.3331024011131376	4.0		4.0	4.0	8.0	2.0		part_1
342		4.0				1.0	0.0							2.0	107.0	0.4917584435461322	2.0		2.0	8.0	2.0	4.0		part_1
343		4.0				1.0	0.0							2.0	41.0	0.3810178955172887	2.0		1.0	2.0	1.0	6.0		part_1
344		4.0				1.0	1.0							2.0	88.0	0.3467653555708239	2.0		2.0	3.0	6.0	8.0		part_1
345		4.0				1.0	1.0							1.0	418.0	0.43667526051285677	1.0		4.0	4.0	8.0	2.0		part_1
346		4.0				1.0	0.0							1.0	124.0	0.5517232465062989	1.0		2.0	8.0	2.0	4.0		part_1
347		4.0				1.0	0.0							1.0	0.0	0.4392566740280017	1.0		0.0	8.0	2.0	4.0		part_1
348		4.0				1.0	1.0							3.0	117.0	0.45010751008521765	3.0		2.0	3.0	6.0	8.0		part_1
349		4.0				1.0	1.0							4.0	43.0	0.39459494603215717	4.0		1.0	5.0	5.0	1.0		part_1
350		4.0				1.0	0.0							1.0	0.0	0.38495383453846443	1.0		0.0	2.0	1.0	6.0		part_1
351		4.0				1.0	1.0							2.0	95.0	0.4405009585316293	2.0		2.0	3.0	6.0	8.0		part_1
352		4.0				1.0	0.0							2.0	392.0	0.41782325303938705	2.0		4.0	7.0	4.0	5.0		part_1
353		4.0				1.0	1.0							2.0	110.0	0.43014915159437805	2.0		2.0	3.0	6.0	8.0		part_1
354		4.0				1.0	0.0							2.0	223.0	0.3859417655330617	2.0		3.0	6.0	3.0	3.0		part_1
355		4.0				1.0	0.0							3.0	120.0	0.5437420915259281	3.0		2.0	8.0	2.0	4.0		part_1
356		4.0				1.0	0.0							1.0	106.0	0.5445374780829297	1.0		2.0	8.0	2.0	4.0		part_1
357		4.0				1.0	0.0							3.0	109.0	0.466059281519847	3.0		2.0	8.0	2.0	4.0		part_1
358		4.0				1.0	0.0							1.0	69.0	0.36659327856614254	1.0		1.0	2.0	1.0	6.0		part_1
359		4.0				1.0	1.0							2.0	69.0	0.4457548425416462	2.0		1.0	5.0	5.0	1.0		part_1
360		4.0				1.0	1.0							3.0	0.0	0.47854454403568525	3.0		0.0	5.0	5.0	1.0		part_1
361		4.0				1.0	0.0							4.0	0.0	0.4226600480178604	4.0		0.0	7.0	4.0	5.0		part_1
362		4.0				1.0	1.0							1.0	194.0	0.33401206650887616	1.0		3.0	1.0	7.0	7.0		part_1
363		4.0				1.0	0.0							3.0	69.0	0.42556151605094783	3.0		1.0	2.0	1.0	6.0		part_1
364		4.0				1.0	1.0							2.0	0.0	0.33501131102093495	2.0		0.0	4.0	8.0	2.0		part_1
365		4.0				1.0	1.0							2.0	186.0	0.32436587850679643	2.0		3.0	1.0	7.0	7.0		part_1
366		4.0				1.0	1.0							3.0	179.0	0.4264136716228677	3.0		3.0	1.0	7.0	7.0		part_1
367		4.0				1.0	1.0							3.0	376.0	0.39415399909194093	3.0		4.0	4.0	8.0	2.0		part_1
368		4.0				1.0	0.0							1.0	206.0	0.3821862968761707	1.0		3.0	6.0	3.0	3.0		part_1
369		4.0				1.0	1.0							3.0	75.0	0.3949658576020738	3.0		2.0	3.0	6.0	8.0		part_1
370		4.0				1.0	0.0							1.0	119.0	0.38396143561112694	1.0		2.0	8.0	2.0	4.0		part_1
371		4.0				1.0	1.0							4.0	191.0	0.3737491650390439	4.0		3.0	1.0	7.0	7.0		part_1
372		4.0				1.0	0.0							4.0	191.0	0.32761858610319905	4.0		3.0	6.0	3.0	3.0		part_1
373		4.0				1.0	1.0							1.0	92.0	0.3979095085669542	1.0		2.0	3.0	6.0	8.0		part_1
374		4.0				1.0	1.0							4.0	77.0	0.3400884470465826	4.0		2.0	3.0	6.0	8.0		part_1
375		4.0				1.0	0.0							3.0	0.0	0.43083203908463474	3.0		0.0	8.0	2.0	4.0		part_1
376		4.0				1.0	0.0							3.0	206.0	0.4095734750444535	3.0		3.0	6.0	3.0	3.0		part_1
377		4.0				1.0	0.0							3.0	400.0	0.42078864251379855	3.0		4.0	7.0	4.0	5.0		part_1
378		4.0				1.0	1.0							1.0	99.0	0.4337949790788116	1.0		2.0	3.0	6.0	8.0		part_1
379		4.0				1.0	1.0							3.0	107.0	0.376254996022908	3.0		2.0	3.0	6.0	8.0		part_1
380		4.0				1.0	0.0							4.0	62.0	0.3440703385131201	4.0		1.0	2.0	1.0	6.0		part_1
381		4.0				1.0	0.0							4.0	38.0	0.34412977410829626	4.0		1.0	2.0	1.0	6.0		part_1
382		4.0				1.0	1.0							2.0	412.0	0.3805756080255378	2.0		4.0	4.0	8.0	2.0		part_1
383		4.0				1.0	0.0							3.0	0.0	0.4122820190532366	3.0		0.0	7.0	4.0	5.0		part_1
384		4.0				1.0	0.0							1.0	177.0	0.43550862502888776	1.0		3.0	6.0	3.0	3.0		part_1
385		4.0				1.0	1.0							2.0	69.0	0.45862846354430076	2.0		1.0	5.0	5.0	1.0		part_1
386		4.0				1.0	1.0							1.0	183.0	0.3694941845460562	1.0		3.0	1.0	7.0	7.0		part_1
387		4.0				1.0	0.0							4.0	103.0	0.40363490711024497	4.0		2.0	8.0	2.0	4.0		part_1
388		4.0				1.0	0.0							4.0	54.0	0.4844281010009581	4.0		1.0	2.0	1.0	6.0		part_1
389		4.0				1.0	0.0							4.0	76.0	0.3711290475766873	4.0		2.0	8.0	2.0	4.0		part_1
390		4.0				1.0	1.0							4.0	379.0	0.4619108105835039	4.0		4.0	4.0	8.0	2.0		part_1
391		4.0				1.0	1.0							1.0	109.0	0.40642914905038197	1.0		2.0	3.0	6.0	8.0		part_1
392		4.0				1.0	0.0							3.0	408.0	0.4618956710473867	3.0		4.0	7.0	4.0	5.0		part_1
393		4.0				1.0	1.0							1.0	177.0	0.40692939011205453	1.0		3.0	1.0	7.0	7.0		part_1
394		4.0				1.0	0.0							1.0	186.0	0.4320015080884332	1.0		3.0	6.0	3.0	3.0		part_1
395		4.0				1.0	0.0							4.0	198.0	0.3864064495137427	4.0		3.0	6.0	3.0	3.0		part_1
396		4.0				1.0	1.0							2.0	0.0	0.37711446701723617	2.0		0.0	5.0	5.0	1.0		part_1
397		4.0				1.0	1.0							1.0	212.0	0.3535671170830028	1.0		3.0	1.0	7.0	7.0		part_1
398		4.0				1.0	0.0							1.0	0.0	0.44514199810510036	1.0		0.0	6.0	3.0	3.0		part_1
399		4.0				1.0	1.0							3.0	206.0	0.5906099026033189	3.0		3.0	1.0	7.0	7.0		part_1
0	4.0	1.0			250.0	0.0	1.0							6.0	0.0	0.0	0.0	250.0	3.0	1.0	7.0	7.0	1.0	part_2
1	1.0	1.0			250.0	0.0	0.0							6.0	0.0	0.4364720089506591	6.0	300.0	1.0	2.0	1.0	6.0	0.0	part_2
2	3.0	1.0			250.0	0.0	1.0							5.0	0.0	0.4155130589788314	5.0	300.0	2.0	3.0	6.0	8.0	1.0	part_2
3	4.0	1.0			200.0	0.0	1.0							5.0	0.0	0.0	0.0	300.0	2.0	3.0	6.0	8.0	1.0	part_2
4	1.0	1.0			250.0	0.0	0.0							6.0	0.0	0.41668569191824645	6.0	300.0	4.0	7.0	4.0	5.0	0.0	part_2
5	4.0	1.0			250.0	0.0	1.0							6.0	0.0	0.0	0.0	300.0	1.0	5.0	5.0	1.0	1.0	part_2
6	1.0	1.0			250.0	0.0	0.0							5.0	0.0	0.6539417289459379	5.0	350.0	2.0	8.0	2.0	4.0	0.0	part_2
7	1.0	1.0			250.0	0.0	0.0							5.0	0.0	0.6328612630313728	5.0	350.0	4.0	7.0	4.0	5.0	0.0	part_2
8	4.0	1.0			250.0	0.0	1.0							6.0	0.0	0.0	0.0	350.0	4.0	4.0	8.0	2.0	1.0	part_2
9	1.0	1.0			250.0	0.0	0.0							5.0	0.0	0.6115169319527922	5.0	400.0	2.0	8.0	2.0	4.0	0.0	part_2
10	4.0	1.0			250.0	0.0	1.0							6.0	0.0	0.0	0.0	400.0	4.0	4.0	8.0	2.0	1.0	part_2
11	1.0	1.0			250.0	0.0	0.0							6.0	0.0	0.5347815148852533	6.0	450.0	4.0	7.0	4.0	5.0	0.0	part_2
12	1.0	1.0			250.0	0.0	0.0							6.0	0.0	0.5699715685332194	6.0	450.0	4.0	7.0	4.0	5.0	0.0	part_2
13	1.0	1.0			250.0	0.0	0.0							5.0	0.0	0.6027543228265131	5.0	450.0	3.0	6.0	3.0	3.0	0.0	part_2
14	1.0	1.0			250.0	0.0	0.0							6.0	0.0	0.6599480417789891	6.0	450.0	4.0	7.0	4.0	5.0	0.0	part_2
15	1.0	1.0			250.0	0.0	0.0							6.0	0.0	0.36822961892175954	6.0	450.0	1.0	2.0	1.0	6.0	0.0	part_2
16	3.0	1.0			250.0	0.0	1.0							6.0	0.0	0.5172492799465545	6.0	450.0	2.0	3.0	6.0	8.0	1.0	part_2
17	3.0	1.0			250.0	0.0	1.0							6.0	0.0	0.5722894609207287	6.0	400.0	4.0	4.0	8.0	2.0	1.0	part_2
18	4.0	1.0			250.0	0.0	1.0							5.0	0.0	0.0	0.0	350.0	3.0	1.0	7.0	7.0	1.0	part_2
19	1.0	1.0			300.0	0.0	0.0							6.0	0.0	0.5645395670289872	6.0	350.0	2.0	8.0	2.0	4.0	0.0	part_2
20	1.0	1.0			300.0	0.0	1.0							6.0	0.0	0.711413822878967	6.0	350.0	3.0	1.0	7.0	7.0	0.0	part_2
21	4.0	1.0			300.0	0.0	1.0							5.0	0.0	0.0	0.0	350.0	2.0	3.0	6.0	8.0	1.0	part_2
22	1.0	1.0			350.0	0.0	0.0							5.0	0.0	0.5325395758845843	5.0	350.0	3.0	6.0	3.0	3.0	0.0	part_2
23	1.0	1.0			350.0	0.0	0.0							6.0	0.0	0.566070738772396	6.0	350.0	4.0	7.0	4.0	5.0	0.0	part_2
24	1.0	1.0			350.0	0.0	0.0							5.0	0.0	0.4550751430360833	5.0	350.0	2.0	8.0	2.0	4.0	0.0	part_2
25	3.0	1.0			350.0	0.0	1.0							5.0	0.0	0.3992063339683227	5.0	350.0	2.0	3.0	6.0	8.0	1.0	part_2
26	1.0	1.0			300.0	0.0	0.0							6.0	0.0	0.5367698928021127	6.0	350.0	2.0	8.0	2.0	4.0	0.0	part_2
27	1.0	1.0			300.0	0.0	1.0							5.0	0.0	0.593695051051327	5.0	350.0	1.0	5.0	5.0	1.0	0.0	part_2
28	1.0	1.0			300.0	0.0	0.0							6.0	0.0	0.547840521830949	6.0	350.0	1.0	2.0	1.0	6.0	0.0	part_2
29	1.0	1.0			300.0	0.0	0.0							5.0	0.0	0.4810688618454151	5.0	350.0	3.0	6.0	3.0	3.0	0.0	part_2
30	4.0	1.0			300.0	0.0	1.0							5.0	0.0	0.0	0.0	350.0	3.0	1.0	7.0	7.0	1.0	part_2
31	1.0	1.0			350.0	0.0	1.0							6.0	0.0	0.5168955048720818	6.0	350.0	2.0	3.0	6.0	8.0	0.0	part_2
32	1.0	1.0			350.0	0.0	0.0							5.0	0.0	0.44027442096557934	5.0	350.0	3.0	6.0	3.0	3.0	0.0	part_2
33	3.0	1.0			350.0	0.0	1.0							6.0	0.0	0.5299827199196443	6.0	350.0	3.0	1.0	7.0	7.0	1.0	part_2
34	1.0	1.0			350.0	0.0	0.0							5.0	0.0	0.5659599939681357	5.0	300.0	3.0	6.0	3.0	3.0	0.0	part_2
35	1.0	1.0			350.0	0.0	0.0							6.0	0.0	0.588838660827605	6.0	300.0	3.0	6.0	3.0	3.0	0.0	part_2
36	3.0	2.0			350.0	0.0	1.0							5.0	0.0	0.42763224584632553	5.0	300.0	4.0	4.0	8.0	2.0	1.0	part_2
37	1.0	2.0			300.0	0.0	1.0							5.0	0.0	0.41746374491776805	5.0	300.0	1.0	5.0	5.0	1.0	0.0	part_2
38	1.0	2.0			300.0	0.0	1.0							6.0	0.0	0.4184474918001797	6.0	300.0	2.0	3.0	6.0	8.0	0.0	part_2
39	1.0	2.0			300.0	0.0	0.0							6.0	0.0	0.38662315484543797	6.0	300.0	3.0	6.0	3.0	3.0	0.0	part_2
40	1.0	2.0			300.0	0.0	1.0							5.0	0.0	0.5332533678301843	5.0	300.0	4.0	4.0	8.0	2.0	0.0	part_2
41	1.0	2.0			300.0	0.0	1.0							5.0	0.0	0.3865713557752315	5.0	300.0	4.0	4.0	8.0	2.0	0.0	part_2
42	1.0	2.0			300.0	0.0	0.0							6.0	0.0	0.4789765729365172	6.0	300.0	2.0	8.0	2.0	4.0	0.0	part_2
43	3.0	2.0			300.0	0.0	1.0							6.0	0.0	0.39953644592605997	6.0	300.0	3.0	1.0	7.0	7.0	1.0	part_2
44	1.0	2.0			300.0	0.0	0.0							6.0	0.0	0.525156611809507	6.0	250.0	2.0	8.0	2.0	4.0	0.0	part_2
45	3.0	2.0			300.0	0.0	1.0							6.0	0.0	0.38994502494460903	6.0	250.0	3.0	1.0	7.0	7.0	1.0	part_2
46	1.0	2.0			300.0	0.0	1.0							5.0	0.0	0.47034807076852303	5.0	200.0	2.0	3.0	6.0	8.0	0.0	part_2
47	1.0	2.0			300.0	0.0	0.0							6.0	0.0	0.3922277599485824	6.0	200.0	1.0	2.0	1.0	6.0	0.0	part_2
48	3.0	2.0			300.0	0.0	1.0							5.0	0.0	0.4272761718311813	5.0	200.0	3.0	1.0	7.0	7.0	1.0	part_2
49	1.0	2.0			250.0	0.0	1.0							5.0	0.0	0.5414910105464514	5.0	200.0	3.0	1.0	7.0	7.0	0.0	part_2
50	4.0	2.0			250.0	0.0	1.0							5.0	0.0	0.0	0.0	200.0	2.0	3.0	6.0	8.0	1.0	part_2
51	3.0	2.0			300.0	0.0	1.0							5.0	0.0	0.42866616188257467	5.0	200.0	1.0	5.0	5.0	1.0	1.0	part_2
52	4.0	2.0			250.0	0.0	1.0							6.0	0.0	0.0	0.0	200.0	2.0	3.0	6.0	8.0	1.0	part_2
53	1.0	2.0			250.0	0.0	0.0							5.0	0.0	0.5326762350596255	5.0	250.0	4.0	7.0	4.0	5.0	0.0	part_2
54	4.0	2.0			250.0	0.0	1.0							6.0	0.0	0.0	0.0	250.0	3.0	1.0	7.0	7.0	1.0	part_2
55	1.0	2.0			250.0	0.0	0.0							6.0	0.0	0.5796658799226861	6.0	300.0	3.0	6.0	3.0	3.0	0.0	part_2
56	1.0	2.0			250.0	0.0	0.0							5.0	0.0	0.4119331649708329	5.0	300.0	2.0	8.0	2.0	4.0	0.0	part_2
57	1.0	2.0			250.0	0.0	0.0							6.0	0.0	0.46778713980165776	6.0	300.0	2.0	8.0	2.0	4.0	0.0	part_2
58	4.0	2.0			250.0	0.0	1.0							5.0	0.0	0.0	0.0	300.0	2.0	3.0	6.0	8.0	1.0	part_2
59	4.0	2.0			300.0	0.0	1.0							5.0	0.0	0.0	0.0	300.0	4.0	4.0	8.0	2.0	1.0	part_2
60	4.0	2.0			350.0	0.0	1.0							5.0	0.0	0.0	0.0	300.0	2.0	3.0	6.0	8.0	1.0	part_2
61	1.0	2.0			400.0	0.0	1.0							6.0	0.0	0.35901129702688195	6.0	300.0	2.0	3.0	6.0	8.0	0.0	part_2
62	1.0	2.0			400.0	0.0	0.0							5.0	0.0	0.5392903919419041	5.0	300.0	3.0	6.0	3.0	3.0	0.0	part_2
63	3.0	2.0			400.0	0.0	1.0							5.0	0.0	0.5514887998433551	5.0	300.0	3.0	1.0	7.0	7.0	1.0	part_2
64	1.0	2.0			350.0	0.0	0.0							5.0	0.0	0.5422575507982401	5.0	300.0	4.0	7.0	4.0	5.0	0.0	part_2
65	1.0	2.0			350.0	0.0	0.0							6.0	0.0	0.6327614548790734	6.0	300.0	2.0	8.0	2.0	4.0	0.0	part_2
66	4.0	2.0			350.0	0.0	1.0							6.0	0.0	0.0	0.0	300.0	1.0	5.0	5.0	1.0	1.0	part_2
67	1.0	2.0			350.0	0.0	0.0							6.0	0.0	0.5654582668503281	6.0	350.0	4.0	7.0	4.0	5.0	0.0	part_2
68	4.0	2.0			350.0	0.0	1.0							6.0	0.0	0.0	0.0	350.0	2.0	3.0	6.0	8.0	1.0	part_2
69	1.0	2.0			350.0	0.0	1.0							5.0	0.0	0.6460708689992316	5.0	400.0	4.0	4.0	8.0	2.0	0.0	part_2
70	1.0	2.0			350.0	0.0	0.0							6.0	0.0	0.5235852158657508	6.0	400.0	3.0	6.0	3.0	3.0	0.0	part_2
71	4.0	2.0			350.0	0.0	1.0							5.0	0.0	0.0	0.0	400.0	4.0	4.0	8.0	2.0	1.0	part_2
72	3.0	3.0			400.0	0.0	1.0							5.0	0.0	0.4996995889086975	5.0	400.0	3.0	1.0	7.0	7.0	1.0	part_2
73	1.0	3.0			350.0	0.0	0.0							6.0	0.0	0.4328490259795217	6.0	400.0	4.0	7.0	4.0	5.0	0.0	part_2
74	3.0	3.0			350.0	0.0	1.0							5.0	0.0	0.4903138548252173	5.0	400.0	1.0	5.0	5.0	1.0	1.0	part_2
75	4.0	3.0			300.0	0.0	1.0							6.0	0.0	0.0	0.0	400.0	3.0	1.0	7.0	7.0	1.0	part_2
76	1.0	3.0			300.0	0.0	0.0							6.0	0.0	0.48022295300324913	6.0	450.0	4.0	7.0	4.0	5.0	0.0	part_2
77	4.0	3.0			300.0	0.0	1.0							5.0	0.0	0.0	0.0	450.0	3.0	1.0	7.0	7.0	1.0	part_2
78	1.0	3.0			350.0	0.0	1.0							5.0	0.0	0.5613539819169091	5.0	450.0	3.0	1.0	7.0	7.0	0.0	part_2
79	3.0	3.0			350.0	0.0	1.0							6.0	0.0	0.5854132707463577	6.0	450.0	2.0	3.0	6.0	8.0	1.0	part_2
80	1.0	3.0			350.0	0.0	1.0							5.0	0.0	0.6858536369691137	5.0	400.0	1.0	5.0	5.0	1.0	0.0	part_2
81	1.0	3.0			350.0	0.0	0.0							6.0	0.0	0.43997019591915887	6.0	400.0	3.0	6.0	3.0	3.0	0.0	part_2
82	1.0	3.0			350.0	0.0	0.0							6.0	0.0	0.42901568800152745	6.0	400.0	3.0	6.0	3.0	3.0	0.0	part_2
83	1.0	3.0			350.0	0.0	0.0							5.0	0.0	0.5664880627737148	5.0	400.0	2.0	8.0	2.0	4.0	0.0	part_2
84	1.0	3.0			350.0	0.0	0.0							6.0	0.0	0.5882131450634915	6.0	400.0	4.0	7.0	4.0	5.0	0.0	part_2
85	1.0	3.0			350.0	0.0	0.0							5.0	0.0	0.5774491089541698	5.0	400.0	2.0	8.0	2.0	4.0	0.0	part_2
86	1.0	3.0			350.0	0.0	0.0							6.0	0.0	0.4228122630593134	6.0	400.0	4.0	7.0	4.0	5.0	0.0	part_2
87	4.0	3.0			350.0	0.0	1.0							6.0	0.0	0.0	0.0	400.0	3.0	1.0	7.0	7.0	1.0	part_2
88	1.0	3.0			350.0	0.0	1.0							5.0	0.0	0.7149513180338545	5.0	450.0	3.0	1.0	7.0	7.0	0.0	part_2
89	1.0	3.0			350.0	0.0	0.0							6.0	0.0	0.4810032649838831	6.0	450.0	4.0	7.0	4.0	5.0	0.0	part_2
90	3.0	3.0			350.0	0.0	1.0							6.0	0.0	0.43565730279078707	6.0	450.0	4.0	4.0	8.0	2.0	1.0	part_2
91	1.0	3.0			350.0	0.0	1.0							6.0	0.0	0.7299579188547796	6.0	400.0	2.0	3.0	6.0	8.0	0.0	part_2
92	4.0	3.0			350.0	0.0	1.0							5.0	0.0	0.0	0.0	400.0	3.0	1.0	7.0	7.0	1.0	part_2
93	1.0	3.0			400.0	0.0	0.0							6.0	0.0	0.6065948597970419	6.0	400.0	3.0	6.0	3.0	3.0	0.0	part_2
94	4.0	3.0			400.0	0.0	1.0							6.0	0.0	0.0	0.0	400.0	1.0	5.0	5.0	1.0	1.0	part_2
95	1.0	3.0			400.0	0.0	1.0							5.0	0.0	0.6094797508558258	5.0	450.0	4.0	4.0	8.0	2.0	0.0	part_2
96	4.0	3.0			400.0	0.0	1.0							5.0	0.0	0.0	0.0	450.0	1.0	5.0	5.0	1.0	1.0	part_2
97	1.0	3.0			450.0	0.0	0.0							6.0	0.0	0.407575695993728	6.0	450.0	3.0	6.0	3.0	3.0	0.0	part_2
98	1.0	3.0			450.0	0.0	1.0							6.0	0.0	0.7588815588242142	6.0	450.0	3.0	1.0	7.0	7.0	0.0	part_2
99	1.0	3.0			450.0	0.0	0.0							6.0	0.0	0.4547016958822496	6.0	450.0	1.0	2.0	1.0	6.0	0.0	part_2
100	3.0	3.0			450.0	0.0	1.0							5.0	0.0	0.5798394018638646	5.0	450.0	4.0	4.0	8.0	2.0	1.0	part_2
101	3.0	3.0			400.0	0.0	1.0							5.0	0.0	0.5584228909137892	5.0	450.0	4.0	4.0	8.0	2.0	1.0	part_2
102	1.0	3.0			350.0	0.0	0.0							6.0	0.0	0.6601125909219263	6.0	450.0	1.0	2.0	1.0	6.0	0.0	part_2
103	1.0	3.0			350.0	0.0	0.0							5.0	0.0	0.5156922639143886	5.0	450.0	2.0	8.0	2.0	4.0	0.0	part_2
104	4.0	3.0			350.0	0.0	1.0							6.0	0.0	0.0	0.0	450.0	3.0	1.0	7.0	7.0	1.0	part_2
105	1.0	3.0			350.0	0.0	1.0							6.0	0.0	0.7642485579999629	6.0	500.0	1.0	5.0	5.0	1.0	0.0	part_2
106	1.0	3.0			350.0	0.0	0.0							5.0	0.0	0.5850894508039346	5.0	500.0	2.0	8.0	2.0	4.0	0.0	part_2
107	3.0	3.0			350.0	0.0	1.0							5.0	0.0	0.36328548977326136	5.0	500.0	3.0	1.0	7.0	7.0	1.0	part_2
108	1.0	4.0			300.0	0.0	0.0							6.0	0.0	0.475097761824145	6.0	500.0	2.0	8.0	2.0	4.0	0.0	part_2
109	4.0	4.0			300.0	0.0	1.0							5.0	0.0	0.0	0.0	500.0	1.0	5.0	5.0	1.0	1.0	part_2
110	1.0	4.0			350.0	0.0	0.0							5.0	0.0	0.4885776279697893	5.0	500.0	1.0	2.0	1.0	6.0	0.0	part_2
111	1.0	4.0			350.0	0.0	0.0							6.0	0.0	0.6017255688784644	6.0	500.0	1.0	2.0	1.0	6.0	0.0	part_2
112	3.0	4.0			350.0	0.0	1.0							6.0	0.0	0.41066937685536686	6.0	500.0	4.0	4.0	8.0	2.0	1.0	part_2
113	4.0	4.0			350.0	0.0	1.0							6.0	0.0	0.0	0.0	450.0	1.0	5.0	5.0	1.0	1.0	part_2
114	1.0	4.0			350.0	0.0	0.0							6.0	0.0	0.5814125058823265	6.0	500.0	3.0	6.0	3.0	3.0	0.0	part_2
115	1.0	4.0			350.0	0.0	1.0							6.0	0.0	0.7846012838126626	6.0	500.0	1.0	5.0	5.0	1.0	0.0	part_2
116	4.0	4.0			350.0	0.0	1.0							5.0	0.0	0.0	0.0	500.0	1.0	5.0	5.0	1.0	1.0	part_2
117	4.0	4.0			400.0	0.0	1.0							5.0	0.0	0.0	0.0	500.0	2.0	3.0	6.0	8.0	1.0	part_2
118	4.0	4.0			450.0	0.0	1.0							5.0	0.0	0.0	0.0	500.0	2.0	3.0	6.0	8.0	1.0	part_2
119	1.0	4.0			500.0	0.0	0.0							5.0	0.0	0.46205811480467673	5.0	500.0	4.0	7.0	4.0	5.0	0.0	part_2
120	1.0	4.0			500.0	0.0	1.0							5.0	0.0	0.5413178568560397	5.0	500.0	2.0	3.0	6.0	8.0	0.0	part_2
121	1.0	4.0			500.0	0.0	0.0							6.0	0.0	0.44099634284793865	6.0	500.0	2.0	8.0	2.0	4.0	0.0	part_2
122	4.0	4.0			500.0	0.0	1.0							5.0	0.0	0.0	0.0	500.0	3.0	1.0	7.0	7.0	1.0	part_2
123	1.0	4.0			550.0	0.0	1.0							6.0	0.0	0.9147369519487256	6.0	500.0	4.0	4.0	8.0	2.0	0.0	part_2
124	4.0	4.0			550.0	0.0	1.0							5.0	0.0	0.0	0.0	500.0	4.0	4.0	8.0	2.0	1.0	part_2
125	4.0	4.0			600.0	0.0	1.0							5.0	0.0	0.0	0.0	500.0	4.0	4.0	8.0	2.0	1.0	part_2
126	1.0	4.0			650.0	0.0	0.0							5.0	0.0	0.536183855831041	5.0	500.0	2.0	8.0	2.0	4.0	0.0	part_2
127	1.0	4.0			650.0	0.0	0.0							5.0	0.0	0.5135221048258245	5.0	500.0	4.0	7.0	4.0	5.0	0.0	part_2
128	1.0	4.0			650.0	0.0	0.0							5.0	0.0	0.615263147832593	5.0	500.0	3.0	6.0	3.0	3.0	0.0	part_2
129	3.0	4.0			650.0	0.0	1.0							5.0	0.0	0.8317368458519923	5.0	500.0	2.0	3.0	6.0	8.0	1.0	part_2
130	1.0	4.0			600.0	0.0	0.0							6.0	0.0	0.5391484427818796	6.0	500.0	4.0	7.0	4.0	5.0	0.0	part_2
131	1.0	4.0			600.0	0.0	0.0							5.0	0.0	0.4736292109446367	5.0	500.0	4.0	7.0	4.0	5.0	0.0	part_2
132	1.0	4.0			600.0	0.0	0.0							5.0	0.0	0.507596426847158	5.0	500.0	3.0	6.0	3.0	3.0	0.0	part_2
133	4.0	4.0			600.0	0.0	1.0							6.0	0.0	0.0	0.0	500.0	4.0	4.0	8.0	2.0	1.0	part_2
134	4.0	4.0			600.0	0.0	1.0							6.0	0.0	0.0	0.0	550.0	1.0	5.0	5.0	1.0	1.0	part_2
135	1.0	4.0			600.0	0.0	0.0							6.0	0.0	0.5322321819257922	6.0	600.0	2.0	8.0	2.0	4.0	0.0	part_2
136	1.0	4.0			600.0	0.0	0.0							5.0	0.0	0.5335659649135778	5.0	600.0	3.0	6.0	3.0	3.0	0.0	part_2
137	1.0	4.0			600.0	0.0	0.0							5.0	0.0	0.6122707048780285	5.0	600.0	4.0	7.0	4.0	5.0	0.0	part_2
138	1.0	4.0			600.0	0.0	0.0							6.0	0.0	0.5793612428533379	6.0	600.0	1.0	2.0	1.0	6.0	0.0	part_2
139	1.0	4.0			600.0	0.0	1.0							6.0	0.0	0.861031748863752	6.0	600.0	2.0	3.0	6.0	8.0	0.0	part_2
140	1.0	4.0			600.0	0.0	0.0							5.0	0.0	0.5014826599217486	5.0	600.0	2.0	8.0	2.0	4.0	0.0	part_2
141	1.0	4.0			600.0	0.0	0.0							6.0	0.0	0.39136495898128487	6.0	600.0	2.0	8.0	2.0	4.0	0.0	part_2
142	3.0	4.0			600.0	0.0	1.0							6.0	0.0	0.7735408709413605	6.0	600.0	3.0	1.0	7.0	7.0	1.0	part_2
143	1.0	4.0			600.0	0.0	0.0							5.0	0.0	0.4947567029448692	5.0	550.0	4.0	7.0	4.0	5.0	0.0	part_2
144	3.0	5.0			600.0	0.0	1.0							6.0	0.0	0.540999150951393	6.0	550.0	2.0	3.0	6.0	8.0	1.0	part_2
145	1.0	5.0			600.0	0.0	0.0							5.0	0.0	0.48593363782856613	5.0	500.0	3.0	6.0	3.0	3.0	0.0	part_2
146	1.0	5.0			600.0	0.0	0.0							5.0	0.0	0.4523733309470117	5.0	500.0	3.0	6.0	3.0	3.0	0.0	part_2
147	4.0	5.0			600.0	0.0	1.0							5.0	0.0	0.0	0.0	500.0	4.0	4.0	8.0	2.0	1.0	part_2
148	1.0	5.0			650.0	0.0	0.0							5.0	0.0	0.5888999609305756	5.0	500.0	2.0	8.0	2.0	4.0	0.0	part_2
149	1.0	5.0			650.0	0.0	0.0							5.0	0.0	0.4889169889211189	5.0	500.0	2.0	8.0	2.0	4.0	0.0	part_2
150	1.0	5.0			650.0	0.0	0.0							5.0	0.0	0.5448944889503764	5.0	500.0	4.0	7.0	4.0	5.0	0.0	part_2
151	1.0	5.0			650.0	0.0	0.0							6.0	0.0	0.5118628719210392	6.0	500.0	3.0	6.0	3.0	3.0	0.0	part_2
152	4.0	5.0			650.0	0.0	1.0							6.0	0.0	0.0	0.0	500.0	3.0	1.0	7.0	7.0	1.0	part_2
153	1.0	5.0			650.0	0.0	0.0							5.0	0.0	0.5940008099423721	5.0	550.0	4.0	7.0	4.0	5.0	0.0	part_2
154	4.0	5.0			650.0	0.0	1.0							6.0	0.0	0.0	0.0	550.0	3.0	1.0	7.0	7.0	1.0	part_2
155	4.0	5.0			650.0	0.0	1.0							6.0	0.0	0.0	0.0	600.0	1.0	5.0	5.0	1.0	1.0	part_2
156	4.0	5.0			650.0	0.0	1.0							5.0	0.0	0.0	0.0	650.0	3.0	1.0	7.0	7.0	1.0	part_2
157	1.0	5.0			700.0	0.0	1.0							6.0	0.0	0.6751548577740323	6.0	650.0	1.0	5.0	5.0	1.0	0.0	part_2
158	3.0	5.0			700.0	0.0	1.0							5.0	0.0	0.833033128772513	5.0	650.0	1.0	5.0	5.0	1.0	1.0	part_2
159	1.0	5.0			650.0	0.0	0.0							6.0	0.0	0.5741013009246672	6.0	650.0	4.0	7.0	4.0	5.0	0.0	part_2
160	4.0	5.0			650.0	0.0	1.0							5.0	0.0	0.0	0.0	650.0	2.0	3.0	6.0	8.0	1.0	part_2
161	4.0	5.0			700.0	0.0	1.0							5.0	0.0	0.0	0.0	650.0	1.0	5.0	5.0	1.0	1.0	part_2
162	1.0	5.0			750.0	0.0	1.0							5.0	0.0	1.1182373339688638	5.0	650.0	3.0	1.0	7.0	7.0	0.0	part_2
163	4.0	5.0			750.0	0.0	1.0							5.0	0.0	0.0	0.0	650.0	3.0	1.0	7.0	7.0	1.0	part_2
164	1.0	5.0			800.0	0.0	0.0							5.0	0.0	0.5233429209474707	5.0	650.0	3.0	6.0	3.0	3.0	0.0	part_2
165	1.0	5.0			800.0	0.0	1.0							5.0	0.0	0.8287556707364274	5.0	650.0	3.0	1.0	7.0	7.0	0.0	part_2
166	1.0	5.0			800.0	0.0	0.0							5.0	0.0	0.6704555358737707	5.0	650.0	4.0	7.0	4.0	5.0	0.0	part_2
167	4.0	5.0			800.0	0.0	1.0							6.0	0.0	0.0	0.0	650.0	1.0	5.0	5.0	1.0	1.0	part_2
168	1.0	5.0			800.0	0.0	0.0							6.0	0.0	0.5365606878767721	6.0	700.0	3.0	6.0	3.0	3.0	0.0	part_2
169	3.0	5.0			800.0	0.0	1.0							6.0	0.0	0.9426044997671852	6.0	700.0	4.0	4.0	8.0	2.0	1.0	part_2
170	4.0	5.0			800.0	0.0	1.0							6.0	0.0	0.0	0.0	650.0	2.0	3.0	6.0	8.0	1.0	part_2
171	4.0	5.0			800.0	0.0	1.0							6.0	0.0	0.0	0.0	700.0	2.0	3.0	6.0	8.0	1.0	part_2
172	1.0	5.0			800.0	0.0	0.0							5.0	0.0	0.6655223928246414	5.0	750.0	1.0	2.0	1.0	6.0	0.0	part_2
173	1.0	5.0			800.0	0.0	0.0							6.0	0.0	0.5653487308154581	6.0	750.0	4.0	7.0	4.0	5.0	0.0	part_2
174	4.0	5.0			800.0	0.0	1.0							5.0	0.0	0.0	0.0	750.0	2.0	3.0	6.0	8.0	1.0	part_2
175	1.0	5.0			850.0	0.0	0.0							6.0	0.0	0.6436886599403806	6.0	750.0	1.0	2.0	1.0	6.0	0.0	part_2
176	1.0	5.0			850.0	0.0	0.0							5.0	0.0	0.5318202279449906	5.0	750.0	2.0	8.0	2.0	4.0	0.0	part_2
177	1.0	5.0			850.0	0.0	0.0							6.0	0.0	0.4211521419492783	6.0	750.0	2.0	8.0	2.0	4.0	0.0	part_2
178	1.0	5.0			850.0	0.0	0.0							5.0	0.0	0.45684029896801803	5.0	750.0	4.0	7.0	4.0	5.0	0.0	part_2
179	1.0	5.0			850.0	0.0	0.0							5.0	0.0	0.45717234794574324	5.0	750.0	4.0	7.0	4.0	5.0	0.0	part_2
180	4.0	6.0			850.0	0.0	1.0							6.0	0.0	0.0	0.0	750.0	2.0	3.0	6.0	8.0	1.0	part_2
181	3.0	6.0			850.0	0.0	1.0							6.0	0.0	0.9357016548310639	6.0	800.0	2.0	3.0	6.0	8.0	1.0	part_2
182	1.0	6.0			850.0	0.0	0.0							5.0	0.0	0.5440093019424239	5.0	750.0	1.0	2.0	1.0	6.0	0.0	part_2
183	4.0	6.0			850.0	0.0	1.0							6.0	0.0	0.0	0.0	750.0	4.0	4.0	8.0	2.0	1.0	part_2
184	1.0	6.0			850.0	0.0	0.0							5.0	0.0	0.48835950282227714	5.0	800.0	1.0	2.0	1.0	6.0	0.0	part_2
185	1.0	6.0			850.0	0.0	0.0							5.0	0.0	0.4774951119470643	5.0	800.0	1.0	2.0	1.0	6.0	0.0	part_2
186	1.0	6.0			850.0	0.0	0.0							5.0	0.0	0.45754088897956535	5.0	800.0	1.0	2.0	1.0	6.0	0.0	part_2
187	1.0	6.0			850.0	0.0	0.0							6.0	0.0	0.468619008854148	6.0	800.0	2.0	8.0	2.0	4.0	0.0	part_2
188	1.0	6.0			850.0	0.0	0.0							5.0	0.0	0.44697945487860125	5.0	800.0	2.0	8.0	2.0	4.0	0.0	part_2
189	1.0	6.0			850.0	0.0	0.0							5.0	0.0	0.5602438778005308	5.0	800.0	1.0	2.0	1.0	6.0	0.0	part_2
190	1.0	6.0			850.0	0.0	1.0							6.0	0.0	0.4366951969714137	6.0	800.0	4.0	4.0	8.0	2.0	0.0	part_2
191	1.0	6.0			850.0	0.0	0.0							5.0	0.0	0.5052691869495902	5.0	800.0	1.0	2.0	1.0	6.0	0.0	part_2
192	1.0	6.0			850.0	0.0	0.0							6.0	0.0	0.5283547029393958	6.0	800.0	1.0	2.0	1.0	6.0	0.0	part_2
193	3.0	6.0			850.0	0.0	1.0							6.0	0.0	0.9359644110809313	6.0	800.0	2.0	3.0	6.0	8.0	1.0	part_2
194	1.0	6.0			850.0	0.0	1.0							6.0	0.0	1.2963096179737477	6.0	750.0	4.0	4.0	8.0	2.0	0.0	part_2
195	4.0	6.0			850.0	0.0	1.0							5.0	0.0	0.0	0.0	750.0	2.0	3.0	6.0	8.0	1.0	part_2
196	1.0	6.0			900.0	0.0	0.0							6.0	0.0	0.5659069048706442	6.0	750.0	3.0	6.0	3.0	3.0	0.0	part_2
197	4.0	6.0			900.0	0.0	1.0							5.0	0.0	0.0	0.0	750.0	4.0	4.0	8.0	2.0	1.0	part_2
198	1.0	6.0			950.0	0.0	1.0							5.0	0.0	1.3102312069677282	5.0	750.0	2.0	3.0	6.0	8.0	0.0	part_2
199	1.0	6.0			950.0	0.0	0.0							6.0	0.0	0.5004217288806103	6.0	750.0	3.0	6.0	3.0	3.0	0.0	part_2
200	4.0	6.0			950.0	0.0	1.0							6.0	0.0	0.0	0.0	750.0	3.0	1.0	7.0	7.0	1.0	part_2
201	1.0	6.0			950.0	0.0	0.0							6.0	0.0	0.5579269738518633	6.0	800.0	3.0	6.0	3.0	3.0	0.0	part_2
202	4.0	6.0			950.0	0.0	1.0							5.0	0.0	0.0	0.0	800.0	1.0	5.0	5.0	1.0	1.0	part_2
203	1.0	6.0			1000.0	0.0	1.0							6.0	0.0	0.9989746708306484	6.0	800.0	3.0	1.0	7.0	7.0	0.0	part_2
204	1.0	6.0			1000.0	0.0	0.0							6.0	0.0	0.594248684879858	6.0	800.0	2.0	8.0	2.0	4.0	0.0	part_2
205	1.0	6.0			1000.0	0.0	0.0							5.0	0.0	0.5510672557720682	5.0	800.0	1.0	2.0	1.0	6.0	0.0	part_2
206	1.0	6.0			1000.0	0.0	0.0							5.0	0.0	0.4179968419484794	5.0	800.0	4.0	7.0	4.0	5.0	0.0	part_2
207	4.0	6.0			1000.0	0.0	1.0							6.0	0.0	0.0	0.0	800.0	4.0	4.0	8.0	2.0	1.0	part_2
208	1.0	6.0			1000.0	0.0	0.0							6.0	0.0	0.5305273029516684	6.0	850.0	2.0	8.0	2.0	4.0	0.0	part_2
209	1.0	6.0			1000.0	0.0	0.0							5.0	0.0	0.5546347449708264	5.0	850.0	4.0	7.0	4.0	5.0	0.0	part_2
210	1.0	6.0			1000.0	0.0	0.0							5.0	0.0	0.4307125627674395	5.0	850.0	1.0	2.0	1.0	6.0	0.0	part_2
211	4.0	6.0			1000.0	0.0	1.0							6.0	0.0	0.0	0.0	850.0	2.0	3.0	6.0	8.0	1.0	part_2
212	1.0	6.0			1000.0	0.0	0.0							5.0	0.0	0.4908484827756183	5.0	900.0	1.0	2.0	1.0	6.0	0.0	part_2
213	1.0	6.0			1000.0	0.0	0.0							6.0	0.0	0.5004481108626351	6.0	900.0	3.0	6.0	3.0	3.0	0.0	part_2
214	4.0	6.0			1000.0	0.0	1.0							5.0	0.0	0.0	0.0	900.0	1.0	5.0	5.0	1.0	1.0	part_2
215	1.0	6.0			1050.0	0.0	1.0							6.0	0.0	1.0197930935682962	6.0	900.0	4.0	4.0	8.0	2.0	0.0	part_2
216	1.0	7.0			1050.0	0.0	0.0							5.0	0.0	0.3994414370099548	5.0	900.0	1.0	2.0	1.0	6.0	0.0	part_2
217	1.0	7.0			1050.0	0.0	0.0							6.0	0.0	0.46757786980015226	6.0	900.0	4.0	7.0	4.0	5.0	0.0	part_2
218	1.0	7.0			1050.0	0.0	0.0							5.0	0.0	0.4454266269749496	5.0	900.0	4.0	7.0	4.0	5.0	0.0	part_2
219	3.0	7.0			1050.0	0.0	1.0							6.0	0.0	0.8974226959253429	6.0	900.0	1.0	5.0	5.0	1.0	1.0	part_2
220	1.0	7.0			1050.0	0.0	0.0							6.0	0.0	0.47038552799494937	6.0	850.0	1.0	2.0	1.0	6.0	0.0	part_2
221	3.0	7.0			1050.0	0.0	1.0							5.0	0.0	0.8207629999233177	5.0	850.0	4.0	4.0	8.0	2.0	1.0	part_2
222	1.0	7.0			1000.0	0.0	0.0							5.0	0.0	0.4497378087398829	5.0	850.0	3.0	6.0	3.0	3.0	0.0	part_2
223	1.0	7.0			1000.0	0.0	0.0							5.0	0.0	0.41806304173951503	5.0	850.0	3.0	6.0	3.0	3.0	0.0	part_2
224	1.0	7.0			1000.0	0.0	1.0							5.0	0.0	1.0705347308248747	5.0	850.0	4.0	4.0	8.0	2.0	0.0	part_2
225	1.0	7.0			1000.0	0.0	0.0							6.0	0.0	0.4646607828763081	6.0	850.0	1.0	2.0	1.0	6.0	0.0	part_2
226	1.0	7.0			1000.0	0.0	0.0							5.0	0.0	0.4418730500183301	5.0	850.0	2.0	8.0	2.0	4.0	0.0	part_2
227	1.0	7.0			1000.0	0.0	0.0							6.0	0.0	0.41969088185578585	6.0	850.0	3.0	6.0	3.0	3.0	0.0	part_2
228	4.0	7.0			1000.0	0.0	1.0							6.0	0.0	0.0	0.0	850.0	4.0	4.0	8.0	2.0	1.0	part_2
229	1.0	7.0			1000.0	0.0	1.0							6.0	0.0	1.2199536709085805	6.0	900.0	2.0	3.0	6.0	8.0	0.0	part_2
230	4.0	7.0			1000.0	0.0	1.0							6.0	0.0	0.0	0.0	900.0	2.0	3.0	6.0	8.0	1.0	part_2
231	1.0	7.0			1000.0	0.0	0.0							6.0	0.0	0.546637292849482	6.0	950.0	1.0	2.0	1.0	6.0	0.0	part_2
232	1.0	7.0			1000.0	0.0	0.0							6.0	0.0	0.49176361177524086	6.0	950.0	4.0	7.0	4.0	5.0	0.0	part_2
233	3.0	7.0			1000.0	0.0	1.0							5.0	0.0	1.2906111700285692	5.0	950.0	3.0	1.0	7.0	7.0	1.0	part_2
234	1.0	7.0			950.0	0.0	0.0							6.0	0.0	0.5053098008065717	6.0	950.0	2.0	8.0	2.0	4.0	0.0	part_2
235	1.0	7.0			950.0	0.0	0.0							5.0	0.0	0.516512094749487	5.0	950.0	1.0	2.0	1.0	6.0	0.0	part_2
236	3.0	7.0			950.0	0.0	1.0							6.0	0.0	1.0228913648315938	6.0	950.0	3.0	1.0	7.0	7.0	1.0	part_2
237	1.0	7.0			950.0	0.0	0.0							5.0	0.0	0.508177598923794	5.0	900.0	4.0	7.0	4.0	5.0	0.0	part_2
238	4.0	7.0			950.0	0.0	1.0							5.0	0.0	0.0	0.0	900.0	4.0	4.0	8.0	2.0	1.0	part_2
239	1.0	7.0			1000.0	0.0	0.0							5.0	0.0	0.5641594389744569	5.0	900.0	1.0	2.0	1.0	6.0	0.0	part_2
240	1.0	7.0			1000.0	0.0	0.0							6.0	0.0	0.49785875574161764	6.0	900.0	1.0	2.0	1.0	6.0	0.0	part_2
241	1.0	7.0			1000.0	0.0	0.0							6.0	0.0	0.4199271649122238	6.0	900.0	1.0	2.0	1.0	6.0	0.0	part_2
242	3.0	7.0			1000.0	0.0	1.0							5.0	0.0	1.164838712924393	5.0	900.0	1.0	5.0	5.0	1.0	1.0	part_2
243	1.0	7.0			950.0	0.0	0.0							5.0	0.0	0.5023387997789541	5.0	900.0	1.0	2.0	1.0	6.0	0.0	part_2
244	4.0	7.0			950.0	0.0	1.0							5.0	0.0	0.0	0.0	900.0	1.0	5.0	5.0	1.0	1.0	part_2
245	1.0	7.0			1000.0	0.0	0.0							5.0	0.0	0.5823523687868146	5.0	900.0	2.0	8.0	2.0	4.0	0.0	part_2
246	1.0	7.0			1000.0	0.0	0.0							6.0	0.0	0.5026216779660899	6.0	900.0	3.0	6.0	3.0	3.0	0.0	part_2
247	4.0	7.0			1000.0	0.0	1.0							6.0	0.0	0.0	0.0	900.0	4.0	4.0	8.0	2.0	1.0	part_2
248	4.0	7.0			1000.0	0.0	1.0							5.0	0.0	0.0	0.0	950.0	1.0	5.0	5.0	1.0	1.0	part_2
249	1.0	7.0			1050.0	0.0	0.0							6.0	0.0	0.5176828508847393	6.0	950.0	2.0	8.0	2.0	4.0	0.0	part_2
250	1.0	7.0			1050.0	0.0	0.0							5.0	0.0	0.49490995808446314	5.0	950.0	1.0	2.0	1.0	6.0	0.0	part_2
251	1.0	7.0			1050.0	0.0	1.0							5.0	0.0	1.2717695637693396	5.0	950.0	1.0	5.0	5.0	1.0	0.0	part_2
252	3.0	8.0			1050.0	0.0	1.0							5.0	0.0	1.0294546229561092	5.0	950.0	2.0	3.0	6.0	8.0	1.0	part_2
253	3.0	8.0			1000.0	0.0	1.0							6.0	0.0	1.1213286480051465	6.0	950.0	1.0	5.0	5.0	1.0	1.0	part_2
254	1.0	8.0			1000.0	0.0	1.0							6.0	0.0	0.9637317468441324	6.0	900.0	1.0	5.0	5.0	1.0	0.0	part_2
255	4.0	8.0			1000.0	0.0	1.0							6.0	0.0	0.0	0.0	900.0	3.0	1.0	7.0	7.0	1.0	part_2
256	4.0	8.0			1000.0	0.0	1.0							6.0	0.0	0.0	0.0	950.0	1.0	5.0	5.0	1.0	1.0	part_2
257	1.0	8.0			1000.0	0.0	0.0							6.0	0.0	0.5619926367944572	6.0	1000.0	1.0	2.0	1.0	6.0	0.0	part_2
258	4.0	8.0			1000.0	0.0	1.0							6.0	0.0	0.0	0.0	1000.0	4.0	4.0	8.0	2.0	1.0	part_2
259	1.0	8.0			1000.0	0.0	0.0							5.0	0.0	0.5416060758871026	5.0	1050.0	3.0	6.0	3.0	3.0	0.0	part_2
260	4.0	8.0			1000.0	0.0	1.0							5.0	0.0	0.0	0.0	1050.0	4.0	4.0	8.0	2.0	1.0	part_2
261	1.0	8.0			1050.0	0.0	0.0							6.0	0.0	0.5420640669181012	6.0	1050.0	2.0	8.0	2.0	4.0	0.0	part_2
262	4.0	8.0			1050.0	0.0	1.0							5.0	0.0	0.0	0.0	1050.0	4.0	4.0	8.0	2.0	1.0	part_2
263	4.0	8.0			1100.0	0.0	1.0							6.0	0.0	0.0	0.0	1050.0	4.0	4.0	8.0	2.0	1.0	part_2
264	1.0	8.0			1100.0	0.0	0.0							5.0	0.0	0.5663795779109932	5.0	1100.0	3.0	6.0	3.0	3.0	0.0	part_2
265	4.0	8.0			1100.0	0.0	1.0							6.0	0.0	0.0	0.0	1100.0	1.0	5.0	5.0	1.0	1.0	part_2
266	1.0	8.0			1100.0	0.0	1.0							5.0	0.0	1.357275568851037	5.0	1150.0	1.0	5.0	5.0	1.0	0.0	part_2
267	4.0	8.0			1100.0	0.0	1.0							6.0	0.0	0.0	0.0	1150.0	1.0	5.0	5.0	1.0	1.0	part_2
268	3.0	8.0			1100.0	0.0	1.0							6.0	0.0	1.3238389099569758	6.0	1200.0	3.0	1.0	7.0	7.0	1.0	part_2
269	1.0	8.0			1100.0	0.0	0.0							6.0	0.0	0.639329122917843	6.0	1150.0	4.0	7.0	4.0	5.0	0.0	part_2
270	1.0	8.0			1100.0	0.0	0.0							5.0	0.0	0.5489101638522698	5.0	1150.0	1.0	2.0	1.0	6.0	0.0	part_2
271	1.0	8.0			1100.0	0.0	0.0							5.0	0.0	0.5049146638339153	5.0	1150.0	2.0	8.0	2.0	4.0	0.0	part_2
272	1.0	8.0			1100.0	0.0	0.0							5.0	0.0	0.4618271127983462	5.0	1150.0	1.0	2.0	1.0	6.0	0.0	part_2
273	1.0	8.0			1100.0	0.0	0.0							5.0	0.0	0.4522035327681806	5.0	1150.0	2.0	8.0	2.0	4.0	0.0	part_2
274	1.0	8.0			1100.0	0.0	0.0							6.0	0.0	0.44154280502698384	6.0	1150.0	2.0	8.0	2.0	4.0	0.0	part_2
275	1.0	8.0			1100.0	0.0	0.0							5.0	0.0	0.3859420409135055	5.0	1150.0	3.0	6.0	3.0	3.0	0.0	part_2
276	1.0	8.0			1100.0	0.0	0.0							6.0	0.0	0.44151936382695567	6.0	1150.0	1.0	2.0	1.0	6.0	0.0	part_2
277	3.0	8.0			1100.0	0.0	1.0							6.0	0.0	1.2759230679512257	6.0	1150.0	1.0	5.0	5.0	1.0	1.0	part_2
278	1.0	8.0			1100.0	0.0	0.0							5.0	0.0	0.48960249897208996	5.0	1100.0	4.0	7.0	4.0	5.0	0.0	part_2
279	4.0	8.0			1100.0	0.0	1.0							6.0	0.0	0.0	0.0	1100.0	4.0	4.0	8.0	2.0	1.0	part_2
280	1.0	8.0			1100.0	0.0	0.0							5.0	0.0	0.5253141808498185	5.0	1150.0	3.0	6.0	3.0	3.0	0.0	part_2
281	4.0	8.0			1100.0	0.0	1.0							5.0	0.0	0.0	0.0	1150.0	1.0	5.0	5.0	1.0	1.0	part_2
282	1.0	8.0			1150.0	0.0	1.0							5.0	0.0	1.4495755900279619	5.0	1150.0	3.0	1.0	7.0	7.0	0.0	part_2
283	1.0	8.0			1150.0	0.0	0.0							6.0	0.0	0.5370079107960919	6.0	1150.0	3.0	6.0	3.0	3.0	0.0	part_2
284	3.0	8.0			1150.0	0.0	1.0							5.0	0.0	0.47191975187161006	5.0	1150.0	2.0	3.0	6.0	8.0	1.0	part_2
285	1.0	8.0			1100.0	0.0	0.0							6.0	0.0	0.5289324958866928	6.0	1150.0	1.0	2.0	1.0	6.0	0.0	part_2
286	1.0	8.0			1100.0	0.0	0.0							6.0	0.0	0.5285175988537958	6.0	1150.0	4.0	7.0	4.0	5.0	0.0	part_2
287	3.0	8.0			1100.0	0.0	1.0							6.0	0.0	1.3409244849754032	6.0	1150.0	1.0	5.0	5.0	1.0	1.0	part_2
0	0.0	1.0	234.0	6.0	0.0	2.0	1.0	117.0	39.0	234.0	195.0	78.0	156.0	7.0	0.0	0.6186759217671352	3.0	0.0	1.0	5.0	5.0	1.0	0.0	part_3
1	0.0	1.0	220.0	5.0	0.0	1.0	1.0	132.0	264.0	44.0	220.0	176.0	88.0	7.0	0.0	1.531870940758381	4.0	0.0	2.0	3.0	6.0	8.0	0.0	part_3
2	0.0	1.0	245.0	5.0	0.0	1.0	1.0	147.0	49.0	245.0	294.0	196.0	98.0	7.0	0.0	2.015074198527145	3.0	0.0	1.0	5.0	5.0	1.0	0.0	part_3
3	0.0	1.0	117.0	3.0	0.0	1.0	1.0	195.0	234.0	39.0	117.0	156.0	78.0	7.0	0.0	1.915036474034423	4.0	0.0	3.0	1.0	7.0	7.0	0.0	part_3
4	0.0	1.0	264.0	6.0	0.0	1.0	1.0	88.0	176.0	44.0	132.0	264.0	220.0	7.0	0.0	1.8257994567684364	5.0	0.0	4.0	4.0	8.0	2.0	0.0	part_3
5	0.0	1.0	204.0	6.0	0.0	1.0	1.0	68.0	136.0	170.0	34.0	102.0	204.0	7.0	0.0	1.9524066327721812	6.0	0.0	1.0	5.0	5.0	1.0	0.0	part_3
6	0.0	1.0	264.0	6.0	0.0	1.0	1.0	264.0	88.0	132.0	176.0	220.0	44.0	7.0	0.0	2.08787671502796	1.0	0.0	3.0	1.0	7.0	7.0	0.0	part_3
7	0.0	1.0	270.0	5.0	0.0	1.0	1.0	324.0	108.0	54.0	216.0	270.0	162.0	7.0	0.0	2.5489141350408318	5.0	0.0	1.0	5.0	5.0	1.0	0.0	part_3
8	0.0	1.0	234.0	6.0	0.0	1.0	1.0	39.0	195.0	156.0	117.0	78.0	234.0	7.0	0.0	1.7855899027636042	6.0	0.0	4.0	4.0	8.0	2.0	0.0	part_3
9	0.0	1.0	117.0	3.0	0.0	1.0	1.0	78.0	39.0	117.0	156.0	234.0	195.0	7.0	0.0	1.3926518982916605	3.0	0.0	2.0	3.0	6.0	8.0	0.0	part_3
10	0.0	1.0	324.0	6.0	0.0	1.0	1.0	324.0	108.0	54.0	216.0	162.0	270.0	7.0	0.0	1.6529773157672025	1.0	0.0	3.0	1.0	7.0	7.0	0.0	part_3
11	0.0	1.0	78.0	2.0	0.0	1.0	0.0	195.0	117.0	234.0	156.0	78.0	39.0	7.0	0.0	1.7897375405591447	5.0	0.0	4.0	7.0	4.0	5.0	0.0	part_3
12	0.0	1.0	162.0	3.0	0.0	1.0	0.0	216.0	108.0	324.0	54.0	270.0	162.0	7.0	0.0	1.9259382340387674	6.0	0.0	3.0	6.0	3.0	3.0	0.0	part_3
13	0.0	1.0	220.0	5.0	0.0	1.0	1.0	132.0	264.0	176.0	88.0	220.0	44.0	7.0	0.0	2.004690964051406	5.0	0.0	3.0	1.0	7.0	7.0	0.0	part_3
14	0.0	1.0	98.0	2.0	0.0	1.0	0.0	245.0	49.0	294.0	196.0	98.0	147.0	7.0	0.0	1.7820960747922072	5.0	0.0	4.0	7.0	4.0	5.0	0.0	part_3
15	0.0	1.0	102.0	3.0	0.0	1.0	0.0	68.0	102.0	34.0	136.0	204.0	170.0	7.0	0.0	1.556196189529146	2.0	0.0	4.0	7.0	4.0	5.0	0.0	part_3
16	0.0	1.0	136.0	4.0	0.0	1.0	0.0	136.0	68.0	170.0	102.0	34.0	204.0	7.0	0.0	1.9645454432902625	1.0	0.0	3.0	6.0	3.0	3.0	0.0	part_3
17	0.0	1.0	216.0	4.0	0.0	1.0	0.0	108.0	54.0	324.0	270.0	216.0	162.0	7.0	0.0	2.752567835326772	5.0	0.0	4.0	7.0	4.0	5.0	0.0	part_3
18	0.0	1.0	270.0	5.0	0.0	1.0	1.0	108.0	324.0	270.0	162.0	216.0	54.0	7.0	0.0	2.022008040570654	3.0	0.0	4.0	4.0	8.0	2.0	0.0	part_3
19	0.0	1.0	196.0	4.0	0.0	1.0	0.0	49.0	147.0	294.0	196.0	245.0	98.0	7.0	0.0	1.4825864620506763	4.0	0.0	1.0	2.0	1.0	6.0	0.0	part_3
20	0.0	2.0	196.0	4.0	0.0	1.0	0.0	49.0	245.0	196.0	294.0	98.0	147.0	7.0	0.0	1.62057574679784	3.0	0.0	1.0	2.0	1.0	6.0	0.0	part_3
21	0.0	2.0	136.0	4.0	0.0	1.0	1.0	170.0	34.0	136.0	102.0	68.0	204.0	7.0	0.0	1.331082550866995	3.0	0.0	2.0	3.0	6.0	8.0	0.0	part_3
22	0.0	2.0	108.0	2.0	0.0	1.0	0.0	324.0	162.0	108.0	216.0	54.0	270.0	7.0	0.0	1.770012920082081	3.0	0.0	4.0	7.0	4.0	5.0	0.0	part_3
23	0.0	2.0	147.0	3.0	0.0	1.0	0.0	196.0	245.0	98.0	147.0	49.0	294.0	7.0	0.0	1.7587815905571915	4.0	0.0	2.0	8.0	2.0	4.0	0.0	part_3
24	0.0	2.0	204.0	6.0	0.0	1.0	1.0	68.0	102.0	170.0	34.0	204.0	136.0	7.0	0.0	1.9738678220455768	5.0	0.0	4.0	4.0	8.0	2.0	0.0	part_3
25	0.0	2.0	108.0	2.0	0.0	1.0	0.0	54.0	162.0	324.0	270.0	216.0	108.0	7.0	0.0	2.4811636980448384	6.0	0.0	3.0	6.0	3.0	3.0	0.0	part_3
26	0.0	2.0	176.0	4.0	0.0	1.0	0.0	88.0	44.0	132.0	264.0	176.0	220.0	7.0	0.0	1.5272509810893098	5.0	0.0	1.0	2.0	1.0	6.0	0.0	part_3
27	0.0	2.0	204.0	6.0	0.0	1.0	1.0	34.0	204.0	136.0	170.0	102.0	68.0	7.0	0.0	1.8532723878015531	2.0	0.0	3.0	1.0	7.0	7.0	0.0	part_3
28	0.0	2.0	102.0	3.0	0.0	1.0	0.0	170.0	204.0	136.0	102.0	34.0	68.0	7.0	0.0	1.7996032173396088	4.0	0.0	2.0	8.0	2.0	4.0	0.0	part_3
29	0.0	2.0	294.0	6.0	0.0	1.0	1.0	49.0	294.0	98.0	245.0	147.0	196.0	7.0	0.0	1.5871690523199504	2.0	0.0	4.0	4.0	8.0	2.0	0.0	part_3
30	0.0	2.0	245.0	5.0	0.0	1.0	1.0	49.0	245.0	147.0	294.0	98.0	196.0	7.0	0.0	1.6089184660377214	2.0	0.0	3.0	1.0	7.0	7.0	0.0	part_3
31	0.0	2.0	204.0	6.0	0.0	1.0	1.0	34.0	136.0	68.0	102.0	170.0	204.0	7.0	0.0	2.5229529725329485	6.0	0.0	2.0	3.0	6.0	8.0	0.0	part_3
32	0.0	2.0	264.0	6.0	0.0	1.0	1.0	88.0	220.0	44.0	264.0	132.0	176.0	7.0	0.0	1.567339798566536	4.0	0.0	1.0	5.0	5.0	1.0	0.0	part_3
33	0.0	2.0	245.0	5.0	0.0	1.0	1.0	147.0	196.0	294.0	245.0	98.0	49.0	7.0	0.0	1.760064208850963	4.0	0.0	2.0	3.0	6.0	8.0	0.0	part_3
34	0.0	2.0	117.0	3.0	0.0	1.0	0.0	195.0	78.0	234.0	39.0	156.0	117.0	7.0	0.0	1.7040290575678227	6.0	0.0	1.0	2.0	1.0	6.0	0.0	part_3
35	0.0	2.0	270.0	5.0	0.0	1.0	1.0	216.0	108.0	162.0	54.0	270.0	324.0	7.0	0.0	2.3004226100892993	5.0	0.0	1.0	5.0	5.0	1.0	0.0	part_3
36	0.0	2.0	108.0	2.0	0.0	1.0	0.0	216.0	270.0	324.0	162.0	108.0	54.0	7.0	0.0	1.9199445290287258	5.0	0.0	1.0	2.0	1.0	6.0	0.0	part_3
37	0.0	2.0	294.0	6.0	0.0	1.0	1.0	245.0	147.0	196.0	49.0	98.0	294.0	7.0	0.0	1.8080565290001687	6.0	0.0	4.0	4.0	8.0	2.0	0.0	part_3
38	0.0	2.0	132.0	3.0	0.0	1.0	0.0	264.0	220.0	132.0	88.0	176.0	44.0	7.0	0.0	2.202766816757503	3.0	0.0	2.0	8.0	2.0	4.0	0.0	part_3
39	0.0	2.0	147.0	3.0	0.0	1.0	1.0	49.0	294.0	147.0	98.0	245.0	196.0	7.0	0.0	1.8563293612824054	3.0	0.0	2.0	3.0	6.0	8.0	0.0	part_3
40	0.0	3.0	102.0	3.0	0.0	1.0	0.0	102.0	68.0	204.0	34.0	170.0	136.0	7.0	0.0	1.6657941010489594	1.0	0.0	4.0	7.0	4.0	5.0	0.0	part_3
41	0.0	3.0	234.0	6.0	0.0	1.0	1.0	78.0	39.0	117.0	234.0	195.0	156.0	7.0	0.0	1.858144511046703	4.0	0.0	3.0	1.0	7.0	7.0	0.0	part_3
42	0.0	3.0	117.0	3.0	0.0	1.0	0.0	78.0	117.0	156.0	39.0	234.0	195.0	7.0	0.0	1.3748430930863833	2.0	0.0	3.0	6.0	3.0	3.0	0.0	part_3
43	0.0	3.0	117.0	3.0	0.0	1.0	0.0	117.0	234.0	156.0	195.0	78.0	39.0	7.0	0.0	1.6363728635624284	1.0	0.0	4.0	7.0	4.0	5.0	0.0	part_3
44	0.0	3.0	88.0	2.0	0.0	1.0	0.0	220.0	132.0	264.0	88.0	44.0	176.0	7.0	0.0	1.7707956301019294	4.0	0.0	3.0	6.0	3.0	3.0	0.0	part_3
45	0.0	3.0	108.0	2.0	0.0	1.0	0.0	216.0	162.0	108.0	324.0	270.0	54.0	7.0	0.0	1.5152604600443738	3.0	0.0	2.0	8.0	2.0	4.0	0.0	part_3
46	0.0	3.0	108.0	2.0	0.0	1.0	0.0	108.0	324.0	162.0	270.0	54.0	216.0	7.0	0.0	2.324963000792195	1.0	0.0	2.0	8.0	2.0	4.0	0.0	part_3
47	0.0	3.0	204.0	6.0	0.0	1.0	1.0	34.0	170.0	136.0	204.0	68.0	102.0	7.0	0.0	1.5511851710325573	4.0	0.0	4.0	4.0	8.0	2.0	0.0	part_3
48	0.0	3.0	270.0	5.0	0.0	1.0	1.0	54.0	270.0	324.0	162.0	216.0	108.0	7.0	0.0	2.8896870185562875	2.0	0.0	2.0	3.0	6.0	8.0	0.0	part_3
49	0.0	3.0	98.0	2.0	0.0	1.0	0.0	49.0	98.0	294.0	147.0	196.0	245.0	7.0	0.0	2.4645026048092404	2.0	0.0	2.0	8.0	2.0	4.0	0.0	part_3
50	0.0	3.0	102.0	3.0	0.0	1.0	0.0	34.0	204.0	68.0	102.0	136.0	170.0	7.0	0.0	1.8790740740369074	4.0	0.0	1.0	2.0	1.0	6.0	0.0	part_3
51	0.0	3.0	204.0	6.0	0.0	1.0	1.0	34.0	170.0	68.0	102.0	136.0	204.0	7.0	0.0	2.1493365622882266	6.0	0.0	3.0	1.0	7.0	7.0	0.0	part_3
52	0.0	3.0	162.0	3.0	0.0	1.0	1.0	108.0	216.0	54.0	270.0	324.0	162.0	7.0	0.0	2.422807169088628	6.0	0.0	2.0	3.0	6.0	8.0	0.0	part_3
53	0.0	3.0	132.0	3.0	0.0	1.0	0.0	264.0	44.0	220.0	176.0	132.0	88.0	7.0	0.0	2.1298086567985592	5.0	0.0	3.0	6.0	3.0	3.0	0.0	part_3
54	0.0	3.0	117.0	3.0	0.0	1.0	0.0	156.0	78.0	117.0	234.0	195.0	39.0	7.0	0.0	2.8844411020400003	3.0	0.0	3.0	6.0	3.0	3.0	0.0	part_3
55	0.0	3.0	132.0	3.0	0.0	1.0	0.0	176.0	88.0	132.0	264.0	44.0	220.0	7.0	0.0	2.549400585296098	3.0	0.0	4.0	7.0	4.0	5.0	0.0	part_3
56	0.0	3.0	264.0	6.0	0.0	1.0	1.0	176.0	44.0	88.0	220.0	132.0	264.0	7.0	0.0	1.7172946662903996	6.0	0.0	4.0	4.0	8.0	2.0	0.0	part_3
57	0.0	3.0	220.0	5.0	0.0	1.0	1.0	44.0	132.0	264.0	88.0	176.0	220.0	7.0	0.0	1.638893243856728	6.0	0.0	2.0	3.0	6.0	8.0	0.0	part_3
58	0.0	3.0	270.0	5.0	0.0	1.0	1.0	162.0	270.0	108.0	54.0	216.0	324.0	7.0	0.0	1.6412830865301657	2.0	0.0	4.0	4.0	8.0	2.0	0.0	part_3
59	0.0	3.0	147.0	3.0	0.0	1.0	0.0	196.0	49.0	147.0	245.0	98.0	294.0	7.0	0.0	2.1812285547639476	3.0	0.0	4.0	7.0	4.0	5.0	0.0	part_3
60	0.0	4.0	264.0	6.0	0.0	1.0	1.0	88.0	264.0	132.0	220.0	44.0	176.0	7.0	0.0	1.5268509652814828	2.0	0.0	1.0	5.0	5.0	1.0	0.0	part_3
61	0.0	4.0	102.0	3.0	0.0	1.0	0.0	68.0	204.0	34.0	136.0	170.0	102.0	7.0	0.0	1.8084266240912257	6.0	0.0	3.0	6.0	3.0	3.0	0.0	part_3
62	0.0	4.0	88.0	2.0	0.0	1.0	0.0	132.0	220.0	176.0	88.0	264.0	44.0	7.0	0.0	1.8556790042930515	4.0	0.0	4.0	7.0	4.0	5.0	0.0	part_3
63	0.0	4.0	132.0	3.0	0.0	1.0	0.0	176.0	88.0	220.0	44.0	132.0	264.0	7.0	0.0	2.2263817723141983	5.0	0.0	1.0	2.0	1.0	6.0	0.0	part_3
64	0.0	4.0	88.0	2.0	0.0	1.0	0.0	176.0	264.0	44.0	132.0	88.0	220.0	7.0	0.0	1.227754847772303	5.0	0.0	2.0	8.0	2.0	4.0	0.0	part_3
65	0.0	4.0	216.0	4.0	0.0	1.0	1.0	324.0	216.0	108.0	162.0	54.0	270.0	7.0	0.0	2.2395697522879345	2.0	0.0	3.0	1.0	7.0	7.0	0.0	part_3
66	0.0	4.0	162.0	3.0	0.0	1.0	0.0	108.0	162.0	324.0	54.0	216.0	270.0	7.0	0.0	1.9482779250975	2.0	0.0	1.0	2.0	1.0	6.0	0.0	part_3
67	0.0	4.0	102.0	3.0	0.0	1.0	0.0	68.0	170.0	136.0	102.0	34.0	204.0	7.0	0.0	1.4215810558089288	4.0	0.0	2.0	8.0	2.0	4.0	0.0	part_3
68	0.0	4.0	204.0	6.0	0.0	1.0	1.0	34.0	170.0	102.0	136.0	68.0	204.0	7.0	0.0	1.5123111215652898	6.0	0.0	1.0	5.0	5.0	1.0	0.0	part_3
69	0.0	4.0	98.0	2.0	0.0	1.0	0.0	196.0	98.0	49.0	147.0	294.0	245.0	7.0	0.0	1.704649502033135	2.0	0.0	3.0	6.0	3.0	3.0	0.0	part_3
70	0.0	4.0	245.0	5.0	0.0	1.0	1.0	147.0	294.0	245.0	196.0	49.0	98.0	7.0	0.0	2.3916786155605223	3.0	0.0	1.0	5.0	5.0	1.0	0.0	part_3
71	0.0	4.0	102.0	3.0	0.0	1.0	0.0	34.0	102.0	68.0	170.0	136.0	204.0	7.0	0.0	1.5041716370324139	2.0	0.0	1.0	2.0	1.0	6.0	0.0	part_3
72	0.0	4.0	117.0	3.0	0.0	1.0	0.0	39.0	117.0	195.0	78.0	156.0	234.0	7.0	0.0	2.6304896370857023	2.0	0.0	1.0	2.0	1.0	6.0	0.0	part_3
73	0.0	4.0	195.0	5.0	0.0	1.0	1.0	78.0	195.0	39.0	156.0	234.0	117.0	7.0	0.0	2.4292278708016966	2.0	0.0	2.0	3.0	6.0	8.0	0.0	part_3
74	0.0	4.0	117.0	3.0	0.0	1.0	0.0	117.0	78.0	39.0	195.0	234.0	156.0	7.0	0.0	1.8004731682885904	1.0	0.0	2.0	8.0	2.0	4.0	0.0	part_3
75	0.0	4.0	98.0	2.0	0.0	1.0	0.0	196.0	98.0	294.0	245.0	147.0	49.0	7.0	0.0	1.991848398858565	2.0	0.0	3.0	6.0	3.0	3.0	0.0	part_3
76	0.0	4.0	234.0	6.0	0.0	1.0	1.0	234.0	156.0	39.0	78.0	117.0	195.0	7.0	0.0	2.2073833802860463	1.0	0.0	1.0	5.0	5.0	1.0	0.0	part_3
77	0.0	4.0	117.0	3.0	0.0	1.0	0.0	156.0	117.0	39.0	195.0	78.0	234.0	7.0	0.0	1.9391071535355877	2.0	0.0	2.0	8.0	2.0	4.0	0.0	part_3
78	0.0	4.0	245.0	5.0	0.0	1.0	1.0	294.0	49.0	98.0	245.0	196.0	147.0	7.0	0.0	1.6913688753265887	4.0	0.0	3.0	1.0	7.0	7.0	0.0	part_3
79	0.0	4.0	234.0	6.0	0.0	1.0	1.0	78.0	39.0	117.0	156.0	234.0	195.0	7.0	0.0	2.008552927800338	5.0	0.0	4.0	4.0	8.0	2.0	0.0	part_3
