	accuracy	block	chosen_bidding_amount	chosen_bidding_level	left_SSD	num_trial_presentations	paired_with_stopping	possible_bid_1	possible_bid_2	possible_bid_3	possible_bid_4	possible_bid_5	possible_bid_6	quadrant	raw_reward_magnitude	reaction_time	response	right_SSD	stepwise_reward_magnitude	stim_color	stim_reward	stim_shape	stop_signal_trial_type	which_part
0		1.0				1.0	1.0							4.0	201.0	0.45047642631493545	4.0		3.0	7.0	7.0	3.0		part_1
1		1.0				1.0	1.0							2.0	0.0	0.36119309738933225	2.0		0.0	8.0	5.0	7.0		part_1
2		1.0				1.0	0.0							3.0	0.0	0.3041574353892429	3.0		0.0	4.0	2.0	5.0		part_1
3		1.0				1.0	1.0							3.0	47.0	0.3947240743891598	3.0		1.0	8.0	5.0	7.0		part_1
4		1.0				1.0	0.0							4.0	44.0	0.3623871138522645	4.0		1.0	6.0	1.0	4.0		part_1
5		1.0				1.0	1.0							2.0	108.0	0.25042628046298887	2.0		2.0	5.0	6.0	8.0		part_1
6		1.0				1.0	1.0							1.0	182.0	0.25048264792599184	1.0		3.0	7.0	7.0	3.0		part_1
7		1.0				1.0	0.0							4.0	0.0	0.33011406246282604	4.0		0.0	6.0	1.0	4.0		part_1
8		1.0				1.0	1.0							4.0	395.0	0.3319569898519603	4.0		4.0	1.0	8.0	6.0		part_1
9		1.0				1.0	1.0							1.0	86.0	0.28776007638907686	1.0		2.0	5.0	6.0	8.0		part_1
10		1.0				1.0	0.0							3.0	115.0	0.2641164122410373	3.0		2.0	4.0	2.0	5.0		part_1
11		1.0				1.0	1.0							4.0	185.0	0.33230781685210786	4.0		3.0	7.0	7.0	3.0		part_1
12		1.0				1.0	1.0							3.0	422.0	0.3447438884629719	3.0		4.0	1.0	8.0	6.0		part_1
13		1.0				1.0	1.0							2.0	402.0	0.2766981773891075	2.0		4.0	1.0	8.0	6.0		part_1
14		1.0				1.0	1.0							2.0	0.0	0.3673922223890713	2.0		0.0	8.0	5.0	7.0		part_1
15		1.0				1.0	1.0							1.0	115.0	0.26734606277796047	1.0		2.0	5.0	6.0	8.0		part_1
16		1.0				2.0	0.0							1.0	0.0	0.4929143367778579	1.0		0.0	3.0	4.0	2.0		part_1
17		1.0				1.0	0.0							1.0	203.0	0.44890461346290067	1.0		3.0	2.0	3.0	1.0		part_1
18		1.0				1.0	0.0							4.0	105.0	0.5389449249259997	4.0		2.0	4.0	2.0	5.0		part_1
19		1.0				1.0	1.0							3.0	391.0	0.4053081703891621	3.0		4.0	1.0	8.0	6.0		part_1
20		1.0				1.0	0.0							3.0	0.0	0.3596675923890871	3.0		0.0	6.0	1.0	4.0		part_1
21		1.0				1.0	0.0							1.0	115.0	0.3501855357039858	1.0		2.0	4.0	2.0	5.0		part_1
22		1.0				1.0	0.0							2.0	100.0	0.30633376924106415	2.0		2.0	4.0	2.0	5.0		part_1
23		1.0				1.0	0.0							3.0	181.0	0.36138261085193335	3.0		3.0	2.0	3.0	1.0		part_1
24		1.0				1.0	1.0							2.0	194.0	0.27351065831499	2.0		3.0	7.0	7.0	3.0		part_1
25		1.0				1.0	0.0							4.0	68.0	0.35103713624107513	4.0		1.0	6.0	1.0	4.0		part_1
26		1.0				1.0	0.0							4.0	26.0	0.3186744583890686	4.0		1.0	6.0	1.0	4.0		part_1
27		1.0				1.0	0.0							2.0	0.0	0.24021394777787464	2.0		0.0	2.0	3.0	1.0		part_1
28		1.0				1.0	1.0							1.0	389.0	0.4114932533150295	1.0		4.0	1.0	8.0	6.0		part_1
29		1.0				1.0	0.0							3.0	0.0	0.4545352703150911	3.0		0.0	2.0	3.0	1.0		part_1
30		1.0				1.0	0.0							1.0	201.0	0.500880614315065	1.0		3.0	2.0	3.0	1.0		part_1
31		1.0				1.0	1.0							4.0	103.0	0.4224287548520351	4.0		2.0	5.0	6.0	8.0		part_1
32		1.0				1.0	0.0							1.0	378.0	0.3911990488520587	1.0		4.0	3.0	4.0	2.0		part_1
33		1.0				1.0	1.0							2.0	42.0	0.4799742705370136	2.0		1.0	8.0	5.0	7.0		part_1
34		1.0				1.0	0.0							1.0	0.0	0.4259459954630529	1.0		0.0	4.0	2.0	5.0		part_1
35		1.0				1.0	0.0							2.0	177.0	0.34617863946277794	2.0		3.0	2.0	3.0	1.0		part_1
36		1.0				1.0	1.0							1.0	221.0	0.42512959892587787	1.0		3.0	7.0	7.0	3.0		part_1
37		1.0				1.0	1.0							3.0	0.0	0.4252731242409027	3.0		0.0	1.0	8.0	6.0		part_1
38		1.0				1.0	1.0							4.0	87.0	0.39292139670396864	4.0		2.0	5.0	6.0	8.0		part_1
39		1.0				1.0	1.0							2.0	75.0	0.32691181524114654	2.0		2.0	5.0	6.0	8.0		part_1
40		1.0				1.0	0.0							3.0	389.0	0.43850627838901346	3.0		4.0	3.0	4.0	2.0		part_1
41		1.0				1.0	1.0							4.0	94.0	0.4390368803151432	4.0		2.0	5.0	6.0	8.0		part_1
42		1.0				1.0	0.0							1.0	217.0	0.3609104178517555	1.0		3.0	2.0	3.0	1.0		part_1
43		1.0				1.0	1.0							2.0	0.0	0.32950436485180035	2.0		0.0	5.0	6.0	8.0		part_1
44		1.0				1.0	0.0							3.0	95.0	0.34017502885217255	3.0		2.0	4.0	2.0	5.0		part_1
45		1.0				1.0	1.0							3.0	214.0	0.4631689619259305	3.0		3.0	7.0	7.0	3.0		part_1
46		1.0				1.0	0.0							1.0	40.0	0.297137900852249	1.0		1.0	6.0	1.0	4.0		part_1
47		1.0				1.0	0.0							1.0	421.0	0.3867342164630827	1.0		4.0	3.0	4.0	2.0		part_1
48		1.0				1.0	0.0							4.0	86.0	0.5230536908520662	4.0		2.0	4.0	2.0	5.0		part_1
49		1.0				1.0	1.0							1.0	405.0	0.43249287892604116	1.0		4.0	1.0	8.0	6.0		part_1
50		1.0				1.0	0.0							2.0	196.0	0.4671336243150108	2.0		3.0	2.0	3.0	1.0		part_1
51		1.0				1.0	0.0							2.0	395.0	0.3993348298517958	2.0		4.0	3.0	4.0	2.0		part_1
52		1.0				1.0	0.0							3.0	69.0	0.3663942624630181	3.0		1.0	6.0	1.0	4.0		part_1
53		1.0				1.0	1.0							2.0	220.0	0.4238436768519023	2.0		3.0	7.0	7.0	3.0		part_1
54		1.0				1.0	1.0							3.0	181.0	0.48055166377844216	3.0		3.0	7.0	7.0	3.0		part_1
55		1.0				1.0	0.0							4.0	195.0	0.5260016489260124	4.0		3.0	2.0	3.0	1.0		part_1
56		1.0				1.0	0.0							3.0	176.0	0.41386282046323686	3.0		3.0	2.0	3.0	1.0		part_1
57		1.0				1.0	1.0							1.0	70.0	0.4364130498515806	1.0		1.0	8.0	5.0	7.0		part_1
58		1.0				2.0	0.0							1.0	27.0	0.44948504438934833	1.0		1.0	6.0	1.0	4.0		part_1
59		1.0				1.0	1.0							2.0	220.0	0.5058936177783835	2.0		3.0	7.0	7.0	3.0		part_1
60		1.0				1.0	0.0							2.0	384.0	0.6418178624630855	2.0		4.0	3.0	4.0	2.0		part_1
61		1.0				1.0	1.0							4.0	32.0	0.7896371387041654	4.0		1.0	8.0	5.0	7.0		part_1
62		1.0				1.0	1.0							1.0	0.0	0.45277852864956003	1.0		0.0	7.0	7.0	3.0		part_1
63		1.0				1.0	1.0							1.0	0.0	0.49805578840778253	1.0		0.0	1.0	8.0	6.0		part_1
64		1.0				1.0	1.0							1.0	213.0	0.4416256282406721	1.0		3.0	7.0	7.0	3.0		part_1
65		1.0				1.0	0.0							1.0	219.0	0.5556054559260701	1.0		3.0	2.0	3.0	1.0		part_1
66		1.0				1.0	0.0							3.0	202.0	0.5447612821863004	3.0		3.0	2.0	3.0	1.0		part_1
67		1.0				1.0	0.0							2.0	43.0	0.555215968315224	2.0		1.0	6.0	1.0	4.0		part_1
68		1.0				2.0	0.0							4.0	0.0	0.7374850548521863	4.0		0.0	4.0	2.0	5.0		part_1
69		1.0				1.0	0.0							3.0	72.0	0.6353756577041167	3.0		1.0	6.0	1.0	4.0		part_1
70		1.0				1.0	0.0							1.0	182.0	0.592601318925972	1.0		3.0	2.0	3.0	1.0		part_1
71		1.0				1.0	0.0							2.0	218.0	0.5479294053147896	2.0		3.0	2.0	3.0	1.0		part_1
72		1.0				1.0	1.0							2.0	56.0	0.38981795577819867	2.0		1.0	8.0	5.0	7.0		part_1
73		1.0				1.0	1.0							4.0	205.0	0.46987637946313043	4.0		3.0	7.0	7.0	3.0		part_1
74		1.0				1.0	1.0							2.0	177.0	0.3695255377783724	2.0		3.0	7.0	7.0	3.0		part_1
75		1.0				1.0	0.0							2.0	29.0	0.39292839746349273	2.0		1.0	6.0	1.0	4.0		part_1
76		1.0				1.0	1.0							1.0	0.0	0.44846474338919506	1.0		0.0	1.0	8.0	6.0		part_1
77		1.0				1.0	1.0							1.0	388.0	0.3938053343890715	1.0		4.0	1.0	8.0	6.0		part_1
78		1.0				1.0	0.0							1.0	113.0	0.4395946127042407	1.0		2.0	4.0	2.0	5.0		part_1
79		1.0				1.0	0.0							2.0	0.0	0.4833667653892917	2.0		0.0	6.0	1.0	4.0		part_1
80		1.0				1.0	1.0							3.0	416.0	0.4060416724632887	3.0		4.0	1.0	8.0	6.0		part_1
81		1.0				1.0	0.0							3.0	100.0	0.3840121189259662	3.0		2.0	4.0	2.0	5.0		part_1
82		1.0				1.0	0.0							2.0	107.0	0.35056156085192924	2.0		2.0	4.0	2.0	5.0		part_1
83		1.0				1.0	0.0							2.0	0.0	0.37433889938893117	2.0		0.0	4.0	2.0	5.0		part_1
84		1.0				1.0	0.0							2.0	410.0	0.37432157285184076	2.0		4.0	3.0	4.0	2.0		part_1
85		1.0				1.0	0.0							4.0	395.0	0.5647679608518956	4.0		4.0	3.0	4.0	2.0		part_1
86		1.0				1.0	1.0							1.0	0.0	0.4541860647782414	1.0		0.0	8.0	5.0	7.0		part_1
87		1.0				1.0	0.0							2.0	0.0	0.40932738277842873	2.0		0.0	3.0	4.0	2.0		part_1
88		1.0				1.0	0.0							4.0	403.0	0.5897394058520149	4.0		4.0	3.0	4.0	2.0		part_1
89		1.0				1.0	0.0							3.0	76.0	0.5779963043150929	3.0		2.0	4.0	2.0	5.0		part_1
90		1.0				1.0	0.0							4.0	106.0	0.4558723593149807	4.0		2.0	4.0	2.0	5.0		part_1
91		1.0				1.0	1.0							1.0	0.0	0.4451617289259957	1.0		0.0	7.0	7.0	3.0		part_1
92		1.0				1.0	0.0							4.0	47.0	0.5912096693150488	4.0		1.0	6.0	1.0	4.0		part_1
93		1.0				1.0	0.0							2.0	0.0	0.470377730389373	2.0		0.0	4.0	2.0	5.0		part_1
94		1.0				1.0	1.0							1.0	38.0	0.6492355379259607	1.0		1.0	8.0	5.0	7.0		part_1
95		1.0				1.0	1.0							1.0	401.0	0.6289075554632291	1.0		4.0	1.0	8.0	6.0		part_1
96		1.0				1.0	0.0							1.0	87.0	0.48293372177840865	1.0		2.0	4.0	2.0	5.0		part_1
97		1.0				1.0	1.0							1.0	190.0	0.4826874539257915	1.0		3.0	7.0	7.0	3.0		part_1
98		1.0				1.0	1.0							2.0	114.0	0.5626566337782606	2.0		2.0	5.0	6.0	8.0		part_1
99		1.0				1.0	0.0							2.0	0.0	0.7308857404632363	2.0		0.0	2.0	3.0	1.0		part_1
100		2.0				1.0	1.0							2.0	121.0	0.41831972224099445	2.0		2.0	5.0	6.0	8.0		part_1
101		2.0				1.0	0.0							3.0	33.0	0.4181239614631522	3.0		1.0	6.0	1.0	4.0		part_1
102		2.0				1.0	0.0							2.0	103.0	0.3526287164631867	2.0		2.0	4.0	2.0	5.0		part_1
103		2.0				1.0	1.0							3.0	388.0	0.3967102184633404	3.0		4.0	1.0	8.0	6.0		part_1
104		2.0				1.0	0.0							3.0	388.0	0.44326222885183597	3.0		4.0	3.0	4.0	2.0		part_1
105		2.0				1.0	1.0							2.0	403.0	0.50078742938922	2.0		4.0	1.0	8.0	6.0		part_1
106		2.0				1.0	0.0							3.0	391.0	0.36518145846321204	3.0		4.0	3.0	4.0	2.0		part_1
107		2.0				1.0	1.0							4.0	0.0	0.8376623908516194	4.0		0.0	7.0	7.0	3.0		part_1
108		2.0				1.0	0.0							1.0	82.0	0.4906923814633046	1.0		2.0	4.0	2.0	5.0		part_1
109		2.0				1.0	0.0							4.0	405.0	0.456060241389423	4.0		4.0	3.0	4.0	2.0		part_1
110		2.0				1.0	0.0							1.0	397.0	0.48004895392614344	1.0		4.0	3.0	4.0	2.0		part_1
111		2.0				1.0	0.0							4.0	0.0	0.4129509333893111	4.0		0.0	2.0	3.0	1.0		part_1
112		2.0				1.0	0.0							1.0	69.0	0.5145426987783139	1.0		1.0	6.0	1.0	4.0		part_1
113		2.0				1.0	1.0							1.0	96.0	0.4480764839263429	1.0		2.0	5.0	6.0	8.0		part_1
114		2.0				1.0	0.0							1.0	41.0	0.4725247993892481	1.0		1.0	6.0	1.0	4.0		part_1
115		2.0				1.0	0.0							4.0	381.0	0.5400185044632053	4.0		4.0	3.0	4.0	2.0		part_1
116		2.0				1.0	1.0							3.0	0.0	0.4605148629257201	3.0		0.0	1.0	8.0	6.0		part_1
117		2.0				1.0	1.0							3.0	95.0	0.4292401048519423	3.0		2.0	5.0	6.0	8.0		part_1
118		2.0				1.0	0.0							1.0	188.0	0.6196851129261631	1.0		3.0	2.0	3.0	1.0		part_1
119		2.0				1.0	0.0							4.0	411.0	0.5194105608516111	4.0		4.0	3.0	4.0	2.0		part_1
120		2.0				1.0	1.0							2.0	0.0	0.44015319077834647	2.0		0.0	5.0	6.0	8.0		part_1
121		2.0				1.0	0.0							3.0	108.0	0.3740451994635805	3.0		2.0	4.0	2.0	5.0		part_1
122		2.0				1.0	1.0							2.0	190.0	0.28386823846312836	2.0		3.0	7.0	7.0	3.0		part_1
123		2.0				1.0	1.0							4.0	202.0	0.3638418823888969	4.0		3.0	7.0	7.0	3.0		part_1
124		2.0				1.0	0.0							4.0	407.0	0.36556070092592563	4.0		4.0	3.0	4.0	2.0		part_1
125		2.0				1.0	0.0							2.0	423.0	0.3648640249998607	2.0		4.0	3.0	4.0	2.0		part_1
126		2.0				1.0	1.0							2.0	376.0	0.42078658746322617	2.0		4.0	1.0	8.0	6.0		part_1
127		2.0				1.0	1.0							1.0	0.0	0.4339499962411537	1.0		0.0	8.0	5.0	7.0		part_1
128		2.0				1.0	1.0							4.0	84.0	0.40093183838916957	4.0		2.0	5.0	6.0	8.0		part_1
129		2.0				1.0	0.0							1.0	123.0	0.5463574133891598	1.0		2.0	4.0	2.0	5.0		part_1
130		2.0				1.0	1.0							4.0	412.0	0.412431497851685	4.0		4.0	1.0	8.0	6.0		part_1
131		2.0				1.0	0.0							4.0	412.0	0.4460837723891018	4.0		4.0	3.0	4.0	2.0		part_1
132		2.0				1.0	1.0							1.0	41.0	0.43538390146341044	1.0		1.0	8.0	5.0	7.0		part_1
133		2.0				1.0	0.0							1.0	0.0	0.45911635192578615	1.0		0.0	3.0	4.0	2.0		part_1
134		2.0				1.0	1.0							1.0	76.0	0.5057703349257281	1.0		2.0	5.0	6.0	8.0		part_1
135		2.0				1.0	0.0							1.0	0.0	0.39379649285183405	1.0		0.0	6.0	1.0	4.0		part_1
136		2.0				1.0	1.0							2.0	0.0	0.3479000060333419	2.0		0.0	5.0	6.0	8.0		part_1
137		2.0				1.0	0.0							3.0	204.0	0.4721850087044004	3.0		3.0	2.0	3.0	1.0		part_1
138		2.0				1.0	1.0							2.0	395.0	0.3280606903890657	2.0		4.0	1.0	8.0	6.0		part_1
139		2.0				1.0	0.0							3.0	392.0	0.39512006438917524	3.0		4.0	3.0	4.0	2.0		part_1
140		2.0				1.0	0.0							2.0	59.0	0.3729807799259106	2.0		1.0	6.0	1.0	4.0		part_1
141		2.0				1.0	1.0							3.0	59.0	0.3831814629256769	3.0		1.0	8.0	5.0	7.0		part_1
142		2.0				1.0	0.0							2.0	413.0	0.3622886809262127	2.0		4.0	3.0	4.0	2.0		part_1
143		2.0				1.0	1.0							4.0	74.0	0.5991105383891409	4.0		1.0	8.0	5.0	7.0		part_1
144		2.0				1.0	0.0							1.0	217.0	0.4437460753151754	1.0		3.0	2.0	3.0	1.0		part_1
145		2.0				1.0	0.0							2.0	190.0	0.3874103633343111	2.0		3.0	2.0	3.0	1.0		part_1
146		2.0				1.0	1.0							4.0	0.0	0.4774886264081033	4.0		0.0	8.0	5.0	7.0		part_1
147		2.0				1.0	0.0							1.0	69.0	0.44359358179735864	1.0		1.0	6.0	1.0	4.0		part_1
148		2.0				1.0	0.0							4.0	0.0	0.45602952172293953	4.0		0.0	4.0	2.0	5.0		part_1
149		2.0				1.0	1.0							2.0	107.0	0.40004677733440985	2.0		2.0	5.0	6.0	8.0		part_1
150		2.0				1.0	0.0							3.0	72.0	0.47826451440823803	3.0		1.0	6.0	1.0	4.0		part_1
151		2.0				1.0	0.0							2.0	388.0	0.491881395926157	2.0		4.0	3.0	4.0	2.0		part_1
152		2.0				1.0	1.0							3.0	423.0	0.7050357239259029	3.0		4.0	1.0	8.0	6.0		part_1
153		2.0				1.0	1.0							3.0	62.0	0.44690056677836765	3.0		1.0	8.0	5.0	7.0		part_1
154		2.0				1.0	0.0							2.0	214.0	0.3929829577041346	2.0		3.0	2.0	3.0	1.0		part_1
155		2.0				1.0	0.0							3.0	416.0	0.6292634508517949	3.0		4.0	3.0	4.0	2.0		part_1
156		2.0				1.0	0.0							1.0	0.0	0.44815477224119604	1.0		0.0	2.0	3.0	1.0		part_1
157		2.0				1.0	1.0							3.0	54.0	0.5276880667784098	3.0		1.0	8.0	5.0	7.0		part_1
158		2.0				1.0	0.0							4.0	0.0	0.4939474228517611	4.0		0.0	3.0	4.0	2.0		part_1
159		2.0				1.0	0.0							2.0	0.0	0.34893205531534477	2.0		0.0	2.0	3.0	1.0		part_1
160		2.0				1.0	1.0							1.0	0.0	0.4285798943892587	1.0		0.0	1.0	8.0	6.0		part_1
161		2.0				1.0	1.0							4.0	33.0	0.40570396238899775	4.0		1.0	8.0	5.0	7.0		part_1
162		2.0				1.0	1.0							2.0	100.0	0.40797559985185217	2.0		2.0	5.0	6.0	8.0		part_1
163		2.0				1.0	1.0							4.0	68.0	0.43058543038887365	4.0		1.0	8.0	5.0	7.0		part_1
164		2.0				1.0	0.0							1.0	96.0	0.4323005839260077	1.0		2.0	4.0	2.0	5.0		part_1
165		2.0				1.0	0.0							3.0	381.0	0.3743040084632412	3.0		4.0	3.0	4.0	2.0		part_1
166		2.0				1.0	1.0							4.0	395.0	0.43180190785187733	4.0		4.0	1.0	8.0	6.0		part_1
167		2.0				1.0	0.0							4.0	417.0	0.42143845546343073	4.0		4.0	3.0	4.0	2.0		part_1
168		2.0				1.0	0.0							1.0	221.0	0.5224168567783636	1.0		3.0	2.0	3.0	1.0		part_1
169		2.0				1.0	1.0							2.0	100.0	0.3776033703147732	2.0		2.0	5.0	6.0	8.0		part_1
170		2.0				1.0	0.0							3.0	190.0	0.3554220037781306	3.0		3.0	2.0	3.0	1.0		part_1
171		2.0				1.0	1.0							1.0	209.0	0.42352932277844957	1.0		3.0	7.0	7.0	3.0		part_1
172		2.0				1.0	1.0							1.0	0.0	0.4590625458517934	1.0		0.0	1.0	8.0	6.0		part_1
173		2.0				1.0	1.0							3.0	195.0	0.34585451385191845	3.0		3.0	7.0	7.0	3.0		part_1
174		2.0				1.0	0.0							1.0	204.0	0.42632528370404543	1.0		3.0	2.0	3.0	1.0		part_1
175		2.0				1.0	1.0							1.0	0.0	0.3588172172412669	1.0		0.0	5.0	6.0	8.0		part_1
176		2.0				1.0	1.0							1.0	204.0	0.3366844069259969	1.0		3.0	7.0	7.0	3.0		part_1
177		2.0				1.0	1.0							2.0	44.0	0.3479980028519094	2.0		1.0	8.0	5.0	7.0		part_1
178		2.0				1.0	0.0							1.0	0.0	0.32704879177845214	1.0		0.0	3.0	4.0	2.0		part_1
179		2.0				1.0	1.0							3.0	182.0	0.32579291292586277	3.0		3.0	7.0	7.0	3.0		part_1
180		2.0				1.0	1.0							3.0	397.0	0.41650929116713087	3.0		4.0	1.0	8.0	6.0		part_1
181		2.0				1.0	0.0							1.0	414.0	0.3731294063150017	1.0		4.0	3.0	4.0	2.0		part_1
182		2.0				1.0	0.0							4.0	191.0	0.3944431347781574	4.0		3.0	2.0	3.0	1.0		part_1
183		2.0				1.0	1.0							4.0	72.0	0.3732983213149055	4.0		1.0	8.0	5.0	7.0		part_1
184		2.0				1.0	0.0							1.0	32.0	0.43036880085173834	1.0		1.0	6.0	1.0	4.0		part_1
185		2.0				1.0	1.0							2.0	0.0	0.4206298454628268	2.0		0.0	5.0	6.0	8.0		part_1
186		2.0				1.0	1.0							3.0	82.0	0.3192106214632986	3.0		2.0	5.0	6.0	8.0		part_1
187		2.0				1.0	1.0							3.0	203.0	0.3645047733893989	3.0		3.0	7.0	7.0	3.0		part_1
188		2.0				2.0	1.0							4.0	219.0	0.5449495083889815	4.0		3.0	7.0	7.0	3.0		part_1
189		2.0				1.0	1.0							1.0	384.0	0.4798654703890861	1.0		4.0	1.0	8.0	6.0		part_1
190		2.0				1.0	1.0							3.0	196.0	0.4329025083889064	3.0		3.0	7.0	7.0	3.0		part_1
191		2.0				1.0	0.0							4.0	0.0	0.4461470817782356	4.0		0.0	4.0	2.0	5.0		part_1
192		2.0				1.0	0.0							2.0	93.0	0.3798133964628505	2.0		2.0	4.0	2.0	5.0		part_1
193		2.0				1.0	0.0							4.0	185.0	0.3785817492935166	4.0		3.0	2.0	3.0	1.0		part_1
194		2.0				1.0	1.0							1.0	0.0	0.46961897985147516	1.0		0.0	7.0	7.0	3.0		part_1
195		2.0				1.0	0.0							3.0	212.0	0.37975791192593533	3.0		3.0	2.0	3.0	1.0		part_1
196		2.0				1.0	1.0							4.0	115.0	0.39281819431471376	4.0		2.0	5.0	6.0	8.0		part_1
197		2.0				1.0	1.0							3.0	38.0	0.40439861924096476	3.0		1.0	8.0	5.0	7.0		part_1
198		2.0				1.0	0.0							3.0	55.0	0.44901592946325763	3.0		1.0	6.0	1.0	4.0		part_1
199		2.0				1.0	1.0							3.0	25.0	0.4617511952410496	3.0		1.0	8.0	5.0	7.0		part_1
200		3.0				1.0	1.0							2.0	69.0	0.4520485022412686	2.0		1.0	8.0	5.0	7.0		part_1
201		3.0				1.0	0.0							3.0	38.0	0.4304885218516574	3.0		1.0	6.0	1.0	4.0		part_1
202		3.0				1.0	1.0							1.0	26.0	0.3745917618521162	1.0		1.0	8.0	5.0	7.0		part_1
203		3.0				1.0	1.0							2.0	58.0	0.34142874792587463	2.0		1.0	8.0	5.0	7.0		part_1
204		3.0				1.0	1.0							4.0	405.0	0.3760472823892087	4.0		4.0	1.0	8.0	6.0		part_1
205		3.0				1.0	1.0							4.0	417.0	0.37537280331525835	4.0		4.0	1.0	8.0	6.0		part_1
206		3.0				1.0	0.0							1.0	0.0	0.37774059138882876	1.0		0.0	3.0	4.0	2.0		part_1
207		3.0				1.0	0.0							2.0	422.0	0.3885114497043105	2.0		4.0	3.0	4.0	2.0		part_1
208		3.0				1.0	0.0							3.0	58.0	0.3209889264630874	3.0		1.0	6.0	1.0	4.0		part_1
209		3.0				1.0	1.0							4.0	0.0	0.5133816513152851	4.0		0.0	8.0	5.0	7.0		part_1
210		3.0				1.0	0.0							4.0	56.0	0.5129236678517373	4.0		1.0	6.0	1.0	4.0		part_1
211		3.0				1.0	0.0							4.0	199.0	0.35769510592581355	4.0		3.0	2.0	3.0	1.0		part_1
212		3.0				1.0	1.0							4.0	80.0	0.4256298474633695	4.0		2.0	5.0	6.0	8.0		part_1
213		3.0				1.0	1.0							4.0	123.0	0.3925786967042768	4.0		2.0	5.0	6.0	8.0		part_1
214		3.0				1.0	1.0							4.0	0.0	0.3576812463893475	4.0		0.0	7.0	7.0	3.0		part_1
215		3.0				1.0	1.0							4.0	107.0	0.3920834074629056	4.0		2.0	5.0	6.0	8.0		part_1
216		3.0				1.0	0.0							1.0	0.0	0.5279642889258866	1.0		0.0	3.0	4.0	2.0		part_1
217		3.0				1.0	0.0							1.0	395.0	0.3592738183892834	1.0		4.0	3.0	4.0	2.0		part_1
218		3.0				1.0	1.0							1.0	72.0	0.3953148349260118	1.0		1.0	8.0	5.0	7.0		part_1
219		3.0				1.0	0.0							2.0	124.0	0.5302520593891131	2.0		2.0	4.0	2.0	5.0		part_1
220		3.0				1.0	1.0							1.0	0.0	0.35120404385179427	1.0		0.0	8.0	5.0	7.0		part_1
221		3.0				1.0	0.0							2.0	70.0	0.3505749247042331	2.0		1.0	6.0	1.0	4.0		part_1
222		3.0				1.0	1.0							3.0	115.0	0.4079228268519728	3.0		2.0	5.0	6.0	8.0		part_1
223		3.0				1.0	0.0							3.0	115.0	0.4193830327044452	3.0		2.0	4.0	2.0	5.0		part_1
224		3.0				1.0	0.0							4.0	0.0	0.42081593424109087	4.0		0.0	3.0	4.0	2.0		part_1
225		3.0				1.0	1.0							4.0	191.0	0.398239048925916	4.0		3.0	7.0	7.0	3.0		part_1
226		3.0				1.0	1.0							2.0	27.0	0.298244622463244	2.0		1.0	8.0	5.0	7.0		part_1
227		3.0				1.0	0.0							2.0	376.0	0.41135924592572337	2.0		4.0	3.0	4.0	2.0		part_1
228		3.0				1.0	1.0							3.0	212.0	0.33152060946349593	3.0		3.0	7.0	7.0	3.0		part_1
229		3.0				1.0	0.0							4.0	0.0	0.42407593331518	4.0		0.0	6.0	1.0	4.0		part_1
230		3.0				1.0	1.0							2.0	176.0	0.3342352488521101	2.0		3.0	7.0	7.0	3.0		part_1
231		3.0				1.0	0.0							2.0	189.0	0.42349830731518523	2.0		3.0	2.0	3.0	1.0		part_1
232		3.0				1.0	0.0							3.0	44.0	0.37963276231539567	3.0		1.0	6.0	1.0	4.0		part_1
233		3.0				1.0	0.0							4.0	0.0	0.8404461467043802	4.0		0.0	6.0	1.0	4.0		part_1
234		3.0				1.0	0.0							1.0	89.0	0.5616594043149234	1.0		2.0	4.0	2.0	5.0		part_1
235		3.0				1.0	1.0							3.0	105.0	0.4712778751672886	3.0		2.0	5.0	6.0	8.0		part_1
236		3.0				1.0	0.0							2.0	204.0	0.3155189783892638	2.0		3.0	2.0	3.0	1.0		part_1
237		3.0				1.0	1.0							2.0	376.0	0.3596606347782654	2.0		4.0	1.0	8.0	6.0		part_1
238		3.0				1.0	0.0							4.0	0.0	0.3815883962411135	4.0		0.0	2.0	3.0	1.0		part_1
239		3.0				1.0	1.0							1.0	113.0	0.393887982851993	1.0		2.0	5.0	6.0	8.0		part_1
240		3.0				1.0	1.0							1.0	189.0	0.40708522177828854	1.0		3.0	7.0	7.0	3.0		part_1
241		3.0				1.0	1.0							4.0	410.0	0.32914485270430305	4.0		4.0	1.0	8.0	6.0		part_1
242		3.0				1.0	0.0							4.0	104.0	0.4408733358518475	4.0		2.0	4.0	2.0	5.0		part_1
243		3.0				1.0	1.0							2.0	217.0	0.5875342328517945	2.0		3.0	7.0	7.0	3.0		part_1
244		3.0				1.0	0.0							1.0	111.0	0.42050074777853297	1.0		2.0	4.0	2.0	5.0		part_1
245		3.0				1.0	1.0							1.0	97.0	0.3978016069258956	1.0		2.0	5.0	6.0	8.0		part_1
246		3.0				1.0	0.0							4.0	74.0	0.4322334287785452	4.0		1.0	6.0	1.0	4.0		part_1
247		3.0				1.0	1.0							2.0	0.0	0.4328620763149047	2.0		0.0	8.0	5.0	7.0		part_1
248		3.0				1.0	1.0							1.0	217.0	0.4445192407779359	1.0		3.0	7.0	7.0	3.0		part_1
249		3.0				1.0	1.0							4.0	69.0	0.3991846652411368	4.0		1.0	8.0	5.0	7.0		part_1
250		3.0				1.0	0.0							1.0	412.0	0.37740937438911715	1.0		4.0	3.0	4.0	2.0		part_1
251		3.0				1.0	0.0							1.0	381.0	0.40217733738927564	1.0		4.0	3.0	4.0	2.0		part_1
252		3.0				2.0	1.0							4.0	394.0	0.6164470619255553	4.0		4.0	1.0	8.0	6.0		part_1
253		3.0				1.0	0.0							4.0	100.0	0.4480634067781466	4.0		2.0	4.0	2.0	5.0		part_1
254		3.0				1.0	1.0							4.0	413.0	0.3593709993892844	4.0		4.0	1.0	8.0	6.0		part_1
255		3.0				1.0	1.0							2.0	75.0	0.4824493931669167	2.0		1.0	8.0	5.0	7.0		part_1
256		3.0				1.0	0.0							2.0	37.0	0.42789760277810274	2.0		1.0	6.0	1.0	4.0		part_1
257		3.0				1.0	1.0							4.0	26.0	0.4386764312412197	4.0		1.0	8.0	5.0	7.0		part_1
258		3.0				1.0	1.0							1.0	94.0	0.49540224731526905	1.0		2.0	5.0	6.0	8.0		part_1
259		3.0				1.0	0.0							3.0	220.0	0.44063217431494195	3.0		3.0	2.0	3.0	1.0		part_1
260		3.0				1.0	0.0							2.0	0.0	0.46415602270417367	2.0		0.0	2.0	3.0	1.0		part_1
261		3.0				1.0	1.0							2.0	403.0	0.32809239577818516	2.0		4.0	1.0	8.0	6.0		part_1
262		3.0				1.0	1.0							4.0	204.0	0.4972353653888604	4.0		3.0	7.0	7.0	3.0		part_1
263		3.0				1.0	0.0							1.0	101.0	0.4301948648517282	1.0		2.0	4.0	2.0	5.0		part_1
264		3.0				1.0	0.0							3.0	205.0	0.45456105446328365	3.0		3.0	2.0	3.0	1.0		part_1
265		3.0				1.0	1.0							2.0	37.0	0.3303775832409883	2.0		1.0	8.0	5.0	7.0		part_1
266		3.0				1.0	0.0							2.0	62.0	0.4433989459262193	2.0		1.0	6.0	1.0	4.0		part_1
267		3.0				1.0	0.0							1.0	70.0	0.43265898485196885	1.0		1.0	6.0	1.0	4.0		part_1
268		3.0				1.0	1.0							1.0	204.0	0.5242884583149134	1.0		3.0	7.0	7.0	3.0		part_1
269		3.0				1.0	0.0							4.0	220.0	0.4796712334627955	4.0		3.0	2.0	3.0	1.0		part_1
270		3.0				1.0	0.0							2.0	84.0	0.3560456418517788	2.0		2.0	4.0	2.0	5.0		part_1
271		3.0				1.0	0.0							4.0	113.0	0.49233525370436837	4.0		2.0	4.0	2.0	5.0		part_1
272		3.0				1.0	1.0							4.0	381.0	0.47026052892579173	4.0		4.0	1.0	8.0	6.0		part_1
273		3.0				1.0	1.0							3.0	99.0	0.4809638033889314	3.0		2.0	5.0	6.0	8.0		part_1
274		3.0				1.0	0.0							3.0	0.0	0.4473257959998591	3.0		0.0	3.0	4.0	2.0		part_1
275		3.0				1.0	0.0							4.0	32.0	0.5265197378521407	4.0		1.0	6.0	1.0	4.0		part_1
276		3.0				1.0	1.0							4.0	188.0	0.6750658524633764	4.0		3.0	7.0	7.0	3.0		part_1
277		3.0				1.0	1.0							3.0	218.0	0.5720656908520141	3.0		3.0	7.0	7.0	3.0		part_1
278		3.0				1.0	0.0							3.0	403.0	0.6648521493893895	3.0		4.0	3.0	4.0	2.0		part_1
279		3.0				1.0	1.0							2.0	0.0	0.5530314668517349	2.0		0.0	5.0	6.0	8.0		part_1
280		3.0				1.0	0.0							4.0	391.0	0.754158606926012	4.0		4.0	3.0	4.0	2.0		part_1
281		3.0				1.0	1.0							4.0	0.0	0.4739465519260193	4.0		0.0	5.0	6.0	8.0		part_1
282		3.0				1.0	1.0							2.0	219.0	0.5881227704630874	2.0		3.0	7.0	7.0	3.0		part_1
283		3.0				1.0	1.0							4.0	93.0	0.9254352067782747	4.0		2.0	5.0	6.0	8.0		part_1
284		3.0				1.0	1.0							2.0	423.0	0.40955706877821285	2.0		4.0	1.0	8.0	6.0		part_1
285		3.0				1.0	0.0							3.0	399.0	0.5773059648518029	3.0		4.0	3.0	4.0	2.0		part_1
286		3.0				1.0	0.0							2.0	0.0	0.375133984778131	2.0		0.0	4.0	2.0	5.0		part_1
287		3.0				1.0	0.0							4.0	0.0	0.6345127781669362	4.0		0.0	3.0	4.0	2.0		part_1
288		3.0				1.0	1.0							3.0	0.0	0.37688978838923504	3.0		0.0	5.0	6.0	8.0		part_1
289		3.0				1.0	1.0							4.0	40.0	0.5462721589260582	4.0		1.0	8.0	5.0	7.0		part_1
290		3.0				1.0	1.0							4.0	69.0	0.49015620338923327	4.0		1.0	8.0	5.0	7.0		part_1
291		3.0				1.0	0.0							1.0	394.0	0.49048296238925104	1.0		4.0	3.0	4.0	2.0		part_1
292		3.0				1.0	0.0							4.0	194.0	0.5591163122408034	4.0		3.0	2.0	3.0	1.0		part_1
293		3.0				1.0	0.0							4.0	25.0	0.43653091238911657	4.0		1.0	6.0	1.0	4.0		part_1
294		3.0				2.0	1.0							3.0	381.0	0.46987449085190747	3.0		4.0	1.0	8.0	6.0		part_1
295		3.0				1.0	1.0							3.0	178.0	0.5269434118517893	3.0		3.0	7.0	7.0	3.0		part_1
296		3.0				1.0	1.0							2.0	199.0	0.33710327277822216	2.0		3.0	7.0	7.0	3.0		part_1
297		3.0				1.0	0.0							3.0	423.0	0.32612911185196936	3.0		4.0	3.0	4.0	2.0		part_1
298		3.0				1.0	1.0							1.0	67.0	0.5853043613892623	1.0		1.0	8.0	5.0	7.0		part_1
299		3.0				1.0	1.0							4.0	104.0	0.4520699294635051	4.0		2.0	5.0	6.0	8.0		part_1
300		4.0				1.0	1.0							3.0	82.0	0.4436173257781775	3.0		2.0	5.0	6.0	8.0		part_1
301		4.0				1.0	0.0							1.0	114.0	0.4881068088520806	1.0		2.0	4.0	2.0	5.0		part_1
302		4.0				1.0	1.0							1.0	382.0	0.45490600699986317	1.0		4.0	1.0	8.0	6.0		part_1
303		4.0				1.0	1.0							3.0	0.0	0.37597941546300717	3.0		0.0	8.0	5.0	7.0		part_1
304		4.0				1.0	0.0							2.0	182.0	0.37742854392627123	2.0		3.0	2.0	3.0	1.0		part_1
305		4.0				1.0	1.0							1.0	179.0	0.5483100982405631	1.0		3.0	7.0	7.0	3.0		part_1
306		4.0				1.0	1.0							3.0	115.0	0.40166404538922507	3.0		2.0	5.0	6.0	8.0		part_1
307		4.0				1.0	0.0							3.0	75.0	0.3905333641669131	3.0		2.0	4.0	2.0	5.0		part_1
308		4.0				1.0	1.0							4.0	46.0	0.43493923577807436	4.0		1.0	8.0	5.0	7.0		part_1
309		4.0				1.0	1.0							3.0	0.0	0.3238777173150993	3.0		0.0	1.0	8.0	6.0		part_1
310		4.0				1.0	1.0							4.0	212.0	0.42541736485190995	4.0		3.0	7.0	7.0	3.0		part_1
311		4.0				1.0	0.0							2.0	376.0	0.3488456152413164	2.0		4.0	3.0	4.0	2.0		part_1
312		4.0				1.0	1.0							2.0	411.0	0.3608895563152146	2.0		4.0	1.0	8.0	6.0		part_1
313		4.0				1.0	0.0							1.0	382.0	0.4396144474631001	1.0		4.0	3.0	4.0	2.0		part_1
314		4.0				1.0	1.0							2.0	86.0	0.4515379623890112	2.0		2.0	5.0	6.0	8.0		part_1
315		4.0				1.0	0.0							4.0	176.0	0.43946405724091164	4.0		3.0	2.0	3.0	1.0		part_1
316		4.0				1.0	0.0							4.0	423.0	0.38427219370396415	4.0		4.0	3.0	4.0	2.0		part_1
317		4.0				1.0	1.0							1.0	378.0	0.4293537493149415	1.0		4.0	1.0	8.0	6.0		part_1
318		4.0				1.0	1.0							3.0	62.0	0.41996320377802476	3.0		1.0	8.0	5.0	7.0		part_1
319		4.0				1.0	1.0							1.0	392.0	0.4529139729997951	1.0		4.0	1.0	8.0	6.0		part_1
320		4.0				1.0	1.0							1.0	43.0	0.4540938712411844	1.0		1.0	8.0	5.0	7.0		part_1
321		4.0				1.0	1.0							3.0	89.0	0.43049055177834816	3.0		2.0	5.0	6.0	8.0		part_1
322		4.0				1.0	0.0							3.0	94.0	0.4317628637782036	3.0		2.0	4.0	2.0	5.0		part_1
323		4.0				1.0	0.0							2.0	38.0	0.4101427664631956	2.0		1.0	6.0	1.0	4.0		part_1
324		4.0				1.0	0.0							1.0	32.0	0.47787068246316267	1.0		1.0	6.0	1.0	4.0		part_1
325		4.0				1.0	1.0							4.0	221.0	0.48929861485157744	4.0		3.0	7.0	7.0	3.0		part_1
326		4.0				1.0	1.0							2.0	100.0	0.46751552199975777	2.0		2.0	5.0	6.0	8.0		part_1
327		4.0				1.0	1.0							1.0	381.0	0.48054519199968126	1.0		4.0	1.0	8.0	6.0		part_1
328		4.0				1.0	0.0							1.0	178.0	0.44831556570443354	1.0		3.0	2.0	3.0	1.0		part_1
329		4.0				1.0	0.0							3.0	75.0	0.36811075216701283	3.0		1.0	6.0	1.0	4.0		part_1
330		4.0				1.0	1.0							3.0	0.0	0.3800998477786379	3.0		0.0	8.0	5.0	7.0		part_1
331		4.0				1.0	1.0							1.0	0.0	0.33721786538899323	1.0		0.0	7.0	7.0	3.0		part_1
332		4.0				1.0	1.0							2.0	0.0	0.3926984469258059	2.0		0.0	5.0	6.0	8.0		part_1
333		4.0				1.0	1.0							2.0	0.0	0.39355587792624647	2.0		0.0	1.0	8.0	6.0		part_1
334		4.0				1.0	0.0							4.0	0.0	0.5068867507784489	4.0		0.0	2.0	3.0	1.0		part_1
335		4.0				1.0	0.0							2.0	0.0	0.3151569604629003	2.0		0.0	6.0	1.0	4.0		part_1
336		4.0				1.0	0.0							3.0	179.0	0.5644765204633586	3.0		3.0	2.0	3.0	1.0		part_1
337		4.0				1.0	0.0							1.0	402.0	0.6665865483892048	1.0		4.0	3.0	4.0	2.0		part_1
338		4.0				1.0	1.0							2.0	211.0	0.34106183170433724	2.0		3.0	7.0	7.0	3.0		part_1
339		4.0				1.0	1.0							1.0	32.0	0.39614949285214607	1.0		1.0	8.0	5.0	7.0		part_1
340		4.0				1.0	0.0							4.0	221.0	0.7024792988518129	4.0		3.0	2.0	3.0	1.0		part_1
341		4.0				1.0	1.0							3.0	52.0	0.41897653438900306	3.0		1.0	8.0	5.0	7.0		part_1
342		4.0				1.0	0.0							2.0	67.0	0.2972493321667571	2.0		1.0	6.0	1.0	4.0		part_1
343		4.0				1.0	1.0							1.0	55.0	0.37706988924082907	1.0		1.0	8.0	5.0	7.0		part_1
344		4.0				1.0	1.0							2.0	111.0	0.43340900477824107	2.0		2.0	5.0	6.0	8.0		part_1
345		4.0				1.0	0.0							2.0	94.0	0.38889222253692424	2.0		2.0	4.0	2.0	5.0		part_1
346		4.0				1.0	0.0							4.0	58.0	0.8493784012412107	4.0		1.0	6.0	1.0	4.0		part_1
347		4.0				1.0	0.0							4.0	99.0	0.39097163738915697	4.0		2.0	4.0	2.0	5.0		part_1
348		4.0				1.0	1.0							1.0	101.0	0.5136966813888648	1.0		2.0	5.0	6.0	8.0		part_1
349		4.0				1.0	0.0							4.0	107.0	0.4030072909258706	4.0		2.0	4.0	2.0	5.0		part_1
350		4.0				1.0	0.0							2.0	82.0	0.32378480185161607	2.0		2.0	4.0	2.0	5.0		part_1
351		4.0				1.0	1.0							1.0	421.0	0.5041899539996848	1.0		4.0	1.0	8.0	6.0		part_1
352		4.0				1.0	0.0							2.0	405.0	0.5159619213150108	2.0		4.0	3.0	4.0	2.0		part_1
353		4.0				1.0	0.0							1.0	0.0	0.3818771054629906	1.0		0.0	6.0	1.0	4.0		part_1
354		4.0				1.0	0.0							3.0	115.0	0.33755329838913894	3.0		2.0	4.0	2.0	5.0		part_1
355		4.0				1.0	1.0							3.0	70.0	0.4382819721672604	3.0		1.0	8.0	5.0	7.0		part_1
356		4.0				1.0	0.0							2.0	0.0	0.3721768379259629	2.0		0.0	2.0	3.0	1.0		part_1
357		4.0				2.0	1.0							4.0	0.0	0.4637968762408491	4.0		0.0	5.0	6.0	8.0		part_1
358		4.0				1.0	1.0							1.0	29.0	0.4201932158521231	1.0		1.0	8.0	5.0	7.0		part_1
359		4.0				1.0	0.0							1.0	62.0	0.4306360697041782	1.0		1.0	6.0	1.0	4.0		part_1
360		4.0				1.0	0.0							2.0	52.0	0.2960542838522997	2.0		1.0	6.0	1.0	4.0		part_1
361		4.0				1.0	1.0							3.0	176.0	0.3294774664632314	3.0		3.0	7.0	7.0	3.0		part_1
362		4.0				1.0	0.0							3.0	209.0	0.3306257353892761	3.0		3.0	2.0	3.0	1.0		part_1
363		4.0				1.0	1.0							3.0	423.0	0.3305335834629659	3.0		4.0	1.0	8.0	6.0		part_1
364		4.0				1.0	1.0							2.0	0.0	0.2753333309260597	2.0		0.0	7.0	7.0	3.0		part_1
365		4.0				1.0	0.0							2.0	26.0	0.32193438424110354	2.0		1.0	6.0	1.0	4.0		part_1
366		4.0				1.0	0.0							3.0	80.0	0.4464317267779734	3.0		2.0	4.0	2.0	5.0		part_1
367		4.0				1.0	0.0							4.0	0.0	0.5822660408521187	4.0		0.0	6.0	1.0	4.0		part_1
368		4.0				1.0	0.0							2.0	0.0	0.38079185546348526	2.0		0.0	4.0	2.0	5.0		part_1
369		4.0				1.0	0.0							4.0	211.0	0.5704717728522155	4.0		3.0	2.0	3.0	1.0		part_1
370		4.0				1.0	0.0							3.0	401.0	0.5145031023153024	3.0		4.0	3.0	4.0	2.0		part_1
371		4.0				1.0	1.0							2.0	32.0	0.39346964716696675	2.0		1.0	8.0	5.0	7.0		part_1
372		4.0				1.0	1.0							1.0	0.0	0.33793274231538817	1.0		0.0	1.0	8.0	6.0		part_1
373		4.0				1.0	0.0							1.0	42.0	0.39299828277808047	1.0		1.0	6.0	1.0	4.0		part_1
374		4.0				1.0	0.0							4.0	121.0	0.48492815800000244	4.0		2.0	4.0	2.0	5.0		part_1
375		4.0				1.0	1.0							2.0	0.0	0.42944985146323233	2.0		0.0	7.0	7.0	3.0		part_1
376		4.0				1.0	1.0							3.0	113.0	0.4967148014634404	3.0		2.0	5.0	6.0	8.0		part_1
377		4.0				1.0	1.0							4.0	399.0	0.43931588438908875	4.0		4.0	1.0	8.0	6.0		part_1
378		4.0				1.0	0.0							4.0	0.0	0.4634332393152363	4.0		0.0	6.0	1.0	4.0		part_1
379		4.0				1.0	1.0							3.0	414.0	0.49663075670423495	3.0		4.0	1.0	8.0	6.0		part_1
380		4.0				1.0	1.0							4.0	0.0	0.39719015392574875	4.0		0.0	7.0	7.0	3.0		part_1
381		4.0				2.0	1.0							3.0	99.0	0.6119546133149925	3.0		2.0	5.0	6.0	8.0		part_1
382		4.0				1.0	1.0							1.0	106.0	0.5914759977044923	1.0		2.0	5.0	6.0	8.0		part_1
383		4.0				1.0	0.0							3.0	54.0	0.7593165110001792	3.0		1.0	6.0	1.0	4.0		part_1
384		4.0				1.0	1.0							2.0	391.0	0.534093945926088	2.0		4.0	1.0	8.0	6.0		part_1
385		4.0				1.0	1.0							3.0	58.0	0.6240020953155181	3.0		1.0	8.0	5.0	7.0		part_1
386		4.0				2.0	0.0							4.0	46.0	0.3554368407039874	4.0		1.0	6.0	1.0	4.0		part_1
387		4.0				1.0	1.0							2.0	407.0	0.3897828629997093	2.0		4.0	1.0	8.0	6.0		part_1
388		4.0				1.0	1.0							3.0	0.0	0.39213219085195306	3.0		0.0	7.0	7.0	3.0		part_1
389		4.0				1.0	1.0							2.0	0.0	0.415109071704137	2.0		0.0	1.0	8.0	6.0		part_1
390		4.0				1.0	0.0							4.0	213.0	0.426039571389083	4.0		3.0	2.0	3.0	1.0		part_1
391		4.0				1.0	1.0							2.0	44.0	0.3696006074583238	2.0		1.0	8.0	5.0	7.0		part_1
392		4.0				1.0	1.0							1.0	124.0	0.482755040703978	1.0		2.0	5.0	6.0	8.0		part_1
393		4.0				1.0	0.0							4.0	97.0	0.44996451338874976	4.0		2.0	4.0	2.0	5.0		part_1
394		4.0				1.0	0.0							2.0	99.0	0.3262155005368186	2.0		2.0	4.0	2.0	5.0		part_1
395		4.0				1.0	1.0							3.0	412.0	0.5299048917781874	3.0		4.0	1.0	8.0	6.0		part_1
396		4.0				1.0	0.0							2.0	219.0	0.34071768746298403	2.0		3.0	2.0	3.0	1.0		part_1
397		4.0				1.0	0.0							2.0	86.0	0.5550923728515045	2.0		2.0	4.0	2.0	5.0		part_1
398		4.0				1.0	0.0							3.0	0.0	0.45198415231516265	3.0		0.0	4.0	2.0	5.0		part_1
399		4.0				1.0	0.0							2.0	212.0	0.32949631292603954	2.0		3.0	2.0	3.0	1.0		part_1
0	4.0	1.0			250.0	0.0	1.0							5.0	0.0	0.0	0.0	250.0	3.0	7.0	7.0	3.0	1.0	part_2
1	1.0	1.0			300.0	0.0	1.0							5.0	0.0	0.40400869466020595	5.0	250.0	1.0	8.0	5.0	7.0	0.0	part_2
2	1.0	1.0			300.0	0.0	0.0							5.0	0.0	0.3375530687603714	5.0	250.0	4.0	3.0	4.0	2.0	0.0	part_2
3	1.0	1.0			300.0	0.0	0.0							6.0	0.0	0.2934124056600922	6.0	250.0	2.0	4.0	2.0	5.0	0.0	part_2
4	3.0	1.0			300.0	0.0	1.0							5.0	0.0	0.2945798601099341	5.0	250.0	3.0	7.0	7.0	3.0	1.0	part_2
5	1.0	1.0			250.0	0.0	1.0							5.0	0.0	0.40825765710997075	5.0	250.0	2.0	5.0	6.0	8.0	0.0	part_2
6	3.0	1.0			250.0	0.0	1.0							6.0	0.0	0.3188376412203979	6.0	250.0	3.0	7.0	7.0	3.0	1.0	part_2
7	1.0	1.0			250.0	0.0	0.0							5.0	0.0	0.3298782423303237	5.0	200.0	3.0	2.0	3.0	1.0	0.0	part_2
8	3.0	1.0			250.0	0.0	1.0							5.0	0.0	0.3978906674396967	5.0	200.0	3.0	7.0	7.0	3.0	1.0	part_2
9	3.0	1.0			200.0	0.0	1.0							6.0	0.0	0.3093333072201858	6.0	200.0	2.0	5.0	6.0	8.0	1.0	part_2
10	3.0	1.0			200.0	0.0	1.0							6.0	0.0	0.36516775066002083	6.0	150.0	4.0	1.0	8.0	6.0	1.0	part_2
11	1.0	1.0			200.0	0.0	0.0							5.0	0.0	0.4335102346599342	5.0	100.0	1.0	6.0	1.0	4.0	0.0	part_2
12	1.0	1.0			200.0	0.0	0.0							6.0	0.0	0.42429752011003075	6.0	100.0	4.0	3.0	4.0	2.0	0.0	part_2
13	4.0	1.0			200.0	0.0	1.0							6.0	0.0	0.0	0.0	100.0	2.0	5.0	6.0	8.0	1.0	part_2
14	1.0	1.0			200.0	0.0	0.0							5.0	0.0	0.4592024284402214	5.0	150.0	1.0	6.0	1.0	4.0	0.0	part_2
15	1.0	1.0			200.0	0.0	0.0							5.0	0.0	0.4032972105501358	5.0	150.0	3.0	2.0	3.0	1.0	0.0	part_2
16	3.0	1.0			200.0	0.0	1.0							6.0	0.0	0.35976606622034524	6.0	150.0	1.0	8.0	5.0	7.0	1.0	part_2
17	4.0	1.0			200.0	0.0	1.0							5.0	0.0	0.0	0.0	100.0	4.0	1.0	8.0	6.0	1.0	part_2
18	1.0	1.0			250.0	0.0	0.0							6.0	0.0	0.4060027276600522	6.0	100.0	2.0	4.0	2.0	5.0	0.0	part_2
19	4.0	1.0			250.0	0.0	1.0							6.0	0.0	0.0	0.0	100.0	2.0	5.0	6.0	8.0	1.0	part_2
20	1.0	1.0			250.0	0.0	1.0							6.0	0.0	0.6005962232202364	6.0	150.0	2.0	5.0	6.0	8.0	0.0	part_2
21	3.0	1.0			250.0	0.0	1.0							5.0	0.0	0.46495483755006717	5.0	150.0	3.0	7.0	7.0	3.0	1.0	part_2
22	1.0	1.0			200.0	0.0	1.0							5.0	0.0	0.5553684664400862	5.0	150.0	3.0	7.0	7.0	3.0	0.0	part_2
23	4.0	1.0			200.0	0.0	1.0							6.0	0.0	0.0	0.0	150.0	1.0	8.0	5.0	7.0	1.0	part_2
24	4.0	1.0			200.0	0.0	1.0							6.0	0.0	0.0	0.0	200.0	1.0	8.0	5.0	7.0	1.0	part_2
25	1.0	1.0			200.0	0.0	0.0							6.0	0.0	0.4118191413299428	6.0	250.0	4.0	3.0	4.0	2.0	0.0	part_2
26	4.0	1.0			200.0	0.0	1.0							5.0	0.0	0.0	0.0	250.0	4.0	1.0	8.0	6.0	1.0	part_2
27	3.0	1.0			250.0	0.0	1.0							6.0	0.0	0.3919709736596815	6.0	250.0	4.0	1.0	8.0	6.0	1.0	part_2
28	1.0	1.0			250.0	0.0	0.0							6.0	0.0	0.4025940092201381	6.0	200.0	1.0	6.0	1.0	4.0	0.0	part_2
29	1.0	1.0			250.0	0.0	0.0							5.0	0.0	0.5400091579999753	5.0	200.0	4.0	3.0	4.0	2.0	0.0	part_2
30	1.0	1.0			250.0	0.0	1.0							6.0	0.0	0.31561569333007355	6.0	200.0	3.0	7.0	7.0	3.0	0.0	part_2
31	1.0	1.0			250.0	0.0	1.0							5.0	0.0	0.36200745799988	5.0	200.0	2.0	5.0	6.0	8.0	0.0	part_2
32	1.0	1.0			250.0	0.0	0.0							5.0	0.0	0.48657815733031384	5.0	200.0	2.0	4.0	2.0	5.0	0.0	part_2
33	1.0	1.0			250.0	0.0	0.0							6.0	0.0	0.45408992955026406	6.0	200.0	3.0	2.0	3.0	1.0	0.0	part_2
34	1.0	1.0			250.0	0.0	1.0							5.0	0.0	0.3863956519999192	5.0	200.0	4.0	1.0	8.0	6.0	0.0	part_2
35	1.0	1.0			250.0	0.0	0.0							6.0	0.0	0.3880708513297577	6.0	200.0	4.0	3.0	4.0	2.0	0.0	part_2
36	3.0	2.0			250.0	0.0	1.0							6.0	0.0	0.43070920944001045	6.0	200.0	1.0	8.0	5.0	7.0	1.0	part_2
37	1.0	2.0			250.0	0.0	1.0							5.0	0.0	0.3758499096597916	5.0	150.0	2.0	5.0	6.0	8.0	0.0	part_2
38	1.0	2.0			250.0	0.0	0.0							6.0	0.0	0.3985887856597401	6.0	150.0	3.0	2.0	3.0	1.0	0.0	part_2
39	1.0	2.0			250.0	0.0	0.0							6.0	0.0	0.3656259213298654	6.0	150.0	3.0	2.0	3.0	1.0	0.0	part_2
40	1.0	2.0			250.0	0.0	1.0							6.0	0.0	0.34540944533000584	6.0	150.0	4.0	1.0	8.0	6.0	0.0	part_2
41	1.0	2.0			250.0	0.0	0.0							6.0	0.0	0.41243162488035523	6.0	150.0	1.0	6.0	1.0	4.0	0.0	part_2
42	3.0	2.0			250.0	0.0	1.0							6.0	0.0	0.3476185859999532	6.0	150.0	3.0	7.0	7.0	3.0	1.0	part_2
43	4.0	2.0			250.0	0.0	1.0							5.0	0.0	0.0	0.0	100.0	4.0	1.0	8.0	6.0	1.0	part_2
44	3.0	2.0			300.0	0.0	1.0							5.0	0.0	0.4828594217697173	5.0	100.0	2.0	5.0	6.0	8.0	1.0	part_2
45	1.0	2.0			250.0	0.0	0.0							6.0	0.0	0.5062678589902134	6.0	100.0	3.0	2.0	3.0	1.0	0.0	part_2
46	4.0	2.0			250.0	0.0	1.0							6.0	0.0	0.0	0.0	100.0	3.0	7.0	7.0	3.0	1.0	part_2
47	4.0	2.0			250.0	0.0	1.0							6.0	0.0	0.0	0.0	150.0	3.0	7.0	7.0	3.0	1.0	part_2
48	1.0	2.0			250.0	0.0	0.0							5.0	0.0	0.36195559533007327	5.0	200.0	3.0	2.0	3.0	1.0	0.0	part_2
49	3.0	2.0			250.0	0.0	1.0							6.0	0.0	0.3407567019899034	6.0	200.0	3.0	7.0	7.0	3.0	1.0	part_2
50	1.0	2.0			250.0	0.0	1.0							6.0	0.0	0.3972420711097584	6.0	150.0	1.0	8.0	5.0	7.0	0.0	part_2
51	1.0	2.0			250.0	0.0	0.0							6.0	0.0	0.7149992057702548	6.0	150.0	1.0	6.0	1.0	4.0	0.0	part_2
52	1.0	2.0			250.0	0.0	1.0							5.0	0.0	0.33279119787994205	5.0	150.0	1.0	8.0	5.0	7.0	0.0	part_2
53	1.0	2.0			250.0	0.0	0.0							5.0	0.0	0.3659168166600466	5.0	150.0	3.0	2.0	3.0	1.0	0.0	part_2
54	1.0	2.0			250.0	0.0	0.0							5.0	0.0	0.39095041510972806	5.0	150.0	2.0	4.0	2.0	5.0	0.0	part_2
55	3.0	2.0			250.0	0.0	1.0							5.0	0.0	0.346809621439661	5.0	150.0	3.0	7.0	7.0	3.0	1.0	part_2
56	1.0	2.0			200.0	0.0	0.0							6.0	0.0	0.39253093266006545	6.0	150.0	3.0	2.0	3.0	1.0	0.0	part_2
57	3.0	2.0			200.0	0.0	1.0							5.0	0.0	0.3471820227796343	5.0	150.0	1.0	8.0	5.0	7.0	1.0	part_2
58	3.0	2.0			150.0	0.0	1.0							6.0	0.0	0.3251466284395974	6.0	150.0	1.0	8.0	5.0	7.0	1.0	part_2
59	1.0	2.0			150.0	0.0	0.0							5.0	0.0	0.5067854592198273	5.0	100.0	3.0	2.0	3.0	1.0	0.0	part_2
60	4.0	2.0			150.0	0.0	1.0							6.0	0.0	0.0	0.0	100.0	4.0	1.0	8.0	6.0	1.0	part_2
61	1.0	2.0			150.0	0.0	0.0							6.0	0.0	0.5204398461096389	6.0	150.0	4.0	3.0	4.0	2.0	0.0	part_2
62	3.0	2.0			150.0	0.0	1.0							6.0	0.0	0.38598462555046353	6.0	150.0	2.0	5.0	6.0	8.0	1.0	part_2
63	1.0	2.0			150.0	0.0	0.0							5.0	0.0	0.3636392812200029	5.0	100.0	3.0	2.0	3.0	1.0	0.0	part_2
64	1.0	2.0			150.0	0.0	0.0							5.0	0.0	0.500672691550335	5.0	100.0	2.0	4.0	2.0	5.0	0.0	part_2
65	1.0	2.0			150.0	0.0	0.0							5.0	0.0	0.5003285434395366	5.0	100.0	1.0	6.0	1.0	4.0	0.0	part_2
66	1.0	2.0			150.0	0.0	1.0							5.0	0.0	0.4341572809998979	5.0	100.0	1.0	8.0	5.0	7.0	0.0	part_2
67	1.0	2.0			150.0	0.0	0.0							5.0	0.0	0.39978657233041304	5.0	100.0	1.0	6.0	1.0	4.0	0.0	part_2
68	3.0	2.0			150.0	0.0	1.0							5.0	0.0	0.32222414333000415	5.0	100.0	3.0	7.0	7.0	3.0	1.0	part_2
69	4.0	2.0			100.0	0.0	1.0							5.0	0.0	0.0	0.0	100.0	1.0	8.0	5.0	7.0	1.0	part_2
70	1.0	2.0			150.0	0.0	0.0							6.0	0.0	0.4926391376598076	6.0	100.0	2.0	4.0	2.0	5.0	0.0	part_2
71	4.0	2.0			150.0	0.0	1.0							6.0	0.0	0.0	0.0	100.0	2.0	5.0	6.0	8.0	1.0	part_2
72	4.0	3.0			150.0	0.0	1.0							6.0	0.0	0.0	0.0	150.0	1.0	8.0	5.0	7.0	1.0	part_2
73	1.0	3.0			150.0	0.0	0.0							5.0	0.0	0.37094402343973343	5.0	200.0	2.0	4.0	2.0	5.0	0.0	part_2
74	1.0	3.0			150.0	0.0	0.0							5.0	0.0	0.36072391866036924	5.0	200.0	2.0	4.0	2.0	5.0	0.0	part_2
75	1.0	3.0			150.0	0.0	1.0							5.0	0.0	0.30485256599968125	5.0	200.0	3.0	7.0	7.0	3.0	0.0	part_2
76	3.0	3.0			150.0	0.0	1.0							5.0	0.0	0.33798691655056246	5.0	200.0	1.0	8.0	5.0	7.0	1.0	part_2
77	1.0	3.0			100.0	0.0	0.0							5.0	0.0	0.5192399226598354	5.0	200.0	4.0	3.0	4.0	2.0	0.0	part_2
78	3.0	3.0			100.0	0.0	1.0							5.0	0.0	0.3181084228799591	5.0	200.0	1.0	8.0	5.0	7.0	1.0	part_2
79	4.0	3.0			50.0	0.0	1.0							5.0	0.0	0.0	0.0	200.0	4.0	1.0	8.0	6.0	1.0	part_2
80	1.0	3.0			100.0	0.0	0.0							5.0	0.0	0.48790299332995346	5.0	200.0	1.0	6.0	1.0	4.0	0.0	part_2
81	3.0	3.0			100.0	0.0	1.0							5.0	0.0	0.34400021055034813	5.0	200.0	2.0	5.0	6.0	8.0	1.0	part_2
82	3.0	3.0			50.0	0.0	1.0							6.0	0.0	0.4109163835501022	6.0	200.0	3.0	7.0	7.0	3.0	1.0	part_2
83	4.0	3.0			50.0	0.0	1.0							6.0	0.0	0.0	0.0	150.0	2.0	5.0	6.0	8.0	1.0	part_2
84	1.0	3.0			50.0	0.0	1.0							6.0	0.0	0.49315913922009713	6.0	200.0	3.0	7.0	7.0	3.0	0.0	part_2
85	1.0	3.0			50.0	0.0	1.0							5.0	0.0	0.42430817110971475	5.0	200.0	4.0	1.0	8.0	6.0	0.0	part_2
86	4.0	3.0			50.0	0.0	1.0							6.0	0.0	0.0	0.0	200.0	1.0	8.0	5.0	7.0	1.0	part_2
87	3.0	3.0			50.0	0.0	1.0							6.0	0.0	0.40430460155039327	6.0	250.0	4.0	1.0	8.0	6.0	1.0	part_2
88	4.0	3.0			50.0	0.0	1.0							6.0	0.0	0.0	0.0	200.0	2.0	5.0	6.0	8.0	1.0	part_2
89	1.0	3.0			50.0	0.0	0.0							6.0	0.0	0.4956636981100928	6.0	250.0	1.0	6.0	1.0	4.0	0.0	part_2
90	1.0	3.0			50.0	0.0	0.0							6.0	0.0	0.35015098022040547	6.0	250.0	1.0	6.0	1.0	4.0	0.0	part_2
91	1.0	3.0			50.0	0.0	0.0							5.0	0.0	0.42935850844014567	5.0	250.0	2.0	4.0	2.0	5.0	0.0	part_2
92	1.0	3.0			50.0	0.0	0.0							6.0	0.0	0.3745377166601429	6.0	250.0	3.0	2.0	3.0	1.0	0.0	part_2
93	1.0	3.0			50.0	0.0	0.0							5.0	0.0	0.4424636507797004	5.0	250.0	4.0	3.0	4.0	2.0	0.0	part_2
94	4.0	3.0			50.0	0.0	1.0							5.0	0.0	0.0	0.0	250.0	4.0	1.0	8.0	6.0	1.0	part_2
95	1.0	3.0			100.0	0.0	1.0							6.0	0.0	0.4679200001096433	6.0	250.0	1.0	8.0	5.0	7.0	0.0	part_2
96	1.0	3.0			100.0	0.0	0.0							6.0	0.0	0.4677304033298242	6.0	250.0	3.0	2.0	3.0	1.0	0.0	part_2
97	1.0	3.0			100.0	0.0	0.0							6.0	0.0	0.5709603197701654	6.0	250.0	4.0	3.0	4.0	2.0	0.0	part_2
98	4.0	3.0			100.0	0.0	1.0							6.0	0.0	0.0	0.0	250.0	4.0	1.0	8.0	6.0	1.0	part_2
99	1.0	3.0			100.0	0.0	0.0							6.0	0.0	0.5492117660000986	6.0	300.0	1.0	6.0	1.0	4.0	0.0	part_2
100	4.0	3.0			100.0	0.0	1.0							5.0	0.0	0.0	0.0	300.0	4.0	1.0	8.0	6.0	1.0	part_2
101	1.0	3.0			150.0	0.0	0.0							5.0	0.0	0.5630169030000616	5.0	300.0	1.0	6.0	1.0	4.0	0.0	part_2
102	1.0	3.0			150.0	0.0	0.0							6.0	0.0	0.7892009737697663	6.0	300.0	2.0	4.0	2.0	5.0	0.0	part_2
103	3.0	3.0			150.0	0.0	1.0							6.0	0.0	0.49610313387029237	6.0	300.0	1.0	8.0	5.0	7.0	1.0	part_2
104	1.0	3.0			150.0	0.0	0.0							5.0	0.0	0.45207962488984776	5.0	250.0	3.0	2.0	3.0	1.0	0.0	part_2
105	4.0	3.0			150.0	0.0	1.0							5.0	0.0	0.0	0.0	250.0	1.0	8.0	5.0	7.0	1.0	part_2
106	1.0	3.0			200.0	0.0	0.0							5.0	0.0	0.49833044899969536	5.0	250.0	2.0	4.0	2.0	5.0	0.0	part_2
107	1.0	3.0			200.0	0.0	0.0							5.0	0.0	0.3994371822204812	5.0	250.0	1.0	6.0	1.0	4.0	0.0	part_2
108	1.0	4.0			200.0	0.0	1.0							6.0	0.0	0.4334510322200913	6.0	250.0	1.0	8.0	5.0	7.0	0.0	part_2
109	3.0	4.0			200.0	0.0	1.0							6.0	0.0	0.4340732835498784	6.0	250.0	1.0	8.0	5.0	7.0	1.0	part_2
110	1.0	4.0			200.0	0.0	0.0							6.0	0.0	0.39016525488023035	6.0	200.0	2.0	4.0	2.0	5.0	0.0	part_2
111	1.0	4.0			200.0	0.0	0.0							5.0	0.0	0.33406641976989704	5.0	200.0	3.0	2.0	3.0	1.0	0.0	part_2
112	1.0	4.0			200.0	0.0	1.0							5.0	0.0	0.4264940143302738	5.0	200.0	4.0	1.0	8.0	6.0	0.0	part_2
113	1.0	4.0			200.0	0.0	0.0							6.0	0.0	0.26851619889021094	6.0	200.0	2.0	4.0	2.0	5.0	0.0	part_2
114	1.0	4.0			200.0	0.0	0.0							6.0	0.0	0.41528735665997374	6.0	200.0	1.0	6.0	1.0	4.0	0.0	part_2
115	1.0	4.0			200.0	0.0	0.0							6.0	0.0	0.2928211417702187	6.0	200.0	3.0	2.0	3.0	1.0	0.0	part_2
116	3.0	4.0			200.0	0.0	1.0							5.0	0.0	0.38354181865997816	5.0	200.0	3.0	7.0	7.0	3.0	1.0	part_2
117	1.0	4.0			150.0	0.0	0.0							5.0	0.0	0.609592853219965	5.0	200.0	4.0	3.0	4.0	2.0	0.0	part_2
118	1.0	4.0			150.0	0.0	1.0							5.0	0.0	0.5758187910000743	5.0	200.0	2.0	5.0	6.0	8.0	0.0	part_2
119	1.0	4.0			150.0	0.0	0.0							5.0	0.0	0.39689877055025136	5.0	200.0	1.0	6.0	1.0	4.0	0.0	part_2
120	1.0	4.0			150.0	0.0	0.0							5.0	0.0	0.3871547046596788	5.0	200.0	3.0	2.0	3.0	1.0	0.0	part_2
121	3.0	4.0			150.0	0.0	1.0							6.0	0.0	0.36459671944021466	6.0	200.0	4.0	1.0	8.0	6.0	1.0	part_2
122	1.0	4.0			150.0	0.0	0.0							6.0	0.0	0.400649656549831	6.0	150.0	4.0	3.0	4.0	2.0	0.0	part_2
123	4.0	4.0			150.0	0.0	1.0							5.0	0.0	0.0	0.0	150.0	1.0	8.0	5.0	7.0	1.0	part_2
124	3.0	4.0			200.0	0.0	1.0							6.0	0.0	0.3125457094402009	6.0	150.0	2.0	5.0	6.0	8.0	1.0	part_2
125	1.0	4.0			200.0	0.0	1.0							6.0	0.0	0.3794858742198812	6.0	100.0	3.0	7.0	7.0	3.0	0.0	part_2
126	1.0	4.0			200.0	0.0	0.0							5.0	0.0	0.33578624276970004	5.0	100.0	1.0	6.0	1.0	4.0	0.0	part_2
127	3.0	4.0			200.0	0.0	1.0							6.0	0.0	0.3371535574401605	6.0	100.0	1.0	8.0	5.0	7.0	1.0	part_2
128	4.0	4.0			200.0	0.0	1.0							6.0	0.0	0.0	0.0	50.0	3.0	7.0	7.0	3.0	1.0	part_2
129	1.0	4.0			200.0	0.0	0.0							6.0	0.0	0.4289464265502829	6.0	100.0	4.0	3.0	4.0	2.0	0.0	part_2
130	1.0	4.0			200.0	0.0	0.0							5.0	0.0	0.4641553651099457	5.0	100.0	3.0	2.0	3.0	1.0	0.0	part_2
131	3.0	4.0			200.0	0.0	1.0							6.0	0.0	0.33923010566013545	6.0	100.0	2.0	5.0	6.0	8.0	1.0	part_2
132	4.0	4.0			200.0	0.0	1.0							6.0	0.0	0.0	0.0	50.0	2.0	5.0	6.0	8.0	1.0	part_2
133	4.0	4.0			200.0	0.0	1.0							6.0	0.0	0.0	0.0	100.0	2.0	5.0	6.0	8.0	1.0	part_2
134	1.0	4.0			200.0	0.0	1.0							5.0	0.0	0.444023842779643	5.0	150.0	3.0	7.0	7.0	3.0	0.0	part_2
135	3.0	4.0			200.0	0.0	1.0							6.0	0.0	0.3766831047701089	6.0	150.0	4.0	1.0	8.0	6.0	1.0	part_2
136	1.0	4.0			200.0	0.0	0.0							6.0	0.0	0.5021550584401666	6.0	100.0	4.0	3.0	4.0	2.0	0.0	part_2
137	1.0	4.0			200.0	0.0	0.0							5.0	0.0	0.5925419762197635	5.0	100.0	4.0	3.0	4.0	2.0	0.0	part_2
138	4.0	4.0			200.0	0.0	1.0							6.0	0.0	0.0	0.0	100.0	2.0	5.0	6.0	8.0	1.0	part_2
139	1.0	4.0			200.0	0.0	0.0							5.0	0.0	0.4935632494402853	5.0	150.0	2.0	4.0	2.0	5.0	0.0	part_2
140	1.0	4.0			200.0	0.0	0.0							6.0	0.0	0.31262757788044837	6.0	150.0	1.0	6.0	1.0	4.0	0.0	part_2
141	1.0	4.0			200.0	0.0	0.0							6.0	0.0	0.3703268444396599	6.0	150.0	1.0	6.0	1.0	4.0	0.0	part_2
142	1.0	4.0			200.0	0.0	0.0							5.0	0.0	0.47418780899988633	5.0	150.0	3.0	2.0	3.0	1.0	0.0	part_2
143	1.0	4.0			200.0	0.0	0.0							6.0	0.0	0.42950280776994987	6.0	150.0	3.0	2.0	3.0	1.0	0.0	part_2
144	1.0	5.0			200.0	0.0	0.0							5.0	0.0	0.5207357193303324	5.0	150.0	3.0	2.0	3.0	1.0	0.0	part_2
145	1.0	5.0			200.0	0.0	1.0							5.0	0.0	0.34190344233047654	5.0	150.0	1.0	8.0	5.0	7.0	0.0	part_2
146	1.0	5.0			200.0	0.0	0.0							6.0	0.0	0.29838208965975355	6.0	150.0	1.0	6.0	1.0	4.0	0.0	part_2
147	1.0	5.0			200.0	0.0	0.0							6.0	0.0	0.36604192788036016	6.0	150.0	4.0	3.0	4.0	2.0	0.0	part_2
148	4.0	5.0			200.0	0.0	1.0							6.0	0.0	0.0	0.0	150.0	1.0	8.0	5.0	7.0	1.0	part_2
149	1.0	5.0			200.0	0.0	1.0							5.0	0.0	0.41322723676967144	5.0	200.0	3.0	7.0	7.0	3.0	0.0	part_2
150	3.0	5.0			200.0	0.0	1.0							6.0	0.0	0.3910250334402008	6.0	200.0	2.0	5.0	6.0	8.0	1.0	part_2
151	4.0	5.0			200.0	0.0	1.0							6.0	0.0	0.0	0.0	150.0	4.0	1.0	8.0	6.0	1.0	part_2
152	4.0	5.0			200.0	0.0	1.0							5.0	0.0	0.0	0.0	200.0	3.0	7.0	7.0	3.0	1.0	part_2
153	1.0	5.0			250.0	0.0	0.0							5.0	0.0	0.40617996475975815	5.0	200.0	4.0	3.0	4.0	2.0	0.0	part_2
154	1.0	5.0			250.0	0.0	0.0							6.0	0.0	0.3384106808798606	6.0	200.0	3.0	2.0	3.0	1.0	0.0	part_2
155	1.0	5.0			250.0	0.0	0.0							6.0	0.0	0.3744943876599791	6.0	200.0	4.0	3.0	4.0	2.0	0.0	part_2
156	1.0	5.0			250.0	0.0	0.0							5.0	0.0	0.36311069666044204	5.0	200.0	1.0	6.0	1.0	4.0	0.0	part_2
157	1.0	5.0			250.0	0.0	0.0							5.0	0.0	0.3860564102196804	5.0	200.0	1.0	6.0	1.0	4.0	0.0	part_2
158	4.0	5.0			250.0	0.0	1.0							5.0	0.0	0.0	0.0	200.0	2.0	5.0	6.0	8.0	1.0	part_2
159	4.0	5.0			300.0	0.0	1.0							6.0	0.0	0.0	0.0	200.0	2.0	5.0	6.0	8.0	1.0	part_2
160	1.0	5.0			300.0	0.0	1.0							5.0	0.0	0.636992892109447	5.0	250.0	4.0	1.0	8.0	6.0	0.0	part_2
161	4.0	5.0			300.0	0.0	1.0							6.0	0.0	0.0	0.0	250.0	4.0	1.0	8.0	6.0	1.0	part_2
162	3.0	5.0			300.0	0.0	1.0							5.0	0.0	0.40236370144066314	5.0	300.0	2.0	5.0	6.0	8.0	1.0	part_2
163	3.0	5.0			250.0	0.0	1.0							5.0	0.0	0.4260231521102469	5.0	300.0	1.0	8.0	5.0	7.0	1.0	part_2
164	1.0	5.0			200.0	0.0	0.0							6.0	0.0	0.4833153702193158	6.0	300.0	1.0	6.0	1.0	4.0	0.0	part_2
165	4.0	5.0			200.0	0.0	1.0							5.0	0.0	0.0	0.0	300.0	2.0	5.0	6.0	8.0	1.0	part_2
166	1.0	5.0			250.0	0.0	0.0							5.0	0.0	0.4040736564402323	5.0	300.0	4.0	3.0	4.0	2.0	0.0	part_2
167	3.0	5.0			250.0	0.0	1.0							6.0	0.0	0.40560114144045656	6.0	300.0	1.0	8.0	5.0	7.0	1.0	part_2
168	1.0	5.0			250.0	0.0	0.0							6.0	0.0	0.4628362287803611	6.0	250.0	4.0	3.0	4.0	2.0	0.0	part_2
169	1.0	5.0			250.0	0.0	0.0							5.0	0.0	0.46409015643985185	5.0	250.0	3.0	2.0	3.0	1.0	0.0	part_2
170	1.0	5.0			250.0	0.0	0.0							6.0	0.0	0.3294114546597484	6.0	250.0	4.0	3.0	4.0	2.0	0.0	part_2
171	3.0	5.0			250.0	0.0	1.0							5.0	0.0	0.42096063333065104	5.0	250.0	1.0	8.0	5.0	7.0	1.0	part_2
172	4.0	5.0			200.0	0.0	1.0							5.0	0.0	0.0	0.0	250.0	2.0	5.0	6.0	8.0	1.0	part_2
173	1.0	5.0			250.0	0.0	1.0							6.0	0.0	0.4217869184403753	6.0	250.0	4.0	1.0	8.0	6.0	0.0	part_2
174	1.0	5.0			250.0	0.0	0.0							5.0	0.0	0.42364703343992005	5.0	250.0	4.0	3.0	4.0	2.0	0.0	part_2
175	1.0	5.0			250.0	0.0	0.0							6.0	0.0	0.344999081219612	6.0	250.0	2.0	4.0	2.0	5.0	0.0	part_2
176	1.0	5.0			250.0	0.0	0.0							6.0	0.0	0.3224963639904672	6.0	250.0	2.0	4.0	2.0	5.0	0.0	part_2
177	1.0	5.0			250.0	0.0	0.0							6.0	0.0	0.34564000344016677	6.0	250.0	2.0	4.0	2.0	5.0	0.0	part_2
178	1.0	5.0			250.0	0.0	0.0							5.0	0.0	0.36966712021967396	5.0	250.0	3.0	2.0	3.0	1.0	0.0	part_2
179	1.0	5.0			250.0	0.0	0.0							6.0	0.0	0.34818383866058866	6.0	250.0	3.0	2.0	3.0	1.0	0.0	part_2
180	3.0	6.0			250.0	0.0	1.0							5.0	0.0	0.39824290855085565	5.0	250.0	2.0	5.0	6.0	8.0	1.0	part_2
181	1.0	6.0			200.0	0.0	0.0							5.0	0.0	0.434130180219654	5.0	250.0	3.0	2.0	3.0	1.0	0.0	part_2
182	1.0	6.0			200.0	0.0	0.0							5.0	0.0	0.37915593810976134	5.0	250.0	3.0	2.0	3.0	1.0	0.0	part_2
183	1.0	6.0			200.0	0.0	0.0							5.0	0.0	0.3465040398796191	5.0	250.0	2.0	4.0	2.0	5.0	0.0	part_2
184	3.0	6.0			200.0	0.0	1.0							6.0	0.0	0.3456808997798362	6.0	250.0	4.0	1.0	8.0	6.0	1.0	part_2
185	1.0	6.0			200.0	0.0	0.0							5.0	0.0	0.548772327109873	5.0	200.0	1.0	6.0	1.0	4.0	0.0	part_2
186	1.0	6.0			200.0	0.0	0.0							5.0	0.0	0.4596031241098899	5.0	200.0	4.0	3.0	4.0	2.0	0.0	part_2
187	3.0	6.0			200.0	0.0	1.0							5.0	0.0	0.3827515146604128	5.0	200.0	1.0	8.0	5.0	7.0	1.0	part_2
188	1.0	6.0			150.0	0.0	1.0							5.0	0.0	0.4948508426605258	5.0	200.0	3.0	7.0	7.0	3.0	0.0	part_2
189	1.0	6.0			150.0	0.0	0.0							6.0	0.0	0.3725367647693929	6.0	200.0	4.0	3.0	4.0	2.0	0.0	part_2
190	1.0	6.0			150.0	0.0	1.0							5.0	0.0	0.38556442499975674	5.0	200.0	2.0	5.0	6.0	8.0	0.0	part_2
191	3.0	6.0			150.0	0.0	1.0							6.0	0.0	0.33976694944067276	6.0	200.0	4.0	1.0	8.0	6.0	1.0	part_2
192	1.0	6.0			150.0	0.0	0.0							5.0	0.0	0.44329259833102697	5.0	150.0	3.0	2.0	3.0	1.0	0.0	part_2
193	1.0	6.0			150.0	0.0	0.0							6.0	0.0	0.39767617255074583	6.0	150.0	2.0	4.0	2.0	5.0	0.0	part_2
194	4.0	6.0			150.0	0.0	1.0							5.0	0.0	0.0	0.0	150.0	4.0	1.0	8.0	6.0	1.0	part_2
195	1.0	6.0			200.0	0.0	1.0							5.0	0.0	0.5114686302194968	5.0	150.0	2.0	5.0	6.0	8.0	0.0	part_2
196	4.0	6.0			200.0	0.0	1.0							5.0	0.0	0.0	0.0	150.0	1.0	8.0	5.0	7.0	1.0	part_2
197	1.0	6.0			250.0	0.0	0.0							6.0	0.0	0.38957104789005825	6.0	150.0	4.0	3.0	4.0	2.0	0.0	part_2
198	3.0	6.0			250.0	0.0	1.0							5.0	0.0	0.4925075956598448	5.0	150.0	3.0	7.0	7.0	3.0	1.0	part_2
199	1.0	6.0			200.0	0.0	0.0							5.0	0.0	0.4370548635506566	5.0	150.0	1.0	6.0	1.0	4.0	0.0	part_2
200	1.0	6.0			200.0	0.0	0.0							5.0	0.0	0.34855989699008205	5.0	150.0	1.0	6.0	1.0	4.0	0.0	part_2
201	3.0	6.0			200.0	0.0	1.0							5.0	0.0	0.326515865550391	5.0	150.0	4.0	1.0	8.0	6.0	1.0	part_2
202	1.0	6.0			150.0	0.0	0.0							5.0	0.0	0.42871402133096126	5.0	150.0	1.0	6.0	1.0	4.0	0.0	part_2
203	3.0	6.0			150.0	0.0	1.0							6.0	0.0	0.37269504144023813	6.0	150.0	3.0	7.0	7.0	3.0	1.0	part_2
204	1.0	6.0			150.0	0.0	0.0							5.0	0.0	0.5086762342198199	5.0	100.0	2.0	4.0	2.0	5.0	0.0	part_2
205	1.0	6.0			150.0	0.0	0.0							5.0	0.0	0.4871366638908512	5.0	100.0	2.0	4.0	2.0	5.0	0.0	part_2
206	1.0	6.0			150.0	0.0	0.0							5.0	0.0	0.39788561554996704	5.0	100.0	3.0	2.0	3.0	1.0	0.0	part_2
207	1.0	6.0			150.0	0.0	0.0							6.0	0.0	0.33205260100021405	6.0	100.0	4.0	3.0	4.0	2.0	0.0	part_2
208	3.0	6.0			150.0	0.0	1.0							6.0	0.0	0.33252518587960367	6.0	100.0	3.0	7.0	7.0	3.0	1.0	part_2
209	1.0	6.0			150.0	0.0	0.0							5.0	0.0	0.41183332933087513	5.0	50.0	2.0	4.0	2.0	5.0	0.0	part_2
210	1.0	6.0			150.0	0.0	1.0							6.0	0.0	0.38915350844035856	6.0	50.0	4.0	1.0	8.0	6.0	0.0	part_2
211	1.0	6.0			150.0	0.0	0.0							6.0	0.0	0.3343568571090145	6.0	50.0	4.0	3.0	4.0	2.0	0.0	part_2
212	4.0	6.0			150.0	0.0	1.0							5.0	0.0	0.0	0.0	50.0	4.0	1.0	8.0	6.0	1.0	part_2
213	3.0	6.0			200.0	0.0	1.0							6.0	0.0	0.29214940110978205	6.0	50.0	4.0	1.0	8.0	6.0	1.0	part_2
214	3.0	6.0			200.0	0.0	1.0							5.0	0.0	0.4150582882202798	5.0	0.0	3.0	7.0	7.0	3.0	1.0	part_2
215	1.0	6.0			150.0	0.0	1.0							6.0	0.0	0.5403446693298974	6.0	0.0	4.0	1.0	8.0	6.0	0.0	part_2
216	1.0	7.0			150.0	0.0	0.0							6.0	0.0	0.7598655834399324	6.0	0.0	3.0	2.0	3.0	1.0	0.0	part_2
217	1.0	7.0			150.0	0.0	0.0							6.0	0.0	0.5701826143304061	6.0	0.0	2.0	4.0	2.0	5.0	0.0	part_2
218	1.0	7.0			150.0	0.0	0.0							5.0	0.0	0.7070848405501238	5.0	0.0	2.0	4.0	2.0	5.0	0.0	part_2
219	1.0	7.0			150.0	0.0	0.0							5.0	0.0	0.5165961263301142	5.0	0.0	4.0	3.0	4.0	2.0	0.0	part_2
220	1.0	7.0			150.0	0.0	0.0							5.0	0.0	0.5627649624402693	5.0	0.0	1.0	6.0	1.0	4.0	0.0	part_2
221	1.0	7.0			150.0	0.0	0.0							5.0	0.0	0.597126167440365	5.0	0.0	2.0	4.0	2.0	5.0	0.0	part_2
222	1.0	7.0			150.0	0.0	1.0							5.0	0.0	0.6771183147702686	5.0	0.0	2.0	5.0	6.0	8.0	0.0	part_2
223	1.0	7.0			150.0	0.0	1.0							5.0	0.0	0.6669837362196631	5.0	0.0	1.0	8.0	5.0	7.0	0.0	part_2
224	4.0	7.0			150.0	0.0	1.0							6.0	0.0	0.0	0.0	0.0	4.0	1.0	8.0	6.0	1.0	part_2
225	1.0	7.0			150.0	0.0	0.0							6.0	0.0	0.4530624553308371	6.0	50.0	1.0	6.0	1.0	4.0	0.0	part_2
226	4.0	7.0			150.0	0.0	1.0							5.0	0.0	0.0	0.0	50.0	4.0	1.0	8.0	6.0	1.0	part_2
227	1.0	7.0			200.0	0.0	1.0							5.0	0.0	0.5794201084399901	5.0	50.0	2.0	5.0	6.0	8.0	0.0	part_2
228	1.0	7.0			200.0	0.0	0.0							6.0	0.0	0.6017991847702433	6.0	50.0	1.0	6.0	1.0	4.0	0.0	part_2
229	4.0	7.0			200.0	0.0	1.0							6.0	0.0	0.0	0.0	50.0	3.0	7.0	7.0	3.0	1.0	part_2
230	4.0	7.0			200.0	0.0	1.0							6.0	0.0	0.0	0.0	100.0	3.0	7.0	7.0	3.0	1.0	part_2
231	1.0	7.0			200.0	0.0	0.0							6.0	0.0	0.5483253031097775	6.0	150.0	4.0	3.0	4.0	2.0	0.0	part_2
232	1.0	7.0			200.0	0.0	0.0							6.0	0.0	0.5048589721091048	6.0	150.0	1.0	6.0	1.0	4.0	0.0	part_2
233	4.0	7.0			200.0	0.0	1.0							5.0	0.0	0.0	0.0	150.0	4.0	1.0	8.0	6.0	1.0	part_2
234	1.0	7.0			250.0	0.0	0.0							6.0	0.0	0.5388225675505964	6.0	150.0	2.0	4.0	2.0	5.0	0.0	part_2
235	1.0	7.0			250.0	0.0	0.0							5.0	0.0	0.6530328010003359	5.0	150.0	2.0	4.0	2.0	5.0	0.0	part_2
236	1.0	7.0			250.0	0.0	0.0							5.0	0.0	0.4637334861099589	5.0	150.0	1.0	6.0	1.0	4.0	0.0	part_2
237	1.0	7.0			250.0	0.0	0.0							6.0	0.0	0.419235104440304	6.0	150.0	3.0	2.0	3.0	1.0	0.0	part_2
238	3.0	7.0			250.0	0.0	1.0							5.0	0.0	0.4183536043301501	5.0	150.0	2.0	5.0	6.0	8.0	1.0	part_2
239	4.0	7.0			200.0	0.0	1.0							5.0	0.0	0.0	0.0	150.0	4.0	1.0	8.0	6.0	1.0	part_2
240	1.0	7.0			250.0	0.0	0.0							5.0	0.0	0.511378248440451	5.0	150.0	2.0	4.0	2.0	5.0	0.0	part_2
241	1.0	7.0			250.0	0.0	0.0							6.0	0.0	0.4093051311092495	6.0	150.0	2.0	4.0	2.0	5.0	0.0	part_2
242	4.0	7.0			250.0	0.0	1.0							6.0	0.0	0.0	0.0	150.0	2.0	5.0	6.0	8.0	1.0	part_2
243	1.0	7.0			250.0	0.0	0.0							6.0	0.0	0.6134241476593161	6.0	200.0	1.0	6.0	1.0	4.0	0.0	part_2
244	4.0	7.0			250.0	0.0	1.0							6.0	0.0	0.0	0.0	200.0	3.0	7.0	7.0	3.0	1.0	part_2
245	4.0	7.0			250.0	0.0	1.0							6.0	0.0	0.0	0.0	250.0	1.0	8.0	5.0	7.0	1.0	part_2
246	1.0	7.0			250.0	0.0	0.0							5.0	0.0	0.5600032173297222	5.0	300.0	4.0	3.0	4.0	2.0	0.0	part_2
247	1.0	7.0			250.0	0.0	0.0							6.0	0.0	0.4051713316594032	6.0	300.0	2.0	4.0	2.0	5.0	0.0	part_2
248	1.0	7.0			250.0	0.0	0.0							5.0	0.0	0.4384618017702451	5.0	300.0	4.0	3.0	4.0	2.0	0.0	part_2
249	1.0	7.0			250.0	0.0	0.0							6.0	0.0	0.5518660344405362	6.0	300.0	1.0	6.0	1.0	4.0	0.0	part_2
250	3.0	7.0			250.0	0.0	1.0							6.0	0.0	0.407517737330636	6.0	300.0	1.0	8.0	5.0	7.0	1.0	part_2
251	1.0	7.0			250.0	0.0	0.0							6.0	0.0	0.6772162119905261	6.0	250.0	3.0	2.0	3.0	1.0	0.0	part_2
252	3.0	8.0			250.0	0.0	1.0							6.0	0.0	0.40777864332994795	6.0	250.0	2.0	5.0	6.0	8.0	1.0	part_2
253	1.0	8.0			250.0	0.0	0.0							6.0	0.0	0.46565970177016425	6.0	200.0	2.0	4.0	2.0	5.0	0.0	part_2
254	3.0	8.0			250.0	0.0	1.0							6.0	0.0	0.3313616614404964	6.0	200.0	2.0	5.0	6.0	8.0	1.0	part_2
255	4.0	8.0			250.0	0.0	1.0							6.0	0.0	0.0	0.0	150.0	3.0	7.0	7.0	3.0	1.0	part_2
256	1.0	8.0			250.0	0.0	0.0							5.0	0.0	0.5908848142198622	5.0	200.0	4.0	3.0	4.0	2.0	0.0	part_2
257	1.0	8.0			250.0	0.0	0.0							6.0	0.0	0.435007729550307	6.0	200.0	4.0	3.0	4.0	2.0	0.0	part_2
258	1.0	8.0			250.0	0.0	1.0							5.0	0.0	0.4480354536599407	5.0	200.0	3.0	7.0	7.0	3.0	0.0	part_2
259	4.0	8.0			250.0	0.0	1.0							5.0	0.0	0.0	0.0	200.0	2.0	5.0	6.0	8.0	1.0	part_2
260	4.0	8.0			300.0	0.0	1.0							6.0	0.0	0.0	0.0	200.0	4.0	1.0	8.0	6.0	1.0	part_2
261	1.0	8.0			300.0	0.0	0.0							6.0	0.0	0.43958358610962023	6.0	250.0	2.0	4.0	2.0	5.0	0.0	part_2
262	4.0	8.0			300.0	0.0	1.0							5.0	0.0	0.0	0.0	250.0	2.0	5.0	6.0	8.0	1.0	part_2
263	3.0	8.0			350.0	0.0	1.0							5.0	0.0	0.4961783166600071	5.0	250.0	1.0	8.0	5.0	7.0	1.0	part_2
264	1.0	8.0			300.0	0.0	0.0							6.0	0.0	0.541943661660298	6.0	250.0	3.0	2.0	3.0	1.0	0.0	part_2
265	3.0	8.0			300.0	0.0	1.0							5.0	0.0	0.44269284455913294	5.0	250.0	4.0	1.0	8.0	6.0	1.0	part_2
266	1.0	8.0			250.0	0.0	0.0							6.0	0.0	0.49816225155063876	6.0	250.0	1.0	6.0	1.0	4.0	0.0	part_2
267	4.0	8.0			250.0	0.0	1.0							5.0	0.0	0.0	0.0	250.0	3.0	7.0	7.0	3.0	1.0	part_2
268	1.0	8.0			300.0	0.0	0.0							5.0	0.0	0.6126662913302425	5.0	250.0	4.0	3.0	4.0	2.0	0.0	part_2
269	1.0	8.0			300.0	0.0	0.0							5.0	0.0	0.4345184638805222	5.0	250.0	4.0	3.0	4.0	2.0	0.0	part_2
270	1.0	8.0			300.0	0.0	0.0							5.0	0.0	0.48060622987941315	5.0	250.0	2.0	4.0	2.0	5.0	0.0	part_2
271	4.0	8.0			300.0	0.0	1.0							5.0	0.0	0.0	0.0	250.0	3.0	7.0	7.0	3.0	1.0	part_2
272	1.0	8.0			350.0	0.0	0.0							5.0	0.0	0.6058641232193622	5.0	250.0	4.0	3.0	4.0	2.0	0.0	part_2
273	1.0	8.0			350.0	0.0	0.0							5.0	0.0	0.5165958821098684	5.0	250.0	2.0	4.0	2.0	5.0	0.0	part_2
274	4.0	8.0			350.0	0.0	1.0							6.0	0.0	0.0	0.0	250.0	3.0	7.0	7.0	3.0	1.0	part_2
275	1.0	8.0			350.0	0.0	0.0							6.0	0.0	0.6312799353299852	6.0	300.0	3.0	2.0	3.0	1.0	0.0	part_2
276	4.0	8.0			350.0	0.0	1.0							5.0	0.0	0.0	0.0	300.0	1.0	8.0	5.0	7.0	1.0	part_2
277	1.0	8.0			400.0	0.0	0.0							6.0	0.0	0.5203853294406144	6.0	300.0	3.0	2.0	3.0	1.0	0.0	part_2
278	1.0	8.0			400.0	0.0	0.0							5.0	0.0	0.5993249940001988	5.0	300.0	1.0	6.0	1.0	4.0	0.0	part_2
279	1.0	8.0			400.0	0.0	1.0							6.0	0.0	0.34059092765983223	6.0	300.0	1.0	8.0	5.0	7.0	0.0	part_2
280	1.0	8.0			400.0	0.0	0.0							6.0	0.0	0.4659201085496534	6.0	300.0	2.0	4.0	2.0	5.0	0.0	part_2
281	1.0	8.0			400.0	0.0	0.0							6.0	0.0	0.3997512682190063	6.0	300.0	3.0	2.0	3.0	1.0	0.0	part_2
282	1.0	8.0			400.0	0.0	0.0							6.0	0.0	0.3658079996603192	6.0	300.0	1.0	6.0	1.0	4.0	0.0	part_2
283	1.0	8.0			400.0	0.0	0.0							5.0	0.0	0.5808780524403119	5.0	300.0	4.0	3.0	4.0	2.0	0.0	part_2
284	1.0	8.0			400.0	0.0	0.0							6.0	0.0	0.5368342942201707	6.0	300.0	2.0	4.0	2.0	5.0	0.0	part_2
285	3.0	8.0			400.0	0.0	1.0							6.0	0.0	0.4476981781099312	6.0	300.0	3.0	7.0	7.0	3.0	1.0	part_2
286	1.0	8.0			400.0	0.0	1.0							5.0	0.0	0.47009772677029105	5.0	250.0	4.0	1.0	8.0	6.0	0.0	part_2
287	3.0	8.0			400.0	0.0	1.0							5.0	0.0	0.5043034923301093	5.0	250.0	1.0	8.0	5.0	7.0	1.0	part_2
0	0.0	1.0	39.0	1.0	0.0	1.0	0.0	156.0	195.0	117.0	78.0	39.0	234.0	7.0	0.0	0.2470090634897133	5.0	0.0	1.0	6.0	1.0	4.0	0.0	part_3
1	0.0	1.0	34.0	1.0	0.0	1.0	1.0	204.0	34.0	136.0	68.0	102.0	170.0	7.0	0.0	0.32036175632038066	2.0	0.0	2.0	5.0	6.0	8.0	0.0	part_3
2	0.0	1.0	102.0	3.0	0.0	1.0	0.0	68.0	204.0	102.0	34.0	136.0	170.0	7.0	0.0	0.28833966948968737	3.0	0.0	4.0	3.0	4.0	2.0	0.0	part_3
3	0.0	1.0	176.0	4.0	0.0	1.0	0.0	220.0	264.0	176.0	132.0	88.0	44.0	7.0	0.0	0.26646045231973403	3.0	0.0	2.0	4.0	2.0	5.0	0.0	part_3
4	0.0	1.0	49.0	1.0	0.0	1.0	1.0	98.0	294.0	49.0	245.0	147.0	196.0	7.0	0.0	0.808144505915152	3.0	0.0	4.0	1.0	8.0	6.0	0.0	part_3
5	0.0	1.0	49.0	1.0	0.0	1.0	1.0	98.0	245.0	49.0	147.0	294.0	196.0	7.0	0.0	0.7640537254901574	3.0	0.0	1.0	8.0	5.0	7.0	0.0	part_3
6	0.0	1.0	39.0	1.0	0.0	1.0	0.0	156.0	195.0	39.0	234.0	78.0	117.0	7.0	0.0	0.46209662248929817	3.0	0.0	2.0	4.0	2.0	5.0	0.0	part_3
7	0.0	1.0	132.0	3.0	0.0	1.0	1.0	44.0	220.0	132.0	264.0	88.0	176.0	7.0	0.0	0.7658159456605063	3.0	0.0	3.0	7.0	7.0	3.0	0.0	part_3
8	0.0	1.0	117.0	3.0	0.0	1.0	1.0	78.0	234.0	117.0	39.0	195.0	156.0	7.0	0.0	0.3173458238297826	3.0	0.0	2.0	5.0	6.0	8.0	0.0	part_3
9	0.0	1.0	147.0	3.0	0.0	1.0	1.0	196.0	294.0	147.0	98.0	245.0	49.0	7.0	0.0	0.330787687744305	3.0	0.0	2.0	5.0	6.0	8.0	0.0	part_3
10	0.0	1.0	270.0	5.0	0.0	1.0	1.0	216.0	108.0	270.0	162.0	54.0	324.0	7.0	0.0	1.0164174138290036	3.0	0.0	4.0	1.0	8.0	6.0	0.0	part_3
11	0.0	1.0	102.0	3.0	0.0	1.0	1.0	136.0	204.0	102.0	170.0	68.0	34.0	7.0	0.0	0.6024428476603134	3.0	0.0	2.0	5.0	6.0	8.0	0.0	part_3
12	0.0	1.0	270.0	5.0	0.0	1.0	0.0	108.0	162.0	270.0	216.0	324.0	54.0	7.0	0.0	0.39984605591507716	3.0	0.0	4.0	3.0	4.0	2.0	0.0	part_3
13	0.0	1.0	88.0	2.0	0.0	1.0	1.0	264.0	132.0	88.0	44.0	220.0	176.0	7.0	0.0	0.8630931273200986	3.0	0.0	4.0	1.0	8.0	6.0	0.0	part_3
14	0.0	1.0	68.0	2.0	0.0	1.0	0.0	34.0	102.0	68.0	204.0	136.0	170.0	7.0	0.0	0.19968515882919746	3.0	0.0	2.0	4.0	2.0	5.0	0.0	part_3
15	0.0	1.0	136.0	4.0	0.0	1.0	1.0	204.0	102.0	136.0	34.0	68.0	170.0	7.0	0.0	0.5619352184048694	3.0	0.0	3.0	7.0	7.0	3.0	0.0	part_3
16	0.0	1.0	147.0	3.0	0.0	1.0	0.0	49.0	196.0	147.0	294.0	245.0	98.0	7.0	0.0	0.41613930266066745	3.0	0.0	3.0	2.0	3.0	1.0	0.0	part_3
17	0.0	1.0	102.0	3.0	0.0	1.0	0.0	204.0	170.0	102.0	68.0	34.0	136.0	7.0	0.0	0.686404829404637	3.0	0.0	4.0	3.0	4.0	2.0	0.0	part_3
18	0.0	1.0	39.0	1.0	0.0	1.0	1.0	78.0	117.0	39.0	234.0	156.0	195.0	7.0	0.0	0.6317036358295809	3.0	0.0	3.0	7.0	7.0	3.0	0.0	part_3
19	0.0	1.0	78.0	2.0	0.0	1.0	1.0	117.0	195.0	78.0	234.0	39.0	156.0	7.0	0.0	0.6224798447447029	3.0	0.0	1.0	8.0	5.0	7.0	0.0	part_3
20	0.0	2.0	245.0	5.0	0.0	1.0	1.0	294.0	147.0	245.0	98.0	49.0	196.0	7.0	0.0	0.699781908660043	3.0	0.0	3.0	7.0	7.0	3.0	0.0	part_3
21	0.0	2.0	162.0	3.0	0.0	1.0	0.0	54.0	216.0	162.0	270.0	108.0	324.0	7.0	0.0	0.5316972416594581	3.0	0.0	4.0	3.0	4.0	2.0	0.0	part_3
22	0.0	2.0	68.0	2.0	0.0	1.0	0.0	170.0	34.0	68.0	102.0	136.0	204.0	7.0	0.0	0.3524171204890081	3.0	0.0	1.0	6.0	1.0	4.0	0.0	part_3
23	0.0	2.0	68.0	2.0	0.0	1.0	0.0	34.0	204.0	68.0	170.0	136.0	102.0	7.0	0.0	0.5914020007439831	3.0	0.0	3.0	2.0	3.0	1.0	0.0	part_3
24	0.0	2.0	234.0	6.0	0.0	1.0	1.0	78.0	117.0	234.0	39.0	195.0	156.0	7.0	0.0	1.065151916659488	3.0	0.0	1.0	8.0	5.0	7.0	0.0	part_3
25	0.0	2.0	54.0	1.0	0.0	1.0	0.0	270.0	216.0	54.0	162.0	324.0	108.0	7.0	0.0	3.990409815744897	3.0	0.0	2.0	4.0	2.0	5.0	0.0	part_3
26	0.0	2.0	98.0	2.0	0.0	1.0	1.0	245.0	294.0	98.0	147.0	196.0	49.0	7.0	0.0	1.9271603228298773	3.0	0.0	4.0	1.0	8.0	6.0	0.0	part_3
27	0.0	2.0	204.0	6.0	0.0	1.0	1.0	136.0	102.0	204.0	34.0	170.0	68.0	7.0	0.0	0.7710856938292636	3.0	0.0	1.0	8.0	5.0	7.0	0.0	part_3
28	0.0	2.0	54.0	1.0	0.0	1.0	1.0	270.0	324.0	54.0	108.0	216.0	162.0	7.0	0.0	0.38982188532008877	3.0	0.0	2.0	5.0	6.0	8.0	0.0	part_3
29	0.0	2.0	102.0	3.0	0.0	1.0	1.0	34.0	204.0	102.0	68.0	136.0	170.0	7.0	0.0	0.4359106893198259	3.0	0.0	4.0	1.0	8.0	6.0	0.0	part_3
30	0.0	2.0	170.0	5.0	0.0	1.0	1.0	136.0	204.0	170.0	68.0	102.0	34.0	7.0	0.0	9.300565943703987e-05	3.0	0.0	3.0	7.0	7.0	3.0	0.0	part_3
31	0.0	2.0	147.0	3.0	0.0	1.0	0.0	98.0	294.0	147.0	245.0	49.0	196.0	7.0	0.0	0.26948557131981943	3.0	0.0	4.0	3.0	4.0	2.0	0.0	part_3
32	0.0	2.0	49.0	1.0	0.0	1.0	0.0	98.0	147.0	49.0	245.0	294.0	196.0	7.0	0.0	0.3706969283202852	3.0	0.0	2.0	4.0	2.0	5.0	0.0	part_3
33	0.0	2.0	195.0	5.0	0.0	1.0	1.0	39.0	156.0	195.0	78.0	117.0	234.0	7.0	0.0	0.36106227366053645	3.0	0.0	4.0	1.0	8.0	6.0	0.0	part_3
34	0.0	2.0	39.0	1.0	0.0	1.0	0.0	195.0	117.0	39.0	78.0	234.0	156.0	7.0	0.0	0.4395499456604739	3.0	0.0	4.0	3.0	4.0	2.0	0.0	part_3
35	0.0	2.0	132.0	3.0	0.0	1.0	1.0	176.0	220.0	132.0	44.0	264.0	88.0	7.0	0.0	0.48593207357498613	3.0	0.0	2.0	5.0	6.0	8.0	0.0	part_3
36	0.0	2.0	204.0	6.0	0.0	1.0	0.0	34.0	170.0	204.0	68.0	102.0	136.0	7.0	0.0	0.657032784234616	3.0	0.0	1.0	6.0	1.0	4.0	0.0	part_3
37	0.0	2.0	294.0	6.0	0.0	1.0	1.0	49.0	98.0	294.0	245.0	196.0	147.0	7.0	0.0	2.31063177674514	3.0	0.0	1.0	8.0	5.0	7.0	0.0	part_3
38	0.0	2.0	270.0	5.0	0.0	1.0	1.0	324.0	54.0	270.0	162.0	108.0	216.0	7.0	0.0	1.1097341104050429	3.0	0.0	1.0	8.0	5.0	7.0	0.0	part_3
39	0.0	2.0	34.0	1.0	0.0	1.0	1.0	136.0	170.0	34.0	204.0	102.0	68.0	7.0	0.0	0.490490018660239	3.0	0.0	1.0	8.0	5.0	7.0	0.0	part_3
40	0.0	3.0	147.0	3.0	0.0	1.0	0.0	245.0	294.0	147.0	49.0	196.0	98.0	7.0	0.0	1.0412337227444368	3.0	0.0	1.0	6.0	1.0	4.0	0.0	part_3
41	0.0	3.0	170.0	5.0	0.0	1.0	0.0	68.0	136.0	170.0	34.0	204.0	102.0	7.0	0.0	0.4676676150002095	3.0	0.0	2.0	4.0	2.0	5.0	0.0	part_3
42	0.0	3.0	156.0	4.0	0.0	1.0	0.0	117.0	195.0	156.0	234.0	78.0	39.0	7.0	0.0	0.2448904465754822	3.0	0.0	4.0	3.0	4.0	2.0	0.0	part_3
43	0.0	3.0	98.0	2.0	0.0	1.0	0.0	196.0	294.0	98.0	245.0	49.0	147.0	7.0	0.0	0.14432979932007584	3.0	0.0	2.0	4.0	2.0	5.0	0.0	part_3
44	0.0	3.0	195.0	5.0	0.0	1.0	0.0	39.0	78.0	195.0	117.0	234.0	156.0	7.0	0.0	5.140431949257618e-05	3.0	0.0	2.0	4.0	2.0	5.0	0.0	part_3
45	0.0	3.0	216.0	4.0	0.0	1.0	1.0	270.0	108.0	216.0	54.0	324.0	162.0	7.0	0.0	0.3376391939145833	3.0	0.0	4.0	1.0	8.0	6.0	0.0	part_3
46	0.0	3.0	162.0	3.0	0.0	1.0	0.0	108.0	324.0	162.0	216.0	270.0	54.0	7.0	0.0	0.7434392323193606	3.0	0.0	3.0	2.0	3.0	1.0	0.0	part_3
47	0.0	3.0	324.0	6.0	0.0	1.0	0.0	270.0	216.0	324.0	54.0	108.0	162.0	7.0	0.0	0.5649541434895582	3.0	0.0	1.0	6.0	1.0	4.0	0.0	part_3
48	0.0	3.0	132.0	3.0	0.0	1.0	1.0	220.0	44.0	132.0	264.0	88.0	176.0	7.0	0.0	0.9715470433202427	3.0	0.0	1.0	8.0	5.0	7.0	0.0	part_3
49	0.0	3.0	132.0	3.0	0.0	1.0	0.0	44.0	264.0	132.0	176.0	88.0	220.0	7.0	0.0	1.5915881206601625	3.0	0.0	3.0	2.0	3.0	1.0	0.0	part_3
50	0.0	3.0	34.0	1.0	0.0	1.0	0.0	204.0	136.0	34.0	170.0	68.0	102.0	7.0	0.0	0.8830487249151702	3.0	0.0	3.0	2.0	3.0	1.0	0.0	part_3
51	0.0	3.0	324.0	6.0	0.0	1.0	0.0	216.0	270.0	324.0	162.0	108.0	54.0	7.0	0.0	0.6699236649155864	3.0	0.0	1.0	6.0	1.0	4.0	0.0	part_3
52	0.0	3.0	54.0	1.0	0.0	1.0	1.0	270.0	324.0	54.0	216.0	108.0	162.0	7.0	0.0	0.6817554003200712	3.0	0.0	1.0	8.0	5.0	7.0	0.0	part_3
53	0.0	3.0	44.0	1.0	0.0	1.0	0.0	132.0	88.0	44.0	220.0	176.0	264.0	7.0	0.0	0.00018635791548149427	3.0	0.0	1.0	6.0	1.0	4.0	0.0	part_3
54	0.0	3.0	88.0	2.0	0.0	1.0	1.0	264.0	44.0	88.0	176.0	220.0	132.0	7.0	0.0	0.15583306848930079	3.0	0.0	4.0	1.0	8.0	6.0	0.0	part_3
55	0.0	3.0	117.0	3.0	0.0	1.0	1.0	234.0	156.0	117.0	39.0	195.0	78.0	7.0	0.0	0.3264753775747522	3.0	0.0	4.0	1.0	8.0	6.0	0.0	part_3
56	0.0	3.0	176.0	4.0	0.0	1.0	0.0	264.0	44.0	176.0	132.0	88.0	220.0	7.0	0.0	0.3496112718294171	3.0	0.0	4.0	3.0	4.0	2.0	0.0	part_3
57	0.0	3.0	156.0	4.0	0.0	1.0	0.0	78.0	234.0	156.0	117.0	195.0	39.0	7.0	0.0	2.6335149378292044	3.0	0.0	3.0	2.0	3.0	1.0	0.0	part_3
58	0.0	3.0	88.0	2.0	0.0	1.0	0.0	264.0	44.0	88.0	132.0	176.0	220.0	7.0	0.0	1.4212844618296003	3.0	0.0	2.0	4.0	2.0	5.0	0.0	part_3
59	0.0	3.0	176.0	4.0	0.0	1.0	1.0	132.0	220.0	176.0	88.0	44.0	264.0	7.0	0.0	0.1721157868296359	3.0	0.0	2.0	5.0	6.0	8.0	0.0	part_3
60	0.0	4.0	44.0	1.0	0.0	1.0	0.0	264.0	220.0	44.0	176.0	132.0	88.0	7.0	0.0	0.49154848974467313	3.0	0.0	1.0	6.0	1.0	4.0	0.0	part_3
61	0.0	4.0	54.0	1.0	0.0	1.0	1.0	108.0	162.0	54.0	324.0	216.0	270.0	7.0	0.0	0.5039432277444575	3.0	0.0	3.0	7.0	7.0	3.0	0.0	part_3
62	0.0	4.0	49.0	1.0	0.0	1.0	1.0	196.0	147.0	49.0	294.0	245.0	98.0	7.0	0.0	0.099943514404913	3.0	0.0	3.0	7.0	7.0	3.0	0.0	part_3
63	0.0	4.0	196.0	4.0	0.0	1.0	1.0	49.0	98.0	196.0	147.0	294.0	245.0	7.0	0.0	2.1954327854891744	3.0	0.0	2.0	5.0	6.0	8.0	0.0	part_3
64	0.0	4.0	204.0	6.0	0.0	1.0	1.0	136.0	170.0	204.0	34.0	68.0	102.0	7.0	0.0	3.9512980585750483	3.0	0.0	4.0	1.0	8.0	6.0	0.0	part_3
65	0.0	4.0	117.0	3.0	0.0	1.0	0.0	39.0	195.0	117.0	234.0	78.0	156.0	7.0	0.0	0.7966634744898329	3.0	0.0	1.0	6.0	1.0	4.0	0.0	part_3
66	0.0	4.0	88.0	2.0	0.0	1.0	1.0	220.0	44.0	88.0	176.0	132.0	264.0	7.0	0.0	0.00012078682902938453	3.0	0.0	3.0	7.0	7.0	3.0	0.0	part_3
67	0.0	4.0	98.0	2.0	0.0	1.0	0.0	147.0	245.0	98.0	196.0	49.0	294.0	7.0	0.0	0.6406581124892909	3.0	0.0	1.0	6.0	1.0	4.0	0.0	part_3
68	0.0	4.0	39.0	1.0	0.0	1.0	0.0	117.0	234.0	39.0	156.0	195.0	78.0	7.0	0.0	0.382977942404068	3.0	0.0	3.0	2.0	3.0	1.0	0.0	part_3
69	0.0	4.0	216.0	4.0	0.0	1.0	0.0	162.0	108.0	216.0	54.0	324.0	270.0	7.0	0.0	0.294843616489743	3.0	0.0	2.0	4.0	2.0	5.0	0.0	part_3
70	0.0	4.0	162.0	3.0	0.0	1.0	1.0	108.0	270.0	162.0	324.0	54.0	216.0	7.0	0.0	0.46318918465931347	3.0	0.0	3.0	7.0	7.0	3.0	0.0	part_3
71	0.0	4.0	270.0	5.0	0.0	1.0	1.0	162.0	54.0	270.0	216.0	324.0	108.0	7.0	0.0	0.8137879165751656	3.0	0.0	2.0	5.0	6.0	8.0	0.0	part_3
72	0.0	4.0	196.0	4.0	0.0	1.0	0.0	147.0	294.0	196.0	98.0	245.0	49.0	7.0	0.0	0.7127427065752272	3.0	0.0	3.0	2.0	3.0	1.0	0.0	part_3
73	0.0	4.0	78.0	2.0	0.0	1.0	1.0	156.0	117.0	78.0	195.0	234.0	39.0	7.0	0.0	0.37765444540491444	3.0	0.0	2.0	5.0	6.0	8.0	0.0	part_3
74	0.0	4.0	156.0	4.0	0.0	1.0	1.0	78.0	234.0	156.0	117.0	195.0	39.0	7.0	0.0	0.795477181660317	3.0	0.0	3.0	7.0	7.0	3.0	0.0	part_3
75	0.0	4.0	88.0	2.0	0.0	1.0	0.0	176.0	132.0	88.0	264.0	44.0	220.0	7.0	0.0	0.04196150457482872	3.0	0.0	4.0	3.0	4.0	2.0	0.0	part_3
76	0.0	4.0	216.0	4.0	0.0	1.0	0.0	270.0	54.0	216.0	324.0	108.0	162.0	7.0	0.0	0.2562241858295238	3.0	0.0	3.0	2.0	3.0	1.0	0.0	part_3
77	0.0	4.0	98.0	2.0	0.0	1.0	0.0	196.0	294.0	98.0	49.0	245.0	147.0	7.0	0.0	0.9325677804890802	3.0	0.0	4.0	3.0	4.0	2.0	0.0	part_3
78	0.0	4.0	88.0	2.0	0.0	1.0	1.0	132.0	44.0	88.0	220.0	264.0	176.0	7.0	0.0	0.11361904131990741	3.0	0.0	1.0	8.0	5.0	7.0	0.0	part_3
79	0.0	4.0	176.0	4.0	0.0	1.0	0.0	264.0	44.0	176.0	220.0	132.0	88.0	7.0	0.0	0.4731777777451498	3.0	0.0	3.0	2.0	3.0	1.0	0.0	part_3
