xPos,corrAns,yPos,corrGoResp,yPosGoStim,xPosGoStim,pracTrials.thisRepN,pracTrials.thisTrialN,pracTrials.thisN,pracTrials.thisIndex,ReDoLoopPrac.thisRepN,ReDoLoopPrac.thisTrialN,ReDoLoopPrac.thisN,ReDoLoopPrac.thisIndex,ReDoLoopPrac.thisTrial,pracStopTrials.thisRepN,pracStopTrials.thisTrialN,pracStopTrials.thisN,pracStopTrials.thisIndex,Blocks.thisRepN,Blocks.thisTrialN,Blocks.thisN,Blocks.thisIndex,trials.thisRepN,trials.thisTrialN,trials.thisN,trials.thisIndex,ReDoLoopMain.thisRepN,ReDoLoopMain.thisTrialN,ReDoLoopMain.thisN,ReDoLoopMain.thisIndex,ReDoLoopMain.thisTrial,StopBlocks.thisRepN,StopBlocks.thisTrialN,StopBlocks.thisN,StopBlocks.thisIndex,StopTrials.thisRepN,StopTrials.thisTrialN,StopTrials.thisN,StopTrials.thisIndex,auctionBlocks.thisRepN,auctionBlocks.thisTrialN,auctionBlocks.thisN,auctionBlocks.thisIndex,auctionTrials.thisRepN,auctionTrials.thisTrialN,auctionTrials.thisN,auctionTrials.thisIndex,learningTrialList,learningPracTrialList,stopTrialList,stopPracTrialList,auctionTrialList,ok1.keys,ok1.rt,resp.keys,resp.corr,resp.rt,feedbackResp.keys,feedbackResp.corr,currentReward,currentStimulus,currentStimType,firstPracComputedRewardOutput,firstPracLearningStimOnset,firstPracLearningFixOnset,firstPracPresentationRT,firstPracPresentationAcc,firstPracPresentationResp,firstPracEndTrialTimeStamp,StartTrialTimeStamp,trialType,goStim,stimType,stopStimValue,goResp.keys,goResp.corr,goResp.rt,key_resp_9.keys,key_resp_9.corr,fixStopOnset,goStimOnset,EndTrialTimeStamp,stopSignalOnset,key_resp_3.keys,key_resp_3.rt,firstComputedRewardOutput,firstLearningStimOnset,firstLearningFixOnset,firstPresentationRT,firstPresentationAcc,firstPresentationResp,firstEndTrialTimeStamp,secondComputedRewardOutput,secondLearningStimOnset,secondLearningFixOnset,secondPresentationRT,secondPresentationAcc,secondPresentationResp,secondEndTrialTimeStamp,key_resp_7.keys,key_resp_7.rt,feedbackResp.rt,beginningSSD,EndingSSD,key_resp_4.keys,key_resp_4.rt,auctionResponse.keys,auctionStimDuration,auctionStim,auctionAmounts,auctionStimValue,auctionCondition,chosenAuctionAmount,auctionResponse.rt,key_resp_5.keys,key_resp_5.rt,shuffledRewardList,chosenReward1,chosenReward2,chosenReward3,chosenReward4,chosenReward5,key_resp_6.keys,key_resp_6.rt,date,frameRate,expName,session,participant,
,,,,,,,,,,,,,,,,,,,,,,,,,,,,,,,,,,,,,,,,,,,,,,,,[],[],[],[],[],9,58.8759160042,,,,,,,,,,,,,,,,,,,,,,,,,,,,,,,,,,,,,,,,,,,,,,,,,,,,,,,,,,,,,,,,,,,,,,,2015_Jul_07_1259,59.9664303831,LearningTask,1,11,
200,w,200,,,,0,0,0,0,,,,,,,,,,,,,,,,,,,,,,,,,,,,,,,,,,,,,,,,,,,,,,w,1,0.917794942856,None,0,1.0,hexagonwhite.gif,go,0.78,0.506609916687,0.0435469150543,0.917794942856,1,w,119.501327038,,,,,,,,,,,,,,,,,,,,,,,,,,,,,,,,,,,,,,,,,,,,,,,,,,,,,,,,2015_Jul_07_1259,59.9664303831,LearningTask,1,11,
-200,q,200,,,,0,1,1,1,,,,,,,,,,,,,,,,,,,,,,,,,,,,,,,,,,,,,,,,,,,,,,q,1,0.484366893768,None,0,0.5,linecyan.gif,stop,0.54,0.515120029449,0.0183072090149,0.484366893768,1,q,122.50445509,,,,,,,,,,,,,,,,,,,,,,,,,,,,,,,,,,,,,,,,,,,,,,,,,,,,,,,,2015_Jul_07_1259,59.9664303831,LearningTask,1,11,
-200,a,-200,,,,0,2,2,7,,,,,,,,,,,,,,,,,,,,,,,,,,,,,,,,,,,,,,,,,,,,,,a,1,0.400581121445,None,0,4.0,trianglemagenta.gif,stop,4.02,0.515219926834,0.0068359375,0.400581121445,1,a,125.50792408,,,,,,,,,,,,,,,,,,,,,,,,,,,,,,,,,,,,,,,,,,,,,,,,,,,,,,,,2015_Jul_07_1259,59.9664303831,LearningTask,1,11,
200,w,200,,,,0,3,3,8,,,,,,,,,,,,,,,,,,,,,,,,,,,,,,,,,,,,,,,,,,,,,,w,1,0.60169506073,None,0,2.0,crossgray.gif,stop,2.17,0.515012979507,0.00568985939026,0.60169506073,1,w,128.511219978,,,,,,,,,,,,,,,,,,,,,,,,,,,,,,,,,,,,,,,,,,,,,,,,,,,,,,,,2015_Jul_07_1259,59.9664303831,LearningTask,1,11,
200,w,200,,,,0,4,4,4,,,,,,,,,,,,,,,,,,,,,,,,,,,,,,,,,,,,,,,,,,,,,,w,1,0.434594154358,None,0,4.0,diamondorange.gif,go,3.96,0.515066862106,0.0143799781799,0.434594154358,1,w,131.514656067,,,,,,,,,,,,,,,,,,,,,,,,,,,,,,,,,,,,,,,,,,,,,,,,,,,,,,,,2015_Jul_07_1259,59.9664303831,LearningTask,1,11,
200,s,-200,,,,0,5,5,6,,,,,,,,,,,,,,,,,,,,,,,,,,,,,,,,,,,,,,,,,,,,,,s,1,0.518231153488,None,0,1.0,squaregreen.gif,stop,1.05,0.514977931976,0.0309238433838,0.518231153488,1,s,134.518018961,,,,,,,,,,,,,,,,,,,,,,,,,,,,,,,,,,,,,,,,,,,,,,,,,,,,,,,,2015_Jul_07_1259,59.9664303831,LearningTask,1,11,
-200,q,200,,,,0,6,6,9,,,,,,,,,,,,,,,,,,,,,,,,,,,,,,,,,,,,,,,,,,,,,,q,1,0.551018953323,None,0,4.0,diamondorange.gif,go,4.13,0.515403985977,0.000900030136108,0.551018953323,1,q,137.521652937,,,,,,,,,,,,,,,,,,,,,,,,,,,,,,,,,,,,,,,,,,,,,,,,,,,,,,,,2015_Jul_07_1259,59.9664303831,LearningTask,1,11,
-200,a,-200,,,,0,7,7,3,,,,,,,,,,,,,,,,,,,,,,,,,,,,,,,,,,,,,,,,,,,,,,a,1,0.36741900444,None,0,2.0,invertedtriangleblue.gif,go,2.24,0.514989852905,0.0108909606934,0.36741900444,1,a,140.524599075,,,,,,,,,,,,,,,,,,,,,,,,,,,,,,,,,,,,,,,,,,,,,,,,,,,,,,,,2015_Jul_07_1259,59.9664303831,LearningTask,1,11,
200,s,-200,,,,0,8,8,2,,,,,,,,,,,,,,,,,,,,,,,,,,,,,,,,,,,,,,,,,,,,,,s,1,0.334054946899,None,0,2.0,invertedtriangleblue.gif,go,2.19,0.515276908875,0.000918865203857,0.334054946899,1,s,143.527842045,,,,,,,,,,,,,,,,,,,,,,,,,,,,,,,,,,,,,,,,,,,,,,,,,,,,,,,,2015_Jul_07_1259,59.9664303831,LearningTask,1,11,
-200,q,200,,,,0,9,9,5,,,,,,,,,,,,,,,,,,,,,,,,,,,,,,,,,,,,,,,,,,,,,,q,1,0.417989015579,None,0,2.0,crossgray.gif,stop,1.98,0.515032052994,0.00106692314148,0.417989015579,1,q,146.531443119,,,,,,,,,,,,,,,,,,,,,,,,,,,,,,,,,,,,,,,,,,,,,,,,,,,,,,,,2015_Jul_07_1259,59.9664303831,LearningTask,1,11,
,,,m,0,200,,,,,,,,,,0,0,0,1,,,,,,,,,,,,,,,,,,,,,,,,,,,,,,,,,,,,,,,,,,,,,,,,,,,,197.526199102,go,invertedtriangleblue.gif,go,2.0,m,1,0.367466926575,None,0,0.00131797790527,0.511171102524,200.525228024,,,,,,,,,,,,,,,,,,,,,,,,,,,,,,,,,,,,,,,,,,,2015_Jul_07_1259,59.9664303831,LearningTask,1,11,
,,,z,0,-200,,,,,,,,,,0,1,1,0,,,,,,,,,,,,,,,,,,,,,,,,,,,,,,,,,,,,,,,,,,,,,,,,,,,,200.525615931,go,hexagonwhite.gif,go,1.0,z,1,0.300769090652,None,0,0.000956058502197,0.515666007996,203.528259039,,,,,,,,,,,,,,,,,,,,,,,,,,,,,,,,,,,,,,,,,,,2015_Jul_07_1259,59.9664303831,LearningTask,1,11,
,,,z,0,-200,,,,,,,,,,1,0,2,0,,,,,,,,,,,,,,,,,,,,,,,,,,,,,,,,,,,,,,,,,,,,,,,,,,,,203.528743029,go,invertedtriangleblue.gif,go,2.0,z,1,0.301311016083,None,0,0.0010449886322,0.515512943268,206.531847,,,,,,,,,,,,,,,,,,,,,,,,,,,,,,,,,,,,,,,,,,,2015_Jul_07_1259,59.9664303831,LearningTask,1,11,
,,,z,0,-200,,,,,,,,,,1,1,3,0,,,,,,,,,,,,,,,,,,,,,,,,,,,,,,,,,,,,,,,,,,,,,,,,,,,,206.532217979,go,circleyellow.gif,go,0.5,z,1,0.300888061523,None,0,0.0234010219574,0.515575885773,209.534922123,,,,,,,,,,,,,,,,,,,,,,,,,,,,,,,,,,,,,,,,,,,2015_Jul_07_1259,59.9664303831,LearningTask,1,11,
,,,m,0,200,,,,,,,,,,2,0,4,1,,,,,,,,,,,,,,,,,,,,,,,,,,,,,,,,,,,,,,,,,,,,,,,,,,,,209.535287142,go,circleyellow.gif,go,0.5,m,1,0.300420999527,None,0,0.00105786323547,0.516192913055,212.538385153,,,,,,,,,,,,,,,,,,,,,,,,,,,,,,,,,,,,,,,,,,,2015_Jul_07_1259,59.9664303831,LearningTask,1,11,
,,,m,0,200,,,,,,,,,,2,1,5,1,,,,,,,,,,,,,,,,,,,,,,,,,,,,,,,,,,,,,,,,,,,,,,,,,,,,212.538746119,stop,squaregreen.gif,stop,1.0,m,1,0.334688901901,None,0,0.000919103622437,0.515903949738,215.542050123,0.766498088837,,,,,,,,,,,,,,,,,,,,,,,,,,,,,,,,,,,,,,,,,,2015_Jul_07_1259,59.9664303831,LearningTask,1,11,
,,,z,0,-200,,,,,,,,,,3,0,6,0,,,,,,,,,,,,,,,,,,,,,,,,,,,,,,,,,,,,,,,,,,,,,,,,,,,,215.542421103,go,invertedtriangleblue.gif,go,2.0,z,1,0.36687207222,None,0,0.000953912734985,0.516350984573,218.545597076,,,,,,,,,,,,,,,,,,,,,,,,,,,,,,,,,,,,,,,,,,,2015_Jul_07_1259,59.9664303831,LearningTask,1,11,
,,,z,0,-200,,,,,,,,,,3,1,7,0,,,,,,,,,,,,,,,,,,,,,,,,,,,,,,,,,,,,,,,,,,,,,,,,,,,,218.545995951,go,invertedtriangleblue.gif,go,2.0,z,1,0.350649118423,None,0,0.00116896629333,0.515629053116,221.548841,,,,,,,,,,,,,,,,,,,,,,,,,,,,,,,,,,,,,,,,,,,2015_Jul_07_1259,59.9664303831,LearningTask,1,11,
,,,m,0,200,,,,,,,,,,4,0,8,1,,,,,,,,,,,,,,,,,,,,,,,,,,,,,,,,,,,,,,,,,,,,,,,,,,,,221.549205065,go,circleyellow.gif,go,0.5,m,1,0.501164913177,None,0,0.000982046127319,0.515734195709,224.551821947,,,,,,,,,,,,,,,,,,,,,,,,,,,,,,,,,,,,,,,,,,,2015_Jul_07_1259,59.9664303831,LearningTask,1,11,
,,,m,0,200,,,,,,,,,,4,1,9,1,,,,,,,,,,,,,,,,,,,,,,,,,,,,,,,,,,,,,,,,,,,,,,,,,,,,224.55219698,go,hexagonwhite.gif,go,1.0,m,1,0.384083032608,None,0,0.00094199180603,0.516242027283,227.555881977,,,,,,,,,,,,,,,,,,,,,,,,,,,,,,,,,,,,,,,,,,,2015_Jul_07_1259,59.9664303831,LearningTask,1,11,
,,,,,,,,,,,,,,,,,,,,,,,,,,,,,,,,,,,,,,,,,,,,,,,,,,,,,,,,,,,,,,,,,,,,,,,,,,,,,,,,,,,,9,82.9522800446,,,,,,,,,,,,,,,,,,,,,,,,,,,,,,,,,,,,,,,,2015_Jul_07_1259,59.9664303831,LearningTask,1,11,
,,,,,,,,,,,,,,,,,,,,,,,,,,,,,,,,,,,,,,,,,,,,,,,,,,,,,9,5.42356991768,,,,,,,,,,,,,,,,,,,,,,,,,,,,,,,,,,,,,,,,,,,,,,,,,,,,,,,,,,,,,,,,,,,,,,,2015_Jul_07_1259,59.9664303831,LearningTask,1,11,
-200,a,-200,,,,,,,,,,,,,,,,,0,0,0,0,0,0,0,3,,,,,,,,,,,,,,,,,,,,,,,,,,,,,a,1,0.934663057327,None,0,0.5,linecyan.gif,stop,,,,,,,,,,,,,,,,,,,,,,,,0,0.507523059845,0.000906944274902,0.934663057327,1,a,319.126573086,,,,,,,,,,,,,,,,,,,,,,,,,,,,,,,,,2015_Jul_07_1259,59.9664303831,LearningTask,1,11,
-200,q,200,,,,,,,,,,,,,,,,,0,0,0,0,0,1,1,1,,,,,,,,,,,,,,,,,,,,,,,,,,,,,q,1,0.40087890625,None,0,0.5,linecyan.gif,stop,,,,,,,,,,,,,,,,,,,,,,,,0.41,0.513481140137,0.000887155532837,0.40087890625,1,q,322.129269123,,,,,,,,,,,,,,,,,,,,,,,,,,,,,,,,,2015_Jul_07_1259,59.9664303831,LearningTask,1,11,
-200,q,200,,,,,,,,,,,,,,,,,0,0,0,0,0,2,2,1,,,,,,,,,,,,,,,,,,,,,,,,,,,,,q,1,0.451409101486,None,0,2.0,crossgray.gif,stop,,,,,,,,,,,,,,,,,,,,,,,,2.12,0.514497995377,0.000977039337158,0.451409101486,1,q,325.132846117,,,,,,,,,,,,,,,,,,,,,,,,,,,,,,,,,2015_Jul_07_1259,59.9664303831,LearningTask,1,11,
-200,q,200,,,,,,,,,,,,,,,,,0,0,0,0,0,3,3,1,,,,,,,,,,,,,,,,,,,,,,,,,,,,,q,1,0.384368896484,None,0,0.5,circleyellow.gif,go,,,,,,,,,,,,,,,,,,,,,,,,0,0.51398897171,0.000898122787476,0.384368896484,1,q,328.136192083,,,,,,,,,,,,,,,,,,,,,,,,,,,,,,,,,2015_Jul_07_1259,59.9664303831,LearningTask,1,11,
-200,a,-200,,,,,,,,,,,,,,,,,0,0,0,0,1,0,4,3,,,,,,,,,,,,,,,,,,,,,,,,,,,,,a,1,0.38409614563,None,0,1.0,squaregreen.gif,stop,,,,,,,,,,,,,,,,,,,,,,,,0,0.514164924622,0.000888824462891,0.38409614563,1,a,331.139224052,,,,,,,,,,,,,,,,,,,,,,,,,,,,,,,,,2015_Jul_07_1259,59.9664303831,LearningTask,1,11,
-200,a,-200,,,,,,,,,,,,,,,,,0,0,0,0,1,1,5,3,,,,,,,,,,,,,,,,,,,,,,,,,,,,,a,1,0.43448805809,None,0,1.0,hexagonwhite.gif,go,,,,,,,,,,,,,,,,,,,,,,,,0.92,0.514034032822,0.000949144363403,0.43448805809,1,a,334.142519951,,,,,,,,,,,,,,,,,,,,,,,,,,,,,,,,,2015_Jul_07_1259,59.9664303831,LearningTask,1,11,
-200,q,200,,,,,,,,,,,,,,,,,0,0,0,0,1,2,6,1,,,,,,,,,,,,,,,,,,,,,,,,,,,,,q,1,0.317317008972,None,0,1.0,squaregreen.gif,stop,,,,,,,,,,,,,,,,,,,,,,,,0.97,0.514710903168,0.000892877578735,0.317317008972,1,q,337.146085978,,,,,,,,,,,,,,,,,,,,,,,,,,,,,,,,,2015_Jul_07_1259,59.9664303831,LearningTask,1,11,
200,s,-200,,,,,,,,,,,,,,,,,0,0,0,0,1,3,7,2,,,,,,,,,,,,,,,,,,,,,,,,,,,,,s,1,0.383959054947,None,0,1.0,squaregreen.gif,stop,,,,,,,,,,,,,,,,,,,,,,,,1.18,0.514299869537,0.000884771347046,0.383959054947,1,s,340.149692059,,,,,,,,,,,,,,,,,,,,,,,,,,,,,,,,,2015_Jul_07_1259,59.9664303831,LearningTask,1,11,
200,w,200,,,,,,,,,,,,,,,,,0,0,0,0,2,0,8,0,,,,,,,,,,,,,,,,,,,,,,,,,,,,,w,1,0.400640964508,None,0,0.5,linecyan.gif,stop,,,,,,,,,,,,,,,,,,,,,,,,0.3,0.513944149017,0.000914096832275,0.400640964508,1,w,343.152437925,,,,,,,,,,,,,,,,,,,,,,,,,,,,,,,,,2015_Jul_07_1259,59.9664303831,LearningTask,1,11,
-200,q,200,,,,,,,,,,,,,,,,,0,0,0,0,2,1,9,1,,,,,,,,,,,,,,,,,,,,,,,,,,,,,q,1,0.367387056351,None,0,0.5,circleyellow.gif,go,,,,,,,,,,,,,,,,,,,,,,,,0.56,0.514761924744,0.000900983810425,0.367387056351,1,q,346.156316996,,,,,,,,,,,,,,,,,,,,,,,,,,,,,,,,,2015_Jul_07_1259,59.9664303831,LearningTask,1,11,
200,w,200,,,,,,,,,,,,,,,,,0,0,0,0,2,2,10,0,,,,,,,,,,,,,,,,,,,,,,,,,,,,,w,1,0.384200811386,None,0,0.5,circleyellow.gif,go,,,,,,,,,,,,,,,,,,,,,,,,0,0.51421380043,0.000892877578735,0.384200811386,1,w,349.159750938,,,,,,,,,,,,,,,,,,,,,,,,,,,,,,,,,2015_Jul_07_1259,59.9664303831,LearningTask,1,11,
200,s,-200,,,,,,,,,,,,,,,,,0,0,0,0,2,3,11,2,,,,,,,,,,,,,,,,,,,,,,,,,,,,,s,1,0.367750167847,None,0,4.0,trianglemagenta.gif,stop,,,,,,,,,,,,,,,,,,,,,,,,4.16,0.513782978058,0.000951051712036,0.367750167847,1,s,352.162881136,,,,,,,,,,,,,,,,,,,,,,,,,,,,,,,,,2015_Jul_07_1259,59.9664303831,LearningTask,1,11,
200,s,-200,,,,,,,,,,,,,,,,,0,0,0,0,3,0,12,2,,,,,,,,,,,,,,,,,,,,,,,,,,,,,s,1,0.401001930237,None,0,2.0,crossgray.gif,stop,,,,,,,,,,,,,,,,,,,,,,,,1.78,0.51412820816,0.000920057296753,0.401001930237,1,s,355.166350126,,,,,,,,,,,,,,,,,,,,,,,,,,,,,,,,,2015_Jul_07_1259,59.9664303831,LearningTask,1,11,
-200,a,-200,,,,,,,,,,,,,,,,,0,0,0,0,3,1,13,3,,,,,,,,,,,,,,,,,,,,,,,,,,,,,a,1,0.450523138046,None,0,0.5,linecyan.gif,stop,,,,,,,,,,,,,,,,,,,,,,,,0.63,0.514559030533,0.000900983810425,0.450523138046,1,a,358.169767141,,,,,,,,,,,,,,,,,,,,,,,,,,,,,,,,,2015_Jul_07_1259,59.9664303831,LearningTask,1,11,
200,s,-200,,,,,,,,,,,,,,,,,0,0,0,0,3,2,14,2,,,,,,,,,,,,,,,,,,,,,,,,,,,,,s,1,0.400707006454,None,0,0.5,linecyan.gif,stop,,,,,,,,,,,,,,,,,,,,,,,,0.44,0.514375925064,0.000890016555786,0.400707006454,1,s,361.173057079,,,,,,,,,,,,,,,,,,,,,,,,,,,,,,,,,2015_Jul_07_1259,59.9664303831,LearningTask,1,11,
-200,a,-200,,,,,,,,,,,,,,,,,0,0,0,0,3,3,15,3,,,,,,,,,,,,,,,,,,,,,,,,,,,,,a,1,0.35044002533,None,0,0.5,circleyellow.gif,go,,,,,,,,,,,,,,,,,,,,,,,,0.67,0.514678955078,0.000984907150269,0.35044002533,1,a,364.176162958,,,,,,,,,,,,,,,,,,,,,,,,,,,,,,,,,2015_Jul_07_1259,59.9664303831,LearningTask,1,11,
200,w,200,,,,,,,,,,,,,,,,,0,0,0,0,4,0,16,0,,,,,,,,,,,,,,,,,,,,,,,,,,,,,w,1,0.434504032135,None,0,0.5,linecyan.gif,stop,,,,,,,,,,,,,,,,,,,,,,,,0.39,0.514675855637,0.000892877578735,0.434504032135,1,w,367.179809093,,,,,,,,,,,,,,,,,,,,,,,,,,,,,,,,,2015_Jul_07_1259,59.9664303831,LearningTask,1,11,
200,w,200,,,,,,,,,,,,,,,,,0,0,0,0,4,1,17,0,,,,,,,,,,,,,,,,,,,,,,,,,,,,,w,1,0.35045003891,None,0,1.0,squaregreen.gif,stop,,,,,,,,,,,,,,,,,,,,,,,,0.79,0.514549016953,0.000907897949219,0.35045003891,1,w,370.183035135,,,,,,,,,,,,,,,,,,,,,,,,,,,,,,,,,2015_Jul_07_1259,59.9664303831,LearningTask,1,11,
-200,q,200,,,,,,,,,,,,,,,,,0,0,0,0,4,2,18,1,,,,,,,,,,,,,,,,,,,,,,,,,,,,,q,1,0.317301988602,None,0,1.0,hexagonwhite.gif,go,,,,,,,,,,,,,,,,,,,,,,,,0,0.514591932297,0.0010678768158,0.317301988602,1,q,373.186588049,,,,,,,,,,,,,,,,,,,,,,,,,,,,,,,,,2015_Jul_07_1259,59.9664303831,LearningTask,1,11,
200,s,-200,,,,,,,,,,,,,,,,,0,0,0,0,4,3,19,2,,,,,,,,,,,,,,,,,,,,,,,,,,,,,s,1,0.384308099747,None,0,0.5,linecyan.gif,stop,,,,,,,,,,,,,,,,,,,,,,,,0.66,0.5141248703,0.000913858413696,0.384308099747,1,s,376.190276146,,,,,,,,,,,,,,,,,,,,,,,,,,,,,,,,,2015_Jul_07_1259,59.9664303831,LearningTask,1,11,
-200,a,-200,,,,,,,,,,,,,,,,,0,0,0,0,5,0,20,3,,,,,,,,,,,,,,,,,,,,,,,,,,,,,a,1,0.334352970123,None,0,2.0,invertedtriangleblue.gif,go,,,,,,,,,,,,,,,,,,,,,,,,2.21,0.513957023621,0.000901222229004,0.334352970123,1,a,379.193171024,,,,,,,,,,,,,,,,,,,,,,,,,,,,,,,,,2015_Jul_07_1259,59.9664303831,LearningTask,1,11,
-200,a,-200,,,,,,,,,,,,,,,,,0,0,0,0,5,1,21,3,,,,,,,,,,,,,,,,,,,,,,,,,,,,,a,1,0.350994110107,None,0,1.0,squaregreen.gif,stop,,,,,,,,,,,,,,,,,,,,,,,,1.22,0.514100074768,0.00092601776123,0.350994110107,1,a,382.196426153,,,,,,,,,,,,,,,,,,,,,,,,,,,,,,,,,2015_Jul_07_1259,59.9664303831,LearningTask,1,11,
-200,q,200,,,,,,,,,,,,,,,,,0,0,0,0,5,2,22,1,,,,,,,,,,,,,,,,,,,,,,,,,,,,,q,1,0.351163864136,None,0,2.0,invertedtriangleblue.gif,go,,,,,,,,,,,,,,,,,,,,,,,,0,0.514679908752,0.000886917114258,0.351163864136,1,q,385.19994092,,,,,,,,,,,,,,,,,,,,,,,,,,,,,,,,,2015_Jul_07_1259,59.9664303831,LearningTask,1,11,
-200,q,200,,,,,,,,,,,,,,,,,0,0,0,0,5,3,23,1,,,,,,,,,,,,,,,,,,,,,,,,,,,,,q,1,0.36753988266,None,0,0.5,circleyellow.gif,go,,,,,,,,,,,,,,,,,,,,,,,,0.55,0.514542818069,0.0011739730835,0.36753988266,1,q,388.203129053,,,,,,,,,,,,,,,,,,,,,,,,,,,,,,,,,2015_Jul_07_1259,59.9664303831,LearningTask,1,11,
-200,a,-200,,,,,,,,,,,,,,,,,0,0,0,0,6,0,24,3,,,,,,,,,,,,,,,,,,,,,,,,,,,,,a,1,0.334147930145,None,0,0.5,circleyellow.gif,go,,,,,,,,,,,,,,,,,,,,,,,,0.64,0.514427185059,0.000990152359009,0.334147930145,1,a,391.20678401,,,,,,,,,,,,,,,,,,,,,,,,,,,,,,,,,2015_Jul_07_1259,59.9664303831,LearningTask,1,11,
-200,a,-200,,,,,,,,,,,,,,,,,0,0,0,0,6,1,25,3,,,,,,,,,,,,,,,,,,,,,,,,,,,,,a,1,0.367296934128,None,0,1.0,squaregreen.gif,stop,,,,,,,,,,,,,,,,,,,,,,,,0.86,0.514366149902,0.00091814994812,0.367296934128,1,a,394.209880114,,,,,,,,,,,,,,,,,,,,,,,,,,,,,,,,,2015_Jul_07_1259,59.9664303831,LearningTask,1,11,
-200,q,200,,,,,,,,,,,,,,,,,0,0,0,0,6,2,26,1,,,,,,,,,,,,,,,,,,,,,,,,,,,,,q,1,0.334290027618,None,0,0.5,linecyan.gif,stop,,,,,,,,,,,,,,,,,,,,,,,,0.46,0.514458179474,0.000915050506592,0.334290027618,1,q,397.213977098,,,,,,,,,,,,,,,,,,,,,,,,,,,,,,,,,2015_Jul_07_1259,59.9664303831,LearningTask,1,11,
-200,a,-200,,,,,,,,,,,,,,,,,0,0,0,0,6,3,27,3,,,,,,,,,,,,,,,,,,,,,,,,,,,,,a,1,0.351293087006,None,0,2.0,crossgray.gif,stop,,,,,,,,,,,,,,,,,,,,,,,,0,0.51370215416,0.000936985015869,0.351293087006,1,a,400.216979027,,,,,,,,,,,,,,,,,,,,,,,,,,,,,,,,,2015_Jul_07_1259,59.9664303831,LearningTask,1,11,
-200,a,-200,,,,,,,,,,,,,,,,,0,0,0,0,7,0,28,3,,,,,,,,,,,,,,,,,,,,,,,,,,,,,a,1,0.367671966553,None,0,4.0,diamondorange.gif,go,,,,,,,,,,,,,,,,,,,,,,,,4.01,0.514435052872,0.000899076461792,0.367671966553,1,a,403.220122099,,,,,,,,,,,,,,,,,,,,,,,,,,,,,,,,,2015_Jul_07_1259,59.9664303831,LearningTask,1,11,
-200,a,-200,,,,,,,,,,,,,,,,,0,0,0,0,7,1,29,3,,,,,,,,,,,,,,,,,,,,,,,,,,,,,a,1,0.333853960037,None,0,4.0,trianglemagenta.gif,stop,,,,,,,,,,,,,,,,,,,,,,,,3.78,0.514374017715,0.000891923904419,0.333853960037,1,a,406.223674059,,,,,,,,,,,,,,,,,,,,,,,,,,,,,,,,,2015_Jul_07_1259,59.9664303831,LearningTask,1,11,
-200,q,200,,,,,,,,,,,,,,,,,0,0,0,0,7,2,30,1,,,,,,,,,,,,,,,,,,,,,,,,,,,,,q,1,0.300326108932,None,0,2.0,crossgray.gif,stop,,,,,,,,,,,,,,,,,,,,,,,,1.79,0.514544963837,0.000891923904419,0.300326108932,1,q,409.227249146,,,,,,,,,,,,,,,,,,,,,,,,,,,,,,,,,2015_Jul_07_1259,59.9664303831,LearningTask,1,11,
200,w,200,,,,,,,,,,,,,,,,,0,0,0,0,7,3,31,0,,,,,,,,,,,,,,,,,,,,,,,,,,,,,w,1,0.367717027664,None,0,2.0,crossgray.gif,stop,,,,,,,,,,,,,,,,,,,,,,,,2.25,0.513705968857,0.00113606452942,0.367717027664,1,w,412.230914116,,,,,,,,,,,,,,,,,,,,,,,,,,,,,,,,,2015_Jul_07_1259,59.9664303831,LearningTask,1,11,
-200,a,-200,,,,,,,,,,,,,,,,,0,0,0,0,8,0,32,3,,,,,,,,,,,,,,,,,,,,,,,,,,,,,a,1,0.301201820374,None,0,4.0,trianglemagenta.gif,stop,,,,,,,,,,,,,,,,,,,,,,,,4.21,0.513655900955,0.000911951065063,0.301201820374,1,a,415.233797073,,,,,,,,,,,,,,,,,,,,,,,,,,,,,,,,,2015_Jul_07_1259,59.9664303831,LearningTask,1,11,
-200,a,-200,,,,,,,,,,,,,,,,,0,0,0,0,8,1,33,3,,,,,,,,,,,,,,,,,,,,,,,,,,,,,a,1,0.334015130997,None,0,0.5,linecyan.gif,stop,,,,,,,,,,,,,,,,,,,,,,,,0,0.514261960983,0.000900030136108,0.334015130997,1,a,418.236995935,,,,,,,,,,,,,,,,,,,,,,,,,,,,,,,,,2015_Jul_07_1259,59.9664303831,LearningTask,1,11,
200,s,-200,,,,,,,,,,,,,,,,,0,0,0,0,8,2,34,2,,,,,,,,,,,,,,,,,,,,,,,,,,,,,s,1,0.434349060059,None,0,0.5,linecyan.gif,stop,,,,,,,,,,,,,,,,,,,,,,,,0.42,0.51433801651,0.000994920730591,0.434349060059,1,s,421.240438938,,,,,,,,,,,,,,,,,,,,,,,,,,,,,,,,,2015_Jul_07_1259,59.9664303831,LearningTask,1,11,
-200,q,200,,,,,,,,,,,,,,,,,0,0,0,0,8,3,35,1,,,,,,,,,,,,,,,,,,,,,,,,,,,,,q,1,0.367120027542,None,0,2.0,invertedtriangleblue.gif,go,,,,,,,,,,,,,,,,,,,,,,,,2.05,0.514743089676,0.000900983810425,0.367120027542,1,q,424.244142056,,,,,,,,,,,,,,,,,,,,,,,,,,,,,,,,,2015_Jul_07_1259,59.9664303831,LearningTask,1,11,
-200,a,-200,,,,,,,,,,,,,,,,,0,0,0,0,9,0,36,3,,,,,,,,,,,,,,,,,,,,,,,,,,,,,a,1,0.317355871201,None,0,4.0,diamondorange.gif,go,,,,,,,,,,,,,,,,,,,,,,,,3.75,0.514158010483,0.000936985015869,0.317355871201,1,a,427.24733305,,,,,,,,,,,,,,,,,,,,,,,,,,,,,,,,,2015_Jul_07_1259,59.9664303831,LearningTask,1,11,
200,s,-200,,,,,,,,,,,,,,,,,0,0,0,0,9,1,37,2,,,,,,,,,,,,,,,,,,,,,,,,,,,,,s,1,0.383941888809,None,0,1.0,hexagonwhite.gif,go,,,,,,,,,,,,,,,,,,,,,,,,0,0.514326810837,0.000952959060669,0.383941888809,1,s,430.250637054,,,,,,,,,,,,,,,,,,,,,,,,,,,,,,,,,2015_Jul_07_1259,59.9664303831,LearningTask,1,11,
200,w,200,,,,,,,,,,,,,,,,,0,0,0,0,9,2,38,0,,,,,,,,,,,,,,,,,,,,,,,,,,,,,w,1,0.317487955093,None,0,0.5,circleyellow.gif,go,,,,,,,,,,,,,,,,,,,,,,,,0.41,0.513999938965,0.000911951065063,0.317487955093,1,w,433.254504919,,,,,,,,,,,,,,,,,,,,,,,,,,,,,,,,,2015_Jul_07_1259,59.9664303831,LearningTask,1,11,
200,s,-200,,,,,,,,,,,,,,,,,0,0,0,0,9,3,39,2,,,,,,,,,,,,,,,,,,,,,,,,,,,,,s,1,0.350265979767,None,0,2.0,crossgray.gif,stop,,,,,,,,,,,,,,,,,,,,,,,,0,0.513850212097,0.00102806091309,0.350265979767,1,s,436.257671118,,,,,,,,,,,,,,,,,,,,,,,,,,,,,,,,,2015_Jul_07_1259,59.9664303831,LearningTask,1,11,
200,s,-200,,,,,,,,,,,,,,,,,0,0,0,0,10,0,40,2,,,,,,,,,,,,,,,,,,,,,,,,,,,,,s,1,0.417662143707,None,0,4.0,diamondorange.gif,go,,,,,,,,,,,,,,,,,,,,,,,,0,0.513586044312,0.000936985015869,0.417662143707,1,s,439.260743141,,,,,,,,,,,,,,,,,,,,,,,,,,,,,,,,,2015_Jul_07_1259,59.9664303831,LearningTask,1,11,
200,s,-200,,,,,,,,,,,,,,,,,0,0,0,0,10,1,41,2,,,,,,,,,,,,,,,,,,,,,,,,,,,,,s,1,0.350807905197,None,0,4.0,trianglemagenta.gif,stop,,,,,,,,,,,,,,,,,,,,,,,,4.25,0.514392137527,0.000908136367798,0.350807905197,1,s,442.264230967,,,,,,,,,,,,,,,,,,,,,,,,,,,,,,,,,2015_Jul_07_1259,59.9664303831,LearningTask,1,11,
200,w,200,,,,,,,,,,,,,,,,,0,0,0,0,10,2,42,0,,,,,,,,,,,,,,,,,,,,,,,,,,,,,w,1,0.35075378418,None,0,4.0,trianglemagenta.gif,stop,,,,,,,,,,,,,,,,,,,,,,,,3.8,0.514435052872,0.000916957855225,0.35075378418,1,w,445.267805099,,,,,,,,,,,,,,,,,,,,,,,,,,,,,,,,,2015_Jul_07_1259,59.9664303831,LearningTask,1,11,
-200,a,-200,,,,,,,,,,,,,,,,,0,0,0,0,10,3,43,3,,,,,,,,,,,,,,,,,,,,,,,,,,,,,a,1,0.334309101105,None,0,2.0,crossgray.gif,stop,,,,,,,,,,,,,,,,,,,,,,,,1.82,0.5142121315,0.000962972640991,0.334309101105,1,a,448.270828962,,,,,,,,,,,,,,,,,,,,,,,,,,,,,,,,,2015_Jul_07_1259,59.9664303831,LearningTask,1,11,
-200,a,-200,,,,,,,,,,,,,,,,,0,0,0,0,11,0,44,3,,,,,,,,,,,,,,,,,,,,,,,,,,,,,a,1,0.317379951477,None,0,1.0,squaregreen.gif,stop,,,,,,,,,,,,,,,,,,,,,,,,0.75,0.514714002609,0.000997066497803,0.317379951477,1,a,451.274105072,,,,,,,,,,,,,,,,,,,,,,,,,,,,,,,,,2015_Jul_07_1259,59.9664303831,LearningTask,1,11,
200,w,200,,,,,,,,,,,,,,,,,0,0,0,0,11,1,45,0,,,,,,,,,,,,,,,,,,,,,,,,,,,,,w,1,0.40043592453,None,0,1.0,hexagonwhite.gif,go,,,,,,,,,,,,,,,,,,,,,,,,1.14,0.514727830887,0.00091290473938,0.40043592453,1,w,454.277643919,,,,,,,,,,,,,,,,,,,,,,,,,,,,,,,,,2015_Jul_07_1259,59.9664303831,LearningTask,1,11,
200,s,-200,,,,,,,,,,,,,,,,,0,0,0,0,11,2,46,2,,,,,,,,,,,,,,,,,,,,,,,,,,,,,s,1,0.333729028702,None,0,1.0,squaregreen.gif,stop,,,,,,,,,,,,,,,,,,,,,,,,0,0.514557123184,0.000890016555786,0.333729028702,1,s,457.281036139,,,,,,,,,,,,,,,,,,,,,,,,,,,,,,,,,2015_Jul_07_1259,59.9664303831,LearningTask,1,11,
-200,a,-200,,,,,,,,,,,,,,,,,0,0,0,0,11,3,47,3,,,,,,,,,,,,,,,,,,,,,,,,,,,,,a,1,0.400567054749,None,0,1.0,squaregreen.gif,stop,,,,,,,,,,,,,,,,,,,,,,,,1.18,0.514477968216,0.00106000900269,0.400567054749,1,a,460.284620047,,,,,,,,,,,,,,,,,,,,,,,,,,,,,,,,,2015_Jul_07_1259,59.9664303831,LearningTask,1,11,
-200,a,-200,,,,,,,,,,,,,,,,,0,0,0,0,12,0,48,3,,,,,,,,,,,,,,,,,,,,,,,,,,,,,a,1,0.433912992477,None,0,4.0,diamondorange.gif,go,,,,,,,,,,,,,,,,,,,,,,,,4.05,0.513950109482,0.000920057296753,0.433912992477,1,a,463.287810087,,,,,,,,,,,,,,,,,,,,,,,,,,,,,,,,,2015_Jul_07_1259,59.9664303831,LearningTask,1,11,
-200,q,200,,,,,,,,,,,,,,,,,0,0,0,0,12,1,49,1,,,,,,,,,,,,,,,,,,,,,,,,,,,,,q,1,0.284770011902,None,0,1.0,hexagonwhite.gif,go,,,,,,,,,,,,,,,,,,,,,,,,0.9,0.513960123062,0.000922203063965,0.284770011902,1,q,466.290846109,,,,,,,,,,,,,,,,,,,,,,,,,,,,,,,,,2015_Jul_07_1259,59.9664303831,LearningTask,1,11,
200,w,200,,,,,,,,,,,,,,,,,0,0,0,0,12,2,50,0,,,,,,,,,,,,,,,,,,,,,,,,,,,,,w,1,0.367374897003,None,0,0.5,circleyellow.gif,go,,,,,,,,,,,,,,,,,,,,,,,,0,0.514363050461,0.000957012176514,0.367374897003,1,w,469.294417143,,,,,,,,,,,,,,,,,,,,,,,,,,,,,,,,,2015_Jul_07_1259,59.9664303831,LearningTask,1,11,
-200,q,200,,,,,,,,,,,,,,,,,0,0,0,0,12,3,51,1,,,,,,,,,,,,,,,,,,,,,,,,,,,,,q,1,0.334681987762,None,0,4.0,diamondorange.gif,go,,,,,,,,,,,,,,,,,,,,,,,,0,0.5143699646,0.000897884368896,0.367474079132,0,a,472.297865152,0,0.515290021896,0.000970125198364,0.334681987762,1,q,475.301150084,,,,,,,,,,,,,,,,,,,,,,,,,,2015_Jul_07_1259,59.9664303831,LearningTask,1,11,
200,w,200,,,,,,,,,,,,,,,,,0,0,0,0,13,0,52,0,,,,,,,,,,,,,,,,,,,,,,,,,,,,,w,1,0.334089994431,None,0,4.0,trianglemagenta.gif,stop,,,,,,,,,,,,,,,,,,,,,,,,3.82,0.514125823975,0.000918865203857,0.334089994431,1,w,478.304480076,,,,,,,,,,,,,,,,,,,,,,,,,,,,,,,,,2015_Jul_07_1259,59.9664303831,LearningTask,1,11,
200,s,-200,,,,,,,,,,,,,,,,,0,0,0,0,13,1,53,2,,,,,,,,,,,,,,,,,,,,,,,,,,,,,s,1,0.334139108658,None,0,2.0,invertedtriangleblue.gif,go,,,,,,,,,,,,,,,,,,,,,,,,1.83,0.514553070068,0.000909090042114,0.334139108658,1,s,481.308012009,,,,,,,,,,,,,,,,,,,,,,,,,,,,,,,,,2015_Jul_07_1259,59.9664303831,LearningTask,1,11,
200,w,200,,,,,,,,,,,,,,,,,0,0,0,0,13,2,54,0,,,,,,,,,,,,,,,,,,,,,,,,,,,,,w,1,0.334495782852,None,0,4.0,diamondorange.gif,go,,,,,,,,,,,,,,,,,,,,,,,,0,0.513963222504,0.00112318992615,0.334495782852,1,w,484.311425924,,,,,,,,,,,,,,,,,,,,,,,,,,,,,,,,,2015_Jul_07_1259,59.9664303831,LearningTask,1,11,
200,w,200,,,,,,,,,,,,,,,,,0,0,0,0,13,3,55,0,,,,,,,,,,,,,,,,,,,,,,,,,,,,,w,1,0.318356990814,None,0,1.0,squaregreen.gif,stop,,,,,,,,,,,,,,,,,,,,,,,,1.07,0.513897895813,0.000951051712036,0.318356990814,1,w,487.314403057,,,,,,,,,,,,,,,,,,,,,,,,,,,,,,,,,2015_Jul_07_1259,59.9664303831,LearningTask,1,11,
-200,a,-200,,,,,,,,,,,,,,,,,0,0,0,0,14,0,56,3,,,,,,,,,,,,,,,,,,,,,,,,,,,,,a,1,0.300920963287,None,0,0.5,linecyan.gif,stop,,,,,,,,,,,,,,,,,,,,,,,,0,0.512589931488,0.000944852828979,0.300920963287,1,a,490.318176985,,,,,,,,,,,,,,,,,,,,,,,,,,,,,,,,,2015_Jul_07_1259,59.9664303831,LearningTask,1,11,
-200,a,-200,,,,,,,,,,,,,,,,,0,0,0,0,14,1,57,3,,,,,,,,,,,,,,,,,,,,,,,,,,,,,a,1,0.300590991974,None,0,2.0,invertedtriangleblue.gif,go,,,,,,,,,,,,,,,,,,,,,,,,2.2,0.514187097549,0.00106620788574,0.300590991974,1,a,493.321573019,,,,,,,,,,,,,,,,,,,,,,,,,,,,,,,,,2015_Jul_07_1259,59.9664303831,LearningTask,1,11,
200,s,-200,,,,,,,,,,,,,,,,,0,0,0,0,14,2,58,2,,,,,,,,,,,,,,,,,,,,,,,,,,,,,s,1,0.350914955139,None,0,1.0,hexagonwhite.gif,go,,,,,,,,,,,,,,,,,,,,,,,,0.91,0.514275074005,0.000895023345947,0.350914955139,1,s,496.324790001,,,,,,,,,,,,,,,,,,,,,,,,,,,,,,,,,2015_Jul_07_1259,59.9664303831,LearningTask,1,11,
200,s,-200,,,,,,,,,,,,,,,,,0,0,0,0,14,3,59,2,,,,,,,,,,,,,,,,,,,,,,,,,,,,,s,1,0.401219844818,None,0,1.0,squaregreen.gif,stop,,,,,,,,,,,,,,,,,,,,,,,,0.83,0.514354944229,0.000921010971069,0.401219844818,1,s,499.327952147,,,,,,,,,,,,,,,,,,,,,,,,,,,,,,,,,2015_Jul_07_1259,59.9664303831,LearningTask,1,11,
200,w,200,,,,,,,,,,,,,,,,,0,0,0,0,15,0,60,0,,,,,,,,,,,,,,,,,,,,,,,,,,,,,w,1,0.350947141647,None,0,2.0,crossgray.gif,stop,,,,,,,,,,,,,,,,,,,,,,,,1.76,0.514590978622,0.000922918319702,0.350947141647,1,w,502.331916094,,,,,,,,,,,,,,,,,,,,,,,,,,,,,,,,,2015_Jul_07_1259,59.9664303831,LearningTask,1,11,
200,s,-200,,,,,,,,,,,,,,,,,0,0,0,0,15,1,61,2,,,,,,,,,,,,,,,,,,,,,,,,,,,,,s,1,0.350942134857,None,0,2.0,invertedtriangleblue.gif,go,,,,,,,,,,,,,,,,,,,,,,,,1.93,0.513866901398,0.00104594230652,0.350942134857,1,s,505.335085154,,,,,,,,,,,,,,,,,,,,,,,,,,,,,,,,,2015_Jul_07_1259,59.9664303831,LearningTask,1,11,
-200,q,200,,,,,,,,,,,,,,,,,0,0,0,0,15,2,62,1,,,,,,,,,,,,,,,,,,,,,,,,,,,,,q,1,0.384104013443,None,0,1.0,hexagonwhite.gif,go,,,,,,,,,,,,,,,,,,,,,,,,0,0.513866901398,0.00096607208252,0.384104013443,1,q,508.338310003,,,,,,,,,,,,,,,,,,,,,,,,,,,,,,,,,2015_Jul_07_1259,59.9664303831,LearningTask,1,11,
200,s,-200,,,,,,,,,,,,,,,,,0,0,0,0,15,3,63,2,,,,,,,,,,,,,,,,,,,,,,,,,,,,,s,1,0.384360074997,None,0,1.0,squaregreen.gif,stop,,,,,,,,,,,,,,,,,,,,,,,,1.21,0.514204025269,0.000885009765625,0.384360074997,1,s,511.341951132,,,,,,,,,,,,,,,,,,,,,,,,,,,,,,,,,2015_Jul_07_1259,59.9664303831,LearningTask,1,11,
200,s,-200,,,,,,,,,,,,,,,,,0,0,0,0,16,0,64,2,,,,,,,,,,,,,,,,,,,,,,,,,,,,,s,1,0.384443998337,None,0,2.0,crossgray.gif,stop,,,,,,,,,,,,,,,,,,,,,,,,2.09,0.514023065567,0.000894069671631,0.384443998337,1,s,514.344923019,,,,,,,,,,,,,,,,,,,,,,,,,,,,,,,,,2015_Jul_07_1259,59.9664303831,LearningTask,1,11,
200,s,-200,,,,,,,,,,,,,,,,,0,0,0,0,16,1,65,2,,,,,,,,,,,,,,,,,,,,,,,,,,,,,s,1,0.384536027908,None,0,4.0,diamondorange.gif,go,,,,,,,,,,,,,,,,,,,,,,,,0,0.513955831528,0.000921964645386,0.384536027908,1,s,517.348698139,,,,,,,,,,,,,,,,,,,,,,,,,,,,,,,,,2015_Jul_07_1259,59.9664303831,LearningTask,1,11,
200,w,200,,,,,,,,,,,,,,,,,0,0,0,0,16,2,66,0,,,,,,,,,,,,,,,,,,,,,,,,,,,,,w,1,0.333598136902,None,0,4.0,diamondorange.gif,go,,,,,,,,,,,,,,,,,,,,,,,,4.22,0.514415979385,0.000922918319702,0.333598136902,1,w,520.351850033,,,,,,,,,,,,,,,,,,,,,,,,,,,,,,,,,2015_Jul_07_1259,59.9664303831,LearningTask,1,11,
-200,q,200,,,,,,,,,,,,,,,,,0,0,0,0,16,3,67,1,,,,,,,,,,,,,,,,,,,,,,,,,,,,,q,1,0.418011903763,None,0,2.0,invertedtriangleblue.gif,go,,,,,,,,,,,,,,,,,,,,,,,,2.24,0.514392852783,0.0011670589447,0.418011903763,1,q,523.355520964,,,,,,,,,,,,,,,,,,,,,,,,,,,,,,,,,2015_Jul_07_1259,59.9664303831,LearningTask,1,11,
-200,q,200,,,,,,,,,,,,,,,,,0,0,0,0,17,0,68,1,,,,,,,,,,,,,,,,,,,,,,,,,,,,,q,1,0.350582122803,None,0,0.5,linecyan.gif,stop,,,,,,,,,,,,,,,,,,,,,,,,0.63,0.514282941818,0.000895977020264,0.350582122803,1,q,526.358729124,,,,,,,,,,,,,,,,,,,,,,,,,,,,,,,,,2015_Jul_07_1259,59.9664303831,LearningTask,1,11,
-200,q,200,,,,,,,,,,,,,,,,,0,0,0,0,17,1,69,1,,,,,,,,,,,,,,,,,,,,,,,,,,,,,q,1,0.383868932724,None,0,2.0,crossgray.gif,stop,,,,,,,,,,,,,,,,,,,,,,,,1.93,0.514379024506,0.00095796585083,0.383868932724,1,q,529.361770153,,,,,,,,,,,,,,,,,,,,,,,,,,,,,,,,,2015_Jul_07_1259,59.9664303831,LearningTask,1,11,
200,s,-200,,,,,,,,,,,,,,,,,0,0,0,0,17,2,70,2,,,,,,,,,,,,,,,,,,,,,,,,,,,,,s,1,0.36722779274,None,0,0.5,linecyan.gif,stop,,,,,,,,,,,,,,,,,,,,,,,,0,0.514881849289,0.000887870788574,0.36722779274,1,s,532.365679026,,,,,,,,,,,,,,,,,,,,,,,,,,,,,,,,,2015_Jul_07_1259,59.9664303831,LearningTask,1,11,
200,w,200,,,,,,,,,,,,,,,,,0,0,0,0,17,3,71,0,,,,,,,,,,,,,,,,,,,,,,,,,,,,,w,1,0.368010997772,None,0,2.0,invertedtriangleblue.gif,go,,,,,,,,,,,,,,,,,,,,,,,,0,0.513916015625,0.000888109207153,0.368010997772,1,w,535.368628979,,,,,,,,,,,,,,,,,,,,,,,,,,,,,,,,,2015_Jul_07_1259,59.9664303831,LearningTask,1,11,
200,s,-200,,,,,,,,,,,,,,,,,0,0,0,0,18,0,72,2,,,,,,,,,,,,,,,,,,,,,,,,,,,,,s,1,0.367383956909,None,0,4.0,trianglemagenta.gif,stop,,,,,,,,,,,,,,,,,,,,,,,,4.13,0.514528036118,0.000890970230103,0.367383956909,1,s,538.371978998,,,,,,,,,,,,,,,,,,,,,,,,,,,,,,,,,2015_Jul_07_1259,59.9664303831,LearningTask,1,11,
-200,q,200,,,,,,,,,,,,,,,,,0,0,0,0,18,1,73,1,,,,,,,,,,,,,,,,,,,,,,,,,,,,,q,1,0.3005900383,None,0,4.0,trianglemagenta.gif,stop,,,,,,,,,,,,,,,,,,,,,,,,3.76,0.514613866806,0.000916957855225,0.3005900383,1,q,541.375481129,,,,,,,,,,,,,,,,,,,,,,,,,,,,,,,,,2015_Jul_07_1259,59.9664303831,LearningTask,1,11,
-200,a,-200,,,,,,,,,,,,,,,,,0,0,0,0,18,2,74,3,,,,,,,,,,,,,,,,,,,,,,,,,,,,,a,1,0.401394844055,None,0,1.0,squaregreen.gif,stop,,,,,,,,,,,,,,,,,,,,,,,,0.92,0.514039039612,0.00107717514038,0.401394844055,1,a,544.378906012,,,,,,,,,,,,,,,,,,,,,,,,,,,,,,,,,2015_Jul_07_1259,59.9664303831,LearningTask,1,11,
200,w,200,,,,,,,,,,,,,,,,,0,0,0,0,18,3,75,0,,,,,,,,,,,,,,,,,,,,,,,,,,,,,w,1,0.334297180176,None,0,4.0,trianglemagenta.gif,stop,,,,,,,,,,,,,,,,,,,,,,,,4.13,0.514248847961,0.0010027885437,0.334297180176,1,w,547.382416964,,,,,,,,,,,,,,,,,,,,,,,,,,,,,,,,,2015_Jul_07_1259,59.9664303831,LearningTask,1,11,
200,w,200,,,,,,,,,,,,,,,,,0,0,0,0,19,0,76,0,,,,,,,,,,,,,,,,,,,,,,,,,,,,,w,1,0.367824792862,None,0,4.0,diamondorange.gif,go,,,,,,,,,,,,,,,,,,,,,,,,3.82,0.513802051544,0.000957012176514,0.367824792862,1,w,550.385632992,,,,,,,,,,,,,,,,,,,,,,,,,,,,,,,,,2015_Jul_07_1259,59.9664303831,LearningTask,1,11,
-200,q,200,,,,,,,,,,,,,,,,,0,0,0,0,19,1,77,1,,,,,,,,,,,,,,,,,,,,,,,,,,,,,q,1,0.301342010498,None,0,0.5,linecyan.gif,stop,,,,,,,,,,,,,,,,,,,,,,,,0,0.514034986496,0.000926971435547,0.301342010498,1,q,553.388988972,,,,,,,,,,,,,,,,,,,,,,,,,,,,,,,,,2015_Jul_07_1259,59.9664303831,LearningTask,1,11,
200,s,-200,,,,,,,,,,,,,,,,,0,0,0,0,19,2,78,2,,,,,,,,,,,,,,,,,,,,,,,,,,,,,s,1,0.350795030594,None,0,4.0,diamondorange.gif,go,,,,,,,,,,,,,,,,,,,,,,,,3.96,0.51416683197,0.00104379653931,0.350795030594,1,s,556.392288923,,,,,,,,,,,,,,,,,,,,,,,,,,,,,,,,,2015_Jul_07_1259,59.9664303831,LearningTask,1,11,
-200,q,200,,,,,,,,,,,,,,,,,0,0,0,0,19,3,79,1,,,,,,,,,,,,,,,,,,,,,,,,,,,,,q,1,0.400372982025,None,0,1.0,squaregreen.gif,stop,,,,,,,,,,,,,,,,,,,,,,,,0.78,0.514930009842,0.000897884368896,0.400372982025,1,q,559.395647049,,,,,,,,,,,,,,,,,,,,,,,,,,,,,,,,,2015_Jul_07_1259,59.9664303831,LearningTask,1,11,
200,w,200,,,,,,,,,,,,,,,,,0,0,0,0,20,0,80,0,,,,,,,,,,,,,,,,,,,,,,,,,,,,,w,1,0.334007978439,None,0,1.0,hexagonwhite.gif,go,,,,,,,,,,,,,,,,,,,,,,,,1.08,0.514405965805,0.000900983810425,0.334007978439,1,w,562.399296999,,,,,,,,,,,,,,,,,,,,,,,,,,,,,,,,,2015_Jul_07_1259,59.9664303831,LearningTask,1,11,
200,s,-200,,,,,,,,,,,,,,,,,0,0,0,0,20,1,81,2,,,,,,,,,,,,,,,,,,,,,,,,,,,,,s,1,0.383887052536,None,0,2.0,crossgray.gif,stop,,,,,,,,,,,,,,,,,,,,,,,,1.89,0.514523029327,0.000907897949219,0.383887052536,1,s,565.402408123,,,,,,,,,,,,,,,,,,,,,,,,,,,,,,,,,2015_Jul_07_1259,59.9664303831,LearningTask,1,11,
200,w,200,,,,,,,,,,,,,,,,,0,0,0,0,20,2,82,0,,,,,,,,,,,,,,,,,,,,,,,,,,,,,w,1,0.350817203522,None,0,4.0,trianglemagenta.gif,stop,,,,,,,,,,,,,,,,,,,,,,,,4.11,0.514627933502,0.000910997390747,0.350817203522,1,w,568.405781984,,,,,,,,,,,,,,,,,,,,,,,,,,,,,,,,,2015_Jul_07_1259,59.9664303831,LearningTask,1,11,
200,w,200,,,,,,,,,,,,,,,,,0,0,0,0,20,3,83,0,,,,,,,,,,,,,,,,,,,,,,,,,,,,,w,1,0.334258079529,None,0,1.0,hexagonwhite.gif,go,,,,,,,,,,,,,,,,,,,,,,,,0,0.514415979385,0.000909090042114,0.334258079529,1,w,571.409564018,,,,,,,,,,,,,,,,,,,,,,,,,,,,,,,,,2015_Jul_07_1259,59.9664303831,LearningTask,1,11,
-200,a,-200,,,,,,,,,,,,,,,,,0,0,0,0,21,0,84,3,,,,,,,,,,,,,,,,,,,,,,,,,,,,,a,1,0.350688934326,None,0,4.0,diamondorange.gif,go,,,,,,,,,,,,,,,,,,,,,,,,3.75,0.513790130615,0.000892162322998,0.350688934326,1,a,574.412861109,,,,,,,,,,,,,,,,,,,,,,,,,,,,,,,,,2015_Jul_07_1259,59.9664303831,LearningTask,1,11,
200,w,200,,,,,,,,,,,,,,,,,0,0,0,0,21,1,85,0,,,,,,,,,,,,,,,,,,,,,,,,,,,,,w,1,0.300580978394,None,0,0.5,linecyan.gif,stop,,,,,,,,,,,,,,,,,,,,,,,,0.38,0.51407289505,0.000895023345947,0.300580978394,1,w,577.415992975,,,,,,,,,,,,,,,,,,,,,,,,,,,,,,,,,2015_Jul_07_1259,59.9664303831,LearningTask,1,11,
-200,q,200,,,,,,,,,,,,,,,,,0,0,0,0,21,2,86,1,,,,,,,,,,,,,,,,,,,,,,,,,,,,,q,1,0.300828933716,None,0,4.0,trianglemagenta.gif,stop,,,,,,,,,,,,,,,,,,,,,,,,4.02,0.514494180679,0.000896215438843,0.300828933716,1,q,580.419459105,,,,,,,,,,,,,,,,,,,,,,,,,,,,,,,,,2015_Jul_07_1259,59.9664303831,LearningTask,1,11,
200,w,200,,,,,,,,,,,,,,,,,0,0,0,0,21,3,87,0,,,,,,,,,,,,,,,,,,,,,,,,,,,,,w,1,0.284838914871,None,0,0.5,linecyan.gif,stop,,,,,,,,,,,,,,,,,,,,,,,,0.74,0.514189958572,0.000890016555786,0.284838914871,1,w,583.422616005,,,,,,,,,,,,,,,,,,,,,,,,,,,,,,,,,2015_Jul_07_1259,59.9664303831,LearningTask,1,11,
200,w,200,,,,,,,,,,,,,,,,,0,0,0,0,22,0,88,0,,,,,,,,,,,,,,,,,,,,,,,,,,,,,w,1,0.300878047943,None,0,1.0,squaregreen.gif,stop,,,,,,,,,,,,,,,,,,,,,,,,0,0.514529943466,0.000887870788574,0.300878047943,1,w,586.425975084,,,,,,,,,,,,,,,,,,,,,,,,,,,,,,,,,2015_Jul_07_1259,59.9664303831,LearningTask,1,11,
-200,a,-200,,,,,,,,,,,,,,,,,0,0,0,0,22,1,89,3,,,,,,,,,,,,,,,,,,,,,,,,,,,,,a,1,0.367044210434,None,0,0.5,circleyellow.gif,go,,,,,,,,,,,,,,,,,,,,,,,,0.34,0.514412879944,0.00142097473145,0.367044210434,1,a,589.429415941,,,,,,,,,,,,,,,,,,,,,,,,,,,,,,,,,2015_Jul_07_1259,59.9664303831,LearningTask,1,11,
-200,a,-200,,,,,,,,,,,,,,,,,0,0,0,0,22,2,90,3,,,,,,,,,,,,,,,,,,,,,,,,,,,,,a,1,0.434735059738,None,0,4.0,trianglemagenta.gif,stop,,,,,,,,,,,,,,,,,,,,,,,,4.22,0.514004945755,0.000970840454102,0.434735059738,1,a,592.432865143,,,,,,,,,,,,,,,,,,,,,,,,,,,,,,,,,2015_Jul_07_1259,59.9664303831,LearningTask,1,11,
-200,q,200,,,,,,,,,,,,,,,,,0,0,0,0,22,3,91,1,,,,,,,,,,,,,,,,,,,,,,,,,,,,,q,1,0.400861024857,None,0,4.0,diamondorange.gif,go,,,,,,,,,,,,,,,,,,,,,,,,4.11,0.514549970627,0.00101900100708,0.400861024857,1,q,595.436228991,,,,,,,,,,,,,,,,,,,,,,,,,,,,,,,,,2015_Jul_07_1259,59.9664303831,LearningTask,1,11,
200,w,200,,,,,,,,,,,,,,,,,0,0,0,0,23,0,92,0,,,,,,,,,,,,,,,,,,,,,,,,,,,,,w,1,0.334156036377,None,0,1.0,squaregreen.gif,stop,,,,,,,,,,,,,,,,,,,,,,,,1.09,0.514482975006,0.000891923904419,0.334156036377,1,w,598.439578056,,,,,,,,,,,,,,,,,,,,,,,,,,,,,,,,,2015_Jul_07_1259,59.9664303831,LearningTask,1,11,
200,w,200,,,,,,,,,,,,,,,,,0,0,0,0,23,1,93,0,,,,,,,,,,,,,,,,,,,,,,,,,,,,,w,1,0.334431886673,None,0,2.0,crossgray.gif,stop,,,,,,,,,,,,,,,,,,,,,,,,2.19,0.514513969421,0.00090503692627,0.334431886673,1,w,601.44284296,,,,,,,,,,,,,,,,,,,,,,,,,,,,,,,,,2015_Jul_07_1259,59.9664303831,LearningTask,1,11,
200,s,-200,,,,,,,,,,,,,,,,,0,0,0,0,23,2,94,2,,,,,,,,,,,,,,,,,,,,,,,,,,,,,s,1,0.350843191147,None,0,0.5,linecyan.gif,stop,,,,,,,,,,,,,,,,,,,,,,,,0.66,0.51439499855,0.000939130783081,0.350843191147,1,s,604.446372032,,,,,,,,,,,,,,,,,,,,,,,,,,,,,,,,,2015_Jul_07_1259,59.9664303831,LearningTask,1,11,
-200,q,200,,,,,,,,,,,,,,,,,0,0,0,0,23,3,95,1,,,,,,,,,,,,,,,,,,,,,,,,,,,,,q,1,0.367386817932,None,0,0.5,circleyellow.gif,go,,,,,,,,,,,,,,,,,,,,,,,,0.29,0.514647960663,0.00115609169006,0.367386817932,1,q,607.44984293,,,,,,,,,,,,,,,,,,,,,,,,,,,,,,,,,2015_Jul_07_1259,59.9664303831,LearningTask,1,11,
200,s,-200,,,,,,,,,,,,,,,,,0,0,0,0,24,0,96,2,,,,,,,,,,,,,,,,,,,,,,,,,,,,,s,1,0.333576917648,None,0,1.0,hexagonwhite.gif,go,,,,,,,,,,,,,,,,,,,,,,,,1.0,0.514610052109,0.000915050506592,0.333576917648,1,s,610.453355074,,,,,,,,,,,,,,,,,,,,,,,,,,,,,,,,,2015_Jul_07_1259,59.9664303831,LearningTask,1,11,
-200,q,200,,,,,,,,,,,,,,,,,0,0,0,0,24,1,97,1,,,,,,,,,,,,,,,,,,,,,,,,,,,,,q,1,0.367619991302,None,0,2.0,invertedtriangleblue.gif,go,,,,,,,,,,,,,,,,,,,,,,,,2.17,0.513650894165,0.000931978225708,0.367619991302,1,q,613.456435919,,,,,,,,,,,,,,,,,,,,,,,,,,,,,,,,,2015_Jul_07_1259,59.9664303831,LearningTask,1,11,
200,s,-200,,,,,,,,,,,,,,,,,0,0,0,0,24,2,98,2,,,,,,,,,,,,,,,,,,,,,,,,,,,,,s,1,0.433755159378,None,0,0.5,circleyellow.gif,go,,,,,,,,,,,,,,,,,,,,,,,,0,0.514621973038,0.000937938690186,0.433755159378,1,s,616.459739923,,,,,,,,,,,,,,,,,,,,,,,,,,,,,,,,,2015_Jul_07_1259,59.9664303831,LearningTask,1,11,
-200,q,200,,,,,,,,,,,,,,,,,0,0,0,0,24,3,99,1,,,,,,,,,,,,,,,,,,,,,,,,,,,,,q,1,0.383874893188,None,0,4.0,trianglemagenta.gif,stop,,,,,,,,,,,,,,,,,,,,,,,,0,0.514251947403,0.000900983810425,0.383874893188,1,q,619.463613987,,,,,,,,,,,,,,,,,,,,,,,,,,,,,,,,,2015_Jul_07_1259,59.9664303831,LearningTask,1,11,
,,,,,,,,,,,,,,,,,,,0,0,0,0,,,,,,,,,,,,,,,,,,,,,,,,,,,,,,,,,,,,,,,,,,,,,,,,,,,,,,,,,,,,,,,,,,,,,,,,,,,,,,9,3.81374692917,,,,,,,,,,,,,,,,,,,,,,,,2015_Jul_07_1259,59.9664303831,LearningTask,1,11,
-200,a,-200,,,,,,,,,,,,,,,,,1,0,1,0,0,0,0,3,,,,,,,,,,,,,,,,,,,,,,,,,,,,,a,1,0.518416881561,None,0,1.0,hexagonwhite.gif,go,,,,,,,,,,,,,,,,,,,,,,,,1.06,0.509757995605,0.000902891159058,0.518416881561,1,a,626.755506992,,,,,,,,,,,,,,,,,,,,,,,,,,,,,,,,,2015_Jul_07_1259,59.9664303831,LearningTask,1,11,
200,s,-200,,,,,,,,,,,,,,,,,1,0,1,0,0,1,1,2,,,,,,,,,,,,,,,,,,,,,,,,,,,,,s,1,0.367390871048,None,0,4.0,trianglemagenta.gif,stop,,,,,,,,,,,,,,,,,,,,,,,,3.88,0.513549089432,0.000891923904419,0.367390871048,1,s,629.758090973,,,,,,,,,,,,,,,,,,,,,,,,,,,,,,,,,2015_Jul_07_1259,59.9664303831,LearningTask,1,11,
-200,a,-200,,,,,,,,,,,,,,,,,1,0,1,0,0,2,2,3,,,,,,,,,,,,,,,,,,,,,,,,,,,,,a,1,0.467391014099,None,0,1.0,squaregreen.gif,stop,,,,,,,,,,,,,,,,,,,,,,,,0.81,0.514429092407,0.000903129577637,0.467391014099,1,a,632.761302948,,,,,,,,,,,,,,,,,,,,,,,,,,,,,,,,,2015_Jul_07_1259,59.9664303831,LearningTask,1,11,
200,s,-200,,,,,,,,,,,,,,,,,1,0,1,0,0,3,3,2,,,,,,,,,,,,,,,,,,,,,,,,,,,,,s,1,0.367799043655,None,0,0.5,linecyan.gif,stop,,,,,,,,,,,,,,,,,,,,,,,,0.54,0.513700008392,0.000936985015869,0.367799043655,1,s,635.765017986,,,,,,,,,,,,,,,,,,,,,,,,,,,,,,,,,2015_Jul_07_1259,59.9664303831,LearningTask,1,11,
200,s,-200,,,,,,,,,,,,,,,,,1,0,1,0,1,0,4,2,,,,,,,,,,,,,,,,,,,,,,,,,,,,,s,1,0.350545167923,None,0,1.0,squaregreen.gif,stop,,,,,,,,,,,,,,,,,,,,,,,,1.12,0.514346837997,0.000944852828979,0.350545167923,1,s,638.768253088,,,,,,,,,,,,,,,,,,,,,,,,,,,,,,,,,2015_Jul_07_1259,59.9664303831,LearningTask,1,11,
-200,q,200,,,,,,,,,,,,,,,,,1,0,1,0,1,1,5,1,,,,,,,,,,,,,,,,,,,,,,,,,,,,,q,1,0.400933980942,None,0,2.0,crossgray.gif,stop,,,,,,,,,,,,,,,,,,,,,,,,2.02,0.514239788055,0.000954866409302,0.400933980942,1,q,641.771633148,,,,,,,,,,,,,,,,,,,,,,,,,,,,,,,,,2015_Jul_07_1259,59.9664303831,LearningTask,1,11,
200,s,-200,,,,,,,,,,,,,,,,,1,0,1,0,1,2,6,2,,,,,,,,,,,,,,,,,,,,,,,,,,,,,s,1,0.367753982544,None,0,4.0,trianglemagenta.gif,stop,,,,,,,,,,,,,,,,,,,,,,,,4.16,0.513787031174,0.000900030136108,0.367753982544,1,s,644.774956942,,,,,,,,,,,,,,,,,,,,,,,,,,,,,,,,,2015_Jul_07_1259,59.9664303831,LearningTask,1,11,
200,w,200,,,,,,,,,,,,,,,,,1,0,1,0,1,3,7,0,,,,,,,,,,,,,,,,,,,,,,,,,,,,,w,1,0.350995063782,None,0,1.0,hexagonwhite.gif,go,,,,,,,,,,,,,,,,,,,,,,,,1.2,0.514452934265,0.000916957855225,0.350995063782,1,w,647.778255939,,,,,,,,,,,,,,,,,,,,,,,,,,,,,,,,,2015_Jul_07_1259,59.9664303831,LearningTask,1,11,
-200,q,200,,,,,,,,,,,,,,,,,1,0,1,0,2,0,8,1,,,,,,,,,,,,,,,,,,,,,,,,,,,,,q,1,0.41766500473,None,0,2.0,invertedtriangleblue.gif,go,,,,,,,,,,,,,,,,,,,,,,,,2.13,0.514223098755,0.00094199180603,0.41766500473,1,q,650.781841993,,,,,,,,,,,,,,,,,,,,,,,,,,,,,,,,,2015_Jul_07_1259,59.9664303831,LearningTask,1,11,
200,w,200,,,,,,,,,,,,,,,,,1,0,1,0,2,1,9,0,,,,,,,,,,,,,,,,,,,,,,,,,,,,,w,1,0.28412604332,None,0,0.5,circleyellow.gif,go,,,,,,,,,,,,,,,,,,,,,,,,0.61,0.514095067978,0.000901937484741,0.28412604332,1,w,653.785162926,,,,,,,,,,,,,,,,,,,,,,,,,,,,,,,,,2015_Jul_07_1259,59.9664303831,LearningTask,1,11,
200,w,200,,,,,,,,,,,,,,,,,1,0,1,0,2,2,10,0,,,,,,,,,,,,,,,,,,,,,,,,,,,,,w,1,0.350548028946,None,0,2.0,invertedtriangleblue.gif,go,,,,,,,,,,,,,,,,,,,,,,,,2.13,0.514454126358,0.000921964645386,0.350548028946,1,w,656.788471937,,,,,,,,,,,,,,,,,,,,,,,,,,,,,,,,,2015_Jul_07_1259,59.9664303831,LearningTask,1,11,
200,s,-200,,,,,,,,,,,,,,,,,1,0,1,0,2,3,11,2,,,,,,,,,,,,,,,,,,,,,,,,,,,,,s,1,0.351335048676,None,0,0.5,linecyan.gif,stop,,,,,,,,,,,,,,,,,,,,,,,,0,0.514450073242,0.000895977020264,0.351335048676,1,s,659.791978121,,,,,,,,,,,,,,,,,,,,,,,,,,,,,,,,,2015_Jul_07_1259,59.9664303831,LearningTask,1,11,
200,w,200,,,,,,,,,,,,,,,,,1,0,1,0,3,0,12,0,,,,,,,,,,,,,,,,,,,,,,,,,,,,,w,1,0.334280014038,None,0,2.0,invertedtriangleblue.gif,go,,,,,,,,,,,,,,,,,,,,,,,,2.12,0.513999938965,0.00115609169006,0.334280014038,1,w,662.795150995,,,,,,,,,,,,,,,,,,,,,,,,,,,,,,,,,2015_Jul_07_1259,59.9664303831,LearningTask,1,11,
200,s,-200,,,,,,,,,,,,,,,,,1,0,1,0,3,1,13,2,,,,,,,,,,,,,,,,,,,,,,,,,,,,,s,1,0.367737054825,None,0,4.0,trianglemagenta.gif,stop,,,,,,,,,,,,,,,,,,,,,,,,0,0.514456987381,0.00105595588684,0.367737054825,1,s,665.798975945,,,,,,,,,,,,,,,,,,,,,,,,,,,,,,,,,2015_Jul_07_1259,59.9664303831,LearningTask,1,11,
200,w,200,,,,,,,,,,,,,,,,,1,0,1,0,3,2,14,0,,,,,,,,,,,,,,,,,,,,,,,,,,,,,w,1,0.350508928299,None,0,1.0,hexagonwhite.gif,go,,,,,,,,,,,,,,,,,,,,,,,,1.16,0.514186859131,0.000900983810425,0.350508928299,1,w,668.802641153,,,,,,,,,,,,,,,,,,,,,,,,,,,,,,,,,2015_Jul_07_1259,59.9664303831,LearningTask,1,11,
-200,q,200,,,,,,,,,,,,,,,,,1,0,1,0,3,3,15,1,,,,,,,,,,,,,,,,,,,,,,,,,,,,,q,1,0.66828417778,None,0,4.0,diamondorange.gif,go,,,,,,,,,,,,,,,,,,,,,,,,3.76,0.513767957687,0.000956058502197,0.66828417778,1,q,671.805364132,,,,,,,,,,,,,,,,,,,,,,,,,,,,,,,,,2015_Jul_07_1259,59.9664303831,LearningTask,1,11,
200,w,200,,,,,,,,,,,,,,,,,1,0,1,0,4,0,16,0,,,,,,,,,,,,,,,,,,,,,,,,,,,,,w,1,0.367453098297,None,0,0.5,circleyellow.gif,go,,,,,,,,,,,,,,,,,,,,,,,,0.29,0.514033079147,0.000955104827881,0.367453098297,1,w,674.808730125,,,,,,,,,,,,,,,,,,,,,,,,,,,,,,,,,2015_Jul_07_1259,59.9664303831,LearningTask,1,11,
200,s,-200,,,,,,,,,,,,,,,,,1,0,1,0,4,1,17,2,,,,,,,,,,,,,,,,,,,,,,,,,,,,,s,1,0.317445993423,None,0,0.5,linecyan.gif,stop,,,,,,,,,,,,,,,,,,,,,,,,0.26,0.514369010925,0.000887155532837,0.317445993423,1,s,677.812091112,,,,,,,,,,,,,,,,,,,,,,,,,,,,,,,,,2015_Jul_07_1259,59.9664303831,LearningTask,1,11,
-200,a,-200,,,,,,,,,,,,,,,,,1,0,1,0,4,2,18,3,,,,,,,,,,,,,,,,,,,,,,,,,,,,,a,1,0.334020853043,None,0,0.5,linecyan.gif,stop,,,,,,,,,,,,,,,,,,,,,,,,0.51,0.514379024506,0.000962018966675,0.334020853043,1,a,680.815608025,,,,,,,,,,,,,,,,,,,,,,,,,,,,,,,,,2015_Jul_07_1259,59.9664303831,LearningTask,1,11,
-200,q,200,,,,,,,,,,,,,,,,,1,0,1,0,4,3,19,1,,,,,,,,,,,,,,,,,,,,,,,,,,,,,q,1,0.468192100525,None,0,0.5,circleyellow.gif,go,,,,,,,,,,,,,,,,,,,,,,,,0.67,0.513972997665,0.000920057296753,0.468192100525,1,q,683.81892705,,,,,,,,,,,,,,,,,,,,,,,,,,,,,,,,,2015_Jul_07_1259,59.9664303831,LearningTask,1,11,
-200,a,-200,,,,,,,,,,,,,,,,,1,0,1,0,5,0,20,3,,,,,,,,,,,,,,,,,,,,,,,,,,,,,a,1,0.333741903305,None,0,4.0,trianglemagenta.gif,stop,,,,,,,,,,,,,,,,,,,,,,,,4.17,0.51459813118,0.000878095626831,0.333741903305,1,a,686.822176933,,,,,,,,,,,,,,,,,,,,,,,,,,,,,,,,,2015_Jul_07_1259,59.9664303831,LearningTask,1,11,
-200,a,-200,,,,,,,,,,,,,,,,,1,0,1,0,5,1,21,3,,,,,,,,,,,,,,,,,,,,,,,,,,,,,a,1,0.334052085876,None,0,4.0,diamondorange.gif,go,,,,,,,,,,,,,,,,,,,,,,,,3.83,0.514368057251,0.00092887878418,0.334052085876,1,a,689.825922966,,,,,,,,,,,,,,,,,,,,,,,,,,,,,,,,,2015_Jul_07_1259,59.9664303831,LearningTask,1,11,
200,s,-200,,,,,,,,,,,,,,,,,1,0,1,0,5,2,22,2,,,,,,,,,,,,,,,,,,,,,,,,,,,,,s,1,0.367444038391,None,0,1.0,squaregreen.gif,stop,,,,,,,,,,,,,,,,,,,,,,,,0.79,0.513632059097,0.00089693069458,0.367444038391,1,s,692.829131126,,,,,,,,,,,,,,,,,,,,,,,,,,,,,,,,,2015_Jul_07_1259,59.9664303831,LearningTask,1,11,
200,s,-200,,,,,,,,,,,,,,,,,1,0,1,0,5,3,23,2,,,,,,,,,,,,,,,,,,,,,,,,,,,,,s,1,0.383688926697,None,0,2.0,invertedtriangleblue.gif,go,,,,,,,,,,,,,,,,,,,,,,,,0,0.514511108398,0.000881910324097,0.35059094429,0,a,695.832603931,1.83,0.515822172165,0.000954151153564,0.383688926697,1,s,698.83614397,,,,,,,,,,,,,,,,,,,,,,,,,,2015_Jul_07_1259,59.9664303831,LearningTask,1,11,
-200,q,200,,,,,,,,,,,,,,,,,1,0,1,0,6,0,24,1,,,,,,,,,,,,,,,,,,,,,,,,,,,,,q,1,0.350581884384,None,0,4.0,diamondorange.gif,go,,,,,,,,,,,,,,,,,,,,,,,,4.01,0.514127969742,0.000873804092407,0.350581884384,1,q,701.839088917,,,,,,,,,,,,,,,,,,,,,,,,,,,,,,,,,2015_Jul_07_1259,59.9664303831,LearningTask,1,11,
-200,a,-200,,,,,,,,,,,,,,,,,1,0,1,0,6,1,25,3,,,,,,,,,,,,,,,,,,,,,,,,,,,,,a,1,0.384224891663,None,0,2.0,crossgray.gif,stop,,,,,,,,,,,,,,,,,,,,,,,,1.9,0.514329910278,0.000916004180908,0.384224891663,1,a,704.842674017,,,,,,,,,,,,,,,,,,,,,,,,,,,,,,,,,2015_Jul_07_1259,59.9664303831,LearningTask,1,11,
-200,a,-200,,,,,,,,,,,,,,,,,1,0,1,0,6,2,26,3,,,,,,,,,,,,,,,,,,,,,,,,,,,,,a,1,0.350747108459,None,0,4.0,diamondorange.gif,go,,,,,,,,,,,,,,,,,,,,,,,,3.79,0.514295816422,0.000877857208252,0.350747108459,1,a,707.846039057,,,,,,,,,,,,,,,,,,,,,,,,,,,,,,,,,2015_Jul_07_1259,59.9664303831,LearningTask,1,11,
200,s,-200,,,,,,,,,,,,,,,,,1,0,1,0,6,3,27,2,,,,,,,,,,,,,,,,,,,,,,,,,,,,,s,1,0.31743812561,None,0,4.0,trianglemagenta.gif,stop,,,,,,,,,,,,,,,,,,,,,,,,3.84,0.51438999176,0.000878095626831,0.31743812561,1,s,710.84950304,,,,,,,,,,,,,,,,,,,,,,,,,,,,,,,,,2015_Jul_07_1259,59.9664303831,LearningTask,1,11,
-200,a,-200,,,,,,,,,,,,,,,,,1,0,1,0,7,0,28,3,,,,,,,,,,,,,,,,,,,,,,,,,,,,,a,1,0.334362030029,None,0,2.0,crossgray.gif,stop,,,,,,,,,,,,,,,,,,,,,,,,1.78,0.513696908951,0.000932931900024,0.334362030029,1,a,713.852935076,,,,,,,,,,,,,,,,,,,,,,,,,,,,,,,,,2015_Jul_07_1259,59.9664303831,LearningTask,1,11,
-200,q,200,,,,,,,,,,,,,,,,,1,0,1,0,7,1,29,1,,,,,,,,,,,,,,,,,,,,,,,,,,,,,q,1,0.367176055908,None,0,2.0,invertedtriangleblue.gif,go,,,,,,,,,,,,,,,,,,,,,,,,2.03,0.514280080795,0.000874042510986,0.367176055908,1,q,716.855886936,,,,,,,,,,,,,,,,,,,,,,,,,,,,,,,,,2015_Jul_07_1259,59.9664303831,LearningTask,1,11,
200,w,200,,,,,,,,,,,,,,,,,1,0,1,0,7,2,30,0,,,,,,,,,,,,,,,,,,,,,,,,,,,,,w,1,0.351159095764,None,0,0.5,linecyan.gif,stop,,,,,,,,,,,,,,,,,,,,,,,,0,0.514508008957,0.000972032546997,0.351159095764,1,w,719.859270096,,,,,,,,,,,,,,,,,,,,,,,,,,,,,,,,,2015_Jul_07_1259,59.9664303831,LearningTask,1,11,
200,s,-200,,,,,,,,,,,,,,,,,1,0,1,0,7,3,31,2,,,,,,,,,,,,,,,,,,,,,,,,,,,,,s,1,0.300998210907,None,0,2.0,invertedtriangleblue.gif,go,,,,,,,,,,,,,,,,,,,,,,,,2.09,0.51412987709,0.000933885574341,0.300998210907,1,s,722.862816095,,,,,,,,,,,,,,,,,,,,,,,,,,,,,,,,,2015_Jul_07_1259,59.9664303831,LearningTask,1,11,
-200,a,-200,,,,,,,,,,,,,,,,,1,0,1,0,8,0,32,3,,,,,,,,,,,,,,,,,,,,,,,,,,,,,a,1,0.367406129837,None,0,1.0,hexagonwhite.gif,go,,,,,,,,,,,,,,,,,,,,,,,,1.21,0.514393091202,0.000883102416992,0.367406129837,1,a,725.866234064,,,,,,,,,,,,,,,,,,,,,,,,,,,,,,,,,2015_Jul_07_1259,59.9664303831,LearningTask,1,11,
-200,a,-200,,,,,,,,,,,,,,,,,1,0,1,0,8,1,33,3,,,,,,,,,,,,,,,,,,,,,,,,,,,,,a,1,0.300846099854,None,0,0.5,linecyan.gif,stop,,,,,,,,,,,,,,,,,,,,,,,,0.55,0.514142036438,0.000953912734985,0.300846099854,1,a,728.869996071,,,,,,,,,,,,,,,,,,,,,,,,,,,,,,,,,2015_Jul_07_1259,59.9664303831,LearningTask,1,11,
-200,a,-200,,,,,,,,,,,,,,,,,1,0,1,0,8,2,34,3,,,,,,,,,,,,,,,,,,,,,,,,,,,,,a,1,0.333798885345,None,0,2.0,crossgray.gif,stop,,,,,,,,,,,,,,,,,,,,,,,,1.86,0.513487100601,0.00114393234253,0.333798885345,1,a,731.872928143,,,,,,,,,,,,,,,,,,,,,,,,,,,,,,,,,2015_Jul_07_1259,59.9664303831,LearningTask,1,11,
-200,a,-200,,,,,,,,,,,,,,,,,1,0,1,0,8,3,35,3,,,,,,,,,,,,,,,,,,,,,,,,,,,,,a,1,0.334407091141,None,0,1.0,squaregreen.gif,stop,,,,,,,,,,,,,,,,,,,,,,,,1.21,0.5143430233,0.000865936279297,0.334407091141,1,a,734.8761971,,,,,,,,,,,,,,,,,,,,,,,,,,,,,,,,,2015_Jul_07_1259,59.9664303831,LearningTask,1,11,
200,w,200,,,,,,,,,,,,,,,,,1,0,1,0,9,0,36,0,,,,,,,,,,,,,,,,,,,,,,,,,,,,,w,1,0.384552955627,None,0,2.0,crossgray.gif,stop,,,,,,,,,,,,,,,,,,,,,,,,2.24,0.5142121315,0.00121712684631,0.384552955627,1,w,737.879898071,,,,,,,,,,,,,,,,,,,,,,,,,,,,,,,,,2015_Jul_07_1259,59.9664303831,LearningTask,1,11,
-200,a,-200,,,,,,,,,,,,,,,,,1,0,1,0,9,1,37,3,,,,,,,,,,,,,,,,,,,,,,,,,,,,,a,1,0.334006071091,None,0,4.0,trianglemagenta.gif,stop,,,,,,,,,,,,,,,,,,,,,,,,0,0.514235973358,0.000917911529541,0.334006071091,1,a,740.883142948,,,,,,,,,,,,,,,,,,,,,,,,,,,,,,,,,2015_Jul_07_1259,59.9664303831,LearningTask,1,11,
-200,q,200,,,,,,,,,,,,,,,,,1,0,1,0,9,2,38,1,,,,,,,,,,,,,,,,,,,,,,,,,,,,,q,1,0.334123849869,None,0,1.0,squaregreen.gif,stop,,,,,,,,,,,,,,,,,,,,,,,,0.81,0.514557123184,0.000886201858521,0.334123849869,1,q,743.886564016,,,,,,,,,,,,,,,,,,,,,,,,,,,,,,,,,2015_Jul_07_1259,59.9664303831,LearningTask,1,11,
-200,a,-200,,,,,,,,,,,,,,,,,1,0,1,0,9,3,39,3,,,,,,,,,,,,,,,,,,,,,,,,,,,,,a,1,0.334239006042,None,0,1.0,squaregreen.gif,stop,,,,,,,,,,,,,,,,,,,,,,,,0.87,0.514430046082,0.000864028930664,0.334239006042,1,a,746.890020132,,,,,,,,,,,,,,,,,,,,,,,,,,,,,,,,,2015_Jul_07_1259,59.9664303831,LearningTask,1,11,
200,w,200,,,,,,,,,,,,,,,,,1,0,1,0,10,0,40,0,,,,,,,,,,,,,,,,,,,,,,,,,,,,,w,1,0.334019899368,None,0,4.0,trianglemagenta.gif,stop,,,,,,,,,,,,,,,,,,,,,,,,0,0.514061927795,0.000878095626831,0.334019899368,1,w,749.89300108,,,,,,,,,,,,,,,,,,,,,,,,,,,,,,,,,2015_Jul_07_1259,59.9664303831,LearningTask,1,11,
-200,q,200,,,,,,,,,,,,,,,,,1,0,1,0,10,1,41,1,,,,,,,,,,,,,,,,,,,,,,,,,,,,,q,1,0.300643920898,None,0,1.0,squaregreen.gif,stop,,,,,,,,,,,,,,,,,,,,,,,,1.15,0.514472007751,0.00101399421692,0.300643920898,1,q,752.897237062,,,,,,,,,,,,,,,,,,,,,,,,,,,,,,,,,2015_Jul_07_1259,59.9664303831,LearningTask,1,11,
-200,q,200,,,,,,,,,,,,,,,,,1,0,1,0,10,2,42,1,,,,,,,,,,,,,,,,,,,,,,,,,,,,,q,1,0.350394010544,None,0,0.5,linecyan.gif,stop,,,,,,,,,,,,,,,,,,,,,,,,0,0.513566970825,0.000872850418091,0.350394010544,1,q,755.899903059,,,,,,,,,,,,,,,,,,,,,,,,,,,,,,,,,2015_Jul_07_1259,59.9664303831,LearningTask,1,11,
200,w,200,,,,,,,,,,,,,,,,,1,0,1,0,10,3,43,0,,,,,,,,,,,,,,,,,,,,,,,,,,,,,w,1,0.367029905319,None,0,2.0,invertedtriangleblue.gif,go,,,,,,,,,,,,,,,,,,,,,,,,2.06,0.514602899551,0.00088095664978,0.367029905319,1,w,758.90348196,,,,,,,,,,,,,,,,,,,,,,,,,,,,,,,,,2015_Jul_07_1259,59.9664303831,LearningTask,1,11,
-200,q,200,,,,,,,,,,,,,,,,,1,0,1,0,11,0,44,1,,,,,,,,,,,,,,,,,,,,,,,,,,,,,q,1,0.384370088577,None,0,1.0,squaregreen.gif,stop,,,,,,,,,,,,,,,,,,,,,,,,0,0.513681173325,0.00097918510437,0.36768913269,0,a,761.906784058,0.83,0.515266895294,0.000935792922974,0.384370088577,1,q,764.909974098,,,,,,,,,,,,,,,,,,,,,,,,,,2015_Jul_07_1259,59.9664303831,LearningTask,1,11,
200,w,200,,,,,,,,,,,,,,,,,1,0,1,0,11,1,45,0,,,,,,,,,,,,,,,,,,,,,,,,,,,,,w,1,0.351035833359,None,0,1.0,squaregreen.gif,stop,,,,,,,,,,,,,,,,,,,,,,,,0.76,0.514410972595,0.000869035720825,0.351035833359,1,w,767.913177013,,,,,,,,,,,,,,,,,,,,,,,,,,,,,,,,,2015_Jul_07_1259,59.9664303831,LearningTask,1,11,
-200,a,-200,,,,,,,,,,,,,,,,,1,0,1,0,11,2,46,3,,,,,,,,,,,,,,,,,,,,,,,,,,,,,a,1,0.384639978409,None,0,2.0,invertedtriangleblue.gif,go,,,,,,,,,,,,,,,,,,,,,,,,1.96,0.513925075531,0.00090503692627,0.384639978409,1,a,770.917099953,,,,,,,,,,,,,,,,,,,,,,,,,,,,,,,,,2015_Jul_07_1259,59.9664303831,LearningTask,1,11,
-200,a,-200,,,,,,,,,,,,,,,,,1,0,1,0,11,3,47,3,,,,,,,,,,,,,,,,,,,,,,,,,,,,,a,1,0.334120035172,None,0,0.5,linecyan.gif,stop,,,,,,,,,,,,,,,,,,,,,,,,0.34,0.513991117477,0.000890016555786,0.334120035172,1,a,773.920143127,,,,,,,,,,,,,,,,,,,,,,,,,,,,,,,,,2015_Jul_07_1259,59.9664303831,LearningTask,1,11,
200,w,200,,,,,,,,,,,,,,,,,1,0,1,0,12,0,48,0,,,,,,,,,,,,,,,,,,,,,,,,,,,,,w,1,0.317518949509,None,0,0.5,circleyellow.gif,go,,,,,,,,,,,,,,,,,,,,,,,,0.27,0.514399051666,0.000931024551392,0.317518949509,1,w,776.923795938,,,,,,,,,,,,,,,,,,,,,,,,,,,,,,,,,2015_Jul_07_1259,59.9664303831,LearningTask,1,11,
200,w,200,,,,,,,,,,,,,,,,,1,0,1,0,12,1,49,0,,,,,,,,,,,,,,,,,,,,,,,,,,,,,w,1,0.350419998169,None,0,1.0,squaregreen.gif,stop,,,,,,,,,,,,,,,,,,,,,,,,0.78,0.514075994492,0.00087308883667,0.350419998169,1,w,779.926911116,,,,,,,,,,,,,,,,,,,,,,,,,,,,,,,,,2015_Jul_07_1259,59.9664303831,LearningTask,1,11,
-200,q,200,,,,,,,,,,,,,,,,,1,0,1,0,12,2,50,1,,,,,,,,,,,,,,,,,,,,,,,,,,,,,q,1,0.350758075714,None,0,0.5,circleyellow.gif,go,,,,,,,,,,,,,,,,,,,,,,,,0.44,0.514410018921,0.000877141952515,0.350758075714,1,q,782.930118084,,,,,,,,,,,,,,,,,,,,,,,,,,,,,,,,,2015_Jul_07_1259,59.9664303831,LearningTask,1,11,
-200,a,-200,,,,,,,,,,,,,,,,,1,0,1,0,12,3,51,3,,,,,,,,,,,,,,,,,,,,,,,,,,,,,a,1,0.35130906105,None,0,2.0,crossgray.gif,stop,,,,,,,,,,,,,,,,,,,,,,,,1.94,0.514294862747,0.00118494033813,0.35130906105,1,a,785.934307098,,,,,,,,,,,,,,,,,,,,,,,,,,,,,,,,,2015_Jul_07_1259,59.9664303831,LearningTask,1,11,
200,s,-200,,,,,,,,,,,,,,,,,1,0,1,0,13,0,52,2,,,,,,,,,,,,,,,,,,,,,,,,,,,,,s,1,0.400689840317,None,0,0.5,linecyan.gif,stop,,,,,,,,,,,,,,,,,,,,,,,,0.55,0.513600111008,0.000874996185303,0.400689840317,1,s,788.936942101,,,,,,,,,,,,,,,,,,,,,,,,,,,,,,,,,2015_Jul_07_1259,59.9664303831,LearningTask,1,11,
200,w,200,,,,,,,,,,,,,,,,,1,0,1,0,13,1,53,0,,,,,,,,,,,,,,,,,,,,,,,,,,,,,w,1,0.400740861893,None,0,4.0,trianglemagenta.gif,stop,,,,,,,,,,,,,,,,,,,,,,,,4.11,0.514475107193,0.000878095626831,0.400740861893,1,w,791.940222025,,,,,,,,,,,,,,,,,,,,,,,,,,,,,,,,,2015_Jul_07_1259,59.9664303831,LearningTask,1,11,
200,s,-200,,,,,,,,,,,,,,,,,1,0,1,0,13,2,54,2,,,,,,,,,,,,,,,,,,,,,,,,,,,,,s,1,0.300510168076,None,0,0.5,circleyellow.gif,go,,,,,,,,,,,,,,,,,,,,,,,,0.42,0.514444828033,0.000878810882568,0.300510168076,1,s,794.944023132,,,,,,,,,,,,,,,,,,,,,,,,,,,,,,,,,2015_Jul_07_1259,59.9664303831,LearningTask,1,11,
200,w,200,,,,,,,,,,,,,,,,,1,0,1,0,13,3,55,0,,,,,,,,,,,,,,,,,,,,,,,,,,,,,w,1,0.334103107452,None,0,0.5,circleyellow.gif,go,,,,,,,,,,,,,,,,,,,,,,,,0.69,0.514268875122,0.000902891159058,0.334103107452,1,w,797.946977139,,,,,,,,,,,,,,,,,,,,,,,,,,,,,,,,,2015_Jul_07_1259,59.9664303831,LearningTask,1,11,
200,s,-200,,,,,,,,,,,,,,,,,1,0,1,0,14,0,56,2,,,,,,,,,,,,,,,,,,,,,,,,,,,,,s,1,0.334628105164,None,0,0.5,circleyellow.gif,go,,,,,,,,,,,,,,,,,,,,,,,,0.57,0.514359951019,0.00095009803772,0.334628105164,1,s,800.950775146,,,,,,,,,,,,,,,,,,,,,,,,,,,,,,,,,2015_Jul_07_1259,59.9664303831,LearningTask,1,11,
-200,q,200,,,,,,,,,,,,,,,,,1,0,1,0,14,1,57,1,,,,,,,,,,,,,,,,,,,,,,,,,,,,,q,1,0.367311954498,None,0,4.0,diamondorange.gif,go,,,,,,,,,,,,,,,,,,,,,,,,3.79,0.513992071152,0.000882148742676,0.367311954498,1,q,803.953885078,,,,,,,,,,,,,,,,,,,,,,,,,,,,,,,,,2015_Jul_07_1259,59.9664303831,LearningTask,1,11,
200,s,-200,,,,,,,,,,,,,,,,,1,0,1,0,14,2,58,2,,,,,,,,,,,,,,,,,,,,,,,,,,,,,s,1,0.434252023697,None,0,4.0,diamondorange.gif,go,,,,,,,,,,,,,,,,,,,,,,,,4.04,0.514266967773,0.000875949859619,0.434252023697,1,s,806.957176924,,,,,,,,,,,,,,,,,,,,,,,,,,,,,,,,,2015_Jul_07_1259,59.9664303831,LearningTask,1,11,
200,w,200,,,,,,,,,,,,,,,,,1,0,1,0,14,3,59,0,,,,,,,,,,,,,,,,,,,,,,,,,,,,,w,1,0.334634065628,None,0,1.0,squaregreen.gif,stop,,,,,,,,,,,,,,,,,,,,,,,,0.85,0.514183998108,0.000923871994019,0.334634065628,1,w,809.960881948,,,,,,,,,,,,,,,,,,,,,,,,,,,,,,,,,2015_Jul_07_1259,59.9664303831,LearningTask,1,11,
200,s,-200,,,,,,,,,,,,,,,,,1,0,1,0,15,0,60,2,,,,,,,,,,,,,,,,,,,,,,,,,,,,,s,1,0.333741903305,None,0,4.0,diamondorange.gif,go,,,,,,,,,,,,,,,,,,,,,,,,0,0.514601945877,0.000874996185303,0.333741903305,1,s,812.964101076,,,,,,,,,,,,,,,,,,,,,,,,,,,,,,,,,2015_Jul_07_1259,59.9664303831,LearningTask,1,11,
200,s,-200,,,,,,,,,,,,,,,,,1,0,1,0,15,1,61,2,,,,,,,,,,,,,,,,,,,,,,,,,,,,,s,1,0.601106882095,None,0,0.5,circleyellow.gif,go,,,,,,,,,,,,,,,,,,,,,,,,0,0.514199972153,0.000954866409302,0.601106882095,1,s,815.967083931,,,,,,,,,,,,,,,,,,,,,,,,,,,,,,,,,2015_Jul_07_1259,59.9664303831,LearningTask,1,11,
200,w,200,,,,,,,,,,,,,,,,,1,0,1,0,15,2,62,0,,,,,,,,,,,,,,,,,,,,,,,,,,,,,w,1,0.333842039108,None,0,0.5,circleyellow.gif,go,,,,,,,,,,,,,,,,,,,,,,,,0.72,0.514643907547,0.000942945480347,0.333842039108,1,w,818.970610142,,,,,,,,,,,,,,,,,,,,,,,,,,,,,,,,,2015_Jul_07_1259,59.9664303831,LearningTask,1,11,
200,w,200,,,,,,,,,,,,,,,,,1,0,1,0,15,3,63,0,,,,,,,,,,,,,,,,,,,,,,,,,,,,,w,1,0.350774049759,None,0,4.0,trianglemagenta.gif,stop,,,,,,,,,,,,,,,,,,,,,,,,4.19,0.514446973801,0.000875949859619,0.350774049759,1,w,821.974076033,,,,,,,,,,,,,,,,,,,,,,,,,,,,,,,,,2015_Jul_07_1259,59.9664303831,LearningTask,1,11,
200,w,200,,,,,,,,,,,,,,,,,1,0,1,0,16,0,64,0,,,,,,,,,,,,,,,,,,,,,,,,,,,,,w,1,0.417645931244,None,0,2.0,crossgray.gif,stop,,,,,,,,,,,,,,,,,,,,,,,,2.21,0.514269113541,0.000930070877075,0.417645931244,1,w,824.977904081,,,,,,,,,,,,,,,,,,,,,,,,,,,,,,,,,2015_Jul_07_1259,59.9664303831,LearningTask,1,11,
-200,q,200,,,,,,,,,,,,,,,,,1,0,1,0,16,1,65,1,,,,,,,,,,,,,,,,,,,,,,,,,,,,,q,1,0.451428890228,None,0,1.0,hexagonwhite.gif,go,,,,,,,,,,,,,,,,,,,,,,,,0.77,0.51370716095,0.00141000747681,0.451428890228,1,q,827.981130123,,,,,,,,,,,,,,,,,,,,,,,,,,,,,,,,,2015_Jul_07_1259,59.9664303831,LearningTask,1,11,
200,w,200,,,,,,,,,,,,,,,,,1,0,1,0,16,2,66,0,,,,,,,,,,,,,,,,,,,,,,,,,,,,,w,1,0.417508840561,None,0,2.0,invertedtriangleblue.gif,go,,,,,,,,,,,,,,,,,,,,,,,,1.89,0.514587163925,0.00120711326599,0.417508840561,1,w,830.984427929,,,,,,,,,,,,,,,,,,,,,,,,,,,,,,,,,2015_Jul_07_1259,59.9664303831,LearningTask,1,11,
200,s,-200,,,,,,,,,,,,,,,,,1,0,1,0,16,3,67,2,,,,,,,,,,,,,,,,,,,,,,,,,,,,,s,1,0.350914955139,None,0,4.0,diamondorange.gif,go,,,,,,,,,,,,,,,,,,,,,,,,4.17,0.513875007629,0.000881195068359,0.350914955139,1,s,833.987776995,,,,,,,,,,,,,,,,,,,,,,,,,,,,,,,,,2015_Jul_07_1259,59.9664303831,LearningTask,1,11,
-200,q,200,,,,,,,,,,,,,,,,,1,0,1,0,17,0,68,1,,,,,,,,,,,,,,,,,,,,,,,,,,,,,q,1,0.350541830063,None,0,4.0,diamondorange.gif,go,,,,,,,,,,,,,,,,,,,,,,,,0,0.514414072037,0.000870943069458,0.350541830063,1,q,836.991056919,,,,,,,,,,,,,,,,,,,,,,,,,,,,,,,,,2015_Jul_07_1259,59.9664303831,LearningTask,1,11,
-200,q,200,,,,,,,,,,,,,,,,,1,0,1,0,17,1,69,1,,,,,,,,,,,,,,,,,,,,,,,,,,,,,q,1,0.350792169571,None,0,0.5,circleyellow.gif,go,,,,,,,,,,,,,,,,,,,,,,,,0.4,0.514358997345,0.00107598304749,0.350792169571,1,q,839.994516134,,,,,,,,,,,,,,,,,,,,,,,,,,,,,,,,,2015_Jul_07_1259,59.9664303831,LearningTask,1,11,
-200,a,-200,,,,,,,,,,,,,,,,,1,0,1,0,17,2,70,3,,,,,,,,,,,,,,,,,,,,,,,,,,,,,a,1,0.384363889694,None,0,0.5,linecyan.gif,stop,,,,,,,,,,,,,,,,,,,,,,,,0.64,0.513972043991,0.000886917114258,0.384363889694,1,a,842.997843027,,,,,,,,,,,,,,,,,,,,,,,,,,,,,,,,,2015_Jul_07_1259,59.9664303831,LearningTask,1,11,
-200,a,-200,,,,,,,,,,,,,,,,,1,0,1,0,17,3,71,3,,,,,,,,,,,,,,,,,,,,,,,,,,,,,a,1,0.434233903885,None,0,2.0,crossgray.gif,stop,,,,,,,,,,,,,,,,,,,,,,,,2.15,0.514200925827,0.000871896743774,0.434233903885,1,a,846.001446962,,,,,,,,,,,,,,,,,,,,,,,,,,,,,,,,,2015_Jul_07_1259,59.9664303831,LearningTask,1,11,
-200,q,200,,,,,,,,,,,,,,,,,1,0,1,0,18,0,72,1,,,,,,,,,,,,,,,,,,,,,,,,,,,,,q,1,0.367435932159,None,0,4.0,trianglemagenta.gif,stop,,,,,,,,,,,,,,,,,,,,,,,,4.06,0.513803005219,0.00104999542236,0.367435932159,1,q,849.004727125,,,,,,,,,,,,,,,,,,,,,,,,,,,,,,,,,2015_Jul_07_1259,59.9664303831,LearningTask,1,11,
-200,a,-200,,,,,,,,,,,,,,,,,1,0,1,0,18,1,73,3,,,,,,,,,,,,,,,,,,,,,,,,,,,,,a,1,0.333514928818,None,0,2.0,invertedtriangleblue.gif,go,,,,,,,,,,,,,,,,,,,,,,,,0,0.514297008514,0.00088095664978,0.333514928818,1,a,852.007977009,,,,,,,,,,,,,,,,,,,,,,,,,,,,,,,,,2015_Jul_07_1259,59.9664303831,LearningTask,1,11,
-200,a,-200,,,,,,,,,,,,,,,,,1,0,1,0,18,2,74,3,,,,,,,,,,,,,,,,,,,,,,,,,,,,,a,1,0.334752082825,None,0,1.0,hexagonwhite.gif,go,,,,,,,,,,,,,,,,,,,,,,,,0,0.514195919037,0.00092601776123,0.334752082825,1,a,855.011079073,,,,,,,,,,,,,,,,,,,,,,,,,,,,,,,,,2015_Jul_07_1259,59.9664303831,LearningTask,1,11,
200,w,200,,,,,,,,,,,,,,,,,1,0,1,0,18,3,75,0,,,,,,,,,,,,,,,,,,,,,,,,,,,,,w,1,0.334230899811,None,0,4.0,diamondorange.gif,go,,,,,,,,,,,,,,,,,,,,,,,,3.91,0.514038801193,0.000910997390747,0.334230899811,1,w,858.015146971,,,,,,,,,,,,,,,,,,,,,,,,,,,,,,,,,2015_Jul_07_1259,59.9664303831,LearningTask,1,11,
-200,q,200,,,,,,,,,,,,,,,,,1,0,1,0,19,0,76,1,,,,,,,,,,,,,,,,,,,,,,,,,,,,,q,1,0.300867080688,None,0,4.0,trianglemagenta.gif,stop,,,,,,,,,,,,,,,,,,,,,,,,4.23,0.513758897781,0.000893831253052,0.300867080688,1,q,861.018377066,,,,,,,,,,,,,,,,,,,,,,,,,,,,,,,,,2015_Jul_07_1259,59.9664303831,LearningTask,1,11,
-200,q,200,,,,,,,,,,,,,,,,,1,0,1,0,19,1,77,1,,,,,,,,,,,,,,,,,,,,,,,,,,,,,q,1,0.434282064438,None,0,2.0,invertedtriangleblue.gif,go,,,,,,,,,,,,,,,,,,,,,,,,1.98,0.514101982117,0.000914812088013,0.434282064438,1,q,864.02188015,,,,,,,,,,,,,,,,,,,,,,,,,,,,,,,,,2015_Jul_07_1259,59.9664303831,LearningTask,1,11,
200,w,200,,,,,,,,,,,,,,,,,1,0,1,0,19,2,78,0,,,,,,,,,,,,,,,,,,,,,,,,,,,,,w,1,0.334368944168,None,0,2.0,crossgray.gif,stop,,,,,,,,,,,,,,,,,,,,,,,,1.79,0.513937950134,0.000891923904419,0.334368944168,1,w,867.024797916,,,,,,,,,,,,,,,,,,,,,,,,,,,,,,,,,2015_Jul_07_1259,59.9664303831,LearningTask,1,11,
-200,q,200,,,,,,,,,,,,,,,,,1,0,1,0,19,3,79,1,,,,,,,,,,,,,,,,,,,,,,,,,,,,,q,1,0.367676019669,None,0,1.0,hexagonwhite.gif,go,,,,,,,,,,,,,,,,,,,,,,,,1.07,0.51411318779,0.00105619430542,0.367676019669,1,q,870.028012991,,,,,,,,,,,,,,,,,,,,,,,,,,,,,,,,,2015_Jul_07_1259,59.9664303831,LearningTask,1,11,
-200,q,200,,,,,,,,,,,,,,,,,1,0,1,0,20,0,80,1,,,,,,,,,,,,,,,,,,,,,,,,,,,,,q,1,0.301416873932,None,0,0.5,linecyan.gif,stop,,,,,,,,,,,,,,,,,,,,,,,,0.47,0.51428103447,0.000913858413696,0.301416873932,1,q,873.031938076,,,,,,,,,,,,,,,,,,,,,,,,,,,,,,,,,2015_Jul_07_1259,59.9664303831,LearningTask,1,11,
-200,a,-200,,,,,,,,,,,,,,,,,1,0,1,0,20,1,81,3,,,,,,,,,,,,,,,,,,,,,,,,,,,,,a,1,0.350939035416,None,0,2.0,invertedtriangleblue.gif,go,,,,,,,,,,,,,,,,,,,,,,,,0,0.513906002045,0.000881910324097,0.350939035416,1,a,876.034723997,,,,,,,,,,,,,,,,,,,,,,,,,,,,,,,,,2015_Jul_07_1259,59.9664303831,LearningTask,1,11,
-200,q,200,,,,,,,,,,,,,,,,,1,0,1,0,20,2,82,1,,,,,,,,,,,,,,,,,,,,,,,,,,,,,q,1,0.317497968674,None,0,4.0,trianglemagenta.gif,stop,,,,,,,,,,,,,,,,,,,,,,,,3.85,0.514795064926,0.000883102416992,0.317497968674,1,q,879.038414001,,,,,,,,,,,,,,,,,,,,,,,,,,,,,,,,,2015_Jul_07_1259,59.9664303831,LearningTask,1,11,
-200,q,200,,,,,,,,,,,,,,,,,1,0,1,0,20,3,83,1,,,,,,,,,,,,,,,,,,,,,,,,,,,,,q,1,0.383814811707,None,0,4.0,diamondorange.gif,go,,,,,,,,,,,,,,,,,,,,,,,,0,0.514292955399,0.000874042510986,0.383814811707,1,q,882.042664051,,,,,,,,,,,,,,,,,,,,,,,,,,,,,,,,,2015_Jul_07_1259,59.9664303831,LearningTask,1,11,
200,s,-200,,,,,,,,,,,,,,,,,1,0,1,0,21,0,84,2,,,,,,,,,,,,,,,,,,,,,,,,,,,,,s,1,0.45059800148,None,0,1.0,hexagonwhite.gif,go,,,,,,,,,,,,,,,,,,,,,,,,1.02,0.513534069061,0.00088095664978,0.45059800148,1,s,885.045125008,,,,,,,,,,,,,,,,,,,,,,,,,,,,,,,,,2015_Jul_07_1259,59.9664303831,LearningTask,1,11,
200,s,-200,,,,,,,,,,,,,,,,,1,0,1,0,21,1,85,2,,,,,,,,,,,,,,,,,,,,,,,,,,,,,s,1,0.334232091904,None,0,2.0,crossgray.gif,stop,,,,,,,,,,,,,,,,,,,,,,,,0,0.514232158661,0.00104904174805,0.334232091904,1,s,888.048305988,,,,,,,,,,,,,,,,,,,,,,,,,,,,,,,,,2015_Jul_07_1259,59.9664303831,LearningTask,1,11,
200,w,200,,,,,,,,,,,,,,,,,1,0,1,0,21,2,86,0,,,,,,,,,,,,,,,,,,,,,,,,,,,,,w,1,0.333936929703,None,0,2.0,crossgray.gif,stop,,,,,,,,,,,,,,,,,,,,,,,,2.07,0.514419794083,0.000888824462891,0.333936929703,1,w,891.051800013,,,,,,,,,,,,,,,,,,,,,,,,,,,,,,,,,2015_Jul_07_1259,59.9664303831,LearningTask,1,11,
-200,q,200,,,,,,,,,,,,,,,,,1,0,1,0,21,3,87,1,,,,,,,,,,,,,,,,,,,,,,,,,,,,,q,1,0.284050941467,None,0,1.0,squaregreen.gif,stop,,,,,,,,,,,,,,,,,,,,,,,,0.94,0.514479875565,0.00086784362793,0.284050941467,1,q,894.055243969,,,,,,,,,,,,,,,,,,,,,,,,,,,,,,,,,2015_Jul_07_1259,59.9664303831,LearningTask,1,11,
200,s,-200,,,,,,,,,,,,,,,,,1,0,1,0,22,0,88,2,,,,,,,,,,,,,,,,,,,,,,,,,,,,,s,1,0.417968988419,None,0,4.0,trianglemagenta.gif,stop,,,,,,,,,,,,,,,,,,,,,,,,3.82,0.513860940933,0.000935792922974,0.417968988419,1,s,897.058650017,,,,,,,,,,,,,,,,,,,,,,,,,,,,,,,,,2015_Jul_07_1259,59.9664303831,LearningTask,1,11,
200,w,200,,,,,,,,,,,,,,,,,1,0,1,0,22,1,89,0,,,,,,,,,,,,,,,,,,,,,,,,,,,,,w,1,0.350965023041,None,0,1.0,hexagonwhite.gif,go,,,,,,,,,,,,,,,,,,,,,,,,1.04,0.513922929764,0.00116801261902,0.350965023041,1,w,900.062014103,,,,,,,,,,,,,,,,,,,,,,,,,,,,,,,,,2015_Jul_07_1259,59.9664303831,LearningTask,1,11,
200,s,-200,,,,,,,,,,,,,,,,,1,0,1,0,22,2,90,2,,,,,,,,,,,,,,,,,,,,,,,,,,,,,s,1,0.350969076157,None,0,2.0,crossgray.gif,stop,,,,,,,,,,,,,,,,,,,,,,,,0,0.514222860336,0.00092887878418,0.350969076157,1,s,903.066139936,,,,,,,,,,,,,,,,,,,,,,,,,,,,,,,,,2015_Jul_07_1259,59.9664303831,LearningTask,1,11,
200,s,-200,,,,,,,,,,,,,,,,,1,0,1,0,22,3,91,2,,,,,,,,,,,,,,,,,,,,,,,,,,,,,s,1,0.383823156357,None,0,2.0,crossgray.gif,stop,,,,,,,,,,,,,,,,,,,,,,,,1.84,0.513539075851,0.000891208648682,0.383823156357,1,s,906.068721056,,,,,,,,,,,,,,,,,,,,,,,,,,,,,,,,,2015_Jul_07_1259,59.9664303831,LearningTask,1,11,
200,s,-200,,,,,,,,,,,,,,,,,1,0,1,0,23,0,92,2,,,,,,,,,,,,,,,,,,,,,,,,,,,,,s,1,0.350836038589,None,0,0.5,linecyan.gif,stop,,,,,,,,,,,,,,,,,,,,,,,,0.67,0.514569044113,0.00087308883667,0.350836038589,1,s,909.072082043,,,,,,,,,,,,,,,,,,,,,,,,,,,,,,,,,2015_Jul_07_1259,59.9664303831,LearningTask,1,11,
-200,a,-200,,,,,,,,,,,,,,,,,1,0,1,0,23,1,93,3,,,,,,,,,,,,,,,,,,,,,,,,,,,,,a,1,0.367677211761,None,0,0.5,linecyan.gif,stop,,,,,,,,,,,,,,,,,,,,,,,,0.75,0.514050006866,0.000929117202759,0.367677211761,1,a,912.07577014,,,,,,,,,,,,,,,,,,,,,,,,,,,,,,,,,2015_Jul_07_1259,59.9664303831,LearningTask,1,11,
-200,a,-200,,,,,,,,,,,,,,,,,1,0,1,0,23,2,94,3,,,,,,,,,,,,,,,,,,,,,,,,,,,,,a,1,0.351093053818,None,0,2.0,invertedtriangleblue.gif,go,,,,,,,,,,,,,,,,,,,,,,,,1.78,0.513581991196,0.000874042510986,0.351093053818,1,a,915.078874111,,,,,,,,,,,,,,,,,,,,,,,,,,,,,,,,,2015_Jul_07_1259,59.9664303831,LearningTask,1,11,
200,w,200,,,,,,,,,,,,,,,,,1,0,1,0,23,3,95,0,,,,,,,,,,,,,,,,,,,,,,,,,,,,,w,1,0.367420911789,None,0,1.0,squaregreen.gif,stop,,,,,,,,,,,,,,,,,,,,,,,,1.17,0.51429605484,0.000865936279297,0.367420911789,1,w,918.082098007,,,,,,,,,,,,,,,,,,,,,,,,,,,,,,,,,2015_Jul_07_1259,59.9664303831,LearningTask,1,11,
-200,q,200,,,,,,,,,,,,,,,,,1,0,1,0,24,0,96,1,,,,,,,,,,,,,,,,,,,,,,,,,,,,,q,1,0.351443052292,None,0,4.0,trianglemagenta.gif,stop,,,,,,,,,,,,,,,,,,,,,,,,4.13,0.514451026917,0.00098991394043,0.351443052292,1,q,921.085861921,,,,,,,,,,,,,,,,,,,,,,,,,,,,,,,,,2015_Jul_07_1259,59.9664303831,LearningTask,1,11,
-200,q,200,,,,,,,,,,,,,,,,,1,0,1,0,24,1,97,1,,,,,,,,,,,,,,,,,,,,,,,,,,,,,q,1,0.401061058044,None,0,0.5,linecyan.gif,stop,,,,,,,,,,,,,,,,,,,,,,,,0.73,0.513924837112,0.000891923904419,0.401061058044,1,q,924.088949919,,,,,,,,,,,,,,,,,,,,,,,,,,,,,,,,,2015_Jul_07_1259,59.9664303831,LearningTask,1,11,
200,s,-200,,,,,,,,,,,,,,,,,1,0,1,0,24,2,98,2,,,,,,,,,,,,,,,,,,,,,,,,,,,,,s,1,0.367360830307,None,0,1.0,hexagonwhite.gif,go,,,,,,,,,,,,,,,,,,,,,,,,1.08,0.514257907867,0.000913143157959,0.367360830307,1,s,927.092210054,,,,,,,,,,,,,,,,,,,,,,,,,,,,,,,,,2015_Jul_07_1259,59.9664303831,LearningTask,1,11,
-200,a,-200,,,,,,,,,,,,,,,,,1,0,1,0,24,3,99,3,,,,,,,,,,,,,,,,,,,,,,,,,,,,,a,1,0.317404985428,None,0,1.0,hexagonwhite.gif,go,,,,,,,,,,,,,,,,,,,,,,,,1.05,0.514166116714,0.000884056091309,0.317404985428,1,a,930.095757961,,,,,,,,,,,,,,,,,,,,,,,,,,,,,,,,,2015_Jul_07_1259,59.9664303831,LearningTask,1,11,
,,,,,,,,,,,,,,,,,,,1,0,1,0,,,,,,,,,,,,,,,,,,,,,,,,,,,,,,,,,,,,,,,,,,,,,,,,,,,,,,,,,,,,,,,,,,,,,,,,,,,,,,9,6.82151603699,,,,,,,,,,,,,,,,,,,,,,,,2015_Jul_07_1259,59.9664303831,LearningTask,1,11,
200,s,-200,,,,,,,,,,,,,,,,,2,0,2,0,0,0,0,2,,,,,,,,,,,,,,,,,,,,,,,,,,,,,s,1,0.383673191071,None,0,4.0,trianglemagenta.gif,stop,,,,,,,,,,,,,,,,,,,,,,,,0,0.510151863098,0.0010130405426,0.383673191071,1,s,940.608238935,,,,,,,,,,,,,,,,,,,,,,,,,,,,,,,,,2015_Jul_07_1259,59.9664303831,LearningTask,1,11,
-200,q,200,,,,,,,,,,,,,,,,,2,0,2,0,0,1,1,1,,,,,,,,,,,,,,,,,,,,,,,,,,,,,q,1,0.401167154312,None,0,2.0,crossgray.gif,stop,,,,,,,,,,,,,,,,,,,,,,,,1.94,0.513566017151,0.000867128372192,0.401167154312,1,q,943.61114502,,,,,,,,,,,,,,,,,,,,,,,,,,,,,,,,,2015_Jul_07_1259,59.9664303831,LearningTask,1,11,
-200,a,-200,,,,,,,,,,,,,,,,,2,0,2,0,0,2,2,3,,,,,,,,,,,,,,,,,,,,,,,,,,,,,a,1,0.300514936447,None,0,1.0,squaregreen.gif,stop,,,,,,,,,,,,,,,,,,,,,,,,0.89,0.514199018478,0.000910997390747,0.300514936447,1,a,946.614792109,,,,,,,,,,,,,,,,,,,,,,,,,,,,,,,,,2015_Jul_07_1259,59.9664303831,LearningTask,1,11,
-200,a,-200,,,,,,,,,,,,,,,,,2,0,2,0,0,3,3,3,,,,,,,,,,,,,,,,,,,,,,,,,,,,,a,1,0.333727121353,None,0,2.0,crossgray.gif,stop,,,,,,,,,,,,,,,,,,,,,,,,2.16,0.513829946518,0.000936031341553,0.333727121353,1,a,949.618129015,,,,,,,,,,,,,,,,,,,,,,,,,,,,,,,,,2015_Jul_07_1259,59.9664303831,LearningTask,1,11,
200,s,-200,,,,,,,,,,,,,,,,,2,0,2,0,1,0,4,2,,,,,,,,,,,,,,,,,,,,,,,,,,,,,s,1,0.300650835037,None,0,1.0,squaregreen.gif,stop,,,,,,,,,,,,,,,,,,,,,,,,1.12,0.513756990433,0.000869035720825,0.300650835037,1,s,952.621093988,,,,,,,,,,,,,,,,,,,,,,,,,,,,,,,,,2015_Jul_07_1259,59.9664303831,LearningTask,1,11,
200,w,200,,,,,,,,,,,,,,,,,2,0,2,0,1,1,5,0,,,,,,,,,,,,,,,,,,,,,,,,,,,,,w,1,0.367573022842,None,0,1.0,hexagonwhite.gif,go,,,,,,,,,,,,,,,,,,,,,,,,0,0.514075040817,0.000951051712036,0.367573022842,1,w,955.624247074,,,,,,,,,,,,,,,,,,,,,,,,,,,,,,,,,2015_Jul_07_1259,59.9664303831,LearningTask,1,11,
-200,q,200,,,,,,,,,,,,,,,,,2,0,2,0,1,2,6,1,,,,,,,,,,,,,,,,,,,,,,,,,,,,,q,1,0.300355911255,None,0,2.0,invertedtriangleblue.gif,go,,,,,,,,,,,,,,,,,,,,,,,,0,0.514045953751,0.000916957855225,0.33464217186,0,a,958.627808094,2.1,0.515626192093,0.000943183898926,0.300355911255,1,q,961.631500006,,,,,,,,,,,,,,,,,,,,,,,,,,2015_Jul_07_1259,59.9664303831,LearningTask,1,11,
200,s,-200,,,,,,,,,,,,,,,,,2,0,2,0,1,3,7,2,,,,,,,,,,,,,,,,,,,,,,,,,,,,,s,1,0.31766295433,None,0,4.0,trianglemagenta.gif,stop,,,,,,,,,,,,,,,,,,,,,,,,4.25,0.513560056686,0.000917911529541,0.31766295433,1,s,964.634819031,,,,,,,,,,,,,,,,,,,,,,,,,,,,,,,,,2015_Jul_07_1259,59.9664303831,LearningTask,1,11,
200,w,200,,,,,,,,,,,,,,,,,2,0,2,0,2,0,8,0,,,,,,,,,,,,,,,,,,,,,,,,,,,,,w,1,0.417407035828,None,0,1.0,hexagonwhite.gif,go,,,,,,,,,,,,,,,,,,,,,,,,0.81,0.51371383667,0.000890016555786,0.417407035828,1,w,967.637879133,,,,,,,,,,,,,,,,,,,,,,,,,,,,,,,,,2015_Jul_07_1259,59.9664303831,LearningTask,1,11,
-200,q,200,,,,,,,,,,,,,,,,,2,0,2,0,2,1,9,1,,,,,,,,,,,,,,,,,,,,,,,,,,,,,q,1,0.26736497879,None,0,0.5,circleyellow.gif,go,,,,,,,,,,,,,,,,,,,,,,,,0.71,0.514451026917,0.000906944274902,0.26736497879,1,q,970.641214132,,,,,,,,,,,,,,,,,,,,,,,,,,,,,,,,,2015_Jul_07_1259,59.9664303831,LearningTask,1,11,
-200,q,200,,,,,,,,,,,,,,,,,2,0,2,0,2,2,10,1,,,,,,,,,,,,,,,,,,,,,,,,,,,,,q,1,0.451553106308,None,0,4.0,trianglemagenta.gif,stop,,,,,,,,,,,,,,,,,,,,,,,,3.75,0.514132976532,0.000877141952515,0.451553106308,1,q,973.645079136,,,,,,,,,,,,,,,,,,,,,,,,,,,,,,,,,2015_Jul_07_1259,59.9664303831,LearningTask,1,11,
200,s,-200,,,,,,,,,,,,,,,,,2,0,2,0,2,3,11,2,,,,,,,,,,,,,,,,,,,,,,,,,,,,,s,1,0.384051084518,None,0,1.0,hexagonwhite.gif,go,,,,,,,,,,,,,,,,,,,,,,,,0,0.513798952103,0.000890970230103,0.384051084518,1,s,976.648309946,,,,,,,,,,,,,,,,,,,,,,,,,,,,,,,,,2015_Jul_07_1259,59.9664303831,LearningTask,1,11,
-200,a,-200,,,,,,,,,,,,,,,,,2,0,2,0,3,0,12,3,,,,,,,,,,,,,,,,,,,,,,,,,,,,,a,1,0.384259939194,None,0,0.5,circleyellow.gif,go,,,,,,,,,,,,,,,,,,,,,,,,0.44,0.513954877853,0.000918865203857,0.384259939194,1,a,979.651463032,,,,,,,,,,,,,,,,,,,,,,,,,,,,,,,,,2015_Jul_07_1259,59.9664303831,LearningTask,1,11,
200,s,-200,,,,,,,,,,,,,,,,,2,0,2,0,3,1,13,2,,,,,,,,,,,,,,,,,,,,,,,,,,,,,s,1,0.384651899338,None,0,2.0,crossgray.gif,stop,,,,,,,,,,,,,,,,,,,,,,,,2.03,0.514116048813,0.00088095664978,0.384651899338,1,s,982.654803038,,,,,,,,,,,,,,,,,,,,,,,,,,,,,,,,,2015_Jul_07_1259,59.9664303831,LearningTask,1,11,
-200,a,-200,,,,,,,,,,,,,,,,,2,0,2,0,3,2,14,3,,,,,,,,,,,,,,,,,,,,,,,,,,,,,a,1,0.401128053665,None,0,4.0,diamondorange.gif,go,,,,,,,,,,,,,,,,,,,,,,,,3.81,0.514236211777,0.00119805335999,0.401128053665,1,a,985.658030987,,,,,,,,,,,,,,,,,,,,,,,,,,,,,,,,,2015_Jul_07_1259,59.9664303831,LearningTask,1,11,
-200,q,200,,,,,,,,,,,,,,,,,2,0,2,0,3,3,15,1,,,,,,,,,,,,,,,,,,,,,,,,,,,,,q,1,0.450882911682,None,0,1.0,squaregreen.gif,stop,,,,,,,,,,,,,,,,,,,,,,,,1.15,0.514808893204,0.00110006332397,0.450882911682,1,q,988.661935091,,,,,,,,,,,,,,,,,,,,,,,,,,,,,,,,,2015_Jul_07_1259,59.9664303831,LearningTask,1,11,
-200,a,-200,,,,,,,,,,,,,,,,,2,0,2,0,4,0,16,3,,,,,,,,,,,,,,,,,,,,,,,,,,,,,a,1,0.401059150696,None,0,1.0,squaregreen.gif,stop,,,,,,,,,,,,,,,,,,,,,,,,1.02,0.514060020447,0.000868082046509,0.401059150696,1,a,991.665329933,,,,,,,,,,,,,,,,,,,,,,,,,,,,,,,,,2015_Jul_07_1259,59.9664303831,LearningTask,1,11,
200,s,-200,,,,,,,,,,,,,,,,,2,0,2,0,4,1,17,2,,,,,,,,,,,,,,,,,,,,,,,,,,,,,s,1,0.801388978958,None,0,2.0,invertedtriangleblue.gif,go,,,,,,,,,,,,,,,,,,,,,,,,2.18,0.513724088669,0.000924110412598,0.801388978958,1,s,994.668383121,,,,,,,,,,,,,,,,,,,,,,,,,,,,,,,,,2015_Jul_07_1259,59.9664303831,LearningTask,1,11,
200,w,200,,,,,,,,,,,,,,,,,2,0,2,0,4,2,18,0,,,,,,,,,,,,,,,,,,,,,,,,,,,,,w,1,0.350811004639,None,0,1.0,hexagonwhite.gif,go,,,,,,,,,,,,,,,,,,,,,,,,0.87,0.514013051987,0.000968217849731,0.350811004639,1,w,997.671560049,,,,,,,,,,,,,,,,,,,,,,,,,,,,,,,,,2015_Jul_07_1259,59.9664303831,LearningTask,1,11,
200,w,200,,,,,,,,,,,,,,,,,2,0,2,0,4,3,19,0,,,,,,,,,,,,,,,,,,,,,,,,,,,,,w,1,0.350733041763,None,0,0.5,circleyellow.gif,go,,,,,,,,,,,,,,,,,,,,,,,,0.75,0.51479101181,0.000871896743774,0.350733041763,1,w,1000.67501092,,,,,,,,,,,,,,,,,,,,,,,,,,,,,,,,,2015_Jul_07_1259,59.9664303831,LearningTask,1,11,
200,s,-200,,,,,,,,,,,,,,,,,2,0,2,0,5,0,20,2,,,,,,,,,,,,,,,,,,,,,,,,,,,,,s,1,0.400945901871,None,0,4.0,diamondorange.gif,go,,,,,,,,,,,,,,,,,,,,,,,,0,0.514223098755,0.000936031341553,0.400945901871,1,s,1003.67861199,,,,,,,,,,,,,,,,,,,,,,,,,,,,,,,,,2015_Jul_07_1259,59.9664303831,LearningTask,1,11,
-200,a,-200,,,,,,,,,,,,,,,,,2,0,2,0,5,1,21,3,,,,,,,,,,,,,,,,,,,,,,,,,,,,,a,1,0.467674970627,None,0,1.0,hexagonwhite.gif,go,,,,,,,,,,,,,,,,,,,,,,,,1.22,0.51362991333,0.00103497505188,0.467674970627,1,a,1006.68190098,,,,,,,,,,,,,,,,,,,,,,,,,,,,,,,,,2015_Jul_07_1259,59.9664303831,LearningTask,1,11,
200,w,200,,,,,,,,,,,,,,,,,2,0,2,0,5,2,22,0,,,,,,,,,,,,,,,,,,,,,,,,,,,,,w,1,0.400701999664,None,0,4.0,trianglemagenta.gif,stop,,,,,,,,,,,,,,,,,,,,,,,,4.09,0.514165878296,0.00087308883667,0.400701999664,1,w,1009.68520308,,,,,,,,,,,,,,,,,,,,,,,,,,,,,,,,,2015_Jul_07_1259,59.9664303831,LearningTask,1,11,
200,s,-200,,,,,,,,,,,,,,,,,2,0,2,0,5,3,23,2,,,,,,,,,,,,,,,,,,,,,,,,,,,,,s,1,0.784039974213,None,0,2.0,invertedtriangleblue.gif,go,,,,,,,,,,,,,,,,,,,,,,,,0,0.514313936234,0.00087308883667,0.784039974213,1,s,1012.68902302,,,,,,,,,,,,,,,,,,,,,,,,,,,,,,,,,2015_Jul_07_1259,59.9664303831,LearningTask,1,11,
200,w,200,,,,,,,,,,,,,,,,,2,0,2,0,6,0,24,0,,,,,,,,,,,,,,,,,,,,,,,,,,,,,w,1,0.367389202118,None,0,0.5,circleyellow.gif,go,,,,,,,,,,,,,,,,,,,,,,,,0.37,0.513360023499,0.00088906288147,0.367389202118,1,w,1015.69243002,,,,,,,,,,,,,,,,,,,,,,,,,,,,,,,,,2015_Jul_07_1259,59.9664303831,LearningTask,1,11,
200,w,200,,,,,,,,,,,,,,,,,2,0,2,0,6,1,25,0,,,,,,,,,,,,,,,,,,,,,,,,,,,,,w,1,0.368160009384,None,0,1.0,hexagonwhite.gif,go,,,,,,,,,,,,,,,,,,,,,,,,0,0.513611078262,0.000919103622437,0.368160009384,1,w,1018.69582605,,,,,,,,,,,,,,,,,,,,,,,,,,,,,,,,,2015_Jul_07_1259,59.9664303831,LearningTask,1,11,
200,w,200,,,,,,,,,,,,,,,,,2,0,2,0,6,2,26,0,,,,,,,,,,,,,,,,,,,,,,,,,,,,,w,1,0.334004878998,None,0,1.0,hexagonwhite.gif,go,,,,,,,,,,,,,,,,,,,,,,,,0.88,0.514134883881,0.000878095626831,0.334004878998,1,w,1021.69889092,,,,,,,,,,,,,,,,,,,,,,,,,,,,,,,,,2015_Jul_07_1259,59.9664303831,LearningTask,1,11,
-200,q,200,,,,,,,,,,,,,,,,,2,0,2,0,6,3,27,1,,,,,,,,,,,,,,,,,,,,,,,,,,,,,q,1,0.368043899536,None,0,2.0,invertedtriangleblue.gif,go,,,,,,,,,,,,,,,,,,,,,,,,1.81,0.513803005219,0.000877141952515,0.368043899536,1,q,1024.70212603,,,,,,,,,,,,,,,,,,,,,,,,,,,,,,,,,2015_Jul_07_1259,59.9664303831,LearningTask,1,11,
200,w,200,,,,,,,,,,,,,,,,,2,0,2,0,7,0,28,0,,,,,,,,,,,,,,,,,,,,,,,,,,,,,w,1,0.367264986038,None,0,1.0,squaregreen.gif,stop,,,,,,,,,,,,,,,,,,,,,,,,0,0.514500141144,0.000888109207153,0.367264986038,1,w,1027.70532799,,,,,,,,,,,,,,,,,,,,,,,,,,,,,,,,,2015_Jul_07_1259,59.9664303831,LearningTask,1,11,
-200,q,200,,,,,,,,,,,,,,,,,2,0,2,0,7,1,29,1,,,,,,,,,,,,,,,,,,,,,,,,,,,,,q,1,0.38477897644,None,0,2.0,crossgray.gif,stop,,,,,,,,,,,,,,,,,,,,,,,,1.91,0.514499902725,0.000876903533936,0.38477897644,1,q,1030.70897913,,,,,,,,,,,,,,,,,,,,,,,,,,,,,,,,,2015_Jul_07_1259,59.9664303831,LearningTask,1,11,
200,w,200,,,,,,,,,,,,,,,,,2,0,2,0,7,2,30,0,,,,,,,,,,,,,,,,,,,,,,,,,,,,,w,1,0.367244958878,None,0,2.0,crossgray.gif,stop,,,,,,,,,,,,,,,,,,,,,,,,1.75,0.514220952988,0.00092601776123,0.367244958878,1,w,1033.71235609,,,,,,,,,,,,,,,,,,,,,,,,,,,,,,,,,2015_Jul_07_1259,59.9664303831,LearningTask,1,11,
-200,a,-200,,,,,,,,,,,,,,,,,2,0,2,0,7,3,31,3,,,,,,,,,,,,,,,,,,,,,,,,,,,,,a,1,0.334095001221,None,0,1.0,squaregreen.gif,stop,,,,,,,,,,,,,,,,,,,,,,,,1.23,0.513875007629,0.000992059707642,0.334095001221,1,a,1036.71600509,,,,,,,,,,,,,,,,,,,,,,,,,,,,,,,,,2015_Jul_07_1259,59.9664303831,LearningTask,1,11,
200,s,-200,,,,,,,,,,,,,,,,,2,0,2,0,8,0,32,2,,,,,,,,,,,,,,,,,,,,,,,,,,,,,s,1,0.417196989059,None,0,0.5,circleyellow.gif,go,,,,,,,,,,,,,,,,,,,,,,,,0.43,0.514209985733,0.000878095626831,0.417196989059,1,s,1039.71892095,,,,,,,,,,,,,,,,,,,,,,,,,,,,,,,,,2015_Jul_07_1259,59.9664303831,LearningTask,1,11,
-200,a,-200,,,,,,,,,,,,,,,,,2,0,2,0,8,1,33,3,,,,,,,,,,,,,,,,,,,,,,,,,,,,,a,1,0.384011983871,None,0,4.0,diamondorange.gif,go,,,,,,,,,,,,,,,,,,,,,,,,3.94,0.514477968216,0.000931978225708,0.384011983871,1,a,1042.72222304,,,,,,,,,,,,,,,,,,,,,,,,,,,,,,,,,2015_Jul_07_1259,59.9664303831,LearningTask,1,11,
-200,a,-200,,,,,,,,,,,,,,,,,2,0,2,0,8,2,34,3,,,,,,,,,,,,,,,,,,,,,,,,,,,,,a,1,0.350868940353,None,0,4.0,trianglemagenta.gif,stop,,,,,,,,,,,,,,,,,,,,,,,,4.11,0.514096021652,0.000915050506592,0.350868940353,1,a,1045.72556996,,,,,,,,,,,,,,,,,,,,,,,,,,,,,,,,,2015_Jul_07_1259,59.9664303831,LearningTask,1,11,
-200,q,200,,,,,,,,,,,,,,,,,2,0,2,0,8,3,35,1,,,,,,,,,,,,,,,,,,,,,,,,,,,,,q,1,0.35063290596,None,0,1.0,hexagonwhite.gif,go,,,,,,,,,,,,,,,,,,,,,,,,0,0.51455116272,0.000878095626831,0.35063290596,1,q,1048.72898602,,,,,,,,,,,,,,,,,,,,,,,,,,,,,,,,,2015_Jul_07_1259,59.9664303831,LearningTask,1,11,
200,s,-200,,,,,,,,,,,,,,,,,2,0,2,0,9,0,36,2,,,,,,,,,,,,,,,,,,,,,,,,,,,,,s,1,0.367103099823,None,0,4.0,trianglemagenta.gif,stop,,,,,,,,,,,,,,,,,,,,,,,,4.08,0.514610052109,0.000909090042114,0.367103099823,1,s,1051.73288894,,,,,,,,,,,,,,,,,,,,,,,,,,,,,,,,,2015_Jul_07_1259,59.9664303831,LearningTask,1,11,
-200,q,200,,,,,,,,,,,,,,,,,2,0,2,0,9,1,37,1,,,,,,,,,,,,,,,,,,,,,,,,,,,,,q,1,0.350643873215,None,0,0.5,circleyellow.gif,go,,,,,,,,,,,,,,,,,,,,,,,,0,0.513590812683,0.000887870788574,0.36757183075,0,a,1054.73583794,0.26,0.515508174896,0.000982046127319,0.350643873215,1,q,1057.73938394,,,,,,,,,,,,,,,,,,,,,,,,,,2015_Jul_07_1259,59.9664303831,LearningTask,1,11,
-200,q,200,,,,,,,,,,,,,,,,,2,0,2,0,9,2,38,1,,,,,,,,,,,,,,,,,,,,,,,,,,,,,q,1,0.434277057648,None,0,2.0,crossgray.gif,stop,,,,,,,,,,,,,,,,,,,,,,,,0,0.513784170151,0.000903129577637,0.434277057648,1,q,1060.74277902,,,,,,,,,,,,,,,,,,,,,,,,,,,,,,,,,2015_Jul_07_1259,59.9664303831,LearningTask,1,11,
200,w,200,,,,,,,,,,,,,,,,,2,0,2,0,9,3,39,0,,,,,,,,,,,,,,,,,,,,,,,,,,,,,w,1,0.284004926682,None,0,1.0,hexagonwhite.gif,go,,,,,,,,,,,,,,,,,,,,,,,,0,0.513822078705,0.000878095626831,0.284004926682,1,w,1063.74579692,,,,,,,,,,,,,,,,,,,,,,,,,,,,,,,,,2015_Jul_07_1259,59.9664303831,LearningTask,1,11,
-200,a,-200,,,,,,,,,,,,,,,,,2,0,2,0,10,0,40,3,,,,,,,,,,,,,,,,,,,,,,,,,,,,,a,1,0.350596904755,None,0,2.0,invertedtriangleblue.gif,go,,,,,,,,,,,,,,,,,,,,,,,,0,0.51465010643,0.000876188278198,0.350596904755,1,a,1066.74955297,,,,,,,,,,,,,,,,,,,,,,,,,,,,,,,,,2015_Jul_07_1259,59.9664303831,LearningTask,1,11,
200,w,200,,,,,,,,,,,,,,,,,2,0,2,0,10,1,41,0,,,,,,,,,,,,,,,,,,,,,,,,,,,,,w,1,0.451403856277,None,0,0.5,linecyan.gif,stop,,,,,,,,,,,,,,,,,,,,,,,,0.26,0.514060020447,0.00088906288147,0.451403856277,1,w,1069.75271797,,,,,,,,,,,,,,,,,,,,,,,,,,,,,,,,,2015_Jul_07_1259,59.9664303831,LearningTask,1,11,
200,w,200,,,,,,,,,,,,,,,,,2,0,2,0,10,2,42,0,,,,,,,,,,,,,,,,,,,,,,,,,,,,,w,1,0.433999061584,None,0,2.0,invertedtriangleblue.gif,go,,,,,,,,,,,,,,,,,,,,,,,,1.77,0.514452934265,0.00118494033813,0.433999061584,1,w,1072.75602102,,,,,,,,,,,,,,,,,,,,,,,,,,,,,,,,,2015_Jul_07_1259,59.9664303831,LearningTask,1,11,
-200,a,-200,,,,,,,,,,,,,,,,,2,0,2,0,10,3,43,3,,,,,,,,,,,,,,,,,,,,,,,,,,,,,a,1,0.334046125412,None,0,1.0,hexagonwhite.gif,go,,,,,,,,,,,,,,,,,,,,,,,,0,0.514392852783,0.00109100341797,0.334046125412,1,a,1075.75949192,,,,,,,,,,,,,,,,,,,,,,,,,,,,,,,,,2015_Jul_07_1259,59.9664303831,LearningTask,1,11,
200,s,-200,,,,,,,,,,,,,,,,,2,0,2,0,11,0,44,2,,,,,,,,,,,,,,,,,,,,,,,,,,,,,s,1,0.334131002426,None,0,1.0,squaregreen.gif,stop,,,,,,,,,,,,,,,,,,,,,,,,1.06,0.514241933823,0.000875949859619,0.334131002426,1,s,1078.7626071,,,,,,,,,,,,,,,,,,,,,,,,,,,,,,,,,2015_Jul_07_1259,59.9664303831,LearningTask,1,11,
-200,a,-200,,,,,,,,,,,,,,,,,2,0,2,0,11,1,45,3,,,,,,,,,,,,,,,,,,,,,,,,,,,,,a,1,0.317494153976,None,0,1.0,squaregreen.gif,stop,,,,,,,,,,,,,,,,,,,,,,,,0.98,0.514307975769,0.00089693069458,0.317494153976,1,a,1081.76668096,,,,,,,,,,,,,,,,,,,,,,,,,,,,,,,,,2015_Jul_07_1259,59.9664303831,LearningTask,1,11,
-200,q,200,,,,,,,,,,,,,,,,,2,0,2,0,11,2,46,1,,,,,,,,,,,,,,,,,,,,,,,,,,,,,q,1,0.584692955017,None,0,0.5,circleyellow.gif,go,,,,,,,,,,,,,,,,,,,,,,,,0.75,0.513430118561,0.000930070877075,0.584692955017,1,q,1084.76955795,,,,,,,,,,,,,,,,,,,,,,,,,,,,,,,,,2015_Jul_07_1259,59.9664303831,LearningTask,1,11,
200,s,-200,,,,,,,,,,,,,,,,,2,0,2,0,11,3,47,2,,,,,,,,,,,,,,,,,,,,,,,,,,,,,s,1,0.451102018356,None,0,0.5,circleyellow.gif,go,,,,,,,,,,,,,,,,,,,,,,,,0.59,0.51442694664,0.000868082046509,0.451102018356,1,s,1087.77284503,,,,,,,,,,,,,,,,,,,,,,,,,,,,,,,,,2015_Jul_07_1259,59.9664303831,LearningTask,1,11,
200,s,-200,,,,,,,,,,,,,,,,,2,0,2,0,12,0,48,2,,,,,,,,,,,,,,,,,,,,,,,,,,,,,s,1,0.350649833679,None,0,0.5,circleyellow.gif,go,,,,,,,,,,,,,,,,,,,,,,,,0.47,0.514324188232,0.000941038131714,0.350649833679,1,s,1090.77605796,,,,,,,,,,,,,,,,,,,,,,,,,,,,,,,,,2015_Jul_07_1259,59.9664303831,LearningTask,1,11,
-200,a,-200,,,,,,,,,,,,,,,,,2,0,2,0,12,1,49,3,,,,,,,,,,,,,,,,,,,,,,,,,,,,,a,1,0.351303100586,None,0,1.0,hexagonwhite.gif,go,,,,,,,,,,,,,,,,,,,,,,,,0.87,0.514105081558,0.000933170318604,0.351303100586,1,a,1093.77957201,,,,,,,,,,,,,,,,,,,,,,,,,,,,,,,,,2015_Jul_07_1259,59.9664303831,LearningTask,1,11,
-200,q,200,,,,,,,,,,,,,,,,,2,0,2,0,12,2,50,1,,,,,,,,,,,,,,,,,,,,,,,,,,,,,q,1,0.334180831909,None,0,4.0,diamondorange.gif,go,,,,,,,,,,,,,,,,,,,,,,,,3.92,0.514371871948,0.000874042510986,0.334180831909,1,q,1096.78276205,,,,,,,,,,,,,,,,,,,,,,,,,,,,,,,,,2015_Jul_07_1259,59.9664303831,LearningTask,1,11,
-200,a,-200,,,,,,,,,,,,,,,,,2,0,2,0,12,3,51,3,,,,,,,,,,,,,,,,,,,,,,,,,,,,,a,1,0.367889881134,None,0,1.0,hexagonwhite.gif,go,,,,,,,,,,,,,,,,,,,,,,,,0.87,0.514811992645,0.000892162322998,0.367889881134,1,a,1099.78665709,,,,,,,,,,,,,,,,,,,,,,,,,,,,,,,,,2015_Jul_07_1259,59.9664303831,LearningTask,1,11,
-200,q,200,,,,,,,,,,,,,,,,,2,0,2,0,13,0,52,1,,,,,,,,,,,,,,,,,,,,,,,,,,,,,q,1,0.350920915604,None,0,2.0,invertedtriangleblue.gif,go,,,,,,,,,,,,,,,,,,,,,,,,1.94,0.513789892197,0.000883102416992,0.350920915604,1,q,1102.79004312,,,,,,,,,,,,,,,,,,,,,,,,,,,,,,,,,2015_Jul_07_1259,59.9664303831,LearningTask,1,11,
200,s,-200,,,,,,,,,,,,,,,,,2,0,2,0,13,1,53,2,,,,,,,,,,,,,,,,,,,,,,,,,,,,,s,1,0.351094007492,None,0,2.0,invertedtriangleblue.gif,go,,,,,,,,,,,,,,,,,,,,,,,,2.05,0.513975858688,0.000881910324097,0.351094007492,1,s,1105.79375911,,,,,,,,,,,,,,,,,,,,,,,,,,,,,,,,,2015_Jul_07_1259,59.9664303831,LearningTask,1,11,
200,s,-200,,,,,,,,,,,,,,,,,2,0,2,0,13,2,54,2,,,,,,,,,,,,,,,,,,,,,,,,,,,,,s,1,0.401260137558,None,0,4.0,trianglemagenta.gif,stop,,,,,,,,,,,,,,,,,,,,,,,,3.89,0.51362991333,0.000887870788574,0.401260137558,1,s,1108.79682207,,,,,,,,,,,,,,,,,,,,,,,,,,,,,,,,,2015_Jul_07_1259,59.9664303831,LearningTask,1,11,
200,s,-200,,,,,,,,,,,,,,,,,2,0,2,0,13,3,55,2,,,,,,,,,,,,,,,,,,,,,,,,,,,,,s,1,0.367738008499,None,0,4.0,diamondorange.gif,go,,,,,,,,,,,,,,,,,,,,,,,,4.05,0.513894081116,0.000903129577637,0.367738008499,1,s,1111.80021501,,,,,,,,,,,,,,,,,,,,,,,,,,,,,,,,,2015_Jul_07_1259,59.9664303831,LearningTask,1,11,
-200,q,200,,,,,,,,,,,,,,,,,2,0,2,0,14,0,56,1,,,,,,,,,,,,,,,,,,,,,,,,,,,,,q,1,0.367097139359,None,0,2.0,crossgray.gif,stop,,,,,,,,,,,,,,,,,,,,,,,,1.84,0.514285087585,0.000931024551392,0.367097139359,1,q,1114.80354309,,,,,,,,,,,,,,,,,,,,,,,,,,,,,,,,,2015_Jul_07_1259,59.9664303831,LearningTask,1,11,
-200,a,-200,,,,,,,,,,,,,,,,,2,0,2,0,14,1,57,3,,,,,,,,,,,,,,,,,,,,,,,,,,,,,a,1,0.484447002411,None,0,0.5,linecyan.gif,stop,,,,,,,,,,,,,,,,,,,,,,,,0,0.514368057251,0.000871181488037,0.484447002411,1,a,1117.80673099,,,,,,,,,,,,,,,,,,,,,,,,,,,,,,,,,2015_Jul_07_1259,59.9664303831,LearningTask,1,11,
200,w,200,,,,,,,,,,,,,,,,,2,0,2,0,14,2,58,0,,,,,,,,,,,,,,,,,,,,,,,,,,,,,w,1,0.317363977432,None,0,1.0,hexagonwhite.gif,go,,,,,,,,,,,,,,,,,,,,,,,,0.82,0.514508962631,0.000874996185303,0.317363977432,1,w,1120.80991006,,,,,,,,,,,,,,,,,,,,,,,,,,,,,,,,,2015_Jul_07_1259,59.9664303831,LearningTask,1,11,
200,s,-200,,,,,,,,,,,,,,,,,2,0,2,0,14,3,59,2,,,,,,,,,,,,,,,,,,,,,,,,,,,,,s,1,0.31751704216,None,0,1.0,squaregreen.gif,stop,,,,,,,,,,,,,,,,,,,,,,,,1.1,0.514364004135,0.00100207328796,0.31751704216,1,s,1123.8132081,,,,,,,,,,,,,,,,,,,,,,,,,,,,,,,,,2015_Jul_07_1259,59.9664303831,LearningTask,1,11,
200,w,200,,,,,,,,,,,,,,,,,2,0,2,0,15,0,60,0,,,,,,,,,,,,,,,,,,,,,,,,,,,,,w,1,0.40044593811,None,0,2.0,crossgray.gif,stop,,,,,,,,,,,,,,,,,,,,,,,,1.78,0.514523983002,0.000975847244263,0.40044593811,1,w,1126.81697798,,,,,,,,,,,,,,,,,,,,,,,,,,,,,,,,,2015_Jul_07_1259,59.9664303831,LearningTask,1,11,
200,s,-200,,,,,,,,,,,,,,,,,2,0,2,0,15,1,61,2,,,,,,,,,,,,,,,,,,,,,,,,,,,,,s,1,0.301414966583,None,0,1.0,squaregreen.gif,stop,,,,,,,,,,,,,,,,,,,,,,,,0.94,0.514194011688,0.000920057296753,0.301414966583,1,s,1129.82016993,,,,,,,,,,,,,,,,,,,,,,,,,,,,,,,,,2015_Jul_07_1259,59.9664303831,LearningTask,1,11,
200,w,200,,,,,,,,,,,,,,,,,2,0,2,0,15,2,62,0,,,,,,,,,,,,,,,,,,,,,,,,,,,,,w,1,0.350718021393,None,0,4.0,diamondorange.gif,go,,,,,,,,,,,,,,,,,,,,,,,,0,0.514133214951,0.000912189483643,0.350718021393,1,w,1132.823915,,,,,,,,,,,,,,,,,,,,,,,,,,,,,,,,,2015_Jul_07_1259,59.9664303831,LearningTask,1,11,
200,w,200,,,,,,,,,,,,,,,,,2,0,2,0,15,3,63,0,,,,,,,,,,,,,,,,,,,,,,,,,,,,,w,1,0.384824991226,None,0,4.0,trianglemagenta.gif,stop,,,,,,,,,,,,,,,,,,,,,,,,3.84,0.513480901718,0.000922918319702,0.384824991226,1,w,1135.82707405,,,,,,,,,,,,,,,,,,,,,,,,,,,,,,,,,2015_Jul_07_1259,59.9664303831,LearningTask,1,11,
-200,a,-200,,,,,,,,,,,,,,,,,2,0,2,0,16,0,64,3,,,,,,,,,,,,,,,,,,,,,,,,,,,,,a,1,0.351421117783,None,0,4.0,trianglemagenta.gif,stop,,,,,,,,,,,,,,,,,,,,,,,,3.78,0.513877868652,0.000889778137207,0.351421117783,1,a,1138.83056593,,,,,,,,,,,,,,,,,,,,,,,,,,,,,,,,,2015_Jul_07_1259,59.9664303831,LearningTask,1,11,
-200,q,200,,,,,,,,,,,,,,,,,2,0,2,0,16,1,65,1,,,,,,,,,,,,,,,,,,,,,,,,,,,,,q,1,0.283477067947,None,0,4.0,diamondorange.gif,go,,,,,,,,,,,,,,,,,,,,,,,,3.8,0.514183998108,0.000887155532837,0.283477067947,1,q,1141.83388209,,,,,,,,,,,,,,,,,,,,,,,,,,,,,,,,,2015_Jul_07_1259,59.9664303831,LearningTask,1,11,
-200,q,200,,,,,,,,,,,,,,,,,2,0,2,0,16,2,66,1,,,,,,,,,,,,,,,,,,,,,,,,,,,,,q,1,0.300853013992,None,0,1.0,squaregreen.gif,stop,,,,,,,,,,,,,,,,,,,,,,,,0,0.514029979706,0.000865936279297,0.384191036224,0,a,1144.83744812,1.12,0.515236139297,0.000993967056274,0.300853013992,1,q,1147.84078193,,,,,,,,,,,,,,,,,,,,,,,,,,2015_Jul_07_1259,59.9664303831,LearningTask,1,11,
200,w,200,,,,,,,,,,,,,,,,,2,0,2,0,16,3,67,0,,,,,,,,,,,,,,,,,,,,,,,,,,,,,w,1,0.334346055984,None,0,1.0,squaregreen.gif,stop,,,,,,,,,,,,,,,,,,,,,,,,1.06,0.513793945312,0.000865936279297,0.334346055984,1,w,1150.84384298,,,,,,,,,,,,,,,,,,,,,,,,,,,,,,,,,2015_Jul_07_1259,59.9664303831,LearningTask,1,11,
-200,q,200,,,,,,,,,,,,,,,,,2,0,2,0,17,0,68,1,,,,,,,,,,,,,,,,,,,,,,,,,,,,,q,1,0.284336805344,None,0,4.0,diamondorange.gif,go,,,,,,,,,,,,,,,,,,,,,,,,3.98,0.514273881912,0.000870943069458,0.284336805344,1,q,1153.84715199,,,,,,,,,,,,,,,,,,,,,,,,,,,,,,,,,2015_Jul_07_1259,59.9664303831,LearningTask,1,11,
-200,a,-200,,,,,,,,,,,,,,,,,2,0,2,0,17,1,69,3,,,,,,,,,,,,,,,,,,,,,,,,,,,,,a,1,0.333916187286,None,0,0.5,linecyan.gif,stop,,,,,,,,,,,,,,,,,,,,,,,,0.47,0.514400959015,0.000895977020264,0.333916187286,1,a,1156.85078001,,,,,,,,,,,,,,,,,,,,,,,,,,,,,,,,,2015_Jul_07_1259,59.9664303831,LearningTask,1,11,
-200,q,200,,,,,,,,,,,,,,,,,2,0,2,0,17,2,70,1,,,,,,,,,,,,,,,,,,,,,,,,,,,,,q,1,0.318018913269,None,0,1.0,hexagonwhite.gif,go,,,,,,,,,,,,,,,,,,,,,,,,0.75,0.514112949371,0.000881910324097,0.318018913269,1,q,1159.85415196,,,,,,,,,,,,,,,,,,,,,,,,,,,,,,,,,2015_Jul_07_1259,59.9664303831,LearningTask,1,11,
-200,a,-200,,,,,,,,,,,,,,,,,2,0,2,0,17,3,71,3,,,,,,,,,,,,,,,,,,,,,,,,,,,,,a,1,0.316968202591,None,0,1.0,hexagonwhite.gif,go,,,,,,,,,,,,,,,,,,,,,,,,0.9,0.514683008194,0.0010290145874,0.316968202591,1,a,1162.85731101,,,,,,,,,,,,,,,,,,,,,,,,,,,,,,,,,2015_Jul_07_1259,59.9664303831,LearningTask,1,11,
200,s,-200,,,,,,,,,,,,,,,,,2,0,2,0,18,0,72,2,,,,,,,,,,,,,,,,,,,,,,,,,,,,,s,1,0.384346961975,None,0,1.0,hexagonwhite.gif,go,,,,,,,,,,,,,,,,,,,,,,,,0,0.514256954193,0.000883102416992,0.384346961975,1,s,1165.86072993,,,,,,,,,,,,,,,,,,,,,,,,,,,,,,,,,2015_Jul_07_1259,59.9664303831,LearningTask,1,11,
-200,q,200,,,,,,,,,,,,,,,,,2,0,2,0,18,1,73,1,,,,,,,,,,,,,,,,,,,,,,,,,,,,,q,1,0.400810003281,None,0,2.0,invertedtriangleblue.gif,go,,,,,,,,,,,,,,,,,,,,,,,,1.9,0.514376878738,0.000944852828979,0.400810003281,1,q,1168.86466408,,,,,,,,,,,,,,,,,,,,,,,,,,,,,,,,,2015_Jul_07_1259,59.9664303831,LearningTask,1,11,
200,w,200,,,,,,,,,,,,,,,,,2,0,2,0,18,2,74,0,,,,,,,,,,,,,,,,,,,,,,,,,,,,,w,1,0.384305953979,None,0,0.5,circleyellow.gif,go,,,,,,,,,,,,,,,,,,,,,,,,0.31,0.513408899307,0.000902891159058,0.384305953979,1,w,1171.86754608,,,,,,,,,,,,,,,,,,,,,,,,,,,,,,,,,2015_Jul_07_1259,59.9664303831,LearningTask,1,11,
-200,a,-200,,,,,,,,,,,,,,,,,2,0,2,0,18,3,75,3,,,,,,,,,,,,,,,,,,,,,,,,,,,,,a,1,0.317573070526,None,0,1.0,hexagonwhite.gif,go,,,,,,,,,,,,,,,,,,,,,,,,0,0.514045953751,0.000882863998413,0.317573070526,1,a,1174.870785,,,,,,,,,,,,,,,,,,,,,,,,,,,,,,,,,2015_Jul_07_1259,59.9664303831,LearningTask,1,11,
200,s,-200,,,,,,,,,,,,,,,,,2,0,2,0,19,0,76,2,,,,,,,,,,,,,,,,,,,,,,,,,,,,,s,1,0.36799287796,None,0,1.0,hexagonwhite.gif,go,,,,,,,,,,,,,,,,,,,,,,,,0,0.51395201683,0.00095796585083,0.318129777908,0,w,1177.8741231,1.05,0.515463113785,0.00107598304749,0.36799287796,1,s,1180.87768793,,,,,,,,,,,,,,,,,,,,,,,,,,2015_Jul_07_1259,59.9664303831,LearningTask,1,11,
200,w,200,,,,,,,,,,,,,,,,,2,0,2,0,19,1,77,0,,,,,,,,,,,,,,,,,,,,,,,,,,,,,w,1,0.434182167053,None,0,0.5,linecyan.gif,stop,,,,,,,,,,,,,,,,,,,,,,,,0.5,0.513961076736,0.000946044921875,0.434182167053,1,w,1183.88080907,,,,,,,,,,,,,,,,,,,,,,,,,,,,,,,,,2015_Jul_07_1259,59.9664303831,LearningTask,1,11,
-200,q,200,,,,,,,,,,,,,,,,,2,0,2,0,19,2,78,1,,,,,,,,,,,,,,,,,,,,,,,,,,,,,q,1,0.417770862579,None,0,2.0,invertedtriangleblue.gif,go,,,,,,,,,,,,,,,,,,,,,,,,1.91,0.514041900635,0.000879049301147,0.417770862579,1,q,1186.88492393,,,,,,,,,,,,,,,,,,,,,,,,,,,,,,,,,2015_Jul_07_1259,59.9664303831,LearningTask,1,11,
200,w,200,,,,,,,,,,,,,,,,,2,0,2,0,19,3,79,0,,,,,,,,,,,,,,,,,,,,,,,,,,,,,w,1,0.38397192955,None,0,4.0,trianglemagenta.gif,stop,,,,,,,,,,,,,,,,,,,,,,,,0,0.513942956924,0.000890970230103,0.38397192955,1,w,1189.88777399,,,,,,,,,,,,,,,,,,,,,,,,,,,,,,,,,2015_Jul_07_1259,59.9664303831,LearningTask,1,11,
-200,q,200,,,,,,,,,,,,,,,,,2,0,2,0,20,0,80,1,,,,,,,,,,,,,,,,,,,,,,,,,,,,,q,1,0.350811958313,None,0,2.0,invertedtriangleblue.gif,go,,,,,,,,,,,,,,,,,,,,,,,,0,0.51433300972,0.000876903533936,0.384804964066,0,a,1192.89159107,2.16,0.514872074127,0.00102496147156,0.350811958313,1,q,1195.89512515,,,,,,,,,,,,,,,,,,,,,,,,,,2015_Jul_07_1259,59.9664303831,LearningTask,1,11,
200,s,-200,,,,,,,,,,,,,,,,,2,0,2,0,20,1,81,2,,,,,,,,,,,,,,,,,,,,,,,,,,,,,s,1,0.33422088623,q,0,4.0,diamondorange.gif,go,,,,,,,,,,,,,,,,,,,,,,,,4.24,0.513006925583,0.00100088119507,0.33422088623,1,s,1198.89793611,,,,,,,,,,0.924538850784,,,,,,,,,,,,,,,,,,,,,,,2015_Jul_07_1259,59.9664303831,LearningTask,1,11,
-200,q,200,,,,,,,,,,,,,,,,,2,0,2,0,20,2,82,1,,,,,,,,,,,,,,,,,,,,,,,,,,,,,q,1,0.351534128189,None,0,4.0,diamondorange.gif,go,,,,,,,,,,,,,,,,,,,,,,,,3.77,0.514052867889,0.000870943069458,0.351534128189,1,q,1201.90135312,,,,,,,,,,,,,,,,,,,,,,,,,,,,,,,,,2015_Jul_07_1259,59.9664303831,LearningTask,1,11,
200,w,200,,,,,,,,,,,,,,,,,2,0,2,0,20,3,83,0,,,,,,,,,,,,,,,,,,,,,,,,,,,,,w,1,0.350775957108,None,0,0.5,linecyan.gif,stop,,,,,,,,,,,,,,,,,,,,,,,,0.43,0.514182090759,0.000877141952515,0.350775957108,1,w,1204.90496206,,,,,,,,,,,,,,,,,,,,,,,,,,,,,,,,,2015_Jul_07_1259,59.9664303831,LearningTask,1,11,
200,w,200,,,,,,,,,,,,,,,,,2,0,2,0,21,0,84,0,,,,,,,,,,,,,,,,,,,,,,,,,,,,,w,1,0.450484037399,None,0,0.5,linecyan.gif,stop,,,,,,,,,,,,,,,,,,,,,,,,0.5,0.51419210434,0.000939130783081,0.450484037399,1,w,1207.90795493,,,,,,,,,,,,,,,,,,,,,,,,,,,,,,,,,2015_Jul_07_1259,59.9664303831,LearningTask,1,11,
-200,a,-200,,,,,,,,,,,,,,,,,2,0,2,0,21,1,85,3,,,,,,,,,,,,,,,,,,,,,,,,,,,,,a,1,0.300966024399,None,0,4.0,trianglemagenta.gif,stop,,,,,,,,,,,,,,,,,,,,,,,,0,0.514261960983,0.000983953475952,0.300966024399,1,a,1210.91174006,,,,,,,,,,,,,,,,,,,,,,,,,,,,,,,,,2015_Jul_07_1259,59.9664303831,LearningTask,1,11,
200,w,200,,,,,,,,,,,,,,,,,2,0,2,0,21,2,86,0,,,,,,,,,,,,,,,,,,,,,,,,,,,,,w,1,0.317464113235,None,0,2.0,invertedtriangleblue.gif,go,,,,,,,,,,,,,,,,,,,,,,,,1.76,0.514002084732,0.000878095626831,0.317464113235,1,w,1213.91450214,,,,,,,,,,,,,,,,,,,,,,,,,,,,,,,,,2015_Jul_07_1259,59.9664303831,LearningTask,1,11,
-200,a,-200,,,,,,,,,,,,,,,,,2,0,2,0,21,3,87,3,,,,,,,,,,,,,,,,,,,,,,,,,,,,,a,1,0.317394971848,None,0,2.0,crossgray.gif,stop,,,,,,,,,,,,,,,,,,,,,,,,0,0.514410018921,0.000916004180908,0.317394971848,1,a,1216.91843295,,,,,,,,,,,,,,,,,,,,,,,,,,,,,,,,,2015_Jul_07_1259,59.9664303831,LearningTask,1,11,
-200,q,200,,,,,,,,,,,,,,,,,2,0,2,0,22,0,88,1,,,,,,,,,,,,,,,,,,,,,,,,,,,,,q,1,0.334100961685,None,0,4.0,diamondorange.gif,go,,,,,,,,,,,,,,,,,,,,,,,,3.78,0.513767004013,0.00091290473938,0.334100961685,1,q,1219.92144513,,,,,,,,,,,,,,,,,,,,,,,,,,,,,,,,,2015_Jul_07_1259,59.9664303831,LearningTask,1,11,
200,s,-200,,,,,,,,,,,,,,,,,2,0,2,0,22,1,89,2,,,,,,,,,,,,,,,,,,,,,,,,,,,,,s,1,0.334443092346,None,0,4.0,diamondorange.gif,go,,,,,,,,,,,,,,,,,,,,,,,,3.79,0.51438999176,0.00087308883667,0.334443092346,1,s,1222.92477894,,,,,,,,,,,,,,,,,,,,,,,,,,,,,,,,,2015_Jul_07_1259,59.9664303831,LearningTask,1,11,
-200,q,200,,,,,,,,,,,,,,,,,2,0,2,0,22,2,90,1,,,,,,,,,,,,,,,,,,,,,,,,,,,,,q,1,0.350824117661,None,0,1.0,squaregreen.gif,stop,,,,,,,,,,,,,,,,,,,,,,,,1.24,0.514091014862,0.000910997390747,0.350824117661,1,q,1225.92835498,,,,,,,,,,,,,,,,,,,,,,,,,,,,,,,,,2015_Jul_07_1259,59.9664303831,LearningTask,1,11,
-200,q,200,,,,,,,,,,,,,,,,,2,0,2,0,22,3,91,1,,,,,,,,,,,,,,,,,,,,,,,,,,,,,q,1,0.450486898422,None,0,0.5,linecyan.gif,stop,,,,,,,,,,,,,,,,,,,,,,,,0.73,0.514162778854,0.000918865203857,0.450486898422,1,q,1228.93178105,,,,,,,,,,,,,,,,,,,,,,,,,,,,,,,,,2015_Jul_07_1259,59.9664303831,LearningTask,1,11,
-200,a,-200,,,,,,,,,,,,,,,,,2,0,2,0,23,0,92,3,,,,,,,,,,,,,,,,,,,,,,,,,,,,,a,1,0.384690999985,None,0,2.0,crossgray.gif,stop,,,,,,,,,,,,,,,,,,,,,,,,1.95,0.514099121094,0.000879049301147,0.384690999985,1,a,1231.93516898,,,,,,,,,,,,,,,,,,,,,,,,,,,,,,,,,2015_Jul_07_1259,59.9664303831,LearningTask,1,11,
-200,a,-200,,,,,,,,,,,,,,,,,2,0,2,0,23,1,93,3,,,,,,,,,,,,,,,,,,,,,,,,,,,,,a,1,0.317507982254,None,0,2.0,invertedtriangleblue.gif,go,,,,,,,,,,,,,,,,,,,,,,,,1.86,0.514150857925,0.000876903533936,0.317507982254,1,a,1234.93873715,,,,,,,,,,,,,,,,,,,,,,,,,,,,,,,,,2015_Jul_07_1259,59.9664303831,LearningTask,1,11,
-200,a,-200,,,,,,,,,,,,,,,,,2,0,2,0,23,2,94,3,,,,,,,,,,,,,,,,,,,,,,,,,,,,,a,1,0.350823163986,None,0,0.5,circleyellow.gif,go,,,,,,,,,,,,,,,,,,,,,,,,0,0.514066934586,0.00089693069458,0.350823163986,1,a,1237.94187212,,,,,,,,,,,,,,,,,,,,,,,,,,,,,,,,,2015_Jul_07_1259,59.9664303831,LearningTask,1,11,
200,s,-200,,,,,,,,,,,,,,,,,2,0,2,0,23,3,95,2,,,,,,,,,,,,,,,,,,,,,,,,,,,,,s,1,0.367391824722,None,0,4.0,trianglemagenta.gif,stop,,,,,,,,,,,,,,,,,,,,,,,,0,0.51412987709,0.000872850418091,0.367391824722,1,s,1240.94545197,,,,,,,,,,,,,,,,,,,,,,,,,,,,,,,,,2015_Jul_07_1259,59.9664303831,LearningTask,1,11,
200,s,-200,,,,,,,,,,,,,,,,,2,0,2,0,24,0,96,2,,,,,,,,,,,,,,,,,,,,,,,,,,,,,s,1,0.383903980255,None,0,4.0,diamondorange.gif,go,,,,,,,,,,,,,,,,,,,,,,,,3.85,0.514028072357,0.000878095626831,0.383903980255,1,s,1243.94885898,,,,,,,,,,,,,,,,,,,,,,,,,,,,,,,,,2015_Jul_07_1259,59.9664303831,LearningTask,1,11,
200,w,200,,,,,,,,,,,,,,,,,2,0,2,0,24,1,97,0,,,,,,,,,,,,,,,,,,,,,,,,,,,,,w,1,0.35079407692,None,0,0.5,circleyellow.gif,go,,,,,,,,,,,,,,,,,,,,,,,,0.43,0.513945102692,0.000876903533936,0.35079407692,1,w,1246.95182014,,,,,,,,,,,,,,,,,,,,,,,,,,,,,,,,,2015_Jul_07_1259,59.9664303831,LearningTask,1,11,
-200,a,-200,,,,,,,,,,,,,,,,,2,0,2,0,24,2,98,3,,,,,,,,,,,,,,,,,,,,,,,,,,,,,a,1,0.350651025772,None,0,0.5,circleyellow.gif,go,,,,,,,,,,,,,,,,,,,,,,,,0.28,0.514627218246,0.000946998596191,0.350651025772,1,a,1249.95528793,,,,,,,,,,,,,,,,,,,,,,,,,,,,,,,,,2015_Jul_07_1259,59.9664303831,LearningTask,1,11,
200,s,-200,,,,,,,,,,,,,,,,,2,0,2,0,24,3,99,2,,,,,,,,,,,,,,,,,,,,,,,,,,,,,s,1,0.35059595108,None,0,1.0,hexagonwhite.gif,go,,,,,,,,,,,,,,,,,,,,,,,,1.1,0.514412879944,0.000880002975464,0.35059595108,1,s,1252.95855093,,,,,,,,,,,,,,,,,,,,,,,,,,,,,,,,,2015_Jul_07_1259,59.9664303831,LearningTask,1,11,
,,,,,,,,,,,,,,,,,,,2,0,2,0,,,,,,,,,,,,,,,,,,,,,,,,,,,,,,,,,,,,,,,,,,,,,,,,,,,,,,,,,,,,,,,,,,,,,,,,,,,,,,9,8.59562397003,,,,,,,,,,,,,,,,,,,,,,,,2015_Jul_07_1259,59.9664303831,LearningTask,1,11,
200,s,-200,,,,,,,,,,,,,,,,,3,0,3,0,0,0,0,2,,,,,,,,,,,,,,,,,,,,,,,,,,,,,s,1,0.417620897293,None,0,0.5,linecyan.gif,stop,,,,,,,,,,,,,,,,,,,,,,,,0,0.509877920151,0.000860929489136,0.417620897293,1,s,1265.47338104,,,,,,,,,,,,,,,,,,,,,,,,,,,,,,,,,2015_Jul_07_1259,59.9664303831,LearningTask,1,11,
200,s,-200,,,,,,,,,,,,,,,,,3,0,3,0,0,1,1,2,,,,,,,,,,,,,,,,,,,,,,,,,,,,,s,1,0.351073026657,None,0,0.5,linecyan.gif,stop,,,,,,,,,,,,,,,,,,,,,,,,0.46,0.513017892838,0.000945091247559,0.351073026657,1,s,1268.47603106,,,,,,,,,,,,,,,,,,,,,,,,,,,,,,,,,2015_Jul_07_1259,59.9664303831,LearningTask,1,11,
