xPos,corrAns,yPos,corrGoResp,yPosGoStim,xPosGoStim,pracTrials.thisRepN,pracTrials.thisTrialN,pracTrials.thisN,pracTrials.thisIndex,ReDoLoopPrac.thisRepN,ReDoLoopPrac.thisTrialN,ReDoLoopPrac.thisN,ReDoLoopPrac.thisIndex,ReDoLoopPrac.thisTrial,pracStopTrials.thisRepN,pracStopTrials.thisTrialN,pracStopTrials.thisN,pracStopTrials.thisIndex,Blocks.thisRepN,Blocks.thisTrialN,Blocks.thisN,Blocks.thisIndex,trials.thisRepN,trials.thisTrialN,trials.thisN,trials.thisIndex,ReDoLoopMain.thisRepN,ReDoLoopMain.thisTrialN,ReDoLoopMain.thisN,ReDoLoopMain.thisIndex,ReDoLoopMain.thisTrial,StopBlocks.thisRepN,StopBlocks.thisTrialN,StopBlocks.thisN,StopBlocks.thisIndex,StopTrials.thisRepN,StopTrials.thisTrialN,StopTrials.thisN,StopTrials.thisIndex,auctionBlocks.thisRepN,auctionBlocks.thisTrialN,auctionBlocks.thisN,auctionBlocks.thisIndex,auctionTrials.thisRepN,auctionTrials.thisTrialN,auctionTrials.thisN,auctionTrials.thisIndex,learningTrialList,learningPracTrialList,stopTrialList,stopPracTrialList,auctionTrialList,ok1.keys,ok1.rt,resp.keys,resp.corr,resp.rt,feedbackResp.keys,feedbackResp.corr,currentReward,currentStimulus,currentStimType,firstPracComputedRewardOutput,firstPracLearningStimOnset,firstPracLearningFixOnset,firstPracPresentationRT,firstPracPresentationAcc,firstPracPresentationResp,firstPracEndTrialTimeStamp,StartTrialTimeStamp,trialType,goStim,stimType,stopStimValue,goResp.keys,goResp.corr,goResp.rt,key_resp_9.keys,key_resp_9.corr,fixStopOnset,goStimOnset,EndTrialTimeStamp,stopSignalOnset,key_resp_3.keys,key_resp_3.rt,firstComputedRewardOutput,firstLearningStimOnset,firstLearningFixOnset,firstPresentationRT,firstPresentationAcc,firstPresentationResp,firstEndTrialTimeStamp,key_resp_7.keys,key_resp_7.rt,feedbackResp.rt,secondComputedRewardOutput,secondLearningStimOnset,secondLearningFixOnset,secondPresentationRT,secondPresentationAcc,secondPresentationResp,secondEndTrialTimeStamp,beginningSSD,EndingSSD,key_resp_9.rt,key_resp_4.keys,key_resp_4.rt,auctionResponse.keys,auctionStimDuration,auctionStim,auctionAmounts,auctionStimValue,auctionCondition,chosenAuctionAmount,auctionResponse.rt,key_resp_5.keys,key_resp_5.rt,shuffledRewardList,chosenReward1,chosenReward2,chosenReward3,chosenReward4,chosenReward5,key_resp_6.keys,key_resp_6.rt,date,frameRate,expName,session,participant,
,,,,,,,,,,,,,,,,,,,,,,,,,,,,,,,,,,,,,,,,,,,,,,,,[],[],[],[],[],9,50.696835041,,,,,,,,,,,,,,,,,,,,,,,,,,,,,,,,,,,,,,,,,,,,,,,,,,,,,,,,,,,,,,,,,,,,,,,,2015_Jun_25_1004,59.9351535495,LearningTask,1,20,
200,w,200,,,,0,0,0,8,,,,,,,,,,,,,,,,,,,,,,,,,,,,,,,,,,,,,,,,,,,,,,w,1,0.634584903717,None,0,1.0,circleblue.gif,go,0.89,0.506649017334,0.0368249416351,0.634584903717,1,w,78.9202749729,,,,,,,,,,,,,,,,,,,,,,,,,,,,,,,,,,,,,,,,,,,,,,,,,,,,,,,,,2015_Jun_25_1004,59.9351535495,LearningTask,1,20,
-200,q,200,,,,0,1,1,9,,,,,,,,,,,,,,,,,,,,,,,,,,,,,,,,,,,,,,,,,,,,,,q,1,0.484491109848,None,0,4.0,diamondwhite.gif,go,3.98,0.514428853989,0.0461189746857,0.484491109848,1,q,81.9230430126,,,,,,,,,,,,,,,,,,,,,,,,,,,,,,,,,,,,,,,,,,,,,,,,,,,,,,,,,2015_Jun_25_1004,59.9351535495,LearningTask,1,20,
200,s,-200,,,,0,2,2,2,,,,,,,,,,,,,,,,,,,,,,,,,,,,,,,,,,,,,,,,,,,,,,s,1,0.568146944046,None,0,1.0,circleblue.gif,go,1.05,0.515196084976,0.00105404853821,0.568146944046,1,s,84.9263920784,,,,,,,,,,,,,,,,,,,,,,,,,,,,,,,,,,,,,,,,,,,,,,,,,,,,,,,,,2015_Jun_25_1004,59.9351535495,LearningTask,1,20,
-200,q,200,,,,0,3,3,5,,,,,,,,,,,,,,,,,,,,,,,,,,,,,,,,,,,,,,,,,,,,,,q,1,0.43479514122,None,0,4.0,diamondwhite.gif,go,4.19,0.515324831009,0.000898838043213,0.43479514122,1,q,87.9299881458,,,,,,,,,,,,,,,,,,,,,,,,,,,,,,,,,,,,,,,,,,,,,,,,,,,,,,,,,2015_Jun_25_1004,59.9351535495,LearningTask,1,20,
-200,q,200,,,,0,4,4,1,,,,,,,,,,,,,,,,,,,,,,,,,,,,,,,,,,,,,,,,,,,,,,q,1,0.434037923813,None,0,4.0,trianglegray.gif,stop,0,0.51518201828,0.0379149913788,0.434037923813,1,q,90.9331829548,,,,,,,,,,,,,,,,,,,,,,,,,,,,,,,,,,,,,,,,,,,,,,,,,,,,,,,,,2015_Jun_25_1004,59.9351535495,LearningTask,1,20,
-200,a,-200,,,,0,5,5,3,,,,,,,,,,,,,,,,,,,,,,,,,,,,,,,,,,,,,,,,,,,,,,a,1,0.450689077377,None,0,1.0,circleblue.gif,go,0.88,0.515434026718,0.000967025756836,0.450689077377,1,a,93.936715126,,,,,,,,,,,,,,,,,,,,,,,,,,,,,,,,,,,,,,,,,,,,,,,,,,,,,,,,,2015_Jun_25_1004,59.9351535495,LearningTask,1,20,
200,w,200,,,,0,6,6,0,,,,,,,,,,,,,,,,,,,,,,,,,,,,,,,,,,,,,,,,,,,,,,w,1,0.467793941498,None,0,0.5,crosscyan.gif,stop,0.3,0.515012979507,0.00130081176758,0.467793941498,1,w,96.9399039745,,,,,,,,,,,,,,,,,,,,,,,,,,,,,,,,,,,,,,,,,,,,,,,,,,,,,,,,,2015_Jun_25_1004,59.9351535495,LearningTask,1,20,
-200,a,-200,,,,0,7,7,7,,,,,,,,,,,,,,,,,,,,,,,,,,,,,,,,,,,,,,,,,,,,,,a,1,0.484796047211,None,0,1.0,circleblue.gif,go,0.97,0.514748811722,0.000943899154663,0.484796047211,1,a,99.9431359768,,,,,,,,,,,,,,,,,,,,,,,,,,,,,,,,,,,,,,,,,,,,,,,,,,,,,,,,,2015_Jun_25_1004,59.9351535495,LearningTask,1,20,
200,s,-200,,,,0,8,8,6,,,,,,,,,,,,,,,,,,,,,,,,,,,,,,,,,,,,,,,,,,,,,,s,1,0.467715024948,None,0,2.0,lineyellow.gif,go,1.81,0.515297889709,0.00129890441895,0.467715024948,1,s,102.946614027,,,,,,,,,,,,,,,,,,,,,,,,,,,,,,,,,,,,,,,,,,,,,,,,,,,,,,,,,2015_Jun_25_1004,59.9351535495,LearningTask,1,20,
200,w,200,,,,0,9,9,4,,,,,,,,,,,,,,,,,,,,,,,,,,,,,,,,,,,,,,,,,,,,,,w,1,0.384192943573,None,0,4.0,diamondwhite.gif,go,3.82,0.514970064163,0.000899076461792,0.384192943573,1,w,105.950291157,,,,,,,,,,,,,,,,,,,,,,,,,,,,,,,,,,,,,,,,,,,,,,,,,,,,,,,,,2015_Jun_25_1004,59.9351535495,LearningTask,1,20,
,,,z,0,-200,,,,,,,,,,0,0,0,0,,,,,,,,,,,,,,,,,,,,,,,,,,,,,,,,,,,,,,,,,,,,,,,,,,,,158.981207132,go,circleblue.gif,go,1.0,z,1,0.467643976212,None,0,0.00129199028015,0.510149002075,161.97914505,,,,,,,,,,,,,,,,,,,,,,,,,,,,,,,,,,,,,,,,,,,,2015_Jun_25_1004,59.9351535495,LearningTask,1,20,
,,,m,0,200,,,,,,,,,,0,1,1,1,,,,,,,,,,,,,,,,,,,,,,,,,,,,,,,,,,,,,,,,,,,,,,,,,,,,161.979673147,go,diamondwhite.gif,go,4.0,m,1,0.367854833603,None,0,0.0012800693512,0.515320062637,164.982273102,,,,,,,,,,,,,,,,,,,,,,,,,,,,,,,,,,,,,,,,,,,,2015_Jun_25_1004,59.9351535495,LearningTask,1,20,
,,,z,0,-200,,,,,,,,,,1,0,2,0,,,,,,,,,,,,,,,,,,,,,,,,,,,,,,,,,,,,,,,,,,,,,,,,,,,,164.982751131,go,lineyellow.gif,go,2.0,z,1,0.384128093719,None,0,0.000994920730591,0.51578783989,167.985839128,,,,,,,,,,,,,,,,,,,,,,,,,,,,,,,,,,,,,,,,,,,,2015_Jun_25_1004,59.9351535495,LearningTask,1,20,
,,,z,0,-200,,,,,,,,,,1,1,3,0,,,,,,,,,,,,,,,,,,,,,,,,,,,,,,,,,,,,,,,,,,,,,,,,,,,,167.986202955,stop,crosscyan.gif,stop,0.5,z,1,0.400837898254,None,0,0.000946044921875,0.515646219254,170.989422083,0.766368150711,,,,,,,,,,,,,,,,,,,,,,,,,,,,,,,,,,,,,,,,,,,2015_Jun_25_1004,59.9351535495,LearningTask,1,20,
,,,z,0,-200,,,,,,,,,,2,0,4,0,,,,,,,,,,,,,,,,,,,,,,,,,,,,,,,,,,,,,,,,,,,,,,,,,,,,170.989835024,go,diamondwhite.gif,go,4.0,z,1,0.500936985016,None,0,0.00108695030212,0.515423059464,173.992331028,,,,,,,,,,,,,,,,,,,,,,,,,,,,,,,,,,,,,,,,,,,,2015_Jun_25_1004,59.9351535495,LearningTask,1,20,
,,,m,0,200,,,,,,,,,,2,1,5,1,,,,,,,,,,,,,,,,,,,,,,,,,,,,,,,,,,,,,,,,,,,,,,,,,,,,173.992738008,go,squaremagenta.gif,go,0.5,m,1,0.483632087708,None,0,0.0371270179749,0.515793800354,176.99554801,,,,,,,,,,,,,,,,,,,,,,,,,,,,,,,,,,,,,,,,,,,,2015_Jun_25_1004,59.9351535495,LearningTask,1,20,
,,,z,0,-200,,,,,,,,,,3,0,6,0,,,,,,,,,,,,,,,,,,,,,,,,,,,,,,,,,,,,,,,,,,,,,,,,,,,,176.995911121,stop,hexagonorange.gif,stop,2.0,None,0,,None,0,0.0013279914856,0.516115903854,179.9990201,0.766459941864,,,,,,,,,,,,,,,,,,,,,,,,,,,,,,,,,,,,,,,,,,,2015_Jun_25_1004,59.9351535495,LearningTask,1,20,
,,,m,0,200,,,,,,,,,,3,1,7,1,,,,,,,,,,,,,,,,,,,,,,,,,,,,,,,,,,,,,,,,,,,,,,,,,,,,179.999494076,stop,hexagonorange.gif,stop,2.0,m,1,0.467957019806,None,0,0.0010130405426,0.51571393013,183.002427101,0.766098976135,,,,,,,,,,,,,,,,,,,,,,,,,,,,,,,,,,,,,,,,,,,2015_Jun_25_1004,59.9351535495,LearningTask,1,20,
,,,m,0,200,,,,,,,,,,4,0,8,1,,,,,,,,,,,,,,,,,,,,,,,,,,,,,,,,,,,,,,,,,,,,,,,,,,,,183.002789974,stop,crosscyan.gif,stop,0.5,m,1,0.451112985611,None,0,0.000952005386353,0.515777826309,186.005848169,0.765922784805,,,,,,,,,,,,,,,,,,,,,,,,,,,,,,,,,,,,,,,,,,,2015_Jun_25_1004,59.9351535495,LearningTask,1,20,
,,,m,0,200,,,,,,,,,,4,1,9,1,,,,,,,,,,,,,,,,,,,,,,,,,,,,,,,,,,,,,,,,,,,,,,,,,,,,186.00625205,go,squaremagenta.gif,go,0.5,m,1,0.484498023987,None,0,0.00100612640381,0.515669107437,189.009134054,,,,,,,,,,,,,,,,,,,,,,,,,,,,,,,,,,,,,,,,,,,,2015_Jun_25_1004,59.9351535495,LearningTask,1,20,
,,,,,,,,,,,,,,,,,,,,,,,,,,,,,,,,,,,,,,,,,,,,,,,,,,,,,,,,,,,,,,,,,,,,,,,,,,,,,,,,,,,,9,114.706843853,,,,,,,,,,,,,,,,,,,,,,,,,,,,,,,,,,,,,,,,,2015_Jun_25_1004,59.9351535495,LearningTask,1,20,
,,,,,,,,,,,,,,,,,,,,,,,,,,,,,,,,,,,,,,,,,,,,,,,,,,,,,9,13.56554389,,,,,,,,,,,,,,,,,,,,,,,,,,,,,,,,,,,,,,,,,,,,,,,,,,,,,,,,,,,,,,,,,,,,,,,,2015_Jun_25_1004,59.9351535495,LearningTask,1,20,
200,s,-200,,,,,,,,,,,,,,,,,0,0,0,0,0,0,0,2,,,,,,,,,,,,,,,,,,,,,,,,,,,,,s,1,0.467714071274,None,0,2.0,lineyellow.gif,go,,,,,,,,,,,,,,,,,,,,,,,,1.86,0.507708072662,0.000886201858521,0.467714071274,1,s,320.42404604,,,,,,,,,,,,,,,,,,,,,,,,,,,,,,,,,,2015_Jun_25_1004,59.9351535495,LearningTask,1,20,
-200,a,-200,,,,,,,,,,,,,,,,,0,0,0,0,0,1,1,3,,,,,,,,,,,,,,,,,,,,,,,,,,,,,a,1,0.434271097183,None,0,4.0,trianglegray.gif,stop,,,,,,,,,,,,,,,,,,,,,,,,4.15,0.513585090637,0.000890016555786,0.434271097183,1,a,323.426687002,,,,,,,,,,,,,,,,,,,,,,,,,,,,,,,,,,2015_Jun_25_1004,59.9351535495,LearningTask,1,20,
200,s,-200,,,,,,,,,,,,,,,,,0,0,0,0,0,2,2,2,,,,,,,,,,,,,,,,,,,,,,,,,,,,,s,1,0.384308099747,None,0,1.0,circleblue.gif,go,,,,,,,,,,,,,,,,,,,,,,,,0,0.514086961746,0.00103497505188,0.384308099747,1,s,326.430238962,,,,,,,,,,,,,,,,,,,,,,,,,,,,,,,,,,2015_Jun_25_1004,59.9351535495,LearningTask,1,20,
200,w,200,,,,,,,,,,,,,,,,,0,0,0,0,0,3,3,0,,,,,,,,,,,,,,,,,,,,,,,,,,,,,w,1,0.367574930191,None,0,1.0,invertedtrianglegreen.gif,stop,,,,,,,,,,,,,,,,,,,,,,,,0.9,0.514168977737,0.0013120174408,0.367574930191,1,w,329.433241129,,,,,,,,,,,,,,,,,,,,,,,,,,,,,,,,,,2015_Jun_25_1004,59.9351535495,LearningTask,1,20,
200,w,200,,,,,,,,,,,,,,,,,0,0,0,0,1,0,4,0,,,,,,,,,,,,,,,,,,,,,,,,,,,,,w,1,0.43460893631,None,0,1.0,circleblue.gif,go,,,,,,,,,,,,,,,,,,,,,,,,1.05,0.514535903931,0.000910043716431,0.43460893631,1,w,332.436486006,,,,,,,,,,,,,,,,,,,,,,,,,,,,,,,,,,2015_Jun_25_1004,59.9351535495,LearningTask,1,20,
200,s,-200,,,,,,,,,,,,,,,,,0,0,0,0,1,1,5,2,,,,,,,,,,,,,,,,,,,,,,,,,,,,,s,1,0.400892972946,None,0,0.5,crosscyan.gif,stop,,,,,,,,,,,,,,,,,,,,,,,,0,0.514377117157,0.000961065292358,0.400892972946,1,s,335.439992189,,,,,,,,,,,,,,,,,,,,,,,,,,,,,,,,,,2015_Jun_25_1004,59.9351535495,LearningTask,1,20,
200,s,-200,,,,,,,,,,,,,,,,,0,0,0,0,1,2,6,2,,,,,,,,,,,,,,,,,,,,,,,,,,,,,s,1,0.384673833847,None,0,1.0,circleblue.gif,go,,,,,,,,,,,,,,,,,,,,,,,,1.1,0.514330863953,0.000897884368896,0.384673833847,1,s,338.443339109,,,,,,,,,,,,,,,,,,,,,,,,,,,,,,,,,,2015_Jun_25_1004,59.9351535495,LearningTask,1,20,
200,s,-200,,,,,,,,,,,,,,,,,0,0,0,0,1,3,7,2,,,,,,,,,,,,,,,,,,,,,,,,,,,,,s,1,0.333863019943,None,0,1.0,invertedtrianglegreen.gif,stop,,,,,,,,,,,,,,,,,,,,,,,,1.1,0.514752864838,0.000942945480347,0.333863019943,1,s,341.446952105,,,,,,,,,,,,,,,,,,,,,,,,,,,,,,,,,,2015_Jun_25_1004,59.9351535495,LearningTask,1,20,
200,s,-200,,,,,,,,,,,,,,,,,0,0,0,0,2,0,8,2,,,,,,,,,,,,,,,,,,,,,,,,,,,,,s,1,0.433945178986,None,0,1.0,circleblue.gif,go,,,,,,,,,,,,,,,,,,,,,,,,1.03,0.514236927032,0.000977039337158,0.433945178986,1,s,344.450239182,,,,,,,,,,,,,,,,,,,,,,,,,,,,,,,,,,2015_Jun_25_1004,59.9351535495,LearningTask,1,20,
-200,a,-200,,,,,,,,,,,,,,,,,0,0,0,0,2,1,9,3,,,,,,,,,,,,,,,,,,,,,,,,,,,,,a,1,0.367626905441,None,0,4.0,trianglegray.gif,stop,,,,,,,,,,,,,,,,,,,,,,,,3.97,0.514140129089,0.000895977020264,0.367626905441,1,a,347.453368187,,,,,,,,,,,,,,,,,,,,,,,,,,,,,,,,,,2015_Jun_25_1004,59.9351535495,LearningTask,1,20,
-200,a,-200,,,,,,,,,,,,,,,,,0,0,0,0,2,2,10,3,,,,,,,,,,,,,,,,,,,,,,,,,,,,,a,1,0.400782108307,None,0,4.0,diamondwhite.gif,go,,,,,,,,,,,,,,,,,,,,,,,,3.89,0.514542102814,0.000914096832275,0.400782108307,1,a,350.456986189,,,,,,,,,,,,,,,,,,,,,,,,,,,,,,,,,,2015_Jun_25_1004,59.9351535495,LearningTask,1,20,
200,s,-200,,,,,,,,,,,,,,,,,0,0,0,0,2,3,11,2,,,,,,,,,,,,,,,,,,,,,,,,,,,,,s,1,0.3673350811,None,0,0.5,crosscyan.gif,stop,,,,,,,,,,,,,,,,,,,,,,,,0,0.513932228088,0.000901222229004,0.3673350811,1,s,353.460294008,,,,,,,,,,,,,,,,,,,,,,,,,,,,,,,,,,2015_Jun_25_1004,59.9351535495,LearningTask,1,20,
-200,a,-200,,,,,,,,,,,,,,,,,0,0,0,0,3,0,12,3,,,,,,,,,,,,,,,,,,,,,,,,,,,,,a,1,0.350796937943,None,0,2.0,lineyellow.gif,go,,,,,,,,,,,,,,,,,,,,,,,,2.22,0.514112949371,0.000892877578735,0.350796937943,1,a,356.463554144,,,,,,,,,,,,,,,,,,,,,,,,,,,,,,,,,,2015_Jun_25_1004,59.9351535495,LearningTask,1,20,
-200,q,200,,,,,,,,,,,,,,,,,0,0,0,0,3,1,13,1,,,,,,,,,,,,,,,,,,,,,,,,,,,,,q,1,0.417722940445,None,0,4.0,trianglegray.gif,stop,,,,,,,,,,,,,,,,,,,,,,,,4.01,0.514187097549,0.000910997390747,0.417722940445,1,q,359.467291117,,,,,,,,,,,,,,,,,,,,,,,,,,,,,,,,,,2015_Jun_25_1004,59.9351535495,LearningTask,1,20,
-200,q,200,,,,,,,,,,,,,,,,,0,0,0,0,3,2,14,1,,,,,,,,,,,,,,,,,,,,,,,,,,,,,q,1,0.350888967514,None,0,4.0,diamondwhite.gif,go,,,,,,,,,,,,,,,,,,,,,,,,0,0.513499975204,0.000913858413696,0.350888967514,1,q,362.470288992,,,,,,,,,,,,,,,,,,,,,,,,,,,,,,,,,,2015_Jun_25_1004,59.9351535495,LearningTask,1,20,
-200,a,-200,,,,,,,,,,,,,,,,,0,0,0,0,3,3,15,3,,,,,,,,,,,,,,,,,,,,,,,,,,,,,a,1,0.384074926376,None,0,4.0,trianglegray.gif,stop,,,,,,,,,,,,,,,,,,,,,,,,3.78,0.51443696022,0.000901937484741,0.384074926376,1,a,365.473591089,,,,,,,,,,,,,,,,,,,,,,,,,,,,,,,,,,2015_Jun_25_1004,59.9351535495,LearningTask,1,20,
200,s,-200,,,,,,,,,,,,,,,,,0,0,0,0,4,0,16,2,,,,,,,,,,,,,,,,,,,,,,,,,,,,,s,1,0.383903980255,None,0,4.0,diamondwhite.gif,go,,,,,,,,,,,,,,,,,,,,,,,,4.04,0.514616966248,0.00109386444092,0.383903980255,1,s,368.477234125,,,,,,,,,,,,,,,,,,,,,,,,,,,,,,,,,,2015_Jun_25_1004,59.9351535495,LearningTask,1,20,
-200,a,-200,,,,,,,,,,,,,,,,,0,0,0,0,4,1,17,3,,,,,,,,,,,,,,,,,,,,,,,,,,,,,a,1,0.434695959091,None,0,0.5,crosscyan.gif,stop,,,,,,,,,,,,,,,,,,,,,,,,0.32,0.513300180435,0.000895977020264,0.434695959091,1,a,371.480355024,,,,,,,,,,,,,,,,,,,,,,,,,,,,,,,,,,2015_Jun_25_1004,59.9351535495,LearningTask,1,20,
-200,a,-200,,,,,,,,,,,,,,,,,0,0,0,0,4,2,18,3,,,,,,,,,,,,,,,,,,,,,,,,,,,,,a,1,0.384369850159,None,0,2.0,lineyellow.gif,go,,,,,,,,,,,,,,,,,,,,,,,,0,0.514279127121,0.00102710723877,0.384369850159,1,a,374.484008074,,,,,,,,,,,,,,,,,,,,,,,,,,,,,,,,,,2015_Jun_25_1004,59.9351535495,LearningTask,1,20,
-200,a,-200,,,,,,,,,,,,,,,,,0,0,0,0,4,3,19,3,,,,,,,,,,,,,,,,,,,,,,,,,,,,,a,1,0.401053905487,None,0,0.5,squaremagenta.gif,go,,,,,,,,,,,,,,,,,,,,,,,,0.66,0.513818025589,0.000901937484741,0.401053905487,1,a,377.487102032,,,,,,,,,,,,,,,,,,,,,,,,,,,,,,,,,,2015_Jun_25_1004,59.9351535495,LearningTask,1,20,
-200,q,200,,,,,,,,,,,,,,,,,0,0,0,0,5,0,20,1,,,,,,,,,,,,,,,,,,,,,,,,,,,,,q,1,0.45072889328,None,0,2.0,hexagonorange.gif,stop,,,,,,,,,,,,,,,,,,,,,,,,2.21,0.514475822449,0.000897884368896,0.45072889328,1,q,380.490369081,,,,,,,,,,,,,,,,,,,,,,,,,,,,,,,,,,2015_Jun_25_1004,59.9351535495,LearningTask,1,20,
200,s,-200,,,,,,,,,,,,,,,,,0,0,0,0,5,1,21,2,,,,,,,,,,,,,,,,,,,,,,,,,,,,,s,1,0.384010076523,None,0,1.0,invertedtrianglegreen.gif,stop,,,,,,,,,,,,,,,,,,,,,,,,1.23,0.514189958572,0.000964879989624,0.384010076523,1,s,383.493843079,,,,,,,,,,,,,,,,,,,,,,,,,,,,,,,,,,2015_Jun_25_1004,59.9351535495,LearningTask,1,20,
200,s,-200,,,,,,,,,,,,,,,,,0,0,0,0,5,2,22,2,,,,,,,,,,,,,,,,,,,,,,,,,,,,,s,1,0.367209911346,None,0,1.0,circleblue.gif,go,,,,,,,,,,,,,,,,,,,,,,,,1.16,0.514401912689,0.000895023345947,0.367209911346,1,s,386.496999025,,,,,,,,,,,,,,,,,,,,,,,,,,,,,,,,,,2015_Jun_25_1004,59.9351535495,LearningTask,1,20,
-200,q,200,,,,,,,,,,,,,,,,,0,0,0,0,5,3,23,1,,,,,,,,,,,,,,,,,,,,,,,,,,,,,q,1,0.433954000473,None,0,0.5,crosscyan.gif,stop,,,,,,,,,,,,,,,,,,,,,,,,0.33,0.514595985413,0.000894069671631,0.433954000473,1,q,389.500746965,,,,,,,,,,,,,,,,,,,,,,,,,,,,,,,,,,2015_Jun_25_1004,59.9351535495,LearningTask,1,20,
-200,a,-200,,,,,,,,,,,,,,,,,0,0,0,0,6,0,24,3,,,,,,,,,,,,,,,,,,,,,,,,,,,,,a,1,0.451259851456,None,0,4.0,trianglegray.gif,stop,,,,,,,,,,,,,,,,,,,,,,,,4.1,0.513447999954,0.000944137573242,0.451259851456,1,a,392.504117012,,,,,,,,,,,,,,,,,,,,,,,,,,,,,,,,,,2015_Jun_25_1004,59.9351535495,LearningTask,1,20,
200,s,-200,,,,,,,,,,,,,,,,,0,0,0,0,6,1,25,2,,,,,,,,,,,,,,,,,,,,,,,,,,,,,s,1,0.401189088821,None,0,2.0,lineyellow.gif,go,,,,,,,,,,,,,,,,,,,,,,,,2.16,0.513877868652,0.000888824462891,0.401189088821,1,s,395.507152081,,,,,,,,,,,,,,,,,,,,,,,,,,,,,,,,,,2015_Jun_25_1004,59.9351535495,LearningTask,1,20,
-200,a,-200,,,,,,,,,,,,,,,,,0,0,0,0,6,2,26,3,,,,,,,,,,,,,,,,,,,,,,,,,,,,,a,1,0.384361028671,None,0,0.5,squaremagenta.gif,go,,,,,,,,,,,,,,,,,,,,,,,,0.41,0.51432299614,0.000885009765625,0.384361028671,1,a,398.510287046,,,,,,,,,,,,,,,,,,,,,,,,,,,,,,,,,,2015_Jun_25_1004,59.9351535495,LearningTask,1,20,
-200,a,-200,,,,,,,,,,,,,,,,,0,0,0,0,6,3,27,3,,,,,,,,,,,,,,,,,,,,,,,,,,,,,a,1,0.383841991425,None,0,4.0,diamondwhite.gif,go,,,,,,,,,,,,,,,,,,,,,,,,4.01,0.514542102814,0.000928163528442,0.383841991425,1,a,401.514109135,,,,,,,,,,,,,,,,,,,,,,,,,,,,,,,,,,2015_Jun_25_1004,59.9351535495,LearningTask,1,20,
-200,q,200,,,,,,,,,,,,,,,,,0,0,0,0,7,0,28,1,,,,,,,,,,,,,,,,,,,,,,,,,,,,,q,1,0.434086799622,None,0,2.0,hexagonorange.gif,stop,,,,,,,,,,,,,,,,,,,,,,,,1.87,0.514189004898,0.000914096832275,0.434086799622,1,q,404.517208099,,,,,,,,,,,,,,,,,,,,,,,,,,,,,,,,,,2015_Jun_25_1004,59.9351535495,LearningTask,1,20,
-200,q,200,,,,,,,,,,,,,,,,,0,0,0,0,7,1,29,1,,,,,,,,,,,,,,,,,,,,,,,,,,,,,q,1,0.400902986526,None,0,0.5,squaremagenta.gif,go,,,,,,,,,,,,,,,,,,,,,,,,0,0.514185905457,0.000887870788574,0.400902986526,1,q,407.520774126,,,,,,,,,,,,,,,,,,,,,,,,,,,,,,,,,,2015_Jun_25_1004,59.9351535495,LearningTask,1,20,
200,s,-200,,,,,,,,,,,,,,,,,0,0,0,0,7,2,30,2,,,,,,,,,,,,,,,,,,,,,,,,,,,,,s,1,0.434221982956,None,0,4.0,trianglegray.gif,stop,,,,,,,,,,,,,,,,,,,,,,,,0,0.513993024826,0.000904083251953,0.434221982956,1,s,410.523877144,,,,,,,,,,,,,,,,,,,,,,,,,,,,,,,,,,2015_Jun_25_1004,59.9351535495,LearningTask,1,20,
200,w,200,,,,,,,,,,,,,,,,,0,0,0,0,7,3,31,0,,,,,,,,,,,,,,,,,,,,,,,,,,,,,w,1,0.350378036499,None,0,0.5,squaremagenta.gif,go,,,,,,,,,,,,,,,,,,,,,,,,0.56,0.514376163483,0.000906944274902,0.350378036499,1,w,413.527235985,,,,,,,,,,,,,,,,,,,,,,,,,,,,,,,,,,2015_Jun_25_1004,59.9351535495,LearningTask,1,20,
-200,q,200,,,,,,,,,,,,,,,,,0,0,0,0,8,0,32,1,,,,,,,,,,,,,,,,,,,,,,,,,,,,,q,1,0.4341609478,None,0,4.0,trianglegray.gif,stop,,,,,,,,,,,,,,,,,,,,,,,,3.98,0.514460086823,0.000996112823486,0.4341609478,1,q,416.530934095,,,,,,,,,,,,,,,,,,,,,,,,,,,,,,,,,,2015_Jun_25_1004,59.9351535495,LearningTask,1,20,
200,w,200,,,,,,,,,,,,,,,,,0,0,0,0,8,1,33,0,,,,,,,,,,,,,,,,,,,,,,,,,,,,,w,1,0.368156909943,None,0,0.5,crosscyan.gif,stop,,,,,,,,,,,,,,,,,,,,,,,,0.37,0.514029026031,0.000909090042114,0.368156909943,1,w,419.534022093,,,,,,,,,,,,,,,,,,,,,,,,,,,,,,,,,,2015_Jun_25_1004,59.9351535495,LearningTask,1,20,
-200,a,-200,,,,,,,,,,,,,,,,,0,0,0,0,8,2,34,3,,,,,,,,,,,,,,,,,,,,,,,,,,,,,a,1,0.400993824005,None,0,2.0,hexagonorange.gif,stop,,,,,,,,,,,,,,,,,,,,,,,,1.79,0.514314889908,0.0010449886322,0.400993824005,1,a,422.537433147,,,,,,,,,,,,,,,,,,,,,,,,,,,,,,,,,,2015_Jun_25_1004,59.9351535495,LearningTask,1,20,
200,s,-200,,,,,,,,,,,,,,,,,0,0,0,0,8,3,35,2,,,,,,,,,,,,,,,,,,,,,,,,,,,,,s,1,0.367661952972,None,0,0.5,crosscyan.gif,stop,,,,,,,,,,,,,,,,,,,,,,,,0.69,0.514088869095,0.000936985015869,0.367661952972,1,s,425.540683031,,,,,,,,,,,,,,,,,,,,,,,,,,,,,,,,,,2015_Jun_25_1004,59.9351535495,LearningTask,1,20,
200,w,200,,,,,,,,,,,,,,,,,0,0,0,0,9,0,36,0,,,,,,,,,,,,,,,,,,,,,,,,,,,,,w,1,0.401108980179,None,0,1.0,invertedtrianglegreen.gif,stop,,,,,,,,,,,,,,,,,,,,,,,,1.2,0.51437997818,0.000894069671631,0.401108980179,1,w,428.544072151,,,,,,,,,,,,,,,,,,,,,,,,,,,,,,,,,,2015_Jun_25_1004,59.9351535495,LearningTask,1,20,
200,w,200,,,,,,,,,,,,,,,,,0,0,0,0,9,1,37,0,,,,,,,,,,,,,,,,,,,,,,,,,,,,,w,1,0.367784976959,None,0,2.0,lineyellow.gif,go,,,,,,,,,,,,,,,,,,,,,,,,2.08,0.514139890671,0.000967025756836,0.367784976959,1,w,431.547491074,,,,,,,,,,,,,,,,,,,,,,,,,,,,,,,,,,2015_Jun_25_1004,59.9351535495,LearningTask,1,20,
-200,q,200,,,,,,,,,,,,,,,,,0,0,0,0,9,2,38,1,,,,,,,,,,,,,,,,,,,,,,,,,,,,,q,1,0.350749015808,None,0,2.0,lineyellow.gif,go,,,,,,,,,,,,,,,,,,,,,,,,0,0.514358043671,0.000898838043213,0.350749015808,1,q,434.550853968,,,,,,,,,,,,,,,,,,,,,,,,,,,,,,,,,,2015_Jun_25_1004,59.9351535495,LearningTask,1,20,
-200,q,200,,,,,,,,,,,,,,,,,0,0,0,0,9,3,39,1,,,,,,,,,,,,,,,,,,,,,,,,,,,,,q,1,0.384815216064,None,0,0.5,crosscyan.gif,stop,,,,,,,,,,,,,,,,,,,,,,,,0.54,0.513958930969,0.000904083251953,0.384815216064,1,q,437.554244041,,,,,,,,,,,,,,,,,,,,,,,,,,,,,,,,,,2015_Jun_25_1004,59.9351535495,LearningTask,1,20,
-200,a,-200,,,,,,,,,,,,,,,,,0,0,0,0,10,0,40,3,,,,,,,,,,,,,,,,,,,,,,,,,,,,,a,1,0.38459610939,None,0,2.0,lineyellow.gif,go,,,,,,,,,,,,,,,,,,,,,,,,1.92,0.513564825058,0.000944852828979,0.38459610939,1,a,440.557579041,,,,,,,,,,,,,,,,,,,,,,,,,,,,,,,,,,2015_Jun_25_1004,59.9351535495,LearningTask,1,20,
-200,q,200,,,,,,,,,,,,,,,,,0,0,0,0,10,1,41,1,,,,,,,,,,,,,,,,,,,,,,,,,,,,,q,1,0.434057950974,None,0,4.0,trianglegray.gif,stop,,,,,,,,,,,,,,,,,,,,,,,,4.06,0.514134168625,0.00097918510437,0.434057950974,1,q,443.560808182,,,,,,,,,,,,,,,,,,,,,,,,,,,,,,,,,,2015_Jun_25_1004,59.9351535495,LearningTask,1,20,
-200,a,-200,,,,,,,,,,,,,,,,,0,0,0,0,10,2,42,3,,,,,,,,,,,,,,,,,,,,,,,,,,,,,a,1,0.384557008743,None,0,1.0,invertedtrianglegreen.gif,stop,,,,,,,,,,,,,,,,,,,,,,,,1.05,0.514232873917,0.000894069671631,0.384557008743,1,a,446.564521074,,,,,,,,,,,,,,,,,,,,,,,,,,,,,,,,,,2015_Jun_25_1004,59.9351535495,LearningTask,1,20,
200,w,200,,,,,,,,,,,,,,,,,0,0,0,0,10,3,43,0,,,,,,,,,,,,,,,,,,,,,,,,,,,,,w,1,0.367473125458,None,0,2.0,lineyellow.gif,go,,,,,,,,,,,,,,,,,,,,,,,,1.99,0.513854980469,0.000897884368896,0.367473125458,1,w,449.567653179,,,,,,,,,,,,,,,,,,,,,,,,,,,,,,,,,,2015_Jun_25_1004,59.9351535495,LearningTask,1,20,
200,w,200,,,,,,,,,,,,,,,,,0,0,0,0,11,0,44,0,,,,,,,,,,,,,,,,,,,,,,,,,,,,,w,1,0.334181070328,None,0,0.5,crosscyan.gif,stop,,,,,,,,,,,,,,,,,,,,,,,,0.34,0.514335870743,0.000908851623535,0.334181070328,1,w,452.570850134,,,,,,,,,,,,,,,,,,,,,,,,,,,,,,,,,,2015_Jun_25_1004,59.9351535495,LearningTask,1,20,
-200,q,200,,,,,,,,,,,,,,,,,0,0,0,0,11,1,45,1,,,,,,,,,,,,,,,,,,,,,,,,,,,,,q,1,0.367009878159,None,0,0.5,crosscyan.gif,stop,,,,,,,,,,,,,,,,,,,,,,,,0.28,0.514700174332,0.00126504898071,0.367009878159,1,q,455.574651957,,,,,,,,,,,,,,,,,,,,,,,,,,,,,,,,,,2015_Jun_25_1004,59.9351535495,LearningTask,1,20,
200,w,200,,,,,,,,,,,,,,,,,0,0,0,0,11,2,46,0,,,,,,,,,,,,,,,,,,,,,,,,,,,,,w,1,0.300557136536,None,0,2.0,hexagonorange.gif,stop,,,,,,,,,,,,,,,,,,,,,,,,1.84,0.51392698288,0.000899076461792,0.300557136536,1,w,458.577687979,,,,,,,,,,,,,,,,,,,,,,,,,,,,,,,,,,2015_Jun_25_1004,59.9351535495,LearningTask,1,20,
200,s,-200,,,,,,,,,,,,,,,,,0,0,0,0,11,3,47,2,,,,,,,,,,,,,,,,,,,,,,,,,,,,,s,1,0.367285013199,None,0,0.5,squaremagenta.gif,go,,,,,,,,,,,,,,,,,,,,,,,,0.26,0.514313936234,0.000897884368896,0.367285013199,1,s,461.58092308,,,,,,,,,,,,,,,,,,,,,,,,,,,,,,,,,,2015_Jun_25_1004,59.9351535495,LearningTask,1,20,
200,s,-200,,,,,,,,,,,,,,,,,0,0,0,0,12,0,48,2,,,,,,,,,,,,,,,,,,,,,,,,,,,,,s,1,0.367457151413,None,0,4.0,trianglegray.gif,stop,,,,,,,,,,,,,,,,,,,,,,,,3.98,0.514433860779,0.000949859619141,0.367457151413,1,s,464.584555149,,,,,,,,,,,,,,,,,,,,,,,,,,,,,,,,,,2015_Jun_25_1004,59.9351535495,LearningTask,1,20,
-200,q,200,,,,,,,,,,,,,,,,,0,0,0,0,12,1,49,1,,,,,,,,,,,,,,,,,,,,,,,,,,,,,q,1,0.400988101959,None,0,0.5,crosscyan.gif,stop,,,,,,,,,,,,,,,,,,,,,,,,0,0.514070987701,0.000890016555786,0.400988101959,1,q,467.587752104,,,,,,,,,,,,,,,,,,,,,,,,,,,,,,,,,,2015_Jun_25_1004,59.9351535495,LearningTask,1,20,
-200,q,200,,,,,,,,,,,,,,,,,0,0,0,0,12,2,50,1,,,,,,,,,,,,,,,,,,,,,,,,,,,,,q,1,0.400909900665,None,0,0.5,crosscyan.gif,stop,,,,,,,,,,,,,,,,,,,,,,,,0.49,0.51432299614,0.000974893569946,0.400909900665,1,q,470.591475964,,,,,,,,,,,,,,,,,,,,,,,,,,,,,,,,,,2015_Jun_25_1004,59.9351535495,LearningTask,1,20,
200,s,-200,,,,,,,,,,,,,,,,,0,0,0,0,12,3,51,2,,,,,,,,,,,,,,,,,,,,,,,,,,,,,s,1,0.350888967514,None,0,0.5,crosscyan.gif,stop,,,,,,,,,,,,,,,,,,,,,,,,0.42,0.513669013977,0.00090503692627,0.350888967514,1,s,473.594577074,,,,,,,,,,,,,,,,,,,,,,,,,,,,,,,,,,2015_Jun_25_1004,59.9351535495,LearningTask,1,20,
-200,q,200,,,,,,,,,,,,,,,,,0,0,0,0,13,0,52,1,,,,,,,,,,,,,,,,,,,,,,,,,,,,,q,1,0.450903892517,None,0,1.0,circleblue.gif,go,,,,,,,,,,,,,,,,,,,,,,,,0,0.514168977737,0.000895023345947,0.450903892517,1,q,476.597723007,,,,,,,,,,,,,,,,,,,,,,,,,,,,,,,,,,2015_Jun_25_1004,59.9351535495,LearningTask,1,20,
200,w,200,,,,,,,,,,,,,,,,,0,0,0,0,13,1,53,0,,,,,,,,,,,,,,,,,,,,,,,,,,,,,w,1,0.417404174805,None,0,4.0,diamondwhite.gif,go,,,,,,,,,,,,,,,,,,,,,,,,3.88,0.514095067978,0.000955104827881,0.417404174805,1,w,479.601037025,,,,,,,,,,,,,,,,,,,,,,,,,,,,,,,,,,2015_Jun_25_1004,59.9351535495,LearningTask,1,20,
200,w,200,,,,,,,,,,,,,,,,,0,0,0,0,13,2,54,0,,,,,,,,,,,,,,,,,,,,,,,,,,,,,w,1,0.417377948761,None,0,1.0,invertedtrianglegreen.gif,stop,,,,,,,,,,,,,,,,,,,,,,,,0.85,0.514628887177,0.000895977020264,0.417377948761,1,w,482.604277134,,,,,,,,,,,,,,,,,,,,,,,,,,,,,,,,,,2015_Jun_25_1004,59.9351535495,LearningTask,1,20,
200,w,200,,,,,,,,,,,,,,,,,0,0,0,0,13,3,55,0,,,,,,,,,,,,,,,,,,,,,,,,,,,,,w,1,0.384387969971,None,0,4.0,diamondwhite.gif,go,,,,,,,,,,,,,,,,,,,,,,,,3.97,0.514349937439,0.000900030136108,0.384387969971,1,w,485.607946157,,,,,,,,,,,,,,,,,,,,,,,,,,,,,,,,,,2015_Jun_25_1004,59.9351535495,LearningTask,1,20,
200,s,-200,,,,,,,,,,,,,,,,,0,0,0,0,14,0,56,2,,,,,,,,,,,,,,,,,,,,,,,,,,,,,s,1,0.334074020386,None,0,2.0,hexagonorange.gif,stop,,,,,,,,,,,,,,,,,,,,,,,,1.78,0.514315843582,0.000946998596191,0.334074020386,1,s,488.611274958,,,,,,,,,,,,,,,,,,,,,,,,,,,,,,,,,,2015_Jun_25_1004,59.9351535495,LearningTask,1,20,
200,w,200,,,,,,,,,,,,,,,,,0,0,0,0,14,1,57,0,,,,,,,,,,,,,,,,,,,,,,,,,,,,,w,1,0.384714841843,None,0,1.0,circleblue.gif,go,,,,,,,,,,,,,,,,,,,,,,,,1.16,0.514124155045,0.000900983810425,0.384714841843,1,w,491.614494085,,,,,,,,,,,,,,,,,,,,,,,,,,,,,,,,,,2015_Jun_25_1004,59.9351535495,LearningTask,1,20,
200,w,200,,,,,,,,,,,,,,,,,0,0,0,0,14,2,58,0,,,,,,,,,,,,,,,,,,,,,,,,,,,,,w,1,0.317580938339,None,0,0.5,squaremagenta.gif,go,,,,,,,,,,,,,,,,,,,,,,,,0.33,0.514277935028,0.000907897949219,0.317580938339,1,w,494.617872,,,,,,,,,,,,,,,,,,,,,,,,,,,,,,,,,,2015_Jun_25_1004,59.9351535495,LearningTask,1,20,
-200,q,200,,,,,,,,,,,,,,,,,0,0,0,0,14,3,59,1,,,,,,,,,,,,,,,,,,,,,,,,,,,,,q,1,0.35079908371,None,0,2.0,hexagonorange.gif,stop,,,,,,,,,,,,,,,,,,,,,,,,2.05,0.514178991318,0.000907897949219,0.35079908371,1,q,497.62134099,,,,,,,,,,,,,,,,,,,,,,,,,,,,,,,,,,2015_Jun_25_1004,59.9351535495,LearningTask,1,20,
-200,a,-200,,,,,,,,,,,,,,,,,0,0,0,0,15,0,60,3,,,,,,,,,,,,,,,,,,,,,,,,,,,,,a,1,0.351248979568,None,0,4.0,diamondwhite.gif,go,,,,,,,,,,,,,,,,,,,,,,,,3.83,0.514031887054,0.000898838043213,0.351248979568,1,a,500.62459898,,,,,,,,,,,,,,,,,,,,,,,,,,,,,,,,,,2015_Jun_25_1004,59.9351535495,LearningTask,1,20,
-200,a,-200,,,,,,,,,,,,,,,,,0,0,0,0,15,1,61,3,,,,,,,,,,,,,,,,,,,,,,,,,,,,,a,1,0.367447137833,None,0,4.0,diamondwhite.gif,go,,,,,,,,,,,,,,,,,,,,,,,,3.95,0.514335870743,0.000914812088013,0.367447137833,1,a,503.628508091,,,,,,,,,,,,,,,,,,,,,,,,,,,,,,,,,,2015_Jun_25_1004,59.9351535495,LearningTask,1,20,
-200,a,-200,,,,,,,,,,,,,,,,,0,0,0,0,15,2,62,3,,,,,,,,,,,,,,,,,,,,,,,,,,,,,a,1,0.3342461586,None,0,4.0,diamondwhite.gif,go,,,,,,,,,,,,,,,,,,,,,,,,4.07,0.513254880905,0.000910997390747,0.3342461586,1,a,506.631462097,,,,,,,,,,,,,,,,,,,,,,,,,,,,,,,,,,2015_Jun_25_1004,59.9351535495,LearningTask,1,20,
-200,a,-200,,,,,,,,,,,,,,,,,0,0,0,0,15,3,63,3,,,,,,,,,,,,,,,,,,,,,,,,,,,,,a,1,0.367521047592,None,0,2.0,lineyellow.gif,go,,,,,,,,,,,,,,,,,,,,,,,,1.97,0.514184951782,0.000900030136108,0.367521047592,1,a,509.634595156,,,,,,,,,,,,,,,,,,,,,,,,,,,,,,,,,,2015_Jun_25_1004,59.9351535495,LearningTask,1,20,
200,w,200,,,,,,,,,,,,,,,,,0,0,0,0,16,0,64,0,,,,,,,,,,,,,,,,,,,,,,,,,,,,,w,1,0.434175014496,None,0,2.0,hexagonorange.gif,stop,,,,,,,,,,,,,,,,,,,,,,,,0,0.514550924301,0.00104999542236,0.434175014496,1,w,512.637951136,,,,,,,,,,,,,,,,,,,,,,,,,,,,,,,,,,2015_Jun_25_1004,59.9351535495,LearningTask,1,20,
200,w,200,,,,,,,,,,,,,,,,,0,0,0,0,16,1,65,0,,,,,,,,,,,,,,,,,,,,,,,,,,,,,w,1,0.36740899086,None,0,2.0,lineyellow.gif,go,,,,,,,,,,,,,,,,,,,,,,,,2.08,0.514400005341,0.000891923904419,0.36740899086,1,w,515.641232014,,,,,,,,,,,,,,,,,,,,,,,,,,,,,,,,,,2015_Jun_25_1004,59.9351535495,LearningTask,1,20,
200,w,200,,,,,,,,,,,,,,,,,0,0,0,0,16,2,66,0,,,,,,,,,,,,,,,,,,,,,,,,,,,,,w,1,0.367474079132,None,0,2.0,hexagonorange.gif,stop,,,,,,,,,,,,,,,,,,,,,,,,1.95,0.514678955078,0.00112104415894,0.367474079132,1,w,518.64511013,,,,,,,,,,,,,,,,,,,,,,,,,,,,,,,,,,2015_Jun_25_1004,59.9351535495,LearningTask,1,20,
200,s,-200,,,,,,,,,,,,,,,,,0,0,0,0,16,3,67,2,,,,,,,,,,,,,,,,,,,,,,,,,,,,,s,1,0.33412694931,None,0,2.0,lineyellow.gif,go,,,,,,,,,,,,,,,,,,,,,,,,2.14,0.513622999191,0.000900983810425,0.33412694931,1,s,521.648122072,,,,,,,,,,,,,,,,,,,,,,,,,,,,,,,,,,2015_Jun_25_1004,59.9351535495,LearningTask,1,20,
-200,q,200,,,,,,,,,,,,,,,,,0,0,0,0,17,0,68,1,,,,,,,,,,,,,,,,,,,,,,,,,,,,,q,1,0.333877086639,None,0,4.0,trianglegray.gif,stop,,,,,,,,,,,,,,,,,,,,,,,,0,0.514286994934,0.000920057296753,0.333877086639,1,q,524.651654959,,,,,,,,,,,,,,,,,,,,,,,,,,,,,,,,,,2015_Jun_25_1004,59.9351535495,LearningTask,1,20,
200,s,-200,,,,,,,,,,,,,,,,,0,0,0,0,17,1,69,2,,,,,,,,,,,,,,,,,,,,,,,,,,,,,s,1,0.334122896194,None,0,0.5,squaremagenta.gif,go,,,,,,,,,,,,,,,,,,,,,,,,0,0.514078855515,0.00108289718628,0.334122896194,1,s,527.654843092,,,,,,,,,,,,,,,,,,,,,,,,,,,,,,,,,,2015_Jun_25_1004,59.9351535495,LearningTask,1,20,
-200,a,-200,,,,,,,,,,,,,,,,,0,0,0,0,17,2,70,3,,,,,,,,,,,,,,,,,,,,,,,,,,,,,a,1,0.40055513382,None,0,1.0,invertedtrianglegreen.gif,stop,,,,,,,,,,,,,,,,,,,,,,,,0.94,0.51448392868,0.000903844833374,0.40055513382,1,a,530.658467054,,,,,,,,,,,,,,,,,,,,,,,,,,,,,,,,,,2015_Jun_25_1004,59.9351535495,LearningTask,1,20,
200,w,200,,,,,,,,,,,,,,,,,0,0,0,0,17,3,71,0,,,,,,,,,,,,,,,,,,,,,,,,,,,,,w,1,0.333963871002,None,0,1.0,invertedtrianglegreen.gif,stop,,,,,,,,,,,,,,,,,,,,,,,,0,0.514058113098,0.000910043716431,0.333963871002,1,w,533.661971092,,,,,,,,,,,,,,,,,,,,,,,,,,,,,,,,,,2015_Jun_25_1004,59.9351535495,LearningTask,1,20,
-200,a,-200,,,,,,,,,,,,,,,,,0,0,0,0,18,0,72,3,,,,,,,,,,,,,,,,,,,,,,,,,,,,,a,1,0.350543022156,None,0,2.0,lineyellow.gif,go,,,,,,,,,,,,,,,,,,,,,,,,2.2,0.513369083405,0.000921964645386,0.350543022156,1,a,536.664868116,,,,,,,,,,,,,,,,,,,,,,,,,,,,,,,,,,2015_Jun_25_1004,59.9351535495,LearningTask,1,20,
-200,a,-200,,,,,,,,,,,,,,,,,0,0,0,0,18,1,73,3,,,,,,,,,,,,,,,,,,,,,,,,,,,,,a,1,0.46760892868,None,0,4.0,trianglegray.gif,stop,,,,,,,,,,,,,,,,,,,,,,,,4.1,0.514224052429,0.00088906288147,0.46760892868,1,a,539.66813612,,,,,,,,,,,,,,,,,,,,,,,,,,,,,,,,,,2015_Jun_25_1004,59.9351535495,LearningTask,1,20,
-200,q,200,,,,,,,,,,,,,,,,,0,0,0,0,18,2,74,1,,,,,,,,,,,,,,,,,,,,,,,,,,,,,q,1,0.35084104538,None,0,1.0,invertedtrianglegreen.gif,stop,,,,,,,,,,,,,,,,,,,,,,,,1.15,0.514476060867,0.000893115997314,0.35084104538,1,q,542.67211318,,,,,,,,,,,,,,,,,,,,,,,,,,,,,,,,,,2015_Jun_25_1004,59.9351535495,LearningTask,1,20,
-200,a,-200,,,,,,,,,,,,,,,,,0,0,0,0,18,3,75,3,,,,,,,,,,,,,,,,,,,,,,,,,,,,,a,1,0.383983135223,None,0,2.0,hexagonorange.gif,stop,,,,,,,,,,,,,,,,,,,,,,,,0,0.513886928558,0.00089693069458,0.383983135223,1,a,545.675109148,,,,,,,,,,,,,,,,,,,,,,,,,,,,,,,,,,2015_Jun_25_1004,59.9351535495,LearningTask,1,20,
200,w,200,,,,,,,,,,,,,,,,,0,0,0,0,19,0,76,0,,,,,,,,,,,,,,,,,,,,,,,,,,,,,w,1,0.35088300705,None,0,0.5,squaremagenta.gif,go,,,,,,,,,,,,,,,,,,,,,,,,0.6,0.514128923416,0.00088095664978,0.35088300705,1,w,548.678544998,,,,,,,,,,,,,,,,,,,,,,,,,,,,,,,,,,2015_Jun_25_1004,59.9351535495,LearningTask,1,20,
200,s,-200,,,,,,,,,,,,,,,,,0,0,0,0,19,1,77,2,,,,,,,,,,,,,,,,,,,,,,,,,,,,,s,1,0.350739955902,None,0,4.0,diamondwhite.gif,go,,,,,,,,,,,,,,,,,,,,,,,,3.99,0.513992786407,0.000921964645386,0.350739955902,1,s,551.682231188,,,,,,,,,,,,,,,,,,,,,,,,,,,,,,,,,,2015_Jun_25_1004,59.9351535495,LearningTask,1,20,
200,w,200,,,,,,,,,,,,,,,,,0,0,0,0,19,2,78,0,,,,,,,,,,,,,,,,,,,,,,,,,,,,,w,1,0.317424058914,None,0,0.5,crosscyan.gif,stop,,,,,,,,,,,,,,,,,,,,,,,,0.29,0.51363992691,0.000916957855225,0.317424058914,1,w,554.684976101,,,,,,,,,,,,,,,,,,,,,,,,,,,,,,,,,,2015_Jun_25_1004,59.9351535495,LearningTask,1,20,
-200,a,-200,,,,,,,,,,,,,,,,,0,0,0,0,19,3,79,3,,,,,,,,,,,,,,,,,,,,,,,,,,,,,a,1,0.384238958359,None,0,2.0,lineyellow.gif,go,,,,,,,,,,,,,,,,,,,,,,,,0,0.514075040817,0.00108885765076,0.384238958359,1,a,557.688315153,,,,,,,,,,,,,,,,,,,,,,,,,,,,,,,,,,2015_Jun_25_1004,59.9351535495,LearningTask,1,20,
200,w,200,,,,,,,,,,,,,,,,,0,0,0,0,20,0,80,0,,,,,,,,,,,,,,,,,,,,,,,,,,,,,w,1,0.317736148834,None,0,2.0,lineyellow.gif,go,,,,,,,,,,,,,,,,,,,,,,,,0,0.514235019684,0.00096607208252,0.317736148834,1,w,560.692087173,,,,,,,,,,,,,,,,,,,,,,,,,,,,,,,,,,2015_Jun_25_1004,59.9351535495,LearningTask,1,20,
-200,q,200,,,,,,,,,,,,,,,,,0,0,0,0,20,1,81,1,,,,,,,,,,,,,,,,,,,,,,,,,,,,,q,1,0.317591190338,None,0,2.0,lineyellow.gif,go,,,,,,,,,,,,,,,,,,,,,,,,1.89,0.513833045959,0.00091814994812,0.317591190338,1,q,563.695345163,,,,,,,,,,,,,,,,,,,,,,,,,,,,,,,,,,2015_Jun_25_1004,59.9351535495,LearningTask,1,20,
-200,q,200,,,,,,,,,,,,,,,,,0,0,0,0,20,2,82,1,,,,,,,,,,,,,,,,,,,,,,,,,,,,,q,1,0.334228992462,None,0,1.0,circleblue.gif,go,,,,,,,,,,,,,,,,,,,,,,,,0,0.513984918594,0.00119996070862,0.334228992462,1,q,566.698548079,,,,,,,,,,,,,,,,,,,,,,,,,,,,,,,,,,2015_Jun_25_1004,59.9351535495,LearningTask,1,20,
200,w,200,,,,,,,,,,,,,,,,,0,0,0,0,20,3,83,0,,,,,,,,,,,,,,,,,,,,,,,,,,,,,w,1,0.41789317131,None,0,0.5,squaremagenta.gif,go,,,,,,,,,,,,,,,,,,,,,,,,0.65,0.513970136642,0.000937223434448,0.41789317131,1,w,569.70173502,,,,,,,,,,,,,,,,,,,,,,,,,,,,,,,,,,2015_Jun_25_1004,59.9351535495,LearningTask,1,20,
200,s,-200,,,,,,,,,,,,,,,,,0,0,0,0,21,0,84,2,,,,,,,,,,,,,,,,,,,,,,,,,,,,,s,1,0.333979845047,None,0,4.0,diamondwhite.gif,go,,,,,,,,,,,,,,,,,,,,,,,,4.21,0.514276027679,0.000900983810425,0.333979845047,1,s,572.705101967,,,,,,,,,,,,,,,,,,,,,,,,,,,,,,,,,,2015_Jun_25_1004,59.9351535495,LearningTask,1,20,
-200,a,-200,,,,,,,,,,,,,,,,,0,0,0,0,21,1,85,3,,,,,,,,,,,,,,,,,,,,,,,,,,,,,a,1,0.367615938187,None,0,4.0,trianglegray.gif,stop,,,,,,,,,,,,,,,,,,,,,,,,3.96,0.514104127884,0.000962018966675,0.367615938187,1,a,575.708400011,,,,,,,,,,,,,,,,,,,,,,,,,,,,,,,,,,2015_Jun_25_1004,59.9351535495,LearningTask,1,20,
-200,a,-200,,,,,,,,,,,,,,,,,0,0,0,0,21,2,86,3,,,,,,,,,,,,,,,,,,,,,,,,,,,,,a,1,0.384613037109,None,0,2.0,lineyellow.gif,go,,,,,,,,,,,,,,,,,,,,,,,,1.84,0.5144739151,0.000931024551392,0.384613037109,1,a,578.711596012,,,,,,,,,,,,,,,,,,,,,,,,,,,,,,,,,,2015_Jun_25_1004,59.9351535495,LearningTask,1,20,
-200,q,200,,,,,,,,,,,,,,,,,0,0,0,0,21,3,87,1,,,,,,,,,,,,,,,,,,,,,,,,,,,,,q,1,0.367392063141,None,0,4.0,diamondwhite.gif,go,,,,,,,,,,,,,,,,,,,,,,,,3.76,0.514428138733,0.000998973846436,0.367392063141,1,q,581.715492964,,,,,,,,,,,,,,,,,,,,,,,,,,,,,,,,,,2015_Jun_25_1004,59.9351535495,LearningTask,1,20,
200,s,-200,,,,,,,,,,,,,,,,,0,0,0,0,22,0,88,2,,,,,,,,,,,,,,,,,,,,,,,,,,,,,s,1,0.351171970367,None,0,4.0,trianglegray.gif,stop,,,,,,,,,,,,,,,,,,,,,,,,3.93,0.513531923294,0.000897884368896,0.351171970367,1,s,584.718567133,,,,,,,,,,,,,,,,,,,,,,,,,,,,,,,,,,2015_Jun_25_1004,59.9351535495,LearningTask,1,20,
200,w,200,,,,,,,,,,,,,,,,,0,0,0,0,22,1,89,0,,,,,,,,,,,,,,,,,,,,,,,,,,,,,w,1,0.367829084396,None,0,1.0,circleblue.gif,go,,,,,,,,,,,,,,,,,,,,,,,,0.79,0.514236927032,0.000900983810425,0.367829084396,1,w,587.721870184,,,,,,,,,,,,,,,,,,,,,,,,,,,,,,,,,,2015_Jun_25_1004,59.9351535495,LearningTask,1,20,
-200,q,200,,,,,,,,,,,,,,,,,0,0,0,0,22,2,90,1,,,,,,,,,,,,,,,,,,,,,,,,,,,,,q,1,0.417516946793,None,0,0.5,crosscyan.gif,stop,,,,,,,,,,,,,,,,,,,,,,,,0.35,0.514315128326,0.00092601776123,0.417516946793,1,q,590.725445032,,,,,,,,,,,,,,,,,,,,,,,,,,,,,,,,,,2015_Jun_25_1004,59.9351535495,LearningTask,1,20,
-200,q,200,,,,,,,,,,,,,,,,,0,0,0,0,22,3,91,1,,,,,,,,,,,,,,,,,,,,,,,,,,,,,q,1,0.367484807968,None,0,0.5,squaremagenta.gif,go,,,,,,,,,,,,,,,,,,,,,,,,0,0.513789176941,0.000916957855225,0.367484807968,1,q,593.728790045,,,,,,,,,,,,,,,,,,,,,,,,,,,,,,,,,,2015_Jun_25_1004,59.9351535495,LearningTask,1,20,
200,w,200,,,,,,,,,,,,,,,,,0,0,0,0,23,0,92,0,,,,,,,,,,,,,,,,,,,,,,,,,,,,,w,1,0.350382089615,None,0,0.5,crosscyan.gif,stop,,,,,,,,,,,,,,,,,,,,,,,,0.58,0.514054059982,0.000892162322998,0.350382089615,1,w,596.731981039,,,,,,,,,,,,,,,,,,,,,,,,,,,,,,,,,,2015_Jun_25_1004,59.9351535495,LearningTask,1,20,
200,s,-200,,,,,,,,,,,,,,,,,0,0,0,0,23,1,93,2,,,,,,,,,,,,,,,,,,,,,,,,,,,,,s,1,0.451273918152,None,0,0.5,crosscyan.gif,stop,,,,,,,,,,,,,,,,,,,,,,,,0.66,0.513986110687,0.000940084457397,0.451273918152,1,s,599.735753059,,,,,,,,,,,,,,,,,,,,,,,,,,,,,,,,,,2015_Jun_25_1004,59.9351535495,LearningTask,1,20,
200,w,200,,,,,,,,,,,,,,,,,0,0,0,0,23,2,94,0,,,,,,,,,,,,,,,,,,,,,,,,,,,,,w,1,0.317315101624,None,0,4.0,diamondwhite.gif,go,,,,,,,,,,,,,,,,,,,,,,,,0,0.513628005981,0.000915050506592,0.317315101624,1,w,602.73865819,,,,,,,,,,,,,,,,,,,,,,,,,,,,,,,,,,2015_Jun_25_1004,59.9351535495,LearningTask,1,20,
-200,q,200,,,,,,,,,,,,,,,,,0,0,0,0,23,3,95,1,,,,,,,,,,,,,,,,,,,,,,,,,,,,,q,1,0.300704956055,None,0,2.0,lineyellow.gif,go,,,,,,,,,,,,,,,,,,,,,,,,1.88,0.51433300972,0.000938892364502,0.300704956055,1,q,605.741914034,,,,,,,,,,,,,,,,,,,,,,,,,,,,,,,,,,2015_Jun_25_1004,59.9351535495,LearningTask,1,20,
-200,q,200,,,,,,,,,,,,,,,,,0,0,0,0,24,0,96,1,,,,,,,,,,,,,,,,,,,,,,,,,,,,,q,1,0.283922195435,None,0,4.0,diamondwhite.gif,go,,,,,,,,,,,,,,,,,,,,,,,,4.15,0.514610052109,0.000985145568848,0.283922195435,1,q,608.745530128,,,,,,,,,,,,,,,,,,,,,,,,,,,,,,,,,,2015_Jun_25_1004,59.9351535495,LearningTask,1,20,
200,s,-200,,,,,,,,,,,,,,,,,0,0,0,0,24,1,97,2,,,,,,,,,,,,,,,,,,,,,,,,,,,,,s,1,0.350807905197,None,0,4.0,trianglegray.gif,stop,,,,,,,,,,,,,,,,,,,,,,,,3.75,0.514179944992,0.000905990600586,0.350807905197,1,s,611.748857975,,,,,,,,,,,,,,,,,,,,,,,,,,,,,,,,,,2015_Jun_25_1004,59.9351535495,LearningTask,1,20,
-200,q,200,,,,,,,,,,,,,,,,,0,0,0,0,24,2,98,1,,,,,,,,,,,,,,,,,,,,,,,,,,,,,q,1,0.300518035889,None,0,2.0,lineyellow.gif,go,,,,,,,,,,,,,,,,,,,,,,,,2.11,0.514243841171,0.00105690956116,0.300518035889,1,q,614.752732992,,,,,,,,,,,,,,,,,,,,,,,,,,,,,,,,,,2015_Jun_25_1004,59.9351535495,LearningTask,1,20,
200,s,-200,,,,,,,,,,,,,,,,,0,0,0,0,24,3,99,2,,,,,,,,,,,,,,,,,,,,,,,,,,,,,s,1,0.300776004791,None,0,2.0,hexagonorange.gif,stop,,,,,,,,,,,,,,,,,,,,,,,,1.81,0.513516902924,0.000923871994019,0.300776004791,1,s,617.755510092,,,,,,,,,,,,,,,,,,,,,,,,,,,,,,,,,,2015_Jun_25_1004,59.9351535495,LearningTask,1,20,
,,,,,,,,,,,,,,,,,,,0,0,0,0,,,,,,,,,,,,,,,,,,,,,,,,,,,,,,,,,,,,,,,,,,,,,,,,,,,,,,,,,,,,,,,,,,,,,,,9,3.61717391014,,,,,,,,,,,,,,,,,,,,,,,,,,,,,,,,2015_Jun_25_1004,59.9351535495,LearningTask,1,20,
-200,q,200,,,,,,,,,,,,,,,,,1,0,1,0,0,0,0,1,,,,,,,,,,,,,,,,,,,,,,,,,,,,,q,1,0.417459964752,None,0,0.5,squaremagenta.gif,go,,,,,,,,,,,,,,,,,,,,,,,,0.29,0.509168148041,0.000914096832275,0.417459964752,1,q,624.697007179,,,,,,,,,,,,,,,,,,,,,,,,,,,,,,,,,,2015_Jun_25_1004,59.9351535495,LearningTask,1,20,
-200,q,200,,,,,,,,,,,,,,,,,1,0,1,0,0,1,1,1,,,,,,,,,,,,,,,,,,,,,,,,,,,,,q,1,0.351068973541,None,0,2.0,hexagonorange.gif,stop,,,,,,,,,,,,,,,,,,,,,,,,1.99,0.513993024826,0.000921010971069,0.351068973541,1,q,627.700129986,,,,,,,,,,,,,,,,,,,,,,,,,,,,,,,,,,2015_Jun_25_1004,59.9351535495,LearningTask,1,20,
-200,a,-200,,,,,,,,,,,,,,,,,1,0,1,0,0,2,2,3,,,,,,,,,,,,,,,,,,,,,,,,,,,,,a,1,0.384644031525,None,0,2.0,hexagonorange.gif,stop,,,,,,,,,,,,,,,,,,,,,,,,1.98,0.514096021652,0.000903844833374,0.384644031525,1,a,630.7035501,,,,,,,,,,,,,,,,,,,,,,,,,,,,,,,,,,2015_Jun_25_1004,59.9351535495,LearningTask,1,20,
200,w,200,,,,,,,,,,,,,,,,,1,0,1,0,0,3,3,0,,,,,,,,,,,,,,,,,,,,,,,,,,,,,w,1,0.333385944366,None,0,2.0,hexagonorange.gif,stop,,,,,,,,,,,,,,,,,,,,,,,,2.05,0.514077186584,0.000964164733887,0.333385944366,1,w,633.706890106,,,,,,,,,,,,,,,,,,,,,,,,,,,,,,,,,,2015_Jun_25_1004,59.9351535495,LearningTask,1,20,
-200,a,-200,,,,,,,,,,,,,,,,,1,0,1,0,1,0,4,3,,,,,,,,,,,,,,,,,,,,,,,,,,,,,a,1,0.301354885101,None,0,0.5,squaremagenta.gif,go,,,,,,,,,,,,,,,,,,,,,,,,0.66,0.513849973679,0.000895023345947,0.301354885101,1,a,636.709917068,,,,,,,,,,,,,,,,,,,,,,,,,,,,,,,,,,2015_Jun_25_1004,59.9351535495,LearningTask,1,20,
-200,q,200,,,,,,,,,,,,,,,,,1,0,1,0,1,1,5,1,,,,,,,,,,,,,,,,,,,,,,,,,,,,,q,1,0.317407131195,None,0,1.0,invertedtrianglegreen.gif,stop,,,,,,,,,,,,,,,,,,,,,,,,0.78,0.514295101166,0.00115299224854,0.317407131195,1,q,639.713574171,,,,,,,,,,,,,,,,,,,,,,,,,,,,,,,,,,2015_Jun_25_1004,59.9351535495,LearningTask,1,20,
-200,q,200,,,,,,,,,,,,,,,,,1,0,1,0,1,2,6,1,,,,,,,,,,,,,,,,,,,,,,,,,,,,,q,1,0.367585897446,None,0,1.0,invertedtrianglegreen.gif,stop,,,,,,,,,,,,,,,,,,,,,,,,1.18,0.513618946075,0.000944137573242,0.367585897446,1,q,642.717328072,,,,,,,,,,,,,,,,,,,,,,,,,,,,,,,,,,2015_Jun_25_1004,59.9351535495,LearningTask,1,20,
-200,a,-200,,,,,,,,,,,,,,,,,1,0,1,0,1,3,7,3,,,,,,,,,,,,,,,,,,,,,,,,,,,,,a,1,0.33381986618,None,0,4.0,diamondwhite.gif,go,,,,,,,,,,,,,,,,,,,,,,,,3.89,0.513615846634,0.0010449886322,0.33381986618,1,a,645.720108032,,,,,,,,,,,,,,,,,,,,,,,,,,,,,,,,,,2015_Jun_25_1004,59.9351535495,LearningTask,1,20,
200,w,200,,,,,,,,,,,,,,,,,1,0,1,0,2,0,8,0,,,,,,,,,,,,,,,,,,,,,,,,,,,,,w,1,0.300547122955,None,0,1.0,circleblue.gif,go,,,,,,,,,,,,,,,,,,,,,,,,1.19,0.514535903931,0.000891923904419,0.300547122955,1,w,648.724099159,,,,,,,,,,,,,,,,,,,,,,,,,,,,,,,,,,2015_Jun_25_1004,59.9351535495,LearningTask,1,20,
-200,q,200,,,,,,,,,,,,,,,,,1,0,1,0,2,1,9,1,,,,,,,,,,,,,,,,,,,,,,,,,,,,,q,1,0.351378917694,None,0,4.0,trianglegray.gif,stop,,,,,,,,,,,,,,,,,,,,,,,,4.21,0.51323890686,0.000975847244263,0.351378917694,1,q,651.726644039,,,,,,,,,,,,,,,,,,,,,,,,,,,,,,,,,,2015_Jun_25_1004,59.9351535495,LearningTask,1,20,
-200,q,200,,,,,,,,,,,,,,,,,1,0,1,0,2,2,10,1,,,,,,,,,,,,,,,,,,,,,,,,,,,,,q,1,0.317884922028,None,0,4.0,trianglegray.gif,stop,,,,,,,,,,,,,,,,,,,,,,,,4.01,0.514407157898,0.000945091247559,0.317884922028,1,q,654.729884148,,,,,,,,,,,,,,,,,,,,,,,,,,,,,,,,,,2015_Jun_25_1004,59.9351535495,LearningTask,1,20,
200,s,-200,,,,,,,,,,,,,,,,,1,0,1,0,2,3,11,2,,,,,,,,,,,,,,,,,,,,,,,,,,,,,s,1,0.384236097336,None,0,1.0,circleblue.gif,go,,,,,,,,,,,,,,,,,,,,,,,,0,0.514522075653,0.000904083251953,0.334198951721,0,w,657.733601093,,,0.12574505806,1.14,0.515224933624,0.000999927520752,0.384236097336,1,s,660.736950159,,,,,,,,,,,,,,,,,,,,,,,,2015_Jun_25_1004,59.9351535495,LearningTask,1,20,
-200,a,-200,,,,,,,,,,,,,,,,,1,0,1,0,3,0,12,3,,,,,,,,,,,,,,,,,,,,,,,,,,,,,a,1,0.484033107758,None,0,1.0,circleblue.gif,go,,,,,,,,,,,,,,,,,,,,,,,,0.89,0.514524936676,0.001051902771,0.484033107758,1,a,663.740241051,,,,,,,,,,,,,,,,,,,,,,,,,,,,,,,,,,2015_Jun_25_1004,59.9351535495,LearningTask,1,20,
200,w,200,,,,,,,,,,,,,,,,,1,0,1,0,3,1,13,0,,,,,,,,,,,,,,,,,,,,,,,,,,,,,w,1,0.367587804794,None,0,1.0,invertedtrianglegreen.gif,stop,,,,,,,,,,,,,,,,,,,,,,,,0.95,0.513921976089,0.000916004180908,0.367587804794,1,w,666.743630171,,,,,,,,,,,,,,,,,,,,,,,,,,,,,,,,,,2015_Jun_25_1004,59.9351535495,LearningTask,1,20,
200,s,-200,,,,,,,,,,,,,,,,,1,0,1,0,3,2,14,2,,,,,,,,,,,,,,,,,,,,,,,,,,,,,s,1,0.350746870041,None,0,1.0,invertedtrianglegreen.gif,stop,,,,,,,,,,,,,,,,,,,,,,,,0,0.513894081116,0.00089693069458,0.350746870041,1,s,669.746814966,,,,,,,,,,,,,,,,,,,,,,,,,,,,,,,,,,2015_Jun_25_1004,59.9351535495,LearningTask,1,20,
200,w,200,,,,,,,,,,,,,,,,,1,0,1,0,3,3,15,0,,,,,,,,,,,,,,,,,,,,,,,,,,,,,w,1,0.40113401413,None,0,1.0,invertedtrianglegreen.gif,stop,,,,,,,,,,,,,,,,,,,,,,,,0.8,0.513957977295,0.000977993011475,0.40113401413,1,w,672.750133991,,,,,,,,,,,,,,,,,,,,,,,,,,,,,,,,,,2015_Jun_25_1004,59.9351535495,LearningTask,1,20,
200,s,-200,,,,,,,,,,,,,,,,,1,0,1,0,4,0,16,2,,,,,,,,,,,,,,,,,,,,,,,,,,,,,s,1,0.333651065826,None,0,2.0,lineyellow.gif,go,,,,,,,,,,,,,,,,,,,,,,,,2.16,0.514524936676,0.000927925109863,0.333651065826,1,s,675.753793001,,,,,,,,,,,,,,,,,,,,,,,,,,,,,,,,,,2015_Jun_25_1004,59.9351535495,LearningTask,1,20,
-200,q,200,,,,,,,,,,,,,,,,,1,0,1,0,4,1,17,1,,,,,,,,,,,,,,,,,,,,,,,,,,,,,q,1,0.367892980576,None,0,2.0,lineyellow.gif,go,,,,,,,,,,,,,,,,,,,,,,,,1.96,0.514061927795,0.000959873199463,0.367892980576,1,q,678.757732153,,,,,,,,,,,,,,,,,,,,,,,,,,,,,,,,,,2015_Jun_25_1004,59.9351535495,LearningTask,1,20,
-200,a,-200,,,,,,,,,,,,,,,,,1,0,1,0,4,2,18,3,,,,,,,,,,,,,,,,,,,,,,,,,,,,,a,1,0.367588996887,None,0,1.0,circleblue.gif,go,,,,,,,,,,,,,,,,,,,,,,,,1.22,0.513145923615,0.0010199546814,0.367588996887,1,a,681.760375977,,,,,,,,,,,,,,,,,,,,,,,,,,,,,,,,,,2015_Jun_25_1004,59.9351535495,LearningTask,1,20,
200,w,200,,,,,,,,,,,,,,,,,1,0,1,0,4,3,19,0,,,,,,,,,,,,,,,,,,,,,,,,,,,,,w,1,0.351124048233,None,0,1.0,circleblue.gif,go,,,,,,,,,,,,,,,,,,,,,,,,0,0.51384806633,0.000980854034424,0.351124048233,1,w,684.763538122,,,,,,,,,,,,,,,,,,,,,,,,,,,,,,,,,,2015_Jun_25_1004,59.9351535495,LearningTask,1,20,
-200,q,200,,,,,,,,,,,,,,,,,1,0,1,0,5,0,20,1,,,,,,,,,,,,,,,,,,,,,,,,,,,,,q,1,0.433976888657,None,0,1.0,circleblue.gif,go,,,,,,,,,,,,,,,,,,,,,,,,0,0.513945102692,0.000969886779785,0.433976888657,1,q,687.76712513,,,,,,,,,,,,,,,,,,,,,,,,,,,,,,,,,,2015_Jun_25_1004,59.9351535495,LearningTask,1,20,
-200,a,-200,,,,,,,,,,,,,,,,,1,0,1,0,5,1,21,3,,,,,,,,,,,,,,,,,,,,,,,,,,,,,a,1,0.367457866669,None,0,0.5,squaremagenta.gif,go,,,,,,,,,,,,,,,,,,,,,,,,0,0.513628005981,0.000979900360107,0.367457866669,1,a,690.770215988,,,,,,,,,,,,,,,,,,,,,,,,,,,,,,,,,,2015_Jun_25_1004,59.9351535495,LearningTask,1,20,
-200,a,-200,,,,,,,,,,,,,,,,,1,0,1,0,5,2,22,3,,,,,,,,,,,,,,,,,,,,,,,,,,,,,a,1,0.450623035431,None,0,0.5,squaremagenta.gif,go,,,,,,,,,,,,,,,,,,,,,,,,0.49,0.514383077621,0.000870943069458,0.450623035431,1,a,693.773743153,,,,,,,,,,,,,,,,,,,,,,,,,,,,,,,,,,2015_Jun_25_1004,59.9351535495,LearningTask,1,20,
200,w,200,,,,,,,,,,,,,,,,,1,0,1,0,5,3,23,0,,,,,,,,,,,,,,,,,,,,,,,,,,,,,w,1,0.400928974152,None,0,0.5,squaremagenta.gif,go,,,,,,,,,,,,,,,,,,,,,,,,0.7,0.514086008072,0.000869035720825,0.400928974152,1,w,696.777551174,,,,,,,,,,,,,,,,,,,,,,,,,,,,,,,,,,2015_Jun_25_1004,59.9351535495,LearningTask,1,20,
200,w,200,,,,,,,,,,,,,,,,,1,0,1,0,6,0,24,0,,,,,,,,,,,,,,,,,,,,,,,,,,,,,w,1,0.350998163223,None,0,0.5,squaremagenta.gif,go,,,,,,,,,,,,,,,,,,,,,,,,0.26,0.513411045074,0.000880002975464,0.350998163223,1,w,699.780317068,,,,,,,,,,,,,,,,,,,,,,,,,,,,,,,,,,2015_Jun_25_1004,59.9351535495,LearningTask,1,20,
200,s,-200,,,,,,,,,,,,,,,,,1,0,1,0,6,1,25,2,,,,,,,,,,,,,,,,,,,,,,,,,,,,,s,1,0.384406089783,None,0,2.0,lineyellow.gif,go,,,,,,,,,,,,,,,,,,,,,,,,2.24,0.514202833176,0.00111889839172,0.384406089783,1,s,702.783610106,,,,,,,,,,,,,,,,,,,,,,,,,,,,,,,,,,2015_Jun_25_1004,59.9351535495,LearningTask,1,20,
200,w,200,,,,,,,,,,,,,,,,,1,0,1,0,6,2,26,0,,,,,,,,,,,,,,,,,,,,,,,,,,,,,w,1,0.384494066238,None,0,2.0,lineyellow.gif,go,,,,,,,,,,,,,,,,,,,,,,,,1.94,0.514494180679,0.000946044921875,0.384494066238,1,w,705.787254095,,,,,,,,,,,,,,,,,,,,,,,,,,,,,,,,,,2015_Jun_25_1004,59.9351535495,LearningTask,1,20,
200,s,-200,,,,,,,,,,,,,,,,,1,0,1,0,6,3,27,2,,,,,,,,,,,,,,,,,,,,,,,,,,,,,s,1,0.351034164429,None,0,1.0,circleblue.gif,go,,,,,,,,,,,,,,,,,,,,,,,,1.21,0.514041900635,0.000875949859619,0.351034164429,1,s,708.790477991,,,,,,,,,,,,,,,,,,,,,,,,,,,,,,,,,,2015_Jun_25_1004,59.9351535495,LearningTask,1,20,
200,s,-200,,,,,,,,,,,,,,,,,1,0,1,0,7,0,28,2,,,,,,,,,,,,,,,,,,,,,,,,,,,,,s,1,0.333968877792,None,0,1.0,circleblue.gif,go,,,,,,,,,,,,,,,,,,,,,,,,1.23,0.514388084412,0.00101494789124,0.333968877792,1,s,711.794123173,,,,,,,,,,,,,,,,,,,,,,,,,,,,,,,,,,2015_Jun_25_1004,59.9351535495,LearningTask,1,20,
-200,q,200,,,,,,,,,,,,,,,,,1,0,1,0,7,1,29,1,,,,,,,,,,,,,,,,,,,,,,,,,,,,,q,1,0.517873048782,None,0,0.5,squaremagenta.gif,go,,,,,,,,,,,,,,,,,,,,,,,,0.41,0.513954877853,0.000871896743774,0.517873048782,1,q,714.797297955,,,,,,,,,,,,,,,,,,,,,,,,,,,,,,,,,,2015_Jun_25_1004,59.9351535495,LearningTask,1,20,
-200,a,-200,,,,,,,,,,,,,,,,,1,0,1,0,7,2,30,3,,,,,,,,,,,,,,,,,,,,,,,,,,,,,a,1,0.401164054871,None,0,2.0,hexagonorange.gif,stop,,,,,,,,,,,,,,,,,,,,,,,,2.05,0.51411318779,0.000904083251953,0.401164054871,1,a,717.800515175,,,,,,,,,,,,,,,,,,,,,,,,,,,,,,,,,,2015_Jun_25_1004,59.9351535495,LearningTask,1,20,
-200,q,200,,,,,,,,,,,,,,,,,1,0,1,0,7,3,31,1,,,,,,,,,,,,,,,,,,,,,,,,,,,,,q,1,0.367540121078,None,0,1.0,circleblue.gif,go,,,,,,,,,,,,,,,,,,,,,,,,1.05,0.514158964157,0.000958919525146,0.367540121078,1,q,720.80380106,,,,,,,,,,,,,,,,,,,,,,,,,,,,,,,,,,2015_Jun_25_1004,59.9351535495,LearningTask,1,20,
-200,q,200,,,,,,,,,,,,,,,,,1,0,1,0,8,0,32,1,,,,,,,,,,,,,,,,,,,,,,,,,,,,,q,1,0.417722940445,None,0,1.0,invertedtrianglegreen.gif,stop,,,,,,,,,,,,,,,,,,,,,,,,1.08,0.514514923096,0.000875949859619,0.417722940445,1,q,723.807435036,,,,,,,,,,,,,,,,,,,,,,,,,,,,,,,,,,2015_Jun_25_1004,59.9351535495,LearningTask,1,20,
200,s,-200,,,,,,,,,,,,,,,,,1,0,1,0,8,1,33,2,,,,,,,,,,,,,,,,,,,,,,,,,,,,,s,1,0.384556055069,None,0,0.5,crosscyan.gif,stop,,,,,,,,,,,,,,,,,,,,,,,,0.75,0.514075994492,0.000908851623535,0.384556055069,1,s,726.810827017,,,,,,,,,,,,,,,,,,,,,,,,,,,,,,,,,,2015_Jun_25_1004,59.9351535495,LearningTask,1,20,
-200,a,-200,,,,,,,,,,,,,,,,,1,0,1,0,8,2,34,3,,,,,,,,,,,,,,,,,,,,,,,,,,,,,a,1,0.35041809082,None,0,1.0,circleblue.gif,go,,,,,,,,,,,,,,,,,,,,,,,,1.13,0.514085054398,0.00121998786926,0.35041809082,1,a,729.814269066,,,,,,,,,,,,,,,,,,,,,,,,,,,,,,,,,,2015_Jun_25_1004,59.9351535495,LearningTask,1,20,
200,w,200,,,,,,,,,,,,,,,,,1,0,1,0,8,3,35,0,,,,,,,,,,,,,,,,,,,,,,,,,,,,,w,1,0.350862979889,None,0,1.0,invertedtrianglegreen.gif,stop,,,,,,,,,,,,,,,,,,,,,,,,0,0.513979911804,0.000903129577637,0.350862979889,1,w,732.817285061,,,,,,,,,,,,,,,,,,,,,,,,,,,,,,,,,,2015_Jun_25_1004,59.9351535495,LearningTask,1,20,
200,w,200,,,,,,,,,,,,,,,,,1,0,1,0,9,0,36,0,,,,,,,,,,,,,,,,,,,,,,,,,,,,,w,1,0.417192935944,None,0,4.0,trianglegray.gif,stop,,,,,,,,,,,,,,,,,,,,,,,,0,0.514560937881,0.00095796585083,0.417192935944,1,w,735.820940018,,,,,,,,,,,,,,,,,,,,,,,,,,,,,,,,,,2015_Jun_25_1004,59.9351535495,LearningTask,1,20,
-200,q,200,,,,,,,,,,,,,,,,,1,0,1,0,9,1,37,1,,,,,,,,,,,,,,,,,,,,,,,,,,,,,q,1,0.367385864258,None,0,2.0,hexagonorange.gif,stop,,,,,,,,,,,,,,,,,,,,,,,,0,0.513599157333,0.000895977020264,0.367385864258,1,q,738.823898077,,,,,,,,,,,,,,,,,,,,,,,,,,,,,,,,,,2015_Jun_25_1004,59.9351535495,LearningTask,1,20,
-200,q,200,,,,,,,,,,,,,,,,,1,0,1,0,9,2,38,1,,,,,,,,,,,,,,,,,,,,,,,,,,,,,q,1,0.317353010178,None,0,4.0,diamondwhite.gif,go,,,,,,,,,,,,,,,,,,,,,,,,4.01,0.514714956284,0.000899076461792,0.317353010178,1,q,741.82743907,,,,,,,,,,,,,,,,,,,,,,,,,,,,,,,,,,2015_Jun_25_1004,59.9351535495,LearningTask,1,20,
-200,q,200,,,,,,,,,,,,,,,,,1,0,1,0,9,3,39,1,,,,,,,,,,,,,,,,,,,,,,,,,,,,,q,1,0.283932209015,None,0,1.0,circleblue.gif,go,,,,,,,,,,,,,,,,,,,,,,,,0,0.514451980591,0.000880002975464,0.283932209015,1,q,744.831217051,,,,,,,,,,,,,,,,,,,,,,,,,,,,,,,,,,2015_Jun_25_1004,59.9351535495,LearningTask,1,20,
200,w,200,,,,,,,,,,,,,,,,,1,0,1,0,10,0,40,0,,,,,,,,,,,,,,,,,,,,,,,,,,,,,w,1,0.317488908768,None,0,2.0,hexagonorange.gif,stop,,,,,,,,,,,,,,,,,,,,,,,,2.11,0.513442993164,0.000885009765625,0.317488908768,1,w,747.834091187,,,,,,,,,,,,,,,,,,,,,,,,,,,,,,,,,,2015_Jun_25_1004,59.9351535495,LearningTask,1,20,
200,s,-200,,,,,,,,,,,,,,,,,1,0,1,0,10,1,41,2,,,,,,,,,,,,,,,,,,,,,,,,,,,,,s,1,0.351289987564,None,0,1.0,invertedtrianglegreen.gif,stop,,,,,,,,,,,,,,,,,,,,,,,,0,0.514117002487,0.000881910324097,0.351289987564,1,s,750.83755517,,,,,,,,,,,,,,,,,,,,,,,,,,,,,,,,,,2015_Jun_25_1004,59.9351535495,LearningTask,1,20,
200,w,200,,,,,,,,,,,,,,,,,1,0,1,0,10,2,42,0,,,,,,,,,,,,,,,,,,,,,,,,,,,,,w,1,0.350800991058,None,0,1.0,circleblue.gif,go,,,,,,,,,,,,,,,,,,,,,,,,0.78,0.51410484314,0.00088095664978,0.350800991058,1,w,753.840903997,,,,,,,,,,,,,,,,,,,,,,,,,,,,,,,,,,2015_Jun_25_1004,59.9351535495,LearningTask,1,20,
200,w,200,,,,,,,,,,,,,,,,,1,0,1,0,10,3,43,0,,,,,,,,,,,,,,,,,,,,,,,,,,,,,w,1,0.33419084549,None,0,1.0,invertedtrianglegreen.gif,stop,,,,,,,,,,,,,,,,,,,,,,,,0.93,0.51415014267,0.000875949859619,0.33419084549,1,w,756.844360113,,,,,,,,,,,,,,,,,,,,,,,,,,,,,,,,,,2015_Jun_25_1004,59.9351535495,LearningTask,1,20,
200,s,-200,,,,,,,,,,,,,,,,,1,0,1,0,11,0,44,2,,,,,,,,,,,,,,,,,,,,,,,,,,,,,s,1,0.334202051163,None,0,1.0,circleblue.gif,go,,,,,,,,,,,,,,,,,,,,,,,,0.77,0.513861179352,0.00120711326599,0.334202051163,1,s,759.848028183,,,,,,,,,,,,,,,,,,,,,,,,,,,,,,,,,,2015_Jun_25_1004,59.9351535495,LearningTask,1,20,
-200,q,200,,,,,,,,,,,,,,,,,1,0,1,0,11,1,45,1,,,,,,,,,,,,,,,,,,,,,,,,,,,,,q,1,0.367897033691,None,0,1.0,circleblue.gif,go,,,,,,,,,,,,,,,,,,,,,,,,1.08,0.51347899437,0.000914096832275,0.367897033691,1,q,762.851006985,,,,,,,,,,,,,,,,,,,,,,,,,,,,,,,,,,2015_Jun_25_1004,59.9351535495,LearningTask,1,20,
200,s,-200,,,,,,,,,,,,,,,,,1,0,1,0,11,2,46,2,,,,,,,,,,,,,,,,,,,,,,,,,,,,,s,1,0.367537021637,None,0,4.0,trianglegray.gif,stop,,,,,,,,,,,,,,,,,,,,,,,,4.05,0.514058828354,0.000886917114258,0.367537021637,1,s,765.854247093,,,,,,,,,,,,,,,,,,,,,,,,,,,,,,,,,,2015_Jun_25_1004,59.9351535495,LearningTask,1,20,
200,w,200,,,,,,,,,,,,,,,,,1,0,1,0,11,3,47,0,,,,,,,,,,,,,,,,,,,,,,,,,,,,,w,1,0.334605932236,None,0,2.0,lineyellow.gif,go,,,,,,,,,,,,,,,,,,,,,,,,2.04,0.514095067978,0.00169992446899,0.334605932236,1,w,768.857545137,,,,,,,,,,,,,,,,,,,,,,,,,,,,,,,,,,2015_Jun_25_1004,59.9351535495,LearningTask,1,20,
200,w,200,,,,,,,,,,,,,,,,,1,0,1,0,12,0,48,0,,,,,,,,,,,,,,,,,,,,,,,,,,,,,w,1,0.350696086884,None,0,1.0,invertedtrianglegreen.gif,stop,,,,,,,,,,,,,,,,,,,,,,,,0,0.514390945435,0.000885009765625,0.350696086884,1,w,771.860936165,,,,,,,,,,,,,,,,,,,,,,,,,,,,,,,,,,2015_Jun_25_1004,59.9351535495,LearningTask,1,20,
200,w,200,,,,,,,,,,,,,,,,,1,0,1,0,12,1,49,0,,,,,,,,,,,,,,,,,,,,,,,,,,,,,w,1,0.301140069962,None,0,2.0,lineyellow.gif,go,,,,,,,,,,,,,,,,,,,,,,,,2.25,0.513988018036,0.000870943069458,0.301140069962,1,w,774.864293098,,,,,,,,,,,,,,,,,,,,,,,,,,,,,,,,,,2015_Jun_25_1004,59.9351535495,LearningTask,1,20,
-200,a,-200,,,,,,,,,,,,,,,,,1,0,1,0,12,2,50,3,,,,,,,,,,,,,,,,,,,,,,,,,,,,,a,1,0.367403030396,None,0,4.0,diamondwhite.gif,go,,,,,,,,,,,,,,,,,,,,,,,,0,0.514508008957,0.000936985015869,0.366968154907,0,s,777.868062973,,,,3.88,0.515120983124,0.000945091247559,0.367403030396,1,a,780.870781183,,,,,,,,,,,,,,,,,,,,,,,,2015_Jun_25_1004,59.9351535495,LearningTask,1,20,
-200,q,200,,,,,,,,,,,,,,,,,1,0,1,0,12,3,51,1,,,,,,,,,,,,,,,,,,,,,,,,,,,,,q,1,0.368134975433,None,0,2.0,hexagonorange.gif,stop,,,,,,,,,,,,,,,,,,,,,,,,1.96,0.514405012131,0.00089693069458,0.368134975433,1,q,783.874397039,,,,,,,,,,,,,,,,,,,,,,,,,,,,,,,,,,2015_Jun_25_1004,59.9351535495,LearningTask,1,20,
200,s,-200,,,,,,,,,,,,,,,,,1,0,1,0,13,0,52,2,,,,,,,,,,,,,,,,,,,,,,,,,,,,,s,1,0.450960874557,None,0,1.0,circleblue.gif,go,,,,,,,,,,,,,,,,,,,,,,,,0,0.513914823532,0.000922918319702,0.450960874557,1,s,786.877707958,,,,,,,,,,,,,,,,,,,,,,,,,,,,,,,,,,2015_Jun_25_1004,59.9351535495,LearningTask,1,20,
-200,a,-200,,,,,,,,,,,,,,,,,1,0,1,0,13,1,53,3,,,,,,,,,,,,,,,,,,,,,,,,,,,,,a,1,0.434098005295,None,0,1.0,circleblue.gif,go,,,,,,,,,,,,,,,,,,,,,,,,1.04,0.51432299614,0.000882863998413,0.434098005295,1,a,789.881091118,,,,,,,,,,,,,,,,,,,,,,,,,,,,,,,,,,2015_Jun_25_1004,59.9351535495,LearningTask,1,20,
-200,q,200,,,,,,,,,,,,,,,,,1,0,1,0,13,2,54,1,,,,,,,,,,,,,,,,,,,,,,,,,,,,,q,1,0.333770990372,None,0,1.0,invertedtrianglegreen.gif,stop,,,,,,,,,,,,,,,,,,,,,,,,0.93,0.514672040939,0.000886201858521,0.333770990372,1,q,792.88501811,,,,,,,,,,,,,,,,,,,,,,,,,,,,,,,,,,2015_Jun_25_1004,59.9351535495,LearningTask,1,20,
-200,a,-200,,,,,,,,,,,,,,,,,1,0,1,0,13,3,55,3,,,,,,,,,,,,,,,,,,,,,,,,,,,,,a,1,0.484534978867,None,0,0.5,crosscyan.gif,stop,,,,,,,,,,,,,,,,,,,,,,,,0,0.513327121735,0.000894069671631,0.484534978867,1,a,795.887681007,,,,,,,,,,,,,,,,,,,,,,,,,,,,,,,,,,2015_Jun_25_1004,59.9351535495,LearningTask,1,20,
200,w,200,,,,,,,,,,,,,,,,,1,0,1,0,14,0,56,0,,,,,,,,,,,,,,,,,,,,,,,,,,,,,w,1,0.384320020676,None,0,0.5,squaremagenta.gif,go,,,,,,,,,,,,,,,,,,,,,,,,0,0.514652967453,0.000881910324097,0.384320020676,1,w,798.891009092,,,,,,,,,,,,,,,,,,,,,,,,,,,,,,,,,,2015_Jun_25_1004,59.9351535495,LearningTask,1,20,
-200,a,-200,,,,,,,,,,,,,,,,,1,0,1,0,14,1,57,3,,,,,,,,,,,,,,,,,,,,,,,,,,,,,a,1,0.417557001114,None,0,4.0,diamondwhite.gif,go,,,,,,,,,,,,,,,,,,,,,,,,0,0.514207839966,0.000946998596191,0.417557001114,1,a,801.894657135,,,,,,,,,,,,,,,,,,,,,,,,,,,,,,,,,,2015_Jun_25_1004,59.9351535495,LearningTask,1,20,
200,w,200,,,,,,,,,,,,,,,,,1,0,1,0,14,2,58,0,,,,,,,,,,,,,,,,,,,,,,,,,,,,,w,1,0.334344863892,None,0,1.0,circleblue.gif,go,,,,,,,,,,,,,,,,,,,,,,,,1.01,0.513908147812,0.00115394592285,0.334344863892,1,w,804.898205042,,,,,,,,,,,,,,,,,,,,,,,,,,,,,,,,,,2015_Jun_25_1004,59.9351535495,LearningTask,1,20,
200,w,200,,,,,,,,,,,,,,,,,1,0,1,0,14,3,59,0,,,,,,,,,,,,,,,,,,,,,,,,,,,,,w,1,0.35094499588,None,0,0.5,squaremagenta.gif,go,,,,,,,,,,,,,,,,,,,,,,,,0.44,0.513708114624,0.000947952270508,0.35094499588,1,w,807.901431084,,,,,,,,,,,,,,,,,,,,,,,,,,,,,,,,,,2015_Jun_25_1004,59.9351535495,LearningTask,1,20,
-200,a,-200,,,,,,,,,,,,,,,,,1,0,1,0,15,0,60,3,,,,,,,,,,,,,,,,,,,,,,,,,,,,,a,1,0.367797851562,None,0,0.5,crosscyan.gif,stop,,,,,,,,,,,,,,,,,,,,,,,,0.33,0.514010906219,0.000875949859619,0.367797851562,1,a,810.904687166,,,,,,,,,,,,,,,,,,,,,,,,,,,,,,,,,,2015_Jun_25_1004,59.9351535495,LearningTask,1,20,
-200,a,-200,,,,,,,,,,,,,,,,,1,0,1,0,15,1,61,3,,,,,,,,,,,,,,,,,,,,,,,,,,,,,a,1,0.384304046631,None,0,2.0,hexagonorange.gif,stop,,,,,,,,,,,,,,,,,,,,,,,,1.84,0.514168024063,0.000890970230103,0.384304046631,1,a,813.907860041,,,,,,,,,,,,,,,,,,,,,,,,,,,,,,,,,,2015_Jun_25_1004,59.9351535495,LearningTask,1,20,
-200,a,-200,,,,,,,,,,,,,,,,,1,0,1,0,15,2,62,3,,,,,,,,,,,,,,,,,,,,,,,,,,,,,a,1,0.367802143097,None,0,2.0,hexagonorange.gif,stop,,,,,,,,,,,,,,,,,,,,,,,,2.02,0.514018058777,0.00103402137756,0.367802143097,1,a,816.911301136,,,,,,,,,,,,,,,,,,,,,,,,,,,,,,,,,,2015_Jun_25_1004,59.9351535495,LearningTask,1,20,
200,s,-200,,,,,,,,,,,,,,,,,1,0,1,0,15,3,63,2,,,,,,,,,,,,,,,,,,,,,,,,,,,,,s,1,0.366942882538,None,0,4.0,diamondwhite.gif,go,,,,,,,,,,,,,,,,,,,,,,,,0,0.514497041702,0.000874042510986,0.366942882538,1,s,819.914668083,,,,,,,,,,,,,,,,,,,,,,,,,,,,,,,,,,2015_Jun_25_1004,59.9351535495,LearningTask,1,20,
-200,a,-200,,,,,,,,,,,,,,,,,1,0,1,0,16,0,64,3,,,,,,,,,,,,,,,,,,,,,,,,,,,,,a,1,0.36733007431,None,0,4.0,diamondwhite.gif,go,,,,,,,,,,,,,,,,,,,,,,,,0,0.514141798019,0.000880002975464,0.36733007431,1,a,822.917967081,,,,,,,,,,,,,,,,,,,,,,,,,,,,,,,,,,2015_Jun_25_1004,59.9351535495,LearningTask,1,20,
200,s,-200,,,,,,,,,,,,,,,,,1,0,1,0,16,1,65,2,,,,,,,,,,,,,,,,,,,,,,,,,,,,,s,1,0.367760896683,None,0,1.0,invertedtrianglegreen.gif,stop,,,,,,,,,,,,,,,,,,,,,,,,0.95,0.514225959778,0.000958919525146,0.367760896683,1,s,825.921677113,,,,,,,,,,,,,,,,,,,,,,,,,,,,,,,,,,2015_Jun_25_1004,59.9351535495,LearningTask,1,20,
-200,a,-200,,,,,,,,,,,,,,,,,1,0,1,0,16,2,66,3,,,,,,,,,,,,,,,,,,,,,,,,,,,,,a,1,0.401182174683,None,0,2.0,hexagonorange.gif,stop,,,,,,,,,,,,,,,,,,,,,,,,1.8,0.513961076736,0.00088906288147,0.401182174683,1,a,828.924726009,,,,,,,,,,,,,,,,,,,,,,,,,,,,,,,,,,2015_Jun_25_1004,59.9351535495,LearningTask,1,20,
-200,q,200,,,,,,,,,,,,,,,,,1,0,1,0,16,3,67,1,,,,,,,,,,,,,,,,,,,,,,,,,,,,,q,1,0.433858156204,None,0,0.5,squaremagenta.gif,go,,,,,,,,,,,,,,,,,,,,,,,,0.37,0.514497041702,0.00087308883667,0.433858156204,1,q,831.928323984,,,,,,,,,,,,,,,,,,,,,,,,,,,,,,,,,,2015_Jun_25_1004,59.9351535495,LearningTask,1,20,
-200,a,-200,,,,,,,,,,,,,,,,,1,0,1,0,17,0,68,3,,,,,,,,,,,,,,,,,,,,,,,,,,,,,a,1,0.36785197258,None,0,1.0,invertedtrianglegreen.gif,stop,,,,,,,,,,,,,,,,,,,,,,,,1.25,0.51357793808,0.000905990600586,0.36785197258,1,a,834.931442976,,,,,,,,,,,,,,,,,,,,,,,,,,,,,,,,,,2015_Jun_25_1004,59.9351535495,LearningTask,1,20,
-200,a,-200,,,,,,,,,,,,,,,,,1,0,1,0,17,1,69,3,,,,,,,,,,,,,,,,,,,,,,,,,,,,,a,1,0.367660045624,None,0,0.5,squaremagenta.gif,go,,,,,,,,,,,,,,,,,,,,,,,,0.31,0.514201879501,0.000874996185303,0.367660045624,1,a,837.934934139,,,,,,,,,,,,,,,,,,,,,,,,,,,,,,,,,,2015_Jun_25_1004,59.9351535495,LearningTask,1,20,
-200,q,200,,,,,,,,,,,,,,,,,1,0,1,0,17,2,70,1,,,,,,,,,,,,,,,,,,,,,,,,,,,,,q,1,0.301028013229,None,0,4.0,diamondwhite.gif,go,,,,,,,,,,,,,,,,,,,,,,,,3.77,0.513903141022,0.000878095626831,0.301028013229,1,q,840.938491106,,,,,,,,,,,,,,,,,,,,,,,,,,,,,,,,,,2015_Jun_25_1004,59.9351535495,LearningTask,1,20,
-200,q,200,,,,,,,,,,,,,,,,,1,0,1,0,17,3,71,1,,,,,,,,,,,,,,,,,,,,,,,,,,,,,q,1,0.334362983704,None,0,1.0,invertedtrianglegreen.gif,stop,,,,,,,,,,,,,,,,,,,,,,,,0,0.513576030731,0.00119805335999,0.334362983704,1,q,843.941550016,,,,,,,,,,,,,,,,,,,,,,,,,,,,,,,,,,2015_Jun_25_1004,59.9351535495,LearningTask,1,20,
200,s,-200,,,,,,,,,,,,,,,,,1,0,1,0,18,0,72,2,,,,,,,,,,,,,,,,,,,,,,,,,,,,,s,1,0.350997924805,None,0,2.0,lineyellow.gif,go,,,,,,,,,,,,,,,,,,,,,,,,2.06,0.514019966125,0.000874996185303,0.350997924805,1,s,846.944983959,,,,,,,,,,,,,,,,,,,,,,,,,,,,,,,,,,2015_Jun_25_1004,59.9351535495,LearningTask,1,20,
200,s,-200,,,,,,,,,,,,,,,,,1,0,1,0,18,1,73,2,,,,,,,,,,,,,,,,,,,,,,,,,,,,,s,1,0.400754928589,None,0,0.5,squaremagenta.gif,go,,,,,,,,,,,,,,,,,,,,,,,,0.6,0.514133214951,0.000879049301147,0.400754928589,1,s,849.948021173,,,,,,,,,,,,,,,,,,,,,,,,,,,,,,,,,,2015_Jun_25_1004,59.9351535495,LearningTask,1,20,
200,s,-200,,,,,,,,,,,,,,,,,1,0,1,0,18,2,74,2,,,,,,,,,,,,,,,,,,,,,,,,,,,,,s,1,0.33403301239,None,0,0.5,crosscyan.gif,stop,,,,,,,,,,,,,,,,,,,,,,,,0.42,0.51434803009,0.00094199180603,0.33403301239,1,s,852.951328039,,,,,,,,,,,,,,,,,,,,,,,,,,,,,,,,,,2015_Jun_25_1004,59.9351535495,LearningTask,1,20,
200,s,-200,,,,,,,,,,,,,,,,,1,0,1,0,18,3,75,2,,,,,,,,,,,,,,,,,,,,,,,,,,,,,s,1,0.350494861603,None,0,2.0,hexagonorange.gif,stop,,,,,,,,,,,,,,,,,,,,,,,,2.08,0.514917135239,0.00102996826172,0.350494861603,1,s,855.955279112,,,,,,,,,,,,,,,,,,,,,,,,,,,,,,,,,,2015_Jun_25_1004,59.9351535495,LearningTask,1,20,
-200,q,200,,,,,,,,,,,,,,,,,1,0,1,0,19,0,76,1,,,,,,,,,,,,,,,,,,,,,,,,,,,,,q,1,0.351044893265,None,0,1.0,invertedtrianglegreen.gif,stop,,,,,,,,,,,,,,,,,,,,,,,,0.97,0.513836145401,0.000883102416992,0.351044893265,1,q,858.958368063,,,,,,,,,,,,,,,,,,,,,,,,,,,,,,,,,,2015_Jun_25_1004,59.9351535495,LearningTask,1,20,
200,w,200,,,,,,,,,,,,,,,,,1,0,1,0,19,1,77,0,,,,,,,,,,,,,,,,,,,,,,,,,,,,,w,1,0.38453912735,None,0,0.5,squaremagenta.gif,go,,,,,,,,,,,,,,,,,,,,,,,,0.69,0.514230012894,0.00087308883667,0.38453912735,1,w,861.961544991,,,,,,,,,,,,,,,,,,,,,,,,,,,,,,,,,,2015_Jun_25_1004,59.9351535495,LearningTask,1,20,
200,s,-200,,,,,,,,,,,,,,,,,1,0,1,0,19,2,78,2,,,,,,,,,,,,,,,,,,,,,,,,,,,,,s,1,0.384051084518,None,0,2.0,lineyellow.gif,go,,,,,,,,,,,,,,,,,,,,,,,,1.85,0.514010906219,0.000931024551392,0.384051084518,1,s,864.964939117,,,,,,,,,,,,,,,,,,,,,,,,,,,,,,,,,,2015_Jun_25_1004,59.9351535495,LearningTask,1,20,
-200,q,200,,,,,,,,,,,,,,,,,1,0,1,0,19,3,79,1,,,,,,,,,,,,,,,,,,,,,,,,,,,,,q,1,0.351577997208,None,0,0.5,squaremagenta.gif,go,,,,,,,,,,,,,,,,,,,,,,,,0,0.514029026031,0.000948905944824,0.351577997208,1,q,867.968543053,,,,,,,,,,,,,,,,,,,,,,,,,,,,,,,,,,2015_Jun_25_1004,59.9351535495,LearningTask,1,20,
200,w,200,,,,,,,,,,,,,,,,,1,0,1,0,20,0,80,0,,,,,,,,,,,,,,,,,,,,,,,,,,,,,w,1,0.31788110733,None,0,0.5,crosscyan.gif,stop,,,,,,,,,,,,,,,,,,,,,,,,0.27,0.514173030853,0.000888109207153,0.31788110733,1,w,870.971876144,,,,,,,,,,,,,,,,,,,,,,,,,,,,,,,,,,2015_Jun_25_1004,59.9351535495,LearningTask,1,20,
-200,a,-200,,,,,,,,,,,,,,,,,1,0,1,0,20,1,81,3,,,,,,,,,,,,,,,,,,,,,,,,,,,,,a,1,0.366889953613,None,0,4.0,trianglegray.gif,stop,,,,,,,,,,,,,,,,,,,,,,,,4.12,0.514256000519,0.000910043716431,0.366889953613,1,a,873.975394964,,,,,,,,,,,,,,,,,,,,,,,,,,,,,,,,,,2015_Jun_25_1004,59.9351535495,LearningTask,1,20,
-200,q,200,,,,,,,,,,,,,,,,,1,0,1,0,20,2,82,1,,,,,,,,,,,,,,,,,,,,,,,,,,,,,q,1,0.384547948837,None,0,0.5,squaremagenta.gif,go,,,,,,,,,,,,,,,,,,,,,,,,0,0.513900995255,0.000871896743774,0.384547948837,1,q,876.978676081,,,,,,,,,,,,,,,,,,,,,,,,,,,,,,,,,,2015_Jun_25_1004,59.9351535495,LearningTask,1,20,
-200,q,200,,,,,,,,,,,,,,,,,1,0,1,0,20,3,83,1,,,,,,,,,,,,,,,,,,,,,,,,,,,,,q,1,0.351368904114,None,0,2.0,hexagonorange.gif,stop,,,,,,,,,,,,,,,,,,,,,,,,1.89,0.514021158218,0.000903129577637,0.351368904114,1,q,879.981959105,,,,,,,,,,,,,,,,,,,,,,,,,,,,,,,,,,2015_Jun_25_1004,59.9351535495,LearningTask,1,20,
-200,a,-200,,,,,,,,,,,,,,,,,1,0,1,0,21,0,84,3,,,,,,,,,,,,,,,,,,,,,,,,,,,,,a,1,0.367260932922,None,0,2.0,hexagonorange.gif,stop,,,,,,,,,,,,,,,,,,,,,,,,2.24,0.51384305954,0.000911951065063,0.367260932922,1,a,882.985033035,,,,,,,,,,,,,,,,,,,,,,,,,,,,,,,,,,2015_Jun_25_1004,59.9351535495,LearningTask,1,20,
200,w,200,,,,,,,,,,,,,,,,,1,0,1,0,21,1,85,0,,,,,,,,,,,,,,,,,,,,,,,,,,,,,w,1,0.351176023483,None,0,0.5,squaremagenta.gif,go,,,,,,,,,,,,,,,,,,,,,,,,0,0.514363050461,0.000874042510986,0.351176023483,1,w,885.988350153,,,,,,,,,,,,,,,,,,,,,,,,,,,,,,,,,,2015_Jun_25_1004,59.9351535495,LearningTask,1,20,
-200,a,-200,,,,,,,,,,,,,,,,,1,0,1,0,21,2,86,3,,,,,,,,,,,,,,,,,,,,,,,,,,,,,a,1,0.468343019485,None,0,1.0,invertedtrianglegreen.gif,stop,,,,,,,,,,,,,,,,,,,,,,,,0.8,0.514219999313,0.000876903533936,0.468343019485,1,a,888.992529154,,,,,,,,,,,,,,,,,,,,,,,,,,,,,,,,,,2015_Jun_25_1004,59.9351535495,LearningTask,1,20,
200,s,-200,,,,,,,,,,,,,,,,,1,0,1,0,21,3,87,2,,,,,,,,,,,,,,,,,,,,,,,,,,,,,s,1,0.384251832962,None,0,1.0,invertedtrianglegreen.gif,stop,,,,,,,,,,,,,,,,,,,,,,,,0.86,0.513292074203,0.000883102416992,0.384251832962,1,s,891.994940042,,,,,,,,,,,,,,,,,,,,,,,,,,,,,,,,,,2015_Jun_25_1004,59.9351535495,LearningTask,1,20,
200,s,-200,,,,,,,,,,,,,,,,,1,0,1,0,22,0,88,2,,,,,,,,,,,,,,,,,,,,,,,,,,,,,s,1,0.384382963181,None,0,2.0,hexagonorange.gif,stop,,,,,,,,,,,,,,,,,,,,,,,,2.12,0.514487028122,0.000901937484741,0.384382963181,1,s,894.998593092,,,,,,,,,,,,,,,,,,,,,,,,,,,,,,,,,,2015_Jun_25_1004,59.9351535495,LearningTask,1,20,
200,s,-200,,,,,,,,,,,,,,,,,1,0,1,0,22,1,89,2,,,,,,,,,,,,,,,,,,,,,,,,,,,,,s,1,0.434384822845,None,0,0.5,squaremagenta.gif,go,,,,,,,,,,,,,,,,,,,,,,,,0,0.514225006104,0.000870943069458,0.434384822845,1,s,898.002104998,,,,,,,,,,,,,,,,,,,,,,,,,,,,,,,,,,2015_Jun_25_1004,59.9351535495,LearningTask,1,20,
200,s,-200,,,,,,,,,,,,,,,,,1,0,1,0,22,2,90,2,,,,,,,,,,,,,,,,,,,,,,,,,,,,,s,1,0.367665052414,None,0,4.0,trianglegray.gif,stop,,,,,,,,,,,,,,,,,,,,,,,,4.03,0.513981819153,0.00089693069458,0.367665052414,1,s,901.005203009,,,,,,,,,,,,,,,,,,,,,,,,,,,,,,,,,,2015_Jun_25_1004,59.9351535495,LearningTask,1,20,
200,s,-200,,,,,,,,,,,,,,,,,1,0,1,0,22,3,91,2,,,,,,,,,,,,,,,,,,,,,,,,,,,,,s,1,0.38387799263,None,0,2.0,hexagonorange.gif,stop,,,,,,,,,,,,,,,,,,,,,,,,0,0.514551877975,0.000980854034424,0.38387799263,1,s,904.008825064,,,,,,,,,,,,,,,,,,,,,,,,,,,,,,,,,,2015_Jun_25_1004,59.9351535495,LearningTask,1,20,
-200,a,-200,,,,,,,,,,,,,,,,,1,0,1,0,23,0,92,3,,,,,,,,,,,,,,,,,,,,,,,,,,,,,a,1,0.367589950562,None,0,1.0,invertedtrianglegreen.gif,stop,,,,,,,,,,,,,,,,,,,,,,,,0,0.513915061951,0.000880002975464,0.367589950562,1,a,907.012063026,,,,,,,,,,,,,,,,,,,,,,,,,,,,,,,,,,2015_Jun_25_1004,59.9351535495,LearningTask,1,20,
200,w,200,,,,,,,,,,,,,,,,,1,0,1,0,23,1,93,0,,,,,,,,,,,,,,,,,,,,,,,,,,,,,w,1,0.384535074234,None,0,1.0,invertedtrianglegreen.gif,stop,,,,,,,,,,,,,,,,,,,,,,,,0.91,0.514041900635,0.00088095664978,0.384535074234,1,w,910.015426159,,,,,,,,,,,,,,,,,,,,,,,,,,,,,,,,,,2015_Jun_25_1004,59.9351535495,LearningTask,1,20,
200,w,200,,,,,,,,,,,,,,,,,1,0,1,0,23,2,94,0,,,,,,,,,,,,,,,,,,,,,,,,,,,,,w,1,0.367375135422,None,0,1.0,invertedtrianglegreen.gif,stop,,,,,,,,,,,,,,,,,,,,,,,,0.98,0.513955831528,0.000994920730591,0.367375135422,1,w,913.018577099,,,,,,,,,,,,,,,,,,,,,,,,,,,,,,,,,,2015_Jun_25_1004,59.9351535495,LearningTask,1,20,
-200,a,-200,,,,,,,,,,,,,,,,,1,0,1,0,23,3,95,3,,,,,,,,,,,,,,,,,,,,,,,,,,,,,a,1,0.384278059006,None,0,0.5,squaremagenta.gif,go,,,,,,,,,,,,,,,,,,,,,,,,0.72,0.514415025711,0.000869989395142,0.384278059006,1,a,916.022186995,,,,,,,,,,,,,,,,,,,,,,,,,,,,,,,,,,2015_Jun_25_1004,59.9351535495,LearningTask,1,20,
-200,q,200,,,,,,,,,,,,,,,,,1,0,1,0,24,0,96,1,,,,,,,,,,,,,,,,,,,,,,,,,,,,,q,1,0.45090508461,None,0,0.5,crosscyan.gif,stop,,,,,,,,,,,,,,,,,,,,,,,,0.29,0.514127016068,0.000882863998413,0.45090508461,1,q,919.025114059,,,,,,,,,,,,,,,,,,,,,,,,,,,,,,,,,,2015_Jun_25_1004,59.9351535495,LearningTask,1,20,
200,s,-200,,,,,,,,,,,,,,,,,1,0,1,0,24,1,97,2,,,,,,,,,,,,,,,,,,,,,,,,,,,,,s,1,0.451646089554,None,0,2.0,hexagonorange.gif,stop,,,,,,,,,,,,,,,,,,,,,,,,2.06,0.514019012451,0.000937938690186,0.451646089554,1,s,922.02837801,,,,,,,,,,,,,,,,,,,,,,,,,,,,,,,,,,2015_Jun_25_1004,59.9351535495,LearningTask,1,20,
200,s,-200,,,,,,,,,,,,,,,,,1,0,1,0,24,2,98,2,,,,,,,,,,,,,,,,,,,,,,,,,,,,,s,1,0.384266853333,None,0,2.0,hexagonorange.gif,stop,,,,,,,,,,,,,,,,,,,,,,,,1.95,0.514032840729,0.000967979431152,0.384266853333,1,s,925.032337189,,,,,,,,,,,,,,,,,,,,,,,,,,,,,,,,,,2015_Jun_25_1004,59.9351535495,LearningTask,1,20,
200,w,200,,,,,,,,,,,,,,,,,1,0,1,0,24,3,99,0,,,,,,,,,,,,,,,,,,,,,,,,,,,,,w,1,0.434317111969,None,0,2.0,hexagonorange.gif,stop,,,,,,,,,,,,,,,,,,,,,,,,2.12,0.514088153839,0.000880002975464,0.434317111969,1,w,928.03570199,,,,,,,,,,,,,,,,,,,,,,,,,,,,,,,,,,2015_Jun_25_1004,59.9351535495,LearningTask,1,20,
,,,,,,,,,,,,,,,,,,,1,0,1,0,,,,,,,,,,,,,,,,,,,,,,,,,,,,,,,,,,,,,,,,,,,,,,,,,,,,,,,,,,,,,,,,,,,,,,,9,3.6000919342,,,,,,,,,,,,,,,,,,,,,,,,,,,,,,,,2015_Jun_25_1004,59.9351535495,LearningTask,1,20,
-200,a,-200,,,,,,,,,,,,,,,,,2,0,2,0,0,0,0,3,,,,,,,,,,,,,,,,,,,,,,,,,,,,,a,1,0.517916917801,None,0,4.0,diamondwhite.gif,go,,,,,,,,,,,,,,,,,,,,,,,,0,0.509978055954,0.000930070877075,0.517916917801,1,a,935.177313089,,,,,,,,,,,,,,,,,,,,,,,,,,,,,,,,,,2015_Jun_25_1004,59.9351535495,LearningTask,1,20,
-200,q,200,,,,,,,,,,,,,,,,,2,0,2,0,0,1,1,1,,,,,,,,,,,,,,,,,,,,,,,,,,,,,q,1,0.50089097023,None,0,1.0,invertedtrianglegreen.gif,stop,,,,,,,,,,,,,,,,,,,,,,,,0.82,0.513635873795,0.000874996185303,0.50089097023,1,q,938.180144072,,,,,,,,,,,,,,,,,,,,,,,,,,,,,,,,,,2015_Jun_25_1004,59.9351535495,LearningTask,1,20,
200,w,200,,,,,,,,,,,,,,,,,2,0,2,0,0,2,2,0,,,,,,,,,,,,,,,,,,,,,,,,,,,,,w,1,0.55086684227,None,0,4.0,trianglegray.gif,stop,,,,,,,,,,,,,,,,,,,,,,,,4.09,0.514250040054,0.000974893569946,0.55086684227,1,w,941.18372798,,,,,,,,,,,,,,,,,,,,,,,,,,,,,,,,,,2015_Jun_25_1004,59.9351535495,LearningTask,1,20,
200,w,200,,,,,,,,,,,,,,,,,2,0,2,0,0,3,3,0,,,,,,,,,,,,,,,,,,,,,,,,,,,,,w,1,0.434391021729,None,0,0.5,crosscyan.gif,stop,,,,,,,,,,,,,,,,,,,,,,,,0.27,0.513845920563,0.000936985015869,0.434391021729,1,w,944.186915159,,,,,,,,,,,,,,,,,,,,,,,,,,,,,,,,,,2015_Jun_25_1004,59.9351535495,LearningTask,1,20,
-200,q,200,,,,,,,,,,,,,,,,,2,0,2,0,1,0,4,1,,,,,,,,,,,,,,,,,,,,,,,,,,,,,q,1,0.434208869934,None,0,2.0,hexagonorange.gif,stop,,,,,,,,,,,,,,,,,,,,,,,,2.04,0.514187812805,0.000885963439941,0.434208869934,1,q,947.190153122,,,,,,,,,,,,,,,,,,,,,,,,,,,,,,,,,,2015_Jun_25_1004,59.9351535495,LearningTask,1,20,
-200,a,-200,,,,,,,,,,,,,,,,,2,0,2,0,1,1,5,3,,,,,,,,,,,,,,,,,,,,,,,,,,,,,a,1,0.467762947083,None,0,4.0,diamondwhite.gif,go,,,,,,,,,,,,,,,,,,,,,,,,0,0.514305114746,0.00095009803772,0.467762947083,1,a,950.193462133,,,,,,,,,,,,,,,,,,,,,,,,,,,,,,,,,,2015_Jun_25_1004,59.9351535495,LearningTask,1,20,
-200,q,200,,,,,,,,,,,,,,,,,2,0,2,0,1,2,6,1,,,,,,,,,,,,,,,,,,,,,,,,,,,,,q,1,0.400640010834,None,0,1.0,circleblue.gif,go,,,,,,,,,,,,,,,,,,,,,,,,1.08,0.51459312439,0.000919103622437,0.400640010834,1,q,953.197065115,,,,,,,,,,,,,,,,,,,,,,,,,,,,,,,,,,2015_Jun_25_1004,59.9351535495,LearningTask,1,20,
200,s,-200,,,,,,,,,,,,,,,,,2,0,2,0,1,3,7,2,,,,,,,,,,,,,,,,,,,,,,,,,,,,,s,1,0.400739908218,None,0,0.5,crosscyan.gif,stop,,,,,,,,,,,,,,,,,,,,,,,,0.25,0.514053821564,0.00088095664978,0.400739908218,1,s,956.200196028,,,,,,,,,,,,,,,,,,,,,,,,,,,,,,,,,,2015_Jun_25_1004,59.9351535495,LearningTask,1,20,
200,w,200,,,,,,,,,,,,,,,,,2,0,2,0,2,0,8,0,,,,,,,,,,,,,,,,,,,,,,,,,,,,,w,1,0.384306907654,None,0,1.0,invertedtrianglegreen.gif,stop,,,,,,,,,,,,,,,,,,,,,,,,0.92,0.514014005661,0.00101685523987,0.384306907654,1,w,959.203341007,,,,,,,,,,,,,,,,,,,,,,,,,,,,,,,,,,2015_Jun_25_1004,59.9351535495,LearningTask,1,20,
200,s,-200,,,,,,,,,,,,,,,,,2,0,2,0,2,1,9,2,,,,,,,,,,,,,,,,,,,,,,,,,,,,,s,1,0.334084033966,None,0,4.0,trianglegray.gif,stop,,,,,,,,,,,,,,,,,,,,,,,,4.07,0.514603853226,0.000874996185303,0.334084033966,1,s,962.207059145,,,,,,,,,,,,,,,,,,,,,,,,,,,,,,,,,,2015_Jun_25_1004,59.9351535495,LearningTask,1,20,
-200,q,200,,,,,,,,,,,,,,,,,2,0,2,0,2,2,10,1,,,,,,,,,,,,,,,,,,,,,,,,,,,,,q,1,0.334776878357,None,0,2.0,hexagonorange.gif,stop,,,,,,,,,,,,,,,,,,,,,,,,1.97,0.513849973679,0.00117206573486,0.334776878357,1,q,965.210345984,,,,,,,,,,,,,,,,,,,,,,,,,,,,,,,,,,2015_Jun_25_1004,59.9351535495,LearningTask,1,20,
-200,a,-200,,,,,,,,,,,,,,,,,2,0,2,0,2,3,11,3,,,,,,,,,,,,,,,,,,,,,,,,,,,,,a,1,0.417163848877,None,0,0.5,crosscyan.gif,stop,,,,,,,,,,,,,,,,,,,,,,,,0.4,0.513786792755,0.000952959060669,0.417163848877,1,a,968.213746071,,,,,,,,,,,,,,,,,,,,,,,,,,,,,,,,,,2015_Jun_25_1004,59.9351535495,LearningTask,1,20,
200,s,-200,,,,,,,,,,,,,,,,,2,0,2,0,3,0,12,2,,,,,,,,,,,,,,,,,,,,,,,,,,,,,s,1,0.417823076248,None,0,1.0,circleblue.gif,go,,,,,,,,,,,,,,,,,,,,,,,,0,0.514193058014,0.000877141952515,0.417823076248,1,s,971.21700716,,,,,,,,,,,,,,,,,,,,,,,,,,,,,,,,,,2015_Jun_25_1004,59.9351535495,LearningTask,1,20,
-200,q,200,,,,,,,,,,,,,,,,,2,0,2,0,3,1,13,1,,,,,,,,,,,,,,,,,,,,,,,,,,,,,q,1,0.451071977615,None,0,1.0,circleblue.gif,go,,,,,,,,,,,,,,,,,,,,,,,,0.95,0.514091014862,0.000900983810425,0.451071977615,1,q,974.22063899,,,,,,,,,,,,,,,,,,,,,,,,,,,,,,,,,,2015_Jun_25_1004,59.9351535495,LearningTask,1,20,
-200,q,200,,,,,,,,,,,,,,,,,2,0,2,0,3,2,14,1,,,,,,,,,,,,,,,,,,,,,,,,,,,,,q,1,0.384327888489,None,0,2.0,hexagonorange.gif,stop,,,,,,,,,,,,,,,,,,,,,,,,1.98,0.513610839844,0.000888824462891,0.384327888489,1,q,977.223651171,,,,,,,,,,,,,,,,,,,,,,,,,,,,,,,,,,2015_Jun_25_1004,59.9351535495,LearningTask,1,20,
200,w,200,,,,,,,,,,,,,,,,,2,0,2,0,3,3,15,0,,,,,,,,,,,,,,,,,,,,,,,,,,,,,w,1,0.383992910385,None,0,1.0,invertedtrianglegreen.gif,stop,,,,,,,,,,,,,,,,,,,,,,,,1.04,0.514793872833,0.000872850418091,0.383992910385,1,w,980.227085114,,,,,,,,,,,,,,,,,,,,,,,,,,,,,,,,,,2015_Jun_25_1004,59.9351535495,LearningTask,1,20,
200,w,200,,,,,,,,,,,,,,,,,2,0,2,0,4,0,16,0,,,,,,,,,,,,,,,,,,,,,,,,,,,,,w,1,0.400859832764,None,0,1.0,invertedtrianglegreen.gif,stop,,,,,,,,,,,,,,,,,,,,,,,,1.15,0.51430106163,0.000880002975464,0.400859832764,1,w,983.23054719,,,,,,,,,,,,,,,,,,,,,,,,,,,,,,,,,,2015_Jun_25_1004,59.9351535495,LearningTask,1,20,
200,w,200,,,,,,,,,,,,,,,,,2,0,2,0,4,1,17,0,,,,,,,,,,,,,,,,,,,,,,,,,,,,,w,1,0.417299032211,None,0,0.5,crosscyan.gif,stop,,,,,,,,,,,,,,,,,,,,,,,,0.69,0.514232873917,0.000881910324097,0.417299032211,1,w,986.233672142,,,,,,,,,,,,,,,,,,,,,,,,,,,,,,,,,,2015_Jun_25_1004,59.9351535495,LearningTask,1,20,
-200,q,200,,,,,,,,,,,,,,,,,2,0,2,0,4,2,18,1,,,,,,,,,,,,,,,,,,,,,,,,,,,,,q,1,0.417773008347,None,0,4.0,diamondwhite.gif,go,,,,,,,,,,,,,,,,,,,,,,,,3.81,0.514295816422,0.00092601776123,0.417773008347,1,q,989.236898184,,,,,,,,,,,,,,,,,,,,,,,,,,,,,,,,,,2015_Jun_25_1004,59.9351535495,LearningTask,1,20,
200,s,-200,,,,,,,,,,,,,,,,,2,0,2,0,4,3,19,2,,,,,,,,,,,,,,,,,,,,,,,,,,,,,s,1,0.401286125183,None,0,2.0,hexagonorange.gif,stop,,,,,,,,,,,,,,,,,,,,,,,,1.91,0.51443696022,0.00088095664978,0.401286125183,1,s,992.240803003,,,,,,,,,,,,,,,,,,,,,,,,,,,,,,,,,,2015_Jun_25_1004,59.9351535495,LearningTask,1,20,
-200,a,-200,,,,,,,,,,,,,,,,,2,0,2,0,5,0,20,3,,,,,,,,,,,,,,,,,,,,,,,,,,,,,a,1,0.334199905396,None,0,4.0,diamondwhite.gif,go,,,,,,,,,,,,,,,,,,,,,,,,4.08,0.513855934143,0.000874042510986,0.334199905396,1,a,995.243771076,,,,,,,,,,,,,,,,,,,,,,,,,,,,,,,,,,2015_Jun_25_1004,59.9351535495,LearningTask,1,20,
200,s,-200,,,,,,,,,,,,,,,,,2,0,2,0,5,1,21,2,,,,,,,,,,,,,,,,,,,,,,,,,,,,,s,1,0.400952100754,None,0,1.0,invertedtrianglegreen.gif,stop,,,,,,,,,,,,,,,,,,,,,,,,0.89,0.514209985733,0.00114798545837,0.400952100754,1,s,998.24723506,,,,,,,,,,,,,,,,,,,,,,,,,,,,,,,,,,2015_Jun_25_1004,59.9351535495,LearningTask,1,20,
200,w,200,,,,,,,,,,,,,,,,,2,0,2,0,5,2,22,0,,,,,,,,,,,,,,,,,,,,,,,,,,,,,w,1,0.434175014496,None,0,1.0,circleblue.gif,go,,,,,,,,,,,,,,,,,,,,,,,,1.24,0.514237880707,0.000883817672729,0.434175014496,1,w,1001.25063205,,,,,,,,,,,,,,,,,,,,,,,,,,,,,,,,,,2015_Jun_25_1004,59.9351535495,LearningTask,1,20,
-200,a,-200,,,,,,,,,,,,,,,,,2,0,2,0,5,3,23,3,,,,,,,,,,,,,,,,,,,,,,,,,,,,,a,1,0.368363142014,None,0,1.0,circleblue.gif,go,,,,,,,,,,,,,,,,,,,,,,,,0,0.514140844345,0.000876903533936,0.334698915482,0,q,1004.25380397,,,,1.17,0.515393972397,0.00115299224854,0.368363142014,1,a,1007.25737119,,,,,,,,,,,,,,,,,,,,,,,,2015_Jun_25_1004,59.9351535495,LearningTask,1,20,
-200,q,200,,,,,,,,,,,,,,,,,2,0,2,0,6,0,24,1,,,,,,,,,,,,,,,,,,,,,,,,,,,,,q,1,0.434168100357,None,0,4.0,trianglegray.gif,stop,,,,,,,,,,,,,,,,,,,,,,,,4.03,0.514317989349,0.000902891159058,0.434168100357,1,q,1010.26069403,,,,,,,,,,,,,,,,,,,,,,,,,,,,,,,,,,2015_Jun_25_1004,59.9351535495,LearningTask,1,20,
200,s,-200,,,,,,,,,,,,,,,,,2,0,2,0,6,1,25,2,,,,,,,,,,,,,,,,,,,,,,,,,,,,,s,1,0.401184082031,None,0,0.5,crosscyan.gif,stop,,,,,,,,,,,,,,,,,,,,,,,,0.68,0.514304876328,0.00088095664978,0.401184082031,1,s,1013.26377797,,,,,,,,,,,,,,,,,,,,,,,,,,,,,,,,,,2015_Jun_25_1004,59.9351535495,LearningTask,1,20,
200,w,200,,,,,,,,,,,,,,,,,2,0,2,0,6,2,26,0,,,,,,,,,,,,,,,,,,,,,,,,,,,,,w,1,0.367245912552,None,0,1.0,circleblue.gif,go,,,,,,,,,,,,,,,,,,,,,,,,1.04,0.514225006104,0.00107097625732,0.367245912552,1,w,1016.26736307,,,,,,,,,,,,,,,,,,,,,,,,,,,,,,,,,,2015_Jun_25_1004,59.9351535495,LearningTask,1,20,
200,w,200,,,,,,,,,,,,,,,,,2,0,2,0,6,3,27,0,,,,,,,,,,,,,,,,,,,,,,,,,,,,,w,1,0.400816917419,None,0,2.0,lineyellow.gif,go,,,,,,,,,,,,,,,,,,,,,,,,2.03,0.514242172241,0.000869989395142,0.400816917419,1,w,1019.27087498,,,,,,,,,,,,,,,,,,,,,,,,,,,,,,,,,,2015_Jun_25_1004,59.9351535495,LearningTask,1,20,
200,w,200,,,,,,,,,,,,,,,,,2,0,2,0,7,0,28,0,,,,,,,,,,,,,,,,,,,,,,,,,,,,,w,1,0.401485919952,None,0,4.0,trianglegray.gif,stop,,,,,,,,,,,,,,,,,,,,,,,,4.06,0.513916969299,0.000882863998413,0.401485919952,1,w,1022.27438998,,,,,,,,,,,,,,,,,,,,,,,,,,,,,,,,,,2015_Jun_25_1004,59.9351535495,LearningTask,1,20,
200,w,200,,,,,,,,,,,,,,,,,2,0,2,0,7,1,29,0,,,,,,,,,,,,,,,,,,,,,,,,,,,,,w,1,0.384300947189,None,0,4.0,diamondwhite.gif,go,,,,,,,,,,,,,,,,,,,,,,,,4.2,0.513912200928,0.000888109207153,0.384300947189,1,w,1025.27755618,,,,,,,,,,,,,,,,,,,,,,,,,,,,,,,,,,2015_Jun_25_1004,59.9351535495,LearningTask,1,20,
200,s,-200,,,,,,,,,,,,,,,,,2,0,2,0,7,2,30,2,,,,,,,,,,,,,,,,,,,,,,,,,,,,,s,1,0.384171962738,None,0,4.0,diamondwhite.gif,go,,,,,,,,,,,,,,,,,,,,,,,,3.84,0.514188051224,0.000905990600586,0.384171962738,1,s,1028.28089499,,,,,,,,,,,,,,,,,,,,,,,,,,,,,,,,,,2015_Jun_25_1004,59.9351535495,LearningTask,1,20,
-200,a,-200,,,,,,,,,,,,,,,,,2,0,2,0,7,3,31,3,,,,,,,,,,,,,,,,,,,,,,,,,,,,,a,1,0.38435292244,None,0,4.0,diamondwhite.gif,go,,,,,,,,,,,,,,,,,,,,,,,,4.21,0.514251947403,0.000874996185303,0.38435292244,1,a,1031.28421807,,,,,,,,,,,,,,,,,,,,,,,,,,,,,,,,,,2015_Jun_25_1004,59.9351535495,LearningTask,1,20,
200,w,200,,,,,,,,,,,,,,,,,2,0,2,0,8,0,32,0,,,,,,,,,,,,,,,,,,,,,,,,,,,,,w,1,0.417390823364,None,0,1.0,invertedtrianglegreen.gif,stop,,,,,,,,,,,,,,,,,,,,,,,,0,0.514292955399,0.000869989395142,0.417390823364,1,w,1034.28733897,,,,,,,,,,,,,,,,,,,,,,,,,,,,,,,,,,2015_Jun_25_1004,59.9351535495,LearningTask,1,20,
-200,q,200,,,,,,,,,,,,,,,,,2,0,2,0,8,1,33,1,,,,,,,,,,,,,,,,,,,,,,,,,,,,,q,1,0.467422008514,None,0,2.0,lineyellow.gif,go,,,,,,,,,,,,,,,,,,,,,,,,1.86,0.514405965805,0.000874042510986,0.467422008514,1,q,1037.29058099,,,,,,,,,,,,,,,,,,,,,,,,,,,,,,,,,,2015_Jun_25_1004,59.9351535495,LearningTask,1,20,
200,w,200,,,,,,,,,,,,,,,,,2,0,2,0,8,2,34,0,,,,,,,,,,,,,,,,,,,,,,,,,,,,,w,1,0.40102314949,None,0,1.0,invertedtrianglegreen.gif,stop,,,,,,,,,,,,,,,,,,,,,,,,1.22,0.5143430233,0.000884056091309,0.40102314949,1,w,1040.29398108,,,,,,,,,,,,,,,,,,,,,,,,,,,,,,,,,,2015_Jun_25_1004,59.9351535495,LearningTask,1,20,
200,w,200,,,,,,,,,,,,,,,,,2,0,2,0,8,3,35,0,,,,,,,,,,,,,,,,,,,,,,,,,,,,,w,1,0.351012945175,None,0,1.0,invertedtrianglegreen.gif,stop,,,,,,,,,,,,,,,,,,,,,,,,1.22,0.514400959015,0.000907897949219,0.351012945175,1,w,1043.29782701,,,,,,,,,,,,,,,,,,,,,,,,,,,,,,,,,,2015_Jun_25_1004,59.9351535495,LearningTask,1,20,
-200,q,200,,,,,,,,,,,,,,,,,2,0,2,0,9,0,36,1,,,,,,,,,,,,,,,,,,,,,,,,,,,,,q,1,0.333712100983,None,0,0.5,crosscyan.gif,stop,,,,,,,,,,,,,,,,,,,,,,,,0.48,0.513921022415,0.000974893569946,0.333712100983,1,q,1046.30106902,,,,,,,,,,,,,,,,,,,,,,,,,,,,,,,,,,2015_Jun_25_1004,59.9351535495,LearningTask,1,20,
200,s,-200,,,,,,,,,,,,,,,,,2,0,2,0,9,1,37,2,,,,,,,,,,,,,,,,,,,,,,,,,,,,,s,1,0.350440979004,None,0,0.5,crosscyan.gif,stop,,,,,,,,,,,,,,,,,,,,,,,,0.6,0.514451980591,0.000927209854126,0.350440979004,1,s,1049.30454898,,,,,,,,,,,,,,,,,,,,,,,,,,,,,,,,,,2015_Jun_25_1004,59.9351535495,LearningTask,1,20,
-200,q,200,,,,,,,,,,,,,,,,,2,0,2,0,9,2,38,1,,,,,,,,,,,,,,,,,,,,,,,,,,,,,q,1,0.33441901207,None,0,0.5,crosscyan.gif,stop,,,,,,,,,,,,,,,,,,,,,,,,0,0.514010906219,0.000883102416992,0.33441901207,1,q,1052.30746818,,,,,,,,,,,,,,,,,,,,,,,,,,,,,,,,,,2015_Jun_25_1004,59.9351535495,LearningTask,1,20,
200,w,200,,,,,,,,,,,,,,,,,2,0,2,0,9,3,39,0,,,,,,,,,,,,,,,,,,,,,,,,,,,,,w,1,0.368000984192,None,0,0.5,crosscyan.gif,stop,,,,,,,,,,,,,,,,,,,,,,,,0.4,0.514083862305,0.000917911529541,0.368000984192,1,w,1055.31079006,,,,,,,,,,,,,,,,,,,,,,,,,,,,,,,,,,2015_Jun_25_1004,59.9351535495,LearningTask,1,20,
-200,a,-200,,,,,,,,,,,,,,,,,2,0,2,0,10,0,40,3,,,,,,,,,,,,,,,,,,,,,,,,,,,,,a,1,0.450963020325,None,0,4.0,trianglegray.gif,stop,,,,,,,,,,,,,,,,,,,,,,,,4.07,0.514115095139,0.000946044921875,0.450963020325,1,a,1058.31433511,,,,,,,,,,,,,,,,,,,,,,,,,,,,,,,,,,2015_Jun_25_1004,59.9351535495,LearningTask,1,20,
200,w,200,,,,,,,,,,,,,,,,,2,0,2,0,10,1,41,0,,,,,,,,,,,,,,,,,,,,,,,,,,,,,w,1,0.40119099617,None,0,0.5,crosscyan.gif,stop,,,,,,,,,,,,,,,,,,,,,,,,0.28,0.514227867126,0.000876903533936,0.40119099617,1,w,1061.3178041,,,,,,,,,,,,,,,,,,,,,,,,,,,,,,,,,,2015_Jun_25_1004,59.9351535495,LearningTask,1,20,
200,s,-200,,,,,,,,,,,,,,,,,2,0,2,0,10,2,42,2,,,,,,,,,,,,,,,,,,,,,,,,,,,,,s,1,0.383911132812,None,0,4.0,diamondwhite.gif,go,,,,,,,,,,,,,,,,,,,,,,,,3.98,0.514126062393,0.000943183898926,0.383911132812,1,s,1064.32112813,,,,,,,,,,,,,,,,,,,,,,,,,,,,,,,,,,2015_Jun_25_1004,59.9351535495,LearningTask,1,20,
-200,a,-200,,,,,,,,,,,,,,,,,2,0,2,0,10,3,43,3,,,,,,,,,,,,,,,,,,,,,,,,,,,,,a,1,0.401090145111,None,0,0.5,squaremagenta.gif,go,,,,,,,,,,,,,,,,,,,,,,,,0.61,0.514146089554,0.000865936279297,0.401090145111,1,a,1067.32420802,,,,,,,,,,,,,,,,,,,,,,,,,,,,,,,,,,2015_Jun_25_1004,59.9351535495,LearningTask,1,20,
200,s,-200,,,,,,,,,,,,,,,,,2,0,2,0,11,0,44,2,,,,,,,,,,,,,,,,,,,,,,,,,,,,,s,1,0.384270906448,None,0,0.5,crosscyan.gif,stop,,,,,,,,,,,,,,,,,,,,,,,,0.66,0.514197826385,0.000890970230103,0.384270906448,1,s,1070.32795715,,,,,,,,,,,,,,,,,,,,,,,,,,,,,,,,,,2015_Jun_25_1004,59.9351535495,LearningTask,1,20,
200,s,-200,,,,,,,,,,,,,,,,,2,0,2,0,11,1,45,2,,,,,,,,,,,,,,,,,,,,,,,,,,,,,s,1,0.417643070221,None,0,1.0,circleblue.gif,go,,,,,,,,,,,,,,,,,,,,,,,,1.25,0.513778924942,0.000888824462891,0.417643070221,1,s,1073.33116603,,,,,,,,,,,,,,,,,,,,,,,,,,,,,,,,,,2015_Jun_25_1004,59.9351535495,LearningTask,1,20,
-200,a,-200,,,,,,,,,,,,,,,,,2,0,2,0,11,2,46,3,,,,,,,,,,,,,,,,,,,,,,,,,,,,,a,1,0.367545127869,None,0,1.0,circleblue.gif,go,,,,,,,,,,,,,,,,,,,,,,,,0.94,0.514060020447,0.000872850418091,0.367545127869,1,a,1076.33439612,,,,,,,,,,,,,,,,,,,,,,,,,,,,,,,,,,2015_Jun_25_1004,59.9351535495,LearningTask,1,20,
-200,q,200,,,,,,,,,,,,,,,,,2,0,2,0,11,3,47,1,,,,,,,,,,,,,,,,,,,,,,,,,,,,,q,1,0.367501974106,None,0,0.5,crosscyan.gif,stop,,,,,,,,,,,,,,,,,,,,,,,,0.61,0.514261960983,0.000870943069458,0.367501974106,1,q,1079.33792806,,,,,,,,,,,,,,,,,,,,,,,,,,,,,,,,,,2015_Jun_25_1004,59.9351535495,LearningTask,1,20,
-200,q,200,,,,,,,,,,,,,,,,,2,0,2,0,12,0,48,1,,,,,,,,,,,,,,,,,,,,,,,,,,,,,q,1,0.417219161987,None,0,4.0,trianglegray.gif,stop,,,,,,,,,,,,,,,,,,,,,,,,4.05,0.514133930206,0.000883102416992,0.417219161987,1,q,1082.34114599,,,,,,,,,,,,,,,,,,,,,,,,,,,,,,,,,,2015_Jun_25_1004,59.9351535495,LearningTask,1,20,
200,s,-200,,,,,,,,,,,,,,,,,2,0,2,0,12,1,49,2,,,,,,,,,,,,,,,,,,,,,,,,,,,,,s,1,0.334482908249,None,0,4.0,trianglegray.gif,stop,,,,,,,,,,,,,,,,,,,,,,,,3.88,0.51428103447,0.00104284286499,0.334482908249,1,s,1085.34432197,,,,,,,,,,,,,,,,,,,,,,,,,,,,,,,,,,2015_Jun_25_1004,59.9351535495,LearningTask,1,20,
-200,q,200,,,,,,,,,,,,,,,,,2,0,2,0,12,2,50,1,,,,,,,,,,,,,,,,,,,,,,,,,,,,,q,1,0.367481946945,None,0,0.5,crosscyan.gif,stop,,,,,,,,,,,,,,,,,,,,,,,,0.74,0.514602184296,0.000893115997314,0.367481946945,1,q,1088.34820914,,,,,,,,,,,,,,,,,,,,,,,,,,,,,,,,,,2015_Jun_25_1004,59.9351535495,LearningTask,1,20,
200,s,-200,,,,,,,,,,,,,,,,,2,0,2,0,12,3,51,2,,,,,,,,,,,,,,,,,,,,,,,,,,,,,s,1,0.384130954742,None,0,2.0,lineyellow.gif,go,,,,,,,,,,,,,,,,,,,,,,,,2.15,0.51388502121,0.000884056091309,0.384130954742,1,s,1091.35127401,,,,,,,,,,,,,,,,,,,,,,,,,,,,,,,,,,2015_Jun_25_1004,59.9351535495,LearningTask,1,20,
-200,q,200,,,,,,,,,,,,,,,,,2,0,2,0,13,0,52,1,,,,,,,,,,,,,,,,,,,,,,,,,,,,,q,1,0.417405128479,None,0,4.0,trianglegray.gif,stop,,,,,,,,,,,,,,,,,,,,,,,,3.77,0.514197826385,0.000937938690186,0.417405128479,1,q,1094.35456014,,,,,,,,,,,,,,,,,,,,,,,,,,,,,,,,,,2015_Jun_25_1004,59.9351535495,LearningTask,1,20,
200,s,-200,,,,,,,,,,,,,,,,,2,0,2,0,13,1,53,2,,,,,,,,,,,,,,,,,,,,,,,,,,,,,s,1,0.400635004044,None,0,4.0,trianglegray.gif,stop,,,,,,,,,,,,,,,,,,,,,,,,3.95,0.514283895493,0.000877857208252,0.400635004044,1,s,1097.35801911,,,,,,,,,,,,,,,,,,,,,,,,,,,,,,,,,,2015_Jun_25_1004,59.9351535495,LearningTask,1,20,
-200,a,-200,,,,,,,,,,,,,,,,,2,0,2,0,13,2,54,3,,,,,,,,,,,,,,,,,,,,,,,,,,,,,a,1,0.367465019226,None,0,1.0,circleblue.gif,go,,,,,,,,,,,,,,,,,,,,,,,,0.97,0.514183998108,0.000877141952515,0.367465019226,1,a,1100.36118507,,,,,,,,,,,,,,,,,,,,,,,,,,,,,,,,,,2015_Jun_25_1004,59.9351535495,LearningTask,1,20,
-200,a,-200,,,,,,,,,,,,,,,,,2,0,2,0,13,3,55,3,,,,,,,,,,,,,,,,,,,,,,,,,,,,,a,1,0.401570081711,None,0,2.0,lineyellow.gif,go,,,,,,,,,,,,,,,,,,,,,,,,2.18,0.513983011246,0.000907897949219,0.401570081711,1,a,1103.36443305,,,,,,,,,,,,,,,,,,,,,,,,,,,,,,,,,,2015_Jun_25_1004,59.9351535495,LearningTask,1,20,
200,s,-200,,,,,,,,,,,,,,,,,2,0,2,0,14,0,56,2,,,,,,,,,,,,,,,,,,,,,,,,,,,,,s,1,0.40071606636,None,0,1.0,invertedtrianglegreen.gif,stop,,,,,,,,,,,,,,,,,,,,,,,,1.12,0.514698982239,0.000871181488037,0.40071606636,1,s,1106.3681891,,,,,,,,,,,,,,,,,,,,,,,,,,,,,,,,,,2015_Jun_25_1004,59.9351535495,LearningTask,1,20,
-200,a,-200,,,,,,,,,,,,,,,,,2,0,2,0,14,1,57,3,,,,,,,,,,,,,,,,,,,,,,,,,,,,,a,1,0.367708921432,None,0,4.0,trianglegray.gif,stop,,,,,,,,,,,,,,,,,,,,,,,,3.75,0.514045000076,0.000880002975464,0.367708921432,1,a,1109.37147307,,,,,,,,,,,,,,,,,,,,,,,,,,,,,,,,,,2015_Jun_25_1004,59.9351535495,LearningTask,1,20,
-200,a,-200,,,,,,,,,,,,,,,,,2,0,2,0,14,2,58,3,,,,,,,,,,,,,,,,,,,,,,,,,,,,,a,1,0.317453861237,None,0,4.0,diamondwhite.gif,go,,,,,,,,,,,,,,,,,,,,,,,,4.25,0.51380109787,0.000945091247559,0.317453861237,1,a,1112.37466812,,,,,,,,,,,,,,,,,,,,,,,,,,,,,,,,,,2015_Jun_25_1004,59.9351535495,LearningTask,1,20,
-200,q,200,,,,,,,,,,,,,,,,,2,0,2,0,14,3,59,1,,,,,,,,,,,,,,,,,,,,,,,,,,,,,q,1,0.384679079056,None,0,0.5,crosscyan.gif,stop,,,,,,,,,,,,,,,,,,,,,,,,0.39,0.51429605484,0.000877141952515,0.384679079056,1,q,1115.37805605,,,,,,,,,,,,,,,,,,,,,,,,,,,,,,,,,,2015_Jun_25_1004,59.9351535495,LearningTask,1,20,
-200,a,-200,,,,,,,,,,,,,,,,,2,0,2,0,15,0,60,3,,,,,,,,,,,,,,,,,,,,,,,,,,,,,a,1,0.400825977325,None,0,2.0,lineyellow.gif,go,,,,,,,,,,,,,,,,,,,,,,,,2.03,0.514181137085,0.000900030136108,0.400825977325,1,a,1118.38193703,,,,,,,,,,,,,,,,,,,,,,,,,,,,,,,,,,2015_Jun_25_1004,59.9351535495,LearningTask,1,20,
-200,a,-200,,,,,,,,,,,,,,,,,2,0,2,0,15,1,61,3,,,,,,,,,,,,,,,,,,,,,,,,,,,,,a,1,0.367564916611,None,0,2.0,hexagonorange.gif,stop,,,,,,,,,,,,,,,,,,,,,,,,0,0.513494968414,0.000905990600586,0.367564916611,1,a,1121.38467908,,,,,,,,,,,,,,,,,,,,,,,,,,,,,,,,,,2015_Jun_25_1004,59.9351535495,LearningTask,1,20,
200,s,-200,,,,,,,,,,,,,,,,,2,0,2,0,15,2,62,2,,,,,,,,,,,,,,,,,,,,,,,,,,,,,s,1,0.351221084595,None,0,4.0,trianglegray.gif,stop,,,,,,,,,,,,,,,,,,,,,,,,3.78,0.514518976212,0.000874042510986,0.351221084595,1,s,1124.38811398,,,,,,,,,,,,,,,,,,,,,,,,,,,,,,,,,,2015_Jun_25_1004,59.9351535495,LearningTask,1,20,
-200,a,-200,,,,,,,,,,,,,,,,,2,0,2,0,15,3,63,3,,,,,,,,,,,,,,,,,,,,,,,,,,,,,a,1,0.367115020752,None,0,4.0,trianglegray.gif,stop,,,,,,,,,,,,,,,,,,,,,,,,0,0.51461315155,0.000906944274902,0.367115020752,1,a,1127.39189696,,,,,,,,,,,,,,,,,,,,,,,,,,,,,,,,,,2015_Jun_25_1004,59.9351535495,LearningTask,1,20,
-200,a,-200,,,,,,,,,,,,,,,,,2,0,2,0,16,0,64,3,,,,,,,,,,,,,,,,,,,,,,,,,,,,,a,1,0.383867025375,None,0,4.0,trianglegray.gif,stop,,,,,,,,,,,,,,,,,,,,,,,,3.81,0.514018058777,0.000895977020264,0.383867025375,1,a,1130.39489198,,,,,,,,,,,,,,,,,,,,,,,,,,,,,,,,,,2015_Jun_25_1004,59.9351535495,LearningTask,1,20,
-200,q,200,,,,,,,,,,,,,,,,,2,0,2,0,16,1,65,1,,,,,,,,,,,,,,,,,,,,,,,,,,,,,q,1,0.367302894592,None,0,1.0,invertedtrianglegreen.gif,stop,,,,,,,,,,,,,,,,,,,,,,,,0.76,0.514214992523,0.000954151153564,0.367302894592,1,q,1133.39801311,,,,,,,,,,,,,,,,,,,,,,,,,,,,,,,,,,2015_Jun_25_1004,59.9351535495,LearningTask,1,20,
-200,a,-200,,,,,,,,,,,,,,,,,2,0,2,0,16,2,66,3,,,,,,,,,,,,,,,,,,,,,,,,,,,,,a,1,0.367712974548,None,0,0.5,crosscyan.gif,stop,,,,,,,,,,,,,,,,,,,,,,,,0.68,0.514460086823,0.000886917114258,0.367712974548,1,a,1136.40210319,,,,,,,,,,,,,,,,,,,,,,,,,,,,,,,,,,2015_Jun_25_1004,59.9351535495,LearningTask,1,20,
200,s,-200,,,,,,,,,,,,,,,,,2,0,2,0,16,3,67,2,,,,,,,,,,,,,,,,,,,,,,,,,,,,,s,1,0.367717027664,None,0,4.0,trianglegray.gif,stop,,,,,,,,,,,,,,,,,,,,,,,,3.78,0.513736963272,0.000874042510986,0.367717027664,1,s,1139.40487814,,,,,,,,,,,,,,,,,,,,,,,,,,,,,,,,,,2015_Jun_25_1004,59.9351535495,LearningTask,1,20,
-200,a,-200,,,,,,,,,,,,,,,,,2,0,2,0,17,0,68,3,,,,,,,,,,,,,,,,,,,,,,,,,,,,,a,1,0.400764942169,None,0,2.0,hexagonorange.gif,stop,,,,,,,,,,,,,,,,,,,,,,,,2.06,0.514256000519,0.00111508369446,0.400764942169,1,a,1142.40808415,,,,,,,,,,,,,,,,,,,,,,,,,,,,,,,,,,2015_Jun_25_1004,59.9351535495,LearningTask,1,20,
-200,q,200,,,,,,,,,,,,,,,,,2,0,2,0,17,1,69,1,,,,,,,,,,,,,,,,,,,,,,,,,,,,,q,1,0.384073019028,None,0,0.5,crosscyan.gif,stop,,,,,,,,,,,,,,,,,,,,,,,,0.67,0.51446890831,0.000975847244263,0.384073019028,1,q,1145.41159511,,,,,,,,,,,,,,,,,,,,,,,,,,,,,,,,,,2015_Jun_25_1004,59.9351535495,LearningTask,1,20,
200,w,200,,,,,,,,,,,,,,,,,2,0,2,0,17,2,70,0,,,,,,,,,,,,,,,,,,,,,,,,,,,,,w,1,0.434447050095,None,0,4.0,trianglegray.gif,stop,,,,,,,,,,,,,,,,,,,,,,,,3.75,0.514292001724,0.000875949859619,0.434447050095,1,w,1148.41487813,,,,,,,,,,,,,,,,,,,,,,,,,,,,,,,,,,2015_Jun_25_1004,59.9351535495,LearningTask,1,20,
200,w,200,,,,,,,,,,,,,,,,,2,0,2,0,17,3,71,0,,,,,,,,,,,,,,,,,,,,,,,,,,,,,w,1,0.367540121078,None,0,4.0,trianglegray.gif,stop,,,,,,,,,,,,,,,,,,,,,,,,4.09,0.514217853546,0.000917911529541,0.367540121078,1,w,1151.41813803,,,,,,,,,,,,,,,,,,,,,,,,,,,,,,,,,,2015_Jun_25_1004,59.9351535495,LearningTask,1,20,
200,s,-200,,,,,,,,,,,,,,,,,2,0,2,0,18,0,72,2,,,,,,,,,,,,,,,,,,,,,,,,,,,,,s,1,0.384222984314,None,0,0.5,squaremagenta.gif,go,,,,,,,,,,,,,,,,,,,,,,,,0,0.514855146408,0.000882148742676,0.384222984314,1,s,1154.42178798,,,,,,,,,,,,,,,,,,,,,,,,,,,,,,,,,,2015_Jun_25_1004,59.9351535495,LearningTask,1,20,
200,w,200,,,,,,,,,,,,,,,,,2,0,2,0,18,1,73,0,,,,,,,,,,,,,,,,,,,,,,,,,,,,,w,1,0.36751294136,None,0,4.0,diamondwhite.gif,go,,,,,,,,,,,,,,,,,,,,,,,,3.82,0.514127016068,0.000876903533936,0.36751294136,1,w,1157.42531013,,,,,,,,,,,,,,,,,,,,,,,,,,,,,,,,,,2015_Jun_25_1004,59.9351535495,LearningTask,1,20,
-200,q,200,,,,,,,,,,,,,,,,,2,0,2,0,18,2,74,1,,,,,,,,,,,,,,,,,,,,,,,,,,,,,q,1,0.350531101227,None,0,4.0,diamondwhite.gif,go,,,,,,,,,,,,,,,,,,,,,,,,4.09,0.513870954514,0.000909805297852,0.350531101227,1,q,1160.4284451,,,,,,,,,,,,,,,,,,,,,,,,,,,,,,,,,,2015_Jun_25_1004,59.9351535495,LearningTask,1,20,
-200,a,-200,,,,,,,,,,,,,,,,,2,0,2,0,18,3,75,3,,,,,,,,,,,,,,,,,,,,,,,,,,,,,a,1,0.467365980148,None,0,1.0,circleblue.gif,go,,,,,,,,,,,,,,,,,,,,,,,,1.0,0.514442205429,0.00087308883667,0.467365980148,1,a,1163.43179512,,,,,,,,,,,,,,,,,,,,,,,,,,,,,,,,,,2015_Jun_25_1004,59.9351535495,LearningTask,1,20,
-200,q,200,,,,,,,,,,,,,,,,,2,0,2,0,19,0,76,1,,,,,,,,,,,,,,,,,,,,,,,,,,,,,q,1,0.384122133255,None,0,1.0,circleblue.gif,go,,,,,,,,,,,,,,,,,,,,,,,,0.83,0.514060974121,0.000937938690186,0.384122133255,1,q,1166.43510509,,,,,,,,,,,,,,,,,,,,,,,,,,,,,,,,,,2015_Jun_25_1004,59.9351535495,LearningTask,1,20,
200,s,-200,,,,,,,,,,,,,,,,,2,0,2,0,19,1,77,2,,,,,,,,,,,,,,,,,,,,,,,,,,,,,s,1,0.401154994965,None,0,0.5,crosscyan.gif,stop,,,,,,,,,,,,,,,,,,,,,,,,0.3,0.514148950577,0.000936985015869,0.401154994965,1,s,1169.43817806,,,,,,,,,,,,,,,,,,,,,,,,,,,,,,,,,,2015_Jun_25_1004,59.9351535495,LearningTask,1,20,
200,s,-200,,,,,,,,,,,,,,,,,2,0,2,0,19,2,78,2,,,,,,,,,,,,,,,,,,,,,,,,,,,,,s,1,0.350707054138,None,0,2.0,hexagonorange.gif,stop,,,,,,,,,,,,,,,,,,,,,,,,1.79,0.514809131622,0.000885009765625,0.350707054138,1,s,1172.44180298,,,,,,,,,,,,,,,,,,,,,,,,,,,,,,,,,,2015_Jun_25_1004,59.9351535495,LearningTask,1,20,
200,s,-200,,,,,,,,,,,,,,,,,2,0,2,0,19,3,79,2,,,,,,,,,,,,,,,,,,,,,,,,,,,,,s,1,0.350703954697,None,0,1.0,invertedtrianglegreen.gif,stop,,,,,,,,,,,,,,,,,,,,,,,,0.86,0.514283895493,0.000897884368896,0.350703954697,1,s,1175.44542003,,,,,,,,,,,,,,,,,,,,,,,,,,,,,,,,,,2015_Jun_25_1004,59.9351535495,LearningTask,1,20,
200,s,-200,,,,,,,,,,,,,,,,,2,0,2,0,20,0,80,2,,,,,,,,,,,,,,,,,,,,,,,,,,,,,s,1,0.367475032806,None,0,0.5,squaremagenta.gif,go,,,,,,,,,,,,,,,,,,,,,,,,0.43,0.514007806778,0.000922918319702,0.367475032806,1,s,1178.44853997,,,,,,,,,,,,,,,,,,,,,,,,,,,,,,,,,,2015_Jun_25_1004,59.9351535495,LearningTask,1,20,
-200,a,-200,,,,,,,,,,,,,,,,,2,0,2,0,20,1,81,3,,,,,,,,,,,,,,,,,,,,,,,,,,,,,a,1,0.384146928787,None,0,1.0,circleblue.gif,go,,,,,,,,,,,,,,,,,,,,,,,,1.11,0.514322042465,0.000877857208252,0.384146928787,1,a,1181.45181298,,,,,,,,,,,,,,,,,,,,,,,,,,,,,,,,,,2015_Jun_25_1004,59.9351535495,LearningTask,1,20,
200,w,200,,,,,,,,,,,,,,,,,2,0,2,0,20,2,82,0,,,,,,,,,,,,,,,,,,,,,,,,,,,,,w,1,0.400983095169,None,0,0.5,squaremagenta.gif,go,,,,,,,,,,,,,,,,,,,,,,,,0.5,0.514341115952,0.00086498260498,0.400983095169,1,w,1184.45575404,,,,,,,,,,,,,,,,,,,,,,,,,,,,,,,,,,2015_Jun_25_1004,59.9351535495,LearningTask,1,20,
-200,q,200,,,,,,,,,,,,,,,,,2,0,2,0,20,3,83,1,,,,,,,,,,,,,,,,,,,,,,,,,,,,,q,1,0.43447804451,None,0,1.0,invertedtrianglegreen.gif,stop,,,,,,,,,,,,,,,,,,,,,,,,1.19,0.513473033905,0.000988960266113,0.43447804451,1,q,1187.45858717,,,,,,,,,,,,,,,,,,,,,,,,,,,,,,,,,,2015_Jun_25_1004,59.9351535495,LearningTask,1,20,
-200,q,200,,,,,,,,,,,,,,,,,2,0,2,0,21,0,84,1,,,,,,,,,,,,,,,,,,,,,,,,,,,,,q,1,0.467691898346,None,0,4.0,trianglegray.gif,stop,,,,,,,,,,,,,,,,,,,,,,,,0,0.514446973801,0.00088095664978,0.467691898346,1,q,1190.46195912,,,,,,,,,,,,,,,,,,,,,,,,,,,,,,,,,,2015_Jun_25_1004,59.9351535495,LearningTask,1,20,
-200,q,200,,,,,,,,,,,,,,,,,2,0,2,0,21,1,85,1,,,,,,,,,,,,,,,,,,,,,,,,,,,,,q,1,0.367421865463,None,0,4.0,trianglegray.gif,stop,,,,,,,,,,,,,,,,,,,,,,,,0,0.514256954193,0.000877141952515,0.367421865463,1,q,1193.46555805,,,,,,,,,,,,,,,,,,,,,,,,,,,,,,,,,,2015_Jun_25_1004,59.9351535495,LearningTask,1,20,
200,w,200,,,,,,,,,,,,,,,,,2,0,2,0,21,2,86,0,,,,,,,,,,,,,,,,,,,,,,,,,,,,,w,1,0.384660005569,None,0,1.0,invertedtrianglegreen.gif,stop,,,,,,,,,,,,,,,,,,,,,,,,0,0.513913154602,0.000880002975464,0.384660005569,1,w,1196.46863914,,,,,,,,,,,,,,,,,,,,,,,,,,,,,,,,,,2015_Jun_25_1004,59.9351535495,LearningTask,1,20,
-200,a,-200,,,,,,,,,,,,,,,,,2,0,2,0,21,3,87,3,,,,,,,,,,,,,,,,,,,,,,,,,,,,,a,1,0.584240913391,None,0,0.5,crosscyan.gif,stop,,,,,,,,,,,,,,,,,,,,,,,,0.6,0.514238119125,0.00106000900269,0.584240913391,1,a,1199.47277999,,,,,,,,,,,,,,,,,,,,,,,,,,,,,,,,,,2015_Jun_25_1004,59.9351535495,LearningTask,1,20,
-200,a,-200,,,,,,,,,,,,,,,,,2,0,2,0,22,0,88,3,,,,,,,,,,,,,,,,,,,,,,,,,,,,,a,1,0.350798845291,None,0,0.5,squaremagenta.gif,go,,,,,,,,,,,,,,,,,,,,,,,,0.27,0.513555049896,0.000871896743774,0.350798845291,1,a,1202.47556615,,,,,,,,,,,,,,,,,,,,,,,,,,,,,,,,,,2015_Jun_25_1004,59.9351535495,LearningTask,1,20,
200,s,-200,,,,,,,,,,,,,,,,,2,0,2,0,22,1,89,2,,,,,,,,,,,,,,,,,,,,,,,,,,,,,s,1,0.400940895081,None,0,0.5,squaremagenta.gif,go,,,,,,,,,,,,,,,,,,,,,,,,0.36,0.514083862305,0.000869989395142,0.400940895081,1,s,1205.47870111,,,,,,,,,,,,,,,,,,,,,,,,,,,,,,,,,,2015_Jun_25_1004,59.9351535495,LearningTask,1,20,
-200,a,-200,,,,,,,,,,,,,,,,,2,0,2,0,22,2,90,3,,,,,,,,,,,,,,,,,,,,,,,,,,,,,a,1,0.417364835739,None,0,2.0,hexagonorange.gif,stop,,,,,,,,,,,,,,,,,,,,,,,,2.07,0.514083862305,0.000946044921875,0.417364835739,1,a,1208.4820931,,,,,,,,,,,,,,,,,,,,,,,,,,,,,,,,,,2015_Jun_25_1004,59.9351535495,LearningTask,1,20,
200,w,200,,,,,,,,,,,,,,,,,2,0,2,0,22,3,91,0,,,,,,,,,,,,,,,,,,,,,,,,,,,,,w,1,0.367131948471,None,0,0.5,squaremagenta.gif,go,,,,,,,,,,,,,,,,,,,,,,,,0.46,0.51448392868,0.000869989395142,0.367131948471,1,w,1211.48536015,,,,,,,,,,,,,,,,,,,,,,,,,,,,,,,,,,2015_Jun_25_1004,59.9351535495,LearningTask,1,20,
200,s,-200,,,,,,,,,,,,,,,,,2,0,2,0,23,0,92,2,,,,,,,,,,,,,,,,,,,,,,,,,,,,,s,1,0.384454011917,None,0,2.0,lineyellow.gif,go,,,,,,,,,,,,,,,,,,,,,,,,2.2,0.514313936234,0.000880002975464,0.384454011917,1,s,1214.48869896,,,,,,,,,,,,,,,,,,,,,,,,,,,,,,,,,,2015_Jun_25_1004,59.9351535495,LearningTask,1,20,
-200,a,-200,,,,,,,,,,,,,,,,,2,0,2,0,23,1,93,3,,,,,,,,,,,,,,,,,,,,,,,,,,,,,a,1,0.317599058151,None,0,0.5,squaremagenta.gif,go,,,,,,,,,,,,,,,,,,,,,,,,0.57,0.513835906982,0.000899791717529,0.317599058151,1,a,1217.49207306,,,,,,,,,,,,,,,,,,,,,,,,,,,,,,,,,,2015_Jun_25_1004,59.9351535495,LearningTask,1,20,
200,w,200,,,,,,,,,,,,,,,,,2,0,2,0,23,2,94,0,,,,,,,,,,,,,,,,,,,,,,,,,,,,,w,1,0.316963195801,None,0,4.0,diamondwhite.gif,go,,,,,,,,,,,,,,,,,,,,,,,,4.21,0.514667987823,0.000900030136108,0.316963195801,1,w,1220.49555397,,,,,,,,,,,,,,,,,,,,,,,,,,,,,,,,,,2015_Jun_25_1004,59.9351535495,LearningTask,1,20,
-200,q,200,,,,,,,,,,,,,,,,,2,0,2,0,23,3,95,1,,,,,,,,,,,,,,,,,,,,,,,,,,,,,q,1,0.351368188858,None,0,4.0,trianglegray.gif,stop,,,,,,,,,,,,,,,,,,,,,,,,4.05,0.514170885086,0.000885963439941,0.351368188858,1,q,1223.49927998,,,,,,,,,,,,,,,,,,,,,,,,,,,,,,,,,,2015_Jun_25_1004,59.9351535495,LearningTask,1,20,
-200,q,200,,,,,,,,,,,,,,,,,2,0,2,0,24,0,96,1,,,,,,,,,,,,,,,,,,,,,,,,,,,,,q,1,0.317672014236,None,0,2.0,hexagonorange.gif,stop,,,,,,,,,,,,,,,,,,,,,,,,2.01,0.513942956924,0.000906944274902,0.317672014236,1,q,1226.50220418,,,,,,,,,,,,,,,,,,,,,,,,,,,,,,,,,,2015_Jun_25_1004,59.9351535495,LearningTask,1,20,
200,s,-200,,,,,,,,,,,,,,,,,2,0,2,0,24,1,97,2,,,,,,,,,,,,,,,,,,,,,,,,,,,,,s,1,0.350702047348,None,0,2.0,hexagonorange.gif,stop,,,,,,,,,,,,,,,,,,,,,,,,1.8,0.514477014542,0.00088095664978,0.350702047348,1,s,1229.50587702,,,,,,,,,,,,,,,,,,,,,,,,,,,,,,,,,,2015_Jun_25_1004,59.9351535495,LearningTask,1,20,
200,w,200,,,,,,,,,,,,,,,,,2,0,2,0,24,2,98,0,,,,,,,,,,,,,,,,,,,,,,,,,,,,,w,1,0.384614944458,None,0,1.0,invertedtrianglegreen.gif,stop,,,,,,,,,,,,,,,,,,,,,,,,1.24,0.513918876648,0.00088095664978,0.384614944458,1,w,1232.50908899,,,,,,,,,,,,,,,,,,,,,,,,,,,,,,,,,,2015_Jun_25_1004,59.9351535495,LearningTask,1,20,
200,w,200,,,,,,,,,,,,,,,,,2,0,2,0,24,3,99,0,,,,,,,,,,,,,,,,,,,,,,,,,,,,,w,1,0.334321975708,None,0,1.0,circleblue.gif,go,,,,,,,,,,,,,,,,,,,,,,,,1.24,0.514170885086,0.000882863998413,0.334321975708,1,w,1235.51216912,,,,,,,,,,,,,,,,,,,,,,,,,,,,,,,,,,2015_Jun_25_1004,59.9351535495,LearningTask,1,20,
,,,,,,,,,,,,,,,,,,,2,0,2,0,,,,,,,,,,,,,,,,,,,,,,,,,,,,,,,,,,,,,,,,,,,,,,,,,,,,,,,,,,,,,,,,,,,,,,,9,9.95291686058,,,,,,,,,,,,,,,,,,,,,,,,,,,,,,,,2015_Jun_25_1004,59.9351535495,LearningTask,1,20,
-200,a,-200,,,,,,,,,,,,,,,,,3,0,3,0,0,0,0,3,,,,,,,,,,,,,,,,,,,,,,,,,,,,,a,1,0.417579889297,None,0,0.5,squaremagenta.gif,go,,,,,,,,,,,,,,,,,,,,,,,,0.62,0.509319067001,0.00091290473938,0.417579889297,1,a,1249.31154013,,,,,,,,,,,,,,,,,,,,,,,,,,,,,,,,,,2015_Jun_25_1004,59.9351535495,LearningTask,1,20,
