xPos,corrAns,yPos,corrGoResp,yPosGoStim,xPosGoStim,pracTrials.thisRepN,pracTrials.thisTrialN,pracTrials.thisN,pracTrials.thisIndex,ReDoLoopPrac.thisRepN,ReDoLoopPrac.thisTrialN,ReDoLoopPrac.thisN,ReDoLoopPrac.thisIndex,ReDoLoopPrac.thisTrial,pracStopTrials.thisRepN,pracStopTrials.thisTrialN,pracStopTrials.thisN,pracStopTrials.thisIndex,Blocks.thisRepN,Blocks.thisTrialN,Blocks.thisN,Blocks.thisIndex,trials.thisRepN,trials.thisTrialN,trials.thisN,trials.thisIndex,ReDoLoopMain.thisRepN,ReDoLoopMain.thisTrialN,ReDoLoopMain.thisN,ReDoLoopMain.thisIndex,ReDoLoopMain.thisTrial,StopBlocks.thisRepN,StopBlocks.thisTrialN,StopBlocks.thisN,StopBlocks.thisIndex,StopTrials.thisRepN,StopTrials.thisTrialN,StopTrials.thisN,StopTrials.thisIndex,auctionBlocks.thisRepN,auctionBlocks.thisTrialN,auctionBlocks.thisN,auctionBlocks.thisIndex,auctionTrials.thisRepN,auctionTrials.thisTrialN,auctionTrials.thisN,auctionTrials.thisIndex,learningTrialList,learningPracTrialList,stopTrialList,stopPracTrialList,auctionTrialList,ok1.keys,ok1.rt,resp.keys,resp.corr,feedbackResp.keys,feedbackResp.corr,feedbackResp.rt,currentReward,currentStimulus,currentStimType,firstPracComputedRewardOutput,firstPracLearningStimOnset,firstPracLearningFixOnset,firstPracPresentationRT,firstPracPresentationAcc,firstPracPresentationResp,firstPracEndTrialTimeStamp,resp.rt,secondPracComputedRewardOutput,secondPracLearningStimOnset,secondPracLearningFixOnset,secondPracPresentationRT,secondPracPresentationAcc,secondPracPresentationResp,secondPracEndTrialTimeStamp,StartTrialTimeStamp,trialType,goStim,stimType,stopStimValue,goResp.keys,goResp.corr,key_resp_9.keys,key_resp_9.corr,fixStopOnset,goStimOnset,stopSignalOnset,EndTrialTimeStamp,goResp.rt,key_resp_3.keys,key_resp_3.rt,firstComputedRewardOutput,firstLearningStimOnset,firstLearningFixOnset,firstPresentationRT,firstPresentationAcc,firstPresentationResp,firstEndTrialTimeStamp,key_resp_7.keys,key_resp_7.rt,secondComputedRewardOutput,secondLearningStimOnset,secondLearningFixOnset,secondPresentationRT,secondPresentationAcc,secondPresentationResp,secondEndTrialTimeStamp,beginningSSD,EndingSSD,key_resp_9.rt,key_resp_4.keys,key_resp_4.rt,auctionResponse.keys,auctionStimDuration,auctionStim,auctionAmounts,auctionStimValue,auctionCondition,chosenAuctionAmount,auctionResponse.rt,key_resp_5.keys,key_resp_5.rt,shuffledRewardList,chosenReward1,chosenReward2,chosenReward3,chosenReward4,chosenReward5,key_resp_6.keys,key_resp_6.rt,date,frameRate,expName,session,participant,
,,,,,,,,,,,,,,,,,,,,,,,,,,,,,,,,,,,,,,,,,,,,,,,,[],[],[],[],[],9,71.8425750732,,,,,,,,,,,,,,,,,,,,,,,,,,,,,,,,,,,,,,,,,,,,,,,,,,,,,,,,,,,,,,,,,,,,,,,,,,,,,,,2015_Jun_30_1148,60.1767869876,LearningTask,1,54,
-200,a,-200,,,,0,0,0,3,,,,,,,,,,,,,,,,,,,,,,,,,,,,,,,,,,,,,,,,,,,,,,a,1,None,0,0.0579068660736,4.0,invertedtriangleyellow.gif,go,0,0.514727115631,0.00980710983276,[],0,None,100.961067915,0.484409093857,0,0.515201091766,0.00121212005615,0.484409093857,1,a,103.964047909,,,,,,,,,,,,,,,,,,,,,,,,,,,,,,,,,,,,,,,,,,,,,,,,,,,,,,,,2015_Jun_30_1148,60.1767869876,LearningTask,1,54,
-200,q,200,,,,0,1,1,9,,,,,,,,,,,,,,,,,,,,,,,,,,,,,,,,,,,,,,,,,,,,,,q,1,None,0,,2.0,circlecyan.gif,stop,1.75,0.514708042145,0.0390830039978,0.46755695343,1,q,106.967077971,0.46755695343,,,,,,,,,,,,,,,,,,,,,,,,,,,,,,,,,,,,,,,,,,,,,,,,,,,,,,,,,,,,,,,2015_Jun_30_1148,60.1767869876,LearningTask,1,54,
200,w,200,,,,0,2,2,8,,,,,,,,,,,,,,,,,,,,,,,,,,,,,,,,,,,,,,,,,,,,,,w,1,None,0,,1.0,squarewhite.gif,stop,1.11,0.515192985535,0.00172686576843,0.484324932098,1,w,109.970449924,0.484324932098,,,,,,,,,,,,,,,,,,,,,,,,,,,,,,,,,,,,,,,,,,,,,,,,,,,,,,,,,,,,,,,2015_Jun_30_1148,60.1767869876,LearningTask,1,54,
200,w,200,,,,0,3,3,4,,,,,,,,,,,,,,,,,,,,,,,,,,,,,,,,,,,,,,,,,,,,,,w,1,None,0,,0.5,diamondorange.gif,go,0.53,0.514846086502,0.00161814689636,0.53427696228,1,w,112.973882914,0.53427696228,,,,,,,,,,,,,,,,,,,,,,,,,,,,,,,,,,,,,,,,,,,,,,,,,,,,,,,,,,,,,,,2015_Jun_30_1148,60.1767869876,LearningTask,1,54,
-200,q,200,,,,0,4,4,1,,,,,,,,,,,,,,,,,,,,,,,,,,,,,,,,,,,,,,,,,,,,,,q,1,None,0,,1.0,squarewhite.gif,stop,0.83,0.515100955963,0.000906944274902,0.417845010757,1,q,115.97732687,0.417845010757,,,,,,,,,,,,,,,,,,,,,,,,,,,,,,,,,,,,,,,,,,,,,,,,,,,,,,,,,,,,,,,2015_Jun_30_1148,60.1767869876,LearningTask,1,54,
200,s,-200,,,,0,5,5,6,,,,,,,,,,,,,,,,,,,,,,,,,,,,,,,,,,,,,,,,,,,,,,s,1,None,0,,0.5,crossblue.gif,stop,0,0.515050172806,0.00189518928528,0.417483091354,1,s,118.980637789,0.417483091354,,,,,,,,,,,,,,,,,,,,,,,,,,,,,,,,,,,,,,,,,,,,,,,,,,,,,,,,,,,,,,,2015_Jun_30_1148,60.1767869876,LearningTask,1,54,
200,w,200,,,,0,6,6,0,,,,,,,,,,,,,,,,,,,,,,,,,,,,,,,,,,,,,,,,,,,,,,w,1,None,0,,2.0,linemagenta.gif,go,0,0.514891862869,0.00153398513794,0.567754030228,1,w,121.983897924,0.567754030228,,,,,,,,,,,,,,,,,,,,,,,,,,,,,,,,,,,,,,,,,,,,,,,,,,,,,,,,,,,,,,,2015_Jun_30_1148,60.1767869876,LearningTask,1,54,
200,s,-200,,,,0,7,7,2,,,,,,,,,,,,,,,,,,,,,,,,,,,,,,,,,,,,,,,,,,,,,,s,1,None,0,,4.0,hexagongray.gif,stop,4.13,0.515134096146,0.000922918319702,0.467890977859,1,s,124.987131834,0.467890977859,,,,,,,,,,,,,,,,,,,,,,,,,,,,,,,,,,,,,,,,,,,,,,,,,,,,,,,,,,,,,,,2015_Jun_30_1148,60.1767869876,LearningTask,1,54,
-200,a,-200,,,,0,8,8,7,,,,,,,,,,,,,,,,,,,,,,,,,,,,,,,,,,,,,,,,,,,,,,a,1,None,0,,1.0,squarewhite.gif,stop,1.05,0.515325069427,0.000946044921875,0.383913993835,1,a,127.990624905,0.383913993835,,,,,,,,,,,,,,,,,,,,,,,,,,,,,,,,,,,,,,,,,,,,,,,,,,,,,,,,,,,,,,,2015_Jun_30_1148,60.1767869876,LearningTask,1,54,
-200,q,200,,,,0,9,9,5,,,,,,,,,,,,,,,,,,,,,,,,,,,,,,,,,,,,,,,,,,,,,,q,1,None,0,,2.0,linemagenta.gif,go,0,0.515118122101,0.000904083251953,0.434330940247,1,q,130.99395895,0.434330940247,,,,,,,,,,,,,,,,,,,,,,,,,,,,,,,,,,,,,,,,,,,,,,,,,,,,,,,,,,,,,,,2015_Jun_30_1148,60.1767869876,LearningTask,1,54,
,,,m,0,200,,,,,,,,,,0,0,0,1,,,,,,,,,,,,,,,,,,,,,,,,,,,,,,,,,,,,,,,,,,,,,,,,,,,,,,,,,,,,180.169842958,stop,squarewhite.gif,stop,1.0,None,0,None,0,0.00124883651733,0.511420965195,0.761482954025,183.169080019,,,,,,,,,,,,,,,,,,,,,,,,,,,,,,,,,,,,,,,,,,,2015_Jun_30_1148,60.1767869876,LearningTask,1,54,
,,,z,0,-200,,,,,,,,,,0,1,1,0,,,,,,,,,,,,,,,,,,,,,,,,,,,,,,,,,,,,,,,,,,,,,,,,,,,,,,,,,,,,183.169480801,stop,crossblue.gif,stop,0.5,z,1,None,0,0.000957012176514,0.515332937241,0.765767097473,186.172431946,0.434353113174,,,,,,,,,,,,,,,,,,,,,,,,,,,,,,,,,,,,,,,,,,2015_Jun_30_1148,60.1767869876,LearningTask,1,54,
,,,m,0,200,,,,,,,,,,1,0,2,1,,,,,,,,,,,,,,,,,,,,,,,,,,,,,,,,,,,,,,,,,,,,,,,,,,,,,,,,,,,,186.172801971,go,diamondorange.gif,go,0.5,m,1,None,0,0.00110006332397,0.515377998352,,189.175540924,0.650989055634,,,,,,,,,,,,,,,,,,,,,,,,,,,,,,,,,,,,,,,,,,2015_Jun_30_1148,60.1767869876,LearningTask,1,54,
,,,z,0,-200,,,,,,,,,,1,1,3,0,,,,,,,,,,,,,,,,,,,,,,,,,,,,,,,,,,,,,,,,,,,,,,,,,,,,,,,,,,,,189.17591691,go,invertedtriangleyellow.gif,go,4.0,z,1,None,0,0.000969886779785,0.515690803528,,192.179199934,0.434321165085,,,,,,,,,,,,,,,,,,,,,,,,,,,,,,,,,,,,,,,,,,2015_Jun_30_1148,60.1767869876,LearningTask,1,54,
,,,m,0,200,,,,,,,,,,2,0,4,1,,,,,,,,,,,,,,,,,,,,,,,,,,,,,,,,,,,,,,,,,,,,,,,,,,,,,,,,,,,,192.179571867,stop,squarewhite.gif,stop,1.0,m,1,None,0,0.00100207328796,0.515428066254,0.766144037247,195.182477951,0.550766944885,,,,,,,,,,,,,,,,,,,,,,,,,,,,,,,,,,,,,,,,,,2015_Jun_30_1148,60.1767869876,LearningTask,1,54,
,,,m,0,200,,,,,,,,,,2,1,5,1,,,,,,,,,,,,,,,,,,,,,,,,,,,,,,,,,,,,,,,,,,,,,,,,,,,,,,,,,,,,195.182864904,go,linemagenta.gif,go,2.0,m,1,None,0,0.00106883049011,0.515885829926,,198.185408831,0.667594909668,,,,,,,,,,,,,,,,,,,,,,,,,,,,,,,,,,,,,,,,,,2015_Jun_30_1148,60.1767869876,LearningTask,1,54,
,,,z,0,-200,,,,,,,,,,3,0,6,0,,,,,,,,,,,,,,,,,,,,,,,,,,,,,,,,,,,,,,,,,,,,,,,,,,,,,,,,,,,,198.185782909,stop,circlecyan.gif,stop,2.0,z,1,None,0,0.000966787338257,0.515949964523,0.766243934631,201.189244986,0.417564868927,,,,,,,,,,,,,,,,,,,,,,,,,,,,,,,,,,,,,,,,,,2015_Jun_30_1148,60.1767869876,LearningTask,1,54,
,,,z,0,-200,,,,,,,,,,3,1,7,0,,,,,,,,,,,,,,,,,,,,,,,,,,,,,,,,,,,,,,,,,,,,,,,,,,,,,,,,,,,,201.189610004,go,invertedtriangleyellow.gif,go,4.0,z,1,None,0,0.00121212005615,0.5153901577,,204.19212389,0.751202821732,,,,,,,,,,,,,,,,,,,,,,,,,,,,,,,,,,,,,,,,,,2015_Jun_30_1148,60.1767869876,LearningTask,1,54,
,,,m,0,200,,,,,,,,,,4,0,8,1,,,,,,,,,,,,,,,,,,,,,,,,,,,,,,,,,,,,,,,,,,,,,,,,,,,,,,,,,,,,204.192521811,stop,squarewhite.gif,stop,1.0,None,0,None,0,0.00095796585083,0.516000032425,0.766535997391,207.19568491,,,,,,,,,,,,,,,,,,,,,,,,,,,,,,,,,,,,,,,,,,,2015_Jun_30_1148,60.1767869876,LearningTask,1,54,
,,,z,0,-200,,,,,,,,,,4,1,9,0,,,,,,,,,,,,,,,,,,,,,,,,,,,,,,,,,,,,,,,,,,,,,,,,,,,,,,,,,,,,207.196054935,stop,crossblue.gif,stop,0.5,None,0,None,0,0.000958919525146,0.515710830688,0.766019821167,210.199189901,,,,,,,,,,,,,,,,,,,,,,,,,,,,,,,,,,,,,,,,,,,2015_Jun_30_1148,60.1767869876,LearningTask,1,54,
,,,,,,,,,,,,,,,,,,,,,,,,,,,,,,,,,,,,,,,,,,,,,,,,,,,,,,,,,,,,,,,,,,,,,,,,,,,,,,,,,,,,,,,,,,,,9,52.9636609554,,,,,,,,,,,,,,,,,,,,,,,,,,,,,,,,,,,,,,,,2015_Jun_30_1148,60.1767869876,LearningTask,1,54,
,,,,,,,,,,,,,,,,,,,,,,,,,,,,,,,,,,,,,,,,,,,,,,,,,,,,,9,8.87639307976,,,,,,,,,,,,,,,,,,,,,,,,,,,,,,,,,,,,,,,,,,,,,,,,,,,,,,,,,,,,,,,,,,,,,,,,,,,,,,,2015_Jun_30_1148,60.1767869876,LearningTask,1,54,
-200,a,-200,,,,,,,,,,,,,,,,,0,0,0,0,0,0,0,3,,,,,,,,,,,,,,,,,,,,,,,,,,,,,a,1,None,0,,4.0,hexagongray.gif,stop,,,,,,,,0.450797080994,,,,,,,,,,,,,,,,,,,,,,,,4.0,0.509801149368,0.00105094909668,0.450797080994,1,a,275.189611912,,,,,,,,,,,,,,,,,,,,,,,,,,,,,,,,,2015_Jun_30_1148,60.1767869876,LearningTask,1,54,
-200,q,200,,,,,,,,,,,,,,,,,0,0,0,0,0,1,1,1,,,,,,,,,,,,,,,,,,,,,,,,,,,,,q,1,None,0,,2.0,linemagenta.gif,go,,,,,,,,0.417612075806,,,,,,,,,,,,,,,,,,,,,,,,1.97,0.513611078262,0.00095796585083,0.417612075806,1,q,278.192281008,,,,,,,,,,,,,,,,,,,,,,,,,,,,,,,,,2015_Jun_30_1148,60.1767869876,LearningTask,1,54,
200,w,200,,,,,,,,,,,,,,,,,0,0,0,0,0,2,2,0,,,,,,,,,,,,,,,,,,,,,,,,,,,,,w,1,None,0,,1.0,squarewhite.gif,stop,,,,,,,,0.317570209503,,,,,,,,,,,,,,,,,,,,,,,,0.96,0.514490127563,0.000943183898926,0.317570209503,1,w,281.195915937,,,,,,,,,,,,,,,,,,,,,,,,,,,,,,,,,2015_Jun_30_1148,60.1767869876,LearningTask,1,54,
-200,q,200,,,,,,,,,,,,,,,,,0,0,0,0,0,3,3,1,,,,,,,,,,,,,,,,,,,,,,,,,,,,,q,1,None,0,,1.0,trianglegreen.gif,go,,,,,,,,0.367620944977,,,,,,,,,,,,,,,,,,,,,,,,0.75,0.514184951782,0.0985310077667,0.367620944977,1,q,284.199071884,,,,,,,,,,,,,,,,,,,,,,,,,,,,,,,,,2015_Jun_30_1148,60.1767869876,LearningTask,1,54,
200,s,-200,,,,,,,,,,,,,,,,,0,0,0,0,1,0,4,2,,,,,,,,,,,,,,,,,,,,,,,,,,,,,s,1,None,0,,1.0,squarewhite.gif,stop,,,,,,,,0.301008939743,,,,,,,,,,,,,,,,,,,,,,,,1.01,0.514430046082,0.000937938690186,0.301008939743,1,s,287.202351809,,,,,,,,,,,,,,,,,,,,,,,,,,,,,,,,,2015_Jun_30_1148,60.1767869876,LearningTask,1,54,
200,w,200,,,,,,,,,,,,,,,,,0,0,0,0,1,1,5,0,,,,,,,,,,,,,,,,,,,,,,,,,,,,,w,1,None,0,,0.5,crossblue.gif,stop,,,,,,,,0.384666919708,,,,,,,,,,,,,,,,,,,,,,,,0,0.514284133911,0.00105214118958,0.384666919708,1,w,290.205937862,,,,,,,,,,,,,,,,,,,,,,,,,,,,,,,,,2015_Jun_30_1148,60.1767869876,LearningTask,1,54,
-200,a,-200,,,,,,,,,,,,,,,,,0,0,0,0,1,2,6,3,,,,,,,,,,,,,,,,,,,,,,,,,,,,,a,1,None,0,,1.0,squarewhite.gif,stop,,,,,,,,0.367170095444,,,,,,,,,,,,,,,,,,,,,,,,0.99,0.514193058014,0.000894069671631,0.367170095444,1,a,293.209010839,,,,,,,,,,,,,,,,,,,,,,,,,,,,,,,,,2015_Jun_30_1148,60.1767869876,LearningTask,1,54,
200,s,-200,,,,,,,,,,,,,,,,,0,0,0,0,1,3,7,2,,,,,,,,,,,,,,,,,,,,,,,,,,,,,s,1,None,0,,2.0,linemagenta.gif,go,,,,,,,,0.401039123535,,,,,,,,,,,,,,,,,,,,,,,,0,0.51438498497,0.00110793113708,0.401039123535,1,s,296.212320805,,,,,,,,,,,,,,,,,,,,,,,,,,,,,,,,,2015_Jun_30_1148,60.1767869876,LearningTask,1,54,
200,s,-200,,,,,,,,,,,,,,,,,0,0,0,0,2,0,8,2,,,,,,,,,,,,,,,,,,,,,,,,,,,,,s,1,None,0,,1.0,trianglegreen.gif,go,,,,,,,,0.401077032089,,,,,,,,,,,,,,,,,,,,,,,,1.08,0.514034986496,0.000946044921875,0.401077032089,1,s,299.215811014,,,,,,,,,,,,,,,,,,,,,,,,,,,,,,,,,2015_Jun_30_1148,60.1767869876,LearningTask,1,54,
200,w,200,,,,,,,,,,,,,,,,,0,0,0,0,2,1,9,0,,,,,,,,,,,,,,,,,,,,,,,,,,,,,w,1,None,0,,2.0,circlecyan.gif,stop,,,,,,,,0.367610931396,,,,,,,,,,,,,,,,,,,,,,,,2.11,0.5142557621,0.000923871994019,0.367610931396,1,w,302.21941185,,,,,,,,,,,,,,,,,,,,,,,,,,,,,,,,,2015_Jun_30_1148,60.1767869876,LearningTask,1,54,
200,w,200,,,,,,,,,,,,,,,,,0,0,0,0,2,2,10,0,,,,,,,,,,,,,,,,,,,,,,,,,,,,,w,1,None,0,,1.0,squarewhite.gif,stop,,,,,,,,0.367130041122,,,,,,,,,,,,,,,,,,,,,,,,1.23,0.514089107513,0.000939130783081,0.367130041122,1,w,305.222625017,,,,,,,,,,,,,,,,,,,,,,,,,,,,,,,,,2015_Jun_30_1148,60.1767869876,LearningTask,1,54,
-200,a,-200,,,,,,,,,,,,,,,,,0,0,0,0,2,3,11,3,,,,,,,,,,,,,,,,,,,,,,,,,,,,,a,1,None,0,,2.0,linemagenta.gif,go,,,,,,,,0.417410850525,,,,,,,,,,,,,,,,,,,,,,,,0,0.514460086823,0.000957012176514,0.417410850525,1,a,308.226047993,,,,,,,,,,,,,,,,,,,,,,,,,,,,,,,,,2015_Jun_30_1148,60.1767869876,LearningTask,1,54,
-200,a,-200,,,,,,,,,,,,,,,,,0,0,0,0,3,0,12,3,,,,,,,,,,,,,,,,,,,,,,,,,,,,,a,1,None,0,,1.0,trianglegreen.gif,go,,,,,,,,0.417668104172,,,,,,,,,,,,,,,,,,,,,,,,0.95,0.513957977295,0.000978946685791,0.417668104172,1,a,311.229261875,,,,,,,,,,,,,,,,,,,,,,,,,,,,,,,,,2015_Jun_30_1148,60.1767869876,LearningTask,1,54,
-200,q,200,,,,,,,,,,,,,,,,,0,0,0,0,3,1,13,1,,,,,,,,,,,,,,,,,,,,,,,,,,,,,q,1,None,0,,0.5,diamondorange.gif,go,,,,,,,,0.334218978882,,,,,,,,,,,,,,,,,,,,,,,,0.46,0.513786792755,0.0010678768158,0.334218978882,1,q,314.232662916,,,,,,,,,,,,,,,,,,,,,,,,,,,,,,,,,2015_Jun_30_1148,60.1767869876,LearningTask,1,54,
-200,a,-200,,,,,,,,,,,,,,,,,0,0,0,0,3,2,14,3,,,,,,,,,,,,,,,,,,,,,,,,,,,,,a,1,None,0,,1.0,squarewhite.gif,stop,,,,,,,,0.334683895111,,,,,,,,,,,,,,,,,,,,,,,,0.97,0.514211893082,0.000901937484741,0.334683895111,1,a,317.236078978,,,,,,,,,,,,,,,,,,,,,,,,,,,,,,,,,2015_Jun_30_1148,60.1767869876,LearningTask,1,54,
-200,a,-200,,,,,,,,,,,,,,,,,0,0,0,0,3,3,15,3,,,,,,,,,,,,,,,,,,,,,,,,,,,,,a,1,None,0,,4.0,hexagongray.gif,stop,,,,,,,,0.367595911026,,,,,,,,,,,,,,,,,,,,,,,,4.13,0.513987064362,0.00107908248901,0.367595911026,1,a,320.239713907,,,,,,,,,,,,,,,,,,,,,,,,,,,,,,,,,2015_Jun_30_1148,60.1767869876,LearningTask,1,54,
-200,a,-200,,,,,,,,,,,,,,,,,0,0,0,0,4,0,16,3,,,,,,,,,,,,,,,,,,,,,,,,,,,,,a,1,None,0,,1.0,squarewhite.gif,stop,,,,,,,,0.350796937943,,,,,,,,,,,,,,,,,,,,,,,,0,0.513725996017,0.000917911529541,0.350796937943,1,a,323.242857933,,,,,,,,,,,,,,,,,,,,,,,,,,,,,,,,,2015_Jun_30_1148,60.1767869876,LearningTask,1,54,
200,s,-200,,,,,,,,,,,,,,,,,0,0,0,0,4,1,17,2,,,,,,,,,,,,,,,,,,,,,,,,,,,,,s,1,None,0,,1.0,trianglegreen.gif,go,,,,,,,,0.350708961487,,,,,,,,,,,,,,,,,,,,,,,,1.01,0.514187097549,0.00092601776123,0.350708961487,1,s,326.245965958,,,,,,,,,,,,,,,,,,,,,,,,,,,,,,,,,2015_Jun_30_1148,60.1767869876,LearningTask,1,54,
-200,a,-200,,,,,,,,,,,,,,,,,0,0,0,0,4,2,18,3,,,,,,,,,,,,,,,,,,,,,,,,,,,,,a,1,None,0,,4.0,invertedtriangleyellow.gif,go,,,,,,,,0.417590856552,,,,,,,,,,,,,,,,,,,,,,,,3.84,0.51450586319,0.000951051712036,0.417590856552,1,a,329.249780893,,,,,,,,,,,,,,,,,,,,,,,,,,,,,,,,,2015_Jun_30_1148,60.1767869876,LearningTask,1,54,
200,s,-200,,,,,,,,,,,,,,,,,0,0,0,0,4,3,19,2,,,,,,,,,,,,,,,,,,,,,,,,,,,,,s,1,None,0,,2.0,linemagenta.gif,go,,,,,,,,0.417929172516,,,,,,,,,,,,,,,,,,,,,,,,0,0.513861894608,0.000903844833374,0.417929172516,1,s,332.252677917,,,,,,,,,,,,,,,,,,,,,,,,,,,,,,,,,2015_Jun_30_1148,60.1767869876,LearningTask,1,54,
-200,q,200,,,,,,,,,,,,,,,,,0,0,0,0,5,0,20,1,,,,,,,,,,,,,,,,,,,,,,,,,,,,,q,1,None,0,,2.0,linemagenta.gif,go,,,,,,,,0.317636013031,,,,,,,,,,,,,,,,,,,,,,,,1.86,0.514276027679,0.00102496147156,0.317636013031,1,q,335.2562778,,,,,,,,,,,,,,,,,,,,,,,,,,,,,,,,,2015_Jun_30_1148,60.1767869876,LearningTask,1,54,
200,w,200,,,,,,,,,,,,,,,,,0,0,0,0,5,1,21,0,,,,,,,,,,,,,,,,,,,,,,,,,,,,,w,1,None,0,,4.0,invertedtriangleyellow.gif,go,,,,,,,,0.601202011108,,,,,,,,,,,,,,,,,,,,,,,,4.19,0.513984918594,0.00116395950317,0.601202011108,1,w,338.259543896,,,,,,,,,,,,,,,,,,,,,,,,,,,,,,,,,2015_Jun_30_1148,60.1767869876,LearningTask,1,54,
-200,a,-200,,,,,,,,,,,,,,,,,0,0,0,0,5,2,22,3,,,,,,,,,,,,,,,,,,,,,,,,,,,,,a,1,None,0,,4.0,hexagongray.gif,stop,,,,,,,,0.384388923645,,,,,,,,,,,,,,,,,,,,,,,,4.19,0.514107942581,0.00090503692627,0.384388923645,1,a,341.262883902,,,,,,,,,,,,,,,,,,,,,,,,,,,,,,,,,2015_Jun_30_1148,60.1767869876,LearningTask,1,54,
200,w,200,,,,,,,,,,,,,,,,,0,0,0,0,5,3,23,0,,,,,,,,,,,,,,,,,,,,,,,,,,,,,w,1,None,0,,2.0,linemagenta.gif,go,,,,,,,,0.350775957108,,,,,,,,,,,,,,,,,,,,,,,,0,0.514276981354,0.00115489959717,0.350775957108,1,w,344.266255856,,,,,,,,,,,,,,,,,,,,,,,,,,,,,,,,,2015_Jun_30_1148,60.1767869876,LearningTask,1,54,
200,w,200,,,,,,,,,,,,,,,,,0,0,0,0,6,0,24,0,,,,,,,,,,,,,,,,,,,,,,,,,,,,,w,1,None,0,,2.0,linemagenta.gif,go,,,,,,,,0.35133099556,,,,,,,,,,,,,,,,,,,,,,,,2.16,0.514012098312,0.00091814994812,0.35133099556,1,w,347.269673824,,,,,,,,,,,,,,,,,,,,,,,,,,,,,,,,,2015_Jun_30_1148,60.1767869876,LearningTask,1,54,
200,s,-200,,,,,,,,,,,,,,,,,0,0,0,0,6,1,25,2,,,,,,,,,,,,,,,,,,,,,,,,,,,,,s,1,None,0,,4.0,hexagongray.gif,stop,,,,,,,,0.4341340065,,,,,,,,,,,,,,,,,,,,,,,,3.75,0.514083147049,0.000925064086914,0.4341340065,1,s,350.272869825,,,,,,,,,,,,,,,,,,,,,,,,,,,,,,,,,2015_Jun_30_1148,60.1767869876,LearningTask,1,54,
-200,q,200,,,,,,,,,,,,,,,,,0,0,0,0,6,2,26,1,,,,,,,,,,,,,,,,,,,,,,,,,,,,,q,1,None,0,,1.0,squarewhite.gif,stop,,,,,,,,0.284142971039,,,,,,,,,,,,,,,,,,,,,,,,0.98,0.514094114304,0.000965118408203,0.284142971039,1,q,353.276381016,,,,,,,,,,,,,,,,,,,,,,,,,,,,,,,,,2015_Jun_30_1148,60.1767869876,LearningTask,1,54,
-200,a,-200,,,,,,,,,,,,,,,,,0,0,0,0,6,3,27,3,,,,,,,,,,,,,,,,,,,,,,,,,,,,,a,1,None,0,,2.0,linemagenta.gif,go,,,,,,,,0.333839178085,,,,,,,,,,,,,,,,,,,,,,,,2.18,0.514199018478,0.000905990600586,0.333839178085,1,a,356.279397964,,,,,,,,,,,,,,,,,,,,,,,,,,,,,,,,,2015_Jun_30_1148,60.1767869876,LearningTask,1,54,
-200,q,200,,,,,,,,,,,,,,,,,0,0,0,0,7,0,28,1,,,,,,,,,,,,,,,,,,,,,,,,,,,,,q,1,None,0,,1.0,trianglegreen.gif,go,,,,,,,,0.367239952087,,,,,,,,,,,,,,,,,,,,,,,,0.88,0.514774084091,0.000914096832275,0.367239952087,1,q,359.283046961,,,,,,,,,,,,,,,,,,,,,,,,,,,,,,,,,2015_Jun_30_1148,60.1767869876,LearningTask,1,54,
-200,a,-200,,,,,,,,,,,,,,,,,0,0,0,0,7,1,29,3,,,,,,,,,,,,,,,,,,,,,,,,,,,,,a,1,None,0,,0.5,diamondorange.gif,go,,,,,,,,0.334040164948,,,,,,,,,,,,,,,,,,,,,,,,0.35,0.513863801956,0.000906944274902,0.334040164948,1,a,362.286471844,,,,,,,,,,,,,,,,,,,,,,,,,,,,,,,,,2015_Jun_30_1148,60.1767869876,LearningTask,1,54,
-200,a,-200,,,,,,,,,,,,,,,,,0,0,0,0,7,2,30,3,,,,,,,,,,,,,,,,,,,,,,,,,,,,,a,1,None,0,,4.0,invertedtriangleyellow.gif,go,,,,,,,,0.334201812744,,,,,,,,,,,,,,,,,,,,,,,,0,0.514080047607,0.000900983810425,0.334201812744,1,a,365.289598942,,,,,,,,,,,,,,,,,,,,,,,,,,,,,,,,,2015_Jun_30_1148,60.1767869876,LearningTask,1,54,
-200,a,-200,,,,,,,,,,,,,,,,,0,0,0,0,7,3,31,3,,,,,,,,,,,,,,,,,,,,,,,,,,,,,a,1,None,0,,1.0,trianglegreen.gif,go,,,,,,,,0.367838144302,,,,,,,,,,,,,,,,,,,,,,,,0.91,0.514465093613,0.000920057296753,0.367838144302,1,a,368.293684959,,,,,,,,,,,,,,,,,,,,,,,,,,,,,,,,,2015_Jun_30_1148,60.1767869876,LearningTask,1,54,
200,w,200,,,,,,,,,,,,,,,,,0,0,0,0,8,0,32,0,,,,,,,,,,,,,,,,,,,,,,,,,,,,,w,1,None,0,,2.0,circlecyan.gif,stop,,,,,,,,0.383954048157,,,,,,,,,,,,,,,,,,,,,,,,2.18,0.513580083847,0.000951051712036,0.383954048157,1,w,371.296392918,,,,,,,,,,,,,,,,,,,,,,,,,,,,,,,,,2015_Jun_30_1148,60.1767869876,LearningTask,1,54,
200,w,200,,,,,,,,,,,,,,,,,0,0,0,0,8,1,33,0,,,,,,,,,,,,,,,,,,,,,,,,,,,,,w,1,None,0,,2.0,circlecyan.gif,stop,,,,,,,,0.384213924408,,,,,,,,,,,,,,,,,,,,,,,,0,0.5144739151,0.000902891159058,0.384213924408,1,w,374.300028801,,,,,,,,,,,,,,,,,,,,,,,,,,,,,,,,,2015_Jun_30_1148,60.1767869876,LearningTask,1,54,
200,w,200,,,,,,,,,,,,,,,,,0,0,0,0,8,2,34,0,,,,,,,,,,,,,,,,,,,,,,,,,,,,,w,1,None,0,,1.0,trianglegreen.gif,go,,,,,,,,0.434170007706,,,,,,,,,,,,,,,,,,,,,,,,1.05,0.514142036438,0.000988006591797,0.434170007706,1,w,377.303521872,,,,,,,,,,,,,,,,,,,,,,,,,,,,,,,,,2015_Jun_30_1148,60.1767869876,LearningTask,1,54,
-200,q,200,,,,,,,,,,,,,,,,,0,0,0,0,8,3,35,1,,,,,,,,,,,,,,,,,,,,,,,,,,,,,q,1,None,0,,2.0,linemagenta.gif,go,,,,,,,,0.417789936066,,,,,,,,,,,,,,,,,,,,,,,,1.9,0.513862133026,0.000895977020264,0.417789936066,1,q,380.306477785,,,,,,,,,,,,,,,,,,,,,,,,,,,,,,,,,2015_Jun_30_1148,60.1767869876,LearningTask,1,54,
-200,q,200,,,,,,,,,,,,,,,,,0,0,0,0,9,0,36,1,,,,,,,,,,,,,,,,,,,,,,,,,,,,,q,1,None,0,,1.0,trianglegreen.gif,go,,,,,,,,0.400806903839,,,,,,,,,,,,,,,,,,,,,,,,1.14,0.514131784439,0.000929832458496,0.400806903839,1,q,383.309834957,,,,,,,,,,,,,,,,,,,,,,,,,,,,,,,,,2015_Jun_30_1148,60.1767869876,LearningTask,1,54,
200,w,200,,,,,,,,,,,,,,,,,0,0,0,0,9,1,37,0,,,,,,,,,,,,,,,,,,,,,,,,,,,,,w,1,None,0,,2.0,linemagenta.gif,go,,,,,,,,0.401057004929,,,,,,,,,,,,,,,,,,,,,,,,1.76,0.514211893082,0.000952005386353,0.401057004929,1,w,386.313364983,,,,,,,,,,,,,,,,,,,,,,,,,,,,,,,,,2015_Jun_30_1148,60.1767869876,LearningTask,1,54,
200,s,-200,,,,,,,,,,,,,,,,,0,0,0,0,9,2,38,2,,,,,,,,,,,,,,,,,,,,,,,,,,,,,s,1,None,0,,2.0,linemagenta.gif,go,,,,,,,,0.417490959167,,,,,,,,,,,,,,,,,,,,,,,,2.2,0.514107942581,0.000929832458496,0.417490959167,1,s,389.316357851,,,,,,,,,,,,,,,,,,,,,,,,,,,,,,,,,2015_Jun_30_1148,60.1767869876,LearningTask,1,54,
200,s,-200,,,,,,,,,,,,,,,,,0,0,0,0,9,3,39,2,,,,,,,,,,,,,,,,,,,,,,,,,,,,,s,1,None,0,,4.0,hexagongray.gif,stop,,,,,,,,0.367151975632,,,,,,,,,,,,,,,,,,,,,,,,3.84,0.514830112457,0.000982046127319,0.367151975632,1,s,392.320073843,,,,,,,,,,,,,,,,,,,,,,,,,,,,,,,,,2015_Jun_30_1148,60.1767869876,LearningTask,1,54,
200,s,-200,,,,,,,,,,,,,,,,,0,0,0,0,10,0,40,2,,,,,,,,,,,,,,,,,,,,,,,,,,,,,s,1,None,0,,0.5,diamondorange.gif,go,,,,,,,,0.351001024246,,,,,,,,,,,,,,,,,,,,,,,,0.69,0.513669013977,0.000930070877075,0.351001024246,1,s,395.32323885,,,,,,,,,,,,,,,,,,,,,,,,,,,,,,,,,2015_Jun_30_1148,60.1767869876,LearningTask,1,54,
200,s,-200,,,,,,,,,,,,,,,,,0,0,0,0,10,1,41,2,,,,,,,,,,,,,,,,,,,,,,,,,,,,,s,1,None,0,,4.0,hexagongray.gif,stop,,,,,,,,0.317579030991,,,,,,,,,,,,,,,,,,,,,,,,4.17,0.514375925064,0.00090503692627,0.317579030991,1,s,398.32652092,,,,,,,,,,,,,,,,,,,,,,,,,,,,,,,,,2015_Jun_30_1148,60.1767869876,LearningTask,1,54,
200,w,200,,,,,,,,,,,,,,,,,0,0,0,0,10,2,42,0,,,,,,,,,,,,,,,,,,,,,,,,,,,,,w,1,None,0,,4.0,invertedtriangleyellow.gif,go,,,,,,,,0.40068602562,,,,,,,,,,,,,,,,,,,,,,,,0,0.514141082764,0.00102210044861,0.40068602562,1,w,401.329856873,,,,,,,,,,,,,,,,,,,,,,,,,,,,,,,,,2015_Jun_30_1148,60.1767869876,LearningTask,1,54,
200,w,200,,,,,,,,,,,,,,,,,0,0,0,0,10,3,43,0,,,,,,,,,,,,,,,,,,,,,,,,,,,,,w,1,None,0,,0.5,crossblue.gif,stop,,,,,,,,0.383810997009,,,,,,,,,,,,,,,,,,,,,,,,0,0.514544010162,0.000910997390747,0.383810997009,1,w,404.33336401,,,,,,,,,,,,,,,,,,,,,,,,,,,,,,,,,2015_Jun_30_1148,60.1767869876,LearningTask,1,54,
-200,a,-200,,,,,,,,,,,,,,,,,0,0,0,0,11,0,44,3,,,,,,,,,,,,,,,,,,,,,,,,,,,,,a,1,None,0,,0.5,crossblue.gif,stop,,,,,,,,0.334054946899,,,,,,,,,,,,,,,,,,,,,,,,0.35,0.514319896698,0.000906944274902,0.334054946899,1,a,407.336730003,,,,,,,,,,,,,,,,,,,,,,,,,,,,,,,,,2015_Jun_30_1148,60.1767869876,LearningTask,1,54,
200,w,200,,,,,,,,,,,,,,,,,0,0,0,0,11,1,45,0,,,,,,,,,,,,,,,,,,,,,,,,,,,,,w,1,q,0,0.492469072342,4.0,invertedtriangleyellow.gif,go,,,,,,,,0.35115480423,,,,,,,,,,,,,,,,,,,,,,,,0,0.514053821564,0.000917911529541,0.35115480423,1,w,410.340229988,,,,,,,,,,,,,,,,,,,,,,,,,,,,,,,,,2015_Jun_30_1148,60.1767869876,LearningTask,1,54,
200,w,200,,,,,,,,,,,,,,,,,0,0,0,0,11,2,46,0,,,,,,,,,,,,,,,,,,,,,,,,,,,,,w,1,None,0,,0.5,crossblue.gif,stop,,,,,,,,0.350960016251,,,,,,,,,,,,,,,,,,,,,,,,0,0.514145851135,0.000911951065063,0.350960016251,1,w,413.343504906,,,,,,,,,,,,,,,,,,,,,,,,,,,,,,,,,2015_Jun_30_1148,60.1767869876,LearningTask,1,54,
200,s,-200,,,,,,,,,,,,,,,,,0,0,0,0,11,3,47,2,,,,,,,,,,,,,,,,,,,,,,,,,,,,,s,1,None,0,,0.5,crossblue.gif,stop,,,,,,,,0.35073184967,,,,,,,,,,,,,,,,,,,,,,,,0,0.513912916183,0.00102114677429,0.35073184967,1,s,416.347370863,,,,,,,,,,,,,,,,,,,,,,,,,,,,,,,,,2015_Jun_30_1148,60.1767869876,LearningTask,1,54,
200,w,200,,,,,,,,,,,,,,,,,0,0,0,0,12,0,48,0,,,,,,,,,,,,,,,,,,,,,,,,,,,,,w,1,None,0,,2.0,linemagenta.gif,go,,,,,,,,0.367229223251,,,,,,,,,,,,,,,,,,,,,,,,1.88,0.513653039932,0.000972032546997,0.367229223251,1,w,419.350425005,,,,,,,,,,,,,,,,,,,,,,,,,,,,,,,,,2015_Jun_30_1148,60.1767869876,LearningTask,1,54,
200,w,200,,,,,,,,,,,,,,,,,0,0,0,0,12,1,49,0,,,,,,,,,,,,,,,,,,,,,,,,,,,,,w,1,None,0,,4.0,invertedtriangleyellow.gif,go,,,,,,,,0.350789070129,,,,,,,,,,,,,,,,,,,,,,,,4.21,0.514010906219,0.000906944274902,0.350789070129,1,w,422.35341692,,,,,,,,,,,,,,,,,,,,,,,,,,,,,,,,,2015_Jun_30_1148,60.1767869876,LearningTask,1,54,
-200,q,200,,,,,,,,,,,,,,,,,0,0,0,0,12,2,50,1,,,,,,,,,,,,,,,,,,,,,,,,,,,,,q,1,None,0,,1.0,trianglegreen.gif,go,,,,,,,,0.400629043579,,,,,,,,,,,,,,,,,,,,,,,,0,0.514453887939,0.000926971435547,0.400629043579,1,q,425.357109785,,,,,,,,,,,,,,,,,,,,,,,,,,,,,,,,,2015_Jun_30_1148,60.1767869876,LearningTask,1,54,
200,w,200,,,,,,,,,,,,,,,,,0,0,0,0,12,3,51,0,,,,,,,,,,,,,,,,,,,,,,,,,,,,,w,1,None,0,,0.5,diamondorange.gif,go,,,,,,,,0.367347002029,,,,,,,,,,,,,,,,,,,,,,,,0.53,0.513944149017,0.00092601776123,0.367347002029,1,w,428.360221863,,,,,,,,,,,,,,,,,,,,,,,,,,,,,,,,,2015_Jun_30_1148,60.1767869876,LearningTask,1,54,
200,w,200,,,,,,,,,,,,,,,,,0,0,0,0,13,0,52,0,,,,,,,,,,,,,,,,,,,,,,,,,,,,,w,1,None,0,,1.0,trianglegreen.gif,go,,,,,,,,0.334109067917,,,,,,,,,,,,,,,,,,,,,,,,1.15,0.514453887939,0.000939846038818,0.334109067917,1,w,431.363374949,,,,,,,,,,,,,,,,,,,,,,,,,,,,,,,,,2015_Jun_30_1148,60.1767869876,LearningTask,1,54,
200,s,-200,,,,,,,,,,,,,,,,,0,0,0,0,13,1,53,2,,,,,,,,,,,,,,,,,,,,,,,,,,,,,s,1,None,0,,1.0,squarewhite.gif,stop,,,,,,,,0.383903980255,,,,,,,,,,,,,,,,,,,,,,,,0,0.514743089676,0.00103187561035,0.383903980255,1,s,434.366916895,,,,,,,,,,,,,,,,,,,,,,,,,,,,,,,,,2015_Jun_30_1148,60.1767869876,LearningTask,1,54,
-200,q,200,,,,,,,,,,,,,,,,,0,0,0,0,13,2,54,1,,,,,,,,,,,,,,,,,,,,,,,,,,,,,q,1,None,0,,2.0,circlecyan.gif,stop,,,,,,,,0.334030151367,,,,,,,,,,,,,,,,,,,,,,,,1.87,0.51424908638,0.00097918510437,0.334030151367,1,q,437.370223999,,,,,,,,,,,,,,,,,,,,,,,,,,,,,,,,,2015_Jun_30_1148,60.1767869876,LearningTask,1,54,
200,w,200,,,,,,,,,,,,,,,,,0,0,0,0,13,3,55,0,,,,,,,,,,,,,,,,,,,,,,,,,,,,,w,1,None,0,,4.0,hexagongray.gif,stop,,,,,,,,0.367573022842,,,,,,,,,,,,,,,,,,,,,,,,3.96,0.514435052872,0.00108909606934,0.367573022842,1,w,440.373625994,,,,,,,,,,,,,,,,,,,,,,,,,,,,,,,,,2015_Jun_30_1148,60.1767869876,LearningTask,1,54,
200,w,200,,,,,,,,,,,,,,,,,0,0,0,0,14,0,56,0,,,,,,,,,,,,,,,,,,,,,,,,,,,,,w,1,None,0,,0.5,crossblue.gif,stop,,,,,,,,0.351073026657,,,,,,,,,,,,,,,,,,,,,,,,0.35,0.513986825943,0.000942945480347,0.351073026657,1,w,443.376761913,,,,,,,,,,,,,,,,,,,,,,,,,,,,,,,,,2015_Jun_30_1148,60.1767869876,LearningTask,1,54,
-200,q,200,,,,,,,,,,,,,,,,,0,0,0,0,14,1,57,1,,,,,,,,,,,,,,,,,,,,,,,,,,,,,q,1,None,0,,4.0,hexagongray.gif,stop,,,,,,,,0.300745010376,,,,,,,,,,,,,,,,,,,,,,,,4.03,0.514513969421,0.000963926315308,0.300745010376,1,q,446.380268812,,,,,,,,,,,,,,,,,,,,,,,,,,,,,,,,,2015_Jun_30_1148,60.1767869876,LearningTask,1,54,
200,w,200,,,,,,,,,,,,,,,,,0,0,0,0,14,2,58,0,,,,,,,,,,,,,,,,,,,,,,,,,,,,,w,1,None,0,,0.5,crossblue.gif,stop,,,,,,,,0.317306041718,,,,,,,,,,,,,,,,,,,,,,,,0,0.514117956161,0.000952959060669,0.317306041718,1,w,449.383696795,,,,,,,,,,,,,,,,,,,,,,,,,,,,,,,,,2015_Jun_30_1148,60.1767869876,LearningTask,1,54,
-200,a,-200,,,,,,,,,,,,,,,,,0,0,0,0,14,3,59,3,,,,,,,,,,,,,,,,,,,,,,,,,,,,,a,1,None,0,,1.0,squarewhite.gif,stop,,,,,,,,0.400651931763,,,,,,,,,,,,,,,,,,,,,,,,1.03,0.51438999176,0.000901937484741,0.400651931763,1,a,452.386919022,,,,,,,,,,,,,,,,,,,,,,,,,,,,,,,,,2015_Jun_30_1148,60.1767869876,LearningTask,1,54,
200,s,-200,,,,,,,,,,,,,,,,,0,0,0,0,15,0,60,2,,,,,,,,,,,,,,,,,,,,,,,,,,,,,s,1,None,0,,4.0,invertedtriangleyellow.gif,go,,,,,,,,0.317484140396,,,,,,,,,,,,,,,,,,,,,,,,0,0.514528989792,0.000908136367798,0.317484140396,1,s,455.390721798,,,,,,,,,,,,,,,,,,,,,,,,,,,,,,,,,2015_Jun_30_1148,60.1767869876,LearningTask,1,54,
200,s,-200,,,,,,,,,,,,,,,,,0,0,0,0,15,1,61,2,,,,,,,,,,,,,,,,,,,,,,,,,,,,,s,1,None,0,,2.0,linemagenta.gif,go,,,,,,,,0.417068004608,,,,,,,,,,,,,,,,,,,,,,,,2.0,0.513850927353,0.000994920730591,0.417068004608,1,s,458.393896818,,,,,,,,,,,,,,,,,,,,,,,,,,,,,,,,,2015_Jun_30_1148,60.1767869876,LearningTask,1,54,
-200,q,200,,,,,,,,,,,,,,,,,0,0,0,0,15,2,62,1,,,,,,,,,,,,,,,,,,,,,,,,,,,,,q,1,None,0,,1.0,squarewhite.gif,stop,,,,,,,,0.367618083954,,,,,,,,,,,,,,,,,,,,,,,,0,0.514034032822,0.000936985015869,0.367618083954,1,q,461.397207022,,,,,,,,,,,,,,,,,,,,,,,,,,,,,,,,,2015_Jun_30_1148,60.1767869876,LearningTask,1,54,
-200,a,-200,,,,,,,,,,,,,,,,,0,0,0,0,15,3,63,3,,,,,,,,,,,,,,,,,,,,,,,,,,,,,a,1,None,0,,2.0,linemagenta.gif,go,,,,,,,,0.35059595108,,,,,,,,,,,,,,,,,,,,,,,,2.07,0.514519929886,0.000927925109863,0.35059595108,1,a,464.40088892,,,,,,,,,,,,,,,,,,,,,,,,,,,,,,,,,2015_Jun_30_1148,60.1767869876,LearningTask,1,54,
200,s,-200,,,,,,,,,,,,,,,,,0,0,0,0,16,0,64,2,,,,,,,,,,,,,,,,,,,,,,,,,,,,,s,1,None,0,,4.0,invertedtriangleyellow.gif,go,,,,,,,,0.384397983551,,,,,,,,,,,,,,,,,,,,,,,,4.11,0.513530015945,0.000909090042114,0.384397983551,1,s,467.404018879,,,,,,,,,,,,,,,,,,,,,,,,,,,,,,,,,2015_Jun_30_1148,60.1767869876,LearningTask,1,54,
-200,a,-200,,,,,,,,,,,,,,,,,0,0,0,0,16,1,65,3,,,,,,,,,,,,,,,,,,,,,,,,,,,,,a,1,None,0,,2.0,circlecyan.gif,stop,,,,,,,,0.334316968918,,,,,,,,,,,,,,,,,,,,,,,,1.94,0.51415514946,0.000903129577637,0.334316968918,1,a,470.407040834,,,,,,,,,,,,,,,,,,,,,,,,,,,,,,,,,2015_Jun_30_1148,60.1767869876,LearningTask,1,54,
-200,a,-200,,,,,,,,,,,,,,,,,0,0,0,0,16,2,66,3,,,,,,,,,,,,,,,,,,,,,,,,,,,,,a,1,None,0,,2.0,circlecyan.gif,stop,,,,,,,,0.351363897324,,,,,,,,,,,,,,,,,,,,,,,,2.01,0.514345169067,0.00097918510437,0.351363897324,1,a,473.410667896,,,,,,,,,,,,,,,,,,,,,,,,,,,,,,,,,2015_Jun_30_1148,60.1767869876,LearningTask,1,54,
-200,q,200,,,,,,,,,,,,,,,,,0,0,0,0,16,3,67,1,,,,,,,,,,,,,,,,,,,,,,,,,,,,,q,1,None,0,,2.0,linemagenta.gif,go,,,,,,,,0.351118087769,,,,,,,,,,,,,,,,,,,,,,,,0,0.514176130295,0.000904083251953,0.351118087769,1,q,476.414060831,,,,,,,,,,,,,,,,,,,,,,,,,,,,,,,,,2015_Jun_30_1148,60.1767869876,LearningTask,1,54,
200,w,200,,,,,,,,,,,,,,,,,0,0,0,0,17,0,68,0,,,,,,,,,,,,,,,,,,,,,,,,,,,,,w,1,None,0,,1.0,squarewhite.gif,stop,,,,,,,,0.351017951965,,,,,,,,,,,,,,,,,,,,,,,,1.11,0.514000892639,0.000919103622437,0.351017951965,1,w,479.417073965,,,,,,,,,,,,,,,,,,,,,,,,,,,,,,,,,2015_Jun_30_1148,60.1767869876,LearningTask,1,54,
-200,q,200,,,,,,,,,,,,,,,,,0,0,0,0,17,1,69,1,,,,,,,,,,,,,,,,,,,,,,,,,,,,,q,1,None,0,,0.5,diamondorange.gif,go,,,,,,,,0.367741823196,,,,,,,,,,,,,,,,,,,,,,,,0.41,0.51450419426,0.00100302696228,0.367741823196,1,q,482.420672894,,,,,,,,,,,,,,,,,,,,,,,,,,,,,,,,,2015_Jun_30_1148,60.1767869876,LearningTask,1,54,
-200,q,200,,,,,,,,,,,,,,,,,0,0,0,0,17,2,70,1,,,,,,,,,,,,,,,,,,,,,,,,,,,,,q,1,None,0,,1.0,trianglegreen.gif,go,,,,,,,,0.36731505394,,,,,,,,,,,,,,,,,,,,,,,,0,0.514277935028,0.000916004180908,0.36731505394,1,q,485.4244349,,,,,,,,,,,,,,,,,,,,,,,,,,,,,,,,,2015_Jun_30_1148,60.1767869876,LearningTask,1,54,
200,w,200,,,,,,,,,,,,,,,,,0,0,0,0,17,3,71,0,,,,,,,,,,,,,,,,,,,,,,,,,,,,,w,1,None,0,,0.5,diamondorange.gif,go,,,,,,,,0.33441400528,,,,,,,,,,,,,,,,,,,,,,,,0,0.513550043106,0.000954866409302,0.33441400528,1,w,488.427591801,,,,,,,,,,,,,,,,,,,,,,,,,,,,,,,,,2015_Jun_30_1148,60.1767869876,LearningTask,1,54,
200,s,-200,,,,,,,,,,,,,,,,,0,0,0,0,18,0,72,2,,,,,,,,,,,,,,,,,,,,,,,,,,,,,s,1,None,0,,2.0,linemagenta.gif,go,,,,,,,,0.350865125656,,,,,,,,,,,,,,,,,,,,,,,,1.81,0.513766050339,0.000890970230103,0.350865125656,1,s,491.430637836,,,,,,,,,,,,,,,,,,,,,,,,,,,,,,,,,2015_Jun_30_1148,60.1767869876,LearningTask,1,54,
200,s,-200,,,,,,,,,,,,,,,,,0,0,0,0,18,1,73,2,,,,,,,,,,,,,,,,,,,,,,,,,,,,,s,1,None,0,,4.0,hexagongray.gif,stop,,,,,,,,0.368264913559,,,,,,,,,,,,,,,,,,,,,,,,4.17,0.51432299614,0.000901937484741,0.368264913559,1,s,494.434005022,,,,,,,,,,,,,,,,,,,,,,,,,,,,,,,,,2015_Jun_30_1148,60.1767869876,LearningTask,1,54,
200,s,-200,,,,,,,,,,,,,,,,,0,0,0,0,18,2,74,2,,,,,,,,,,,,,,,,,,,,,,,,,,,,,s,1,None,0,,1.0,trianglegreen.gif,go,,,,,,,,0.384390115738,,,,,,,,,,,,,,,,,,,,,,,,1.02,0.513964891434,0.00095796585083,0.384390115738,1,s,497.437263012,,,,,,,,,,,,,,,,,,,,,,,,,,,,,,,,,2015_Jun_30_1148,60.1767869876,LearningTask,1,54,
-200,q,200,,,,,,,,,,,,,,,,,0,0,0,0,18,3,75,1,,,,,,,,,,,,,,,,,,,,,,,,,,,,,q,1,None,0,,1.0,squarewhite.gif,stop,,,,,,,,0.334343910217,,,,,,,,,,,,,,,,,,,,,,,,0,0.51420712471,0.000916957855225,0.334343910217,1,q,500.440692902,,,,,,,,,,,,,,,,,,,,,,,,,,,,,,,,,2015_Jun_30_1148,60.1767869876,LearningTask,1,54,
200,s,-200,,,,,,,,,,,,,,,,,0,0,0,0,19,0,76,2,,,,,,,,,,,,,,,,,,,,,,,,,,,,,s,1,None,0,,4.0,hexagongray.gif,stop,,,,,,,,0.384094953537,,,,,,,,,,,,,,,,,,,,,,,,3.8,0.51437497139,0.000913858413696,0.384094953537,1,s,503.444127798,,,,,,,,,,,,,,,,,,,,,,,,,,,,,,,,,2015_Jun_30_1148,60.1767869876,LearningTask,1,54,
-200,a,-200,,,,,,,,,,,,,,,,,0,0,0,0,19,1,77,3,,,,,,,,,,,,,,,,,,,,,,,,,,,,,a,1,None,0,,2.0,circlecyan.gif,stop,,,,,,,,0.333976984024,,,,,,,,,,,,,,,,,,,,,,,,1.92,0.513966798782,0.000964879989624,0.333976984024,1,a,506.447565794,,,,,,,,,,,,,,,,,,,,,,,,,,,,,,,,,2015_Jun_30_1148,60.1767869876,LearningTask,1,54,
-200,q,200,,,,,,,,,,,,,,,,,0,0,0,0,19,2,78,1,,,,,,,,,,,,,,,,,,,,,,,,,,,,,q,1,None,0,,4.0,invertedtriangleyellow.gif,go,,,,,,,,0.350471019745,,,,,,,,,,,,,,,,,,,,,,,,4.19,0.51426410675,0.000949144363403,0.350471019745,1,q,509.450814009,,,,,,,,,,,,,,,,,,,,,,,,,,,,,,,,,2015_Jun_30_1148,60.1767869876,LearningTask,1,54,
-200,q,200,,,,,,,,,,,,,,,,,0,0,0,0,19,3,79,1,,,,,,,,,,,,,,,,,,,,,,,,,,,,,q,1,None,0,,4.0,invertedtriangleyellow.gif,go,,,,,,,,0.367788076401,,,,,,,,,,,,,,,,,,,,,,,,0,0.514390945435,0.000906944274902,0.367788076401,1,q,512.454595804,,,,,,,,,,,,,,,,,,,,,,,,,,,,,,,,,2015_Jun_30_1148,60.1767869876,LearningTask,1,54,
200,s,-200,,,,,,,,,,,,,,,,,0,0,0,0,20,0,80,2,,,,,,,,,,,,,,,,,,,,,,,,,,,,,s,1,None,0,,1.0,squarewhite.gif,stop,,,,,,,,0.384011983871,,,,,,,,,,,,,,,,,,,,,,,,0.93,0.513606071472,0.00122308731079,0.384011983871,1,s,515.457664967,,,,,,,,,,,,,,,,,,,,,,,,,,,,,,,,,2015_Jun_30_1148,60.1767869876,LearningTask,1,54,
-200,a,-200,,,,,,,,,,,,,,,,,0,0,0,0,20,1,81,3,,,,,,,,,,,,,,,,,,,,,,,,,,,,,a,1,None,0,,2.0,linemagenta.gif,go,,,,,,,,0.384619951248,,,,,,,,,,,,,,,,,,,,,,,,2.16,0.513927936554,0.000921010971069,0.384619951248,1,a,518.460999012,,,,,,,,,,,,,,,,,,,,,,,,,,,,,,,,,2015_Jun_30_1148,60.1767869876,LearningTask,1,54,
-200,q,200,,,,,,,,,,,,,,,,,0,0,0,0,20,2,82,1,,,,,,,,,,,,,,,,,,,,,,,,,,,,,q,1,None,0,,1.0,trianglegreen.gif,go,,,,,,,,0.417973995209,,,,,,,,,,,,,,,,,,,,,,,,0.92,0.51388001442,0.000980138778687,0.417973995209,1,q,521.46446681,,,,,,,,,,,,,,,,,,,,,,,,,,,,,,,,,2015_Jun_30_1148,60.1767869876,LearningTask,1,54,
-200,a,-200,,,,,,,,,,,,,,,,,0,0,0,0,20,3,83,3,,,,,,,,,,,,,,,,,,,,,,,,,,,,,a,1,None,0,,2.0,circlecyan.gif,stop,,,,,,,,0.384698152542,,,,,,,,,,,,,,,,,,,,,,,,0,0.513819932938,0.000926971435547,0.384698152542,1,a,524.467773914,,,,,,,,,,,,,,,,,,,,,,,,,,,,,,,,,2015_Jun_30_1148,60.1767869876,LearningTask,1,54,
200,s,-200,,,,,,,,,,,,,,,,,0,0,0,0,21,0,84,2,,,,,,,,,,,,,,,,,,,,,,,,,,,,,s,1,None,0,,1.0,trianglegreen.gif,go,,,,,,,,0.367468118668,,,,,,,,,,,,,,,,,,,,,,,,0.88,0.514207839966,0.0010769367218,0.367468118668,1,s,527.470742941,,,,,,,,,,,,,,,,,,,,,,,,,,,,,,,,,2015_Jun_30_1148,60.1767869876,LearningTask,1,54,
-200,a,-200,,,,,,,,,,,,,,,,,0,0,0,0,21,1,85,3,,,,,,,,,,,,,,,,,,,,,,,,,,,,,a,1,None,0,,4.0,invertedtriangleyellow.gif,go,,,,,,,,0.384066104889,,,,,,,,,,,,,,,,,,,,,,,,4.01,0.514367103577,0.000955104827881,0.384066104889,1,a,530.474434853,,,,,,,,,,,,,,,,,,,,,,,,,,,,,,,,,2015_Jun_30_1148,60.1767869876,LearningTask,1,54,
200,s,-200,,,,,,,,,,,,,,,,,0,0,0,0,21,2,86,2,,,,,,,,,,,,,,,,,,,,,,,,,,,,,s,1,None,0,,0.5,diamondorange.gif,go,,,,,,,,0.400910139084,,,,,,,,,,,,,,,,,,,,,,,,0.37,0.514097929001,0.000931024551392,0.400910139084,1,s,533.477674961,,,,,,,,,,,,,,,,,,,,,,,,,,,,,,,,,2015_Jun_30_1148,60.1767869876,LearningTask,1,54,
-200,a,-200,,,,,,,,,,,,,,,,,0,0,0,0,21,3,87,3,,,,,,,,,,,,,,,,,,,,,,,,,,,,,a,1,None,0,,0.5,crossblue.gif,stop,,,,,,,,0.401113986969,,,,,,,,,,,,,,,,,,,,,,,,0.48,0.514075994492,0.00130486488342,0.401113986969,1,a,536.481418848,,,,,,,,,,,,,,,,,,,,,,,,,,,,,,,,,2015_Jun_30_1148,60.1767869876,LearningTask,1,54,
-200,a,-200,,,,,,,,,,,,,,,,,0,0,0,0,22,0,88,3,,,,,,,,,,,,,,,,,,,,,,,,,,,,,a,1,None,0,,1.0,trianglegreen.gif,go,,,,,,,,0.450700044632,,,,,,,,,,,,,,,,,,,,,,,,1.07,0.513851881027,0.0010678768158,0.450700044632,1,a,539.484542847,,,,,,,,,,,,,,,,,,,,,,,,,,,,,,,,,2015_Jun_30_1148,60.1767869876,LearningTask,1,54,
-200,q,200,,,,,,,,,,,,,,,,,0,0,0,0,22,1,89,1,,,,,,,,,,,,,,,,,,,,,,,,,,,,,q,1,None,0,,2.0,linemagenta.gif,go,,,,,,,,0.351208925247,,,,,,,,,,,,,,,,,,,,,,,,1.88,0.513772010803,0.00103902816772,0.351208925247,1,q,542.487987995,,,,,,,,,,,,,,,,,,,,,,,,,,,,,,,,,2015_Jun_30_1148,60.1767869876,LearningTask,1,54,
-200,q,200,,,,,,,,,,,,,,,,,0,0,0,0,22,2,90,1,,,,,,,,,,,,,,,,,,,,,,,,,,,,,q,1,None,0,,4.0,hexagongray.gif,stop,,,,,,,,0.434605121613,,,,,,,,,,,,,,,,,,,,,,,,4.2,0.513483047485,0.00102496147156,0.434605121613,1,q,545.491099834,,,,,,,,,,,,,,,,,,,,,,,,,,,,,,,,,2015_Jun_30_1148,60.1767869876,LearningTask,1,54,
-200,q,200,,,,,,,,,,,,,,,,,0,0,0,0,22,3,91,1,,,,,,,,,,,,,,,,,,,,,,,,,,,,,q,1,None,0,,1.0,squarewhite.gif,stop,,,,,,,,0.334422111511,,,,,,,,,,,,,,,,,,,,,,,,1.03,0.514065027237,0.000895977020264,0.334422111511,1,q,548.494594812,,,,,,,,,,,,,,,,,,,,,,,,,,,,,,,,,2015_Jun_30_1148,60.1767869876,LearningTask,1,54,
-200,q,200,,,,,,,,,,,,,,,,,0,0,0,0,23,0,92,1,,,,,,,,,,,,,,,,,,,,,,,,,,,,,q,1,None,0,,0.5,crossblue.gif,stop,,,,,,,,0.350640058517,,,,,,,,,,,,,,,,,,,,,,,,0.35,0.514007091522,0.000970125198364,0.350640058517,1,q,551.49827981,,,,,,,,,,,,,,,,,,,,,,,,,,,,,,,,,2015_Jun_30_1148,60.1767869876,LearningTask,1,54,
200,w,200,,,,,,,,,,,,,,,,,0,0,0,0,23,1,93,0,,,,,,,,,,,,,,,,,,,,,,,,,,,,,w,1,None,0,,0.5,diamondorange.gif,go,,,,,,,,0.400901079178,,,,,,,,,,,,,,,,,,,,,,,,0.41,0.513581991196,0.00113201141357,0.400901079178,1,w,554.501394987,,,,,,,,,,,,,,,,,,,,,,,,,,,,,,,,,2015_Jun_30_1148,60.1767869876,LearningTask,1,54,
-200,a,-200,,,,,,,,,,,,,,,,,0,0,0,0,23,2,94,3,,,,,,,,,,,,,,,,,,,,,,,,,,,,,a,1,None,0,,2.0,circlecyan.gif,stop,,,,,,,,0.334589958191,,,,,,,,,,,,,,,,,,,,,,,,1.77,0.513897895813,0.000911951065063,0.334589958191,1,a,557.504637957,,,,,,,,,,,,,,,,,,,,,,,,,,,,,,,,,2015_Jun_30_1148,60.1767869876,LearningTask,1,54,
200,s,-200,,,,,,,,,,,,,,,,,0,0,0,0,23,3,95,2,,,,,,,,,,,,,,,,,,,,,,,,,,,,,s,1,None,0,,1.0,trianglegreen.gif,go,,,,,,,,0.400812864304,,,,,,,,,,,,,,,,,,,,,,,,0.88,0.514176845551,0.000907897949219,0.400812864304,1,s,560.508174896,,,,,,,,,,,,,,,,,,,,,,,,,,,,,,,,,2015_Jun_30_1148,60.1767869876,LearningTask,1,54,
200,s,-200,,,,,,,,,,,,,,,,,0,0,0,0,24,0,96,2,,,,,,,,,,,,,,,,,,,,,,,,,,,,,s,1,None,0,,4.0,hexagongray.gif,stop,,,,,,,,0.36739397049,,,,,,,,,,,,,,,,,,,,,,,,4.23,0.513710975647,0.00107002258301,0.36739397049,1,s,563.51153779,,,,,,,,,,,,,,,,,,,,,,,,,,,,,,,,,2015_Jun_30_1148,60.1767869876,LearningTask,1,54,
-200,q,200,,,,,,,,,,,,,,,,,0,0,0,0,24,1,97,1,,,,,,,,,,,,,,,,,,,,,,,,,,,,,q,1,None,0,,0.5,diamondorange.gif,go,,,,,,,,0.368021011353,,,,,,,,,,,,,,,,,,,,,,,,0.41,0.514081001282,0.000926971435547,0.368021011353,1,q,566.514644861,,,,,,,,,,,,,,,,,,,,,,,,,,,,,,,,,2015_Jun_30_1148,60.1767869876,LearningTask,1,54,
-200,q,200,,,,,,,,,,,,,,,,,0,0,0,0,24,2,98,1,,,,,,,,,,,,,,,,,,,,,,,,,,,,,q,1,None,0,,4.0,hexagongray.gif,stop,,,,,,,,0.35125207901,,,,,,,,,,,,,,,,,,,,,,,,3.86,0.514270067215,0.000994920730591,0.35125207901,1,q,569.518366814,,,,,,,,,,,,,,,,,,,,,,,,,,,,,,,,,2015_Jun_30_1148,60.1767869876,LearningTask,1,54,
200,s,-200,,,,,,,,,,,,,,,,,0,0,0,0,24,3,99,2,,,,,,,,,,,,,,,,,,,,,,,,,,,,,s,1,None,0,,2.0,circlecyan.gif,stop,,,,,,,,0.41770195961,,,,,,,,,,,,,,,,,,,,,,,,2.06,0.513710975647,0.000982046127319,0.41770195961,1,s,572.521191835,,,,,,,,,,,,,,,,,,,,,,,,,,,,,,,,,2015_Jun_30_1148,60.1767869876,LearningTask,1,54,
,,,,,,,,,,,,,,,,,,,0,0,0,0,,,,,,,,,,,,,,,,,,,,,,,,,,,,,,,,,,,,,,,,,,,,,,,,,,,,,,,,,,,,,,,,,,,,,,,,,,,,,,,9,7.63314199448,,,,,,,,,,,,,,,,,,,,,,,,,,,,,,,2015_Jun_30_1148,60.1767869876,LearningTask,1,54,
-200,q,200,,,,,,,,,,,,,,,,,1,0,1,0,0,0,0,1,,,,,,,,,,,,,,,,,,,,,,,,,,,,,q,1,None,0,,2.0,circlecyan.gif,stop,,,,,,,,0.400763034821,,,,,,,,,,,,,,,,,,,,,,,,2.21,0.51012802124,0.000958919525146,0.400763034821,1,q,583.551353931,,,,,,,,,,,,,,,,,,,,,,,,,,,,,,,,,2015_Jun_30_1148,60.1767869876,LearningTask,1,54,
-200,a,-200,,,,,,,,,,,,,,,,,1,0,1,0,0,1,1,3,,,,,,,,,,,,,,,,,,,,,,,,,,,,,a,1,None,0,,1.0,squarewhite.gif,stop,,,,,,,,0.384003162384,,,,,,,,,,,,,,,,,,,,,,,,0.84,0.512974977493,0.000920057296753,0.384003162384,1,a,586.553689957,,,,,,,,,,,,,,,,,,,,,,,,,,,,,,,,,2015_Jun_30_1148,60.1767869876,LearningTask,1,54,
200,w,200,,,,,,,,,,,,,,,,,1,0,1,0,0,2,2,0,,,,,,,,,,,,,,,,,,,,,,,,,,,,,w,1,None,0,,2.0,circlecyan.gif,stop,,,,,,,,0.384375810623,,,,,,,,,,,,,,,,,,,,,,,,1.92,0.513978004456,0.000939846038818,0.384375810623,1,w,589.557715893,,,,,,,,,,,,,,,,,,,,,,,,,,,,,,,,,2015_Jun_30_1148,60.1767869876,LearningTask,1,54,
200,s,-200,,,,,,,,,,,,,,,,,1,0,1,0,0,3,3,2,,,,,,,,,,,,,,,,,,,,,,,,,,,,,s,1,None,0,,1.0,trianglegreen.gif,go,,,,,,,,0.31768488884,,,,,,,,,,,,,,,,,,,,,,,,1.04,0.513487100601,0.000933885574341,0.31768488884,1,s,592.560917854,,,,,,,,,,,,,,,,,,,,,,,,,,,,,,,,,2015_Jun_30_1148,60.1767869876,LearningTask,1,54,
-200,a,-200,,,,,,,,,,,,,,,,,1,0,1,0,1,0,4,3,,,,,,,,,,,,,,,,,,,,,,,,,,,,,a,1,None,0,,2.0,linemagenta.gif,go,,,,,,,,0.567509174347,,,,,,,,,,,,,,,,,,,,,,,,2.12,0.513542890549,0.000988006591797,0.567509174347,1,a,595.564031839,,,,,,,,,,,,,,,,,,,,,,,,,,,,,,,,,2015_Jun_30_1148,60.1767869876,LearningTask,1,54,
-200,q,200,,,,,,,,,,,,,,,,,1,0,1,0,1,1,5,1,,,,,,,,,,,,,,,,,,,,,,,,,,,,,q,1,None,0,,4.0,invertedtriangleyellow.gif,go,,,,,,,,0.350286006927,,,,,,,,,,,,,,,,,,,,,,,,4.02,0.513735055923,0.00104188919067,0.350286006927,1,q,598.566978931,,,,,,,,,,,,,,,,,,,,,,,,,,,,,,,,,2015_Jun_30_1148,60.1767869876,LearningTask,1,54,
200,s,-200,,,,,,,,,,,,,,,,,1,0,1,0,1,2,6,2,,,,,,,,,,,,,,,,,,,,,,,,,,,,,s,1,None,0,,2.0,linemagenta.gif,go,,,,,,,,0.434041023254,,,,,,,,,,,,,,,,,,,,,,,,2.1,0.514461040497,0.000921010971069,0.434041023254,1,s,601.570439816,,,,,,,,,,,,,,,,,,,,,,,,,,,,,,,,,2015_Jun_30_1148,60.1767869876,LearningTask,1,54,
200,s,-200,,,,,,,,,,,,,,,,,1,0,1,0,1,3,7,2,,,,,,,,,,,,,,,,,,,,,,,,,,,,,s,1,None,0,,4.0,invertedtriangleyellow.gif,go,,,,,,,,0.401017904282,,,,,,,,,,,,,,,,,,,,,,,,3.81,0.513912200928,0.000916004180908,0.401017904282,1,s,604.573990822,,,,,,,,,,,,,,,,,,,,,,,,,,,,,,,,,2015_Jun_30_1148,60.1767869876,LearningTask,1,54,
-200,q,200,,,,,,,,,,,,,,,,,1,0,1,0,2,0,8,1,,,,,,,,,,,,,,,,,,,,,,,,,,,,,q,1,None,0,,0.5,diamondorange.gif,go,,,,,,,,0.38462305069,,,,,,,,,,,,,,,,,,,,,,,,0.47,0.513584852219,0.00115394592285,0.38462305069,1,q,607.577204943,,,,,,,,,,,,,,,,,,,,,,,,,,,,,,,,,2015_Jun_30_1148,60.1767869876,LearningTask,1,54,
-200,a,-200,,,,,,,,,,,,,,,,,1,0,1,0,2,1,9,3,,,,,,,,,,,,,,,,,,,,,,,,,,,,,a,1,None,0,,2.0,circlecyan.gif,stop,,,,,,,,0.350821018219,,,,,,,,,,,,,,,,,,,,,,,,2.23,0.514201164246,0.0441100597382,0.350821018219,1,a,610.580396891,,,,,,,,,,,,,,,,,,,,,,,,,,,,,,,,,2015_Jun_30_1148,60.1767869876,LearningTask,1,54,
200,w,200,,,,,,,,,,,,,,,,,1,0,1,0,2,2,10,0,,,,,,,,,,,,,,,,,,,,,,,,,,,,,w,1,None,0,,1.0,trianglegreen.gif,go,,,,,,,,0.334671020508,,,,,,,,,,,,,,,,,,,,,,,,0,0.514430999756,0.0330419540405,0.334671020508,1,w,613.583706856,,,,,,,,,,,,,,,,,,,,,,,,,,,,,,,,,2015_Jun_30_1148,60.1767869876,LearningTask,1,54,
200,w,200,,,,,,,,,,,,,,,,,1,0,1,0,2,3,11,0,,,,,,,,,,,,,,,,,,,,,,,,,,,,,w,1,None,0,,4.0,invertedtriangleyellow.gif,go,,,,,,,,0.351094007492,,,,,,,,,,,,,,,,,,,,,,,,3.78,0.514092206955,0.173785209656,0.351094007492,1,w,616.587026834,,,,,,,,,,,,,,,,,,,,,,,,,,,,,,,,,2015_Jun_30_1148,60.1767869876,LearningTask,1,54,
-200,q,200,,,,,,,,,,,,,,,,,1,0,1,0,3,0,12,1,,,,,,,,,,,,,,,,,,,,,,,,,,,,,q,1,None,0,,0.5,crossblue.gif,stop,,,,,,,,0.334407806396,,,,,,,,,,,,,,,,,,,,,,,,0.69,0.514591932297,0.0807459354401,0.334407806396,1,q,619.59056592,,,,,,,,,,,,,,,,,,,,,,,,,,,,,,,,,2015_Jun_30_1148,60.1767869876,LearningTask,1,54,
200,w,200,,,,,,,,,,,,,,,,,1,0,1,0,3,1,13,0,,,,,,,,,,,,,,,,,,,,,,,,,,,,,w,1,None,0,,4.0,hexagongray.gif,stop,,,,,,,,0.367739200592,,,,,,,,,,,,,,,,,,,,,,,,0,0.513988018036,0.0112340450287,0.367739200592,1,w,622.594360828,,,,,,,,,,,,,,,,,,,,,,,,,,,,,,,,,2015_Jun_30_1148,60.1767869876,LearningTask,1,54,
200,w,200,,,,,,,,,,,,,,,,,1,0,1,0,3,2,14,0,,,,,,,,,,,,,,,,,,,,,,,,,,,,,w,1,None,0,,4.0,hexagongray.gif,stop,,,,,,,,0.384833097458,,,,,,,,,,,,,,,,,,,,,,,,4.12,0.513272047043,0.000910043716431,0.384833097458,1,w,625.597421885,,,,,,,,,,,,,,,,,,,,,,,,,,,,,,,,,2015_Jun_30_1148,60.1767869876,LearningTask,1,54,
200,w,200,,,,,,,,,,,,,,,,,1,0,1,0,3,3,15,0,,,,,,,,,,,,,,,,,,,,,,,,,,,,,w,1,None,0,,4.0,invertedtriangleyellow.gif,go,,,,,,,,0.334268093109,,,,,,,,,,,,,,,,,,,,,,,,3.83,0.513381004333,0.00103902816772,0.334268093109,1,w,628.600557804,,,,,,,,,,,,,,,,,,,,,,,,,,,,,,,,,2015_Jun_30_1148,60.1767869876,LearningTask,1,54,
-200,a,-200,,,,,,,,,,,,,,,,,1,0,1,0,4,0,16,3,,,,,,,,,,,,,,,,,,,,,,,,,,,,,a,1,None,0,,0.5,crossblue.gif,stop,,,,,,,,0.350785017014,,,,,,,,,,,,,,,,,,,,,,,,0.42,0.514317989349,0.000904083251953,0.350785017014,1,a,631.604143858,,,,,,,,,,,,,,,,,,,,,,,,,,,,,,,,,2015_Jun_30_1148,60.1767869876,LearningTask,1,54,
-200,q,200,,,,,,,,,,,,,,,,,1,0,1,0,4,1,17,1,,,,,,,,,,,,,,,,,,,,,,,,,,,,,q,1,None,0,,0.5,crossblue.gif,stop,,,,,,,,0.367398023605,,,,,,,,,,,,,,,,,,,,,,,,0.72,0.514125108719,0.000929117202759,0.367398023605,1,q,634.607298851,,,,,,,,,,,,,,,,,,,,,,,,,,,,,,,,,2015_Jun_30_1148,60.1767869876,LearningTask,1,54,
-200,a,-200,,,,,,,,,,,,,,,,,1,0,1,0,4,2,18,3,,,,,,,,,,,,,,,,,,,,,,,,,,,,,a,1,None,0,,2.0,linemagenta.gif,go,,,,,,,,0.334221839905,,,,,,,,,,,,,,,,,,,,,,,,1.8,0.513857126236,0.0182521343231,0.334221839905,1,a,637.610414982,,,,,,,,,,,,,,,,,,,,,,,,,,,,,,,,,2015_Jun_30_1148,60.1767869876,LearningTask,1,54,
200,w,200,,,,,,,,,,,,,,,,,1,0,1,0,4,3,19,0,,,,,,,,,,,,,,,,,,,,,,,,,,,,,w,1,None,0,,4.0,hexagongray.gif,stop,,,,,,,,0.400949001312,,,,,,,,,,,,,,,,,,,,,,,,0,0.514599084854,0.000884056091309,0.400949001312,1,w,640.614975929,,,,,,,,,,,,,,,,,,,,,,,,,,,,,,,,,2015_Jun_30_1148,60.1767869876,LearningTask,1,54,
-200,a,-200,,,,,,,,,,,,,,,,,1,0,1,0,5,0,20,3,,,,,,,,,,,,,,,,,,,,,,,,,,,,,a,1,None,0,,2.0,circlecyan.gif,stop,,,,,,,,0.367102146149,,,,,,,,,,,,,,,,,,,,,,,,2.25,0.513370037079,0.00805711746216,0.367102146149,1,a,643.617429018,,,,,,,,,,,,,,,,,,,,,,,,,,,,,,,,,2015_Jun_30_1148,60.1767869876,LearningTask,1,54,
-200,q,200,,,,,,,,,,,,,,,,,1,0,1,0,5,1,21,1,,,,,,,,,,,,,,,,,,,,,,,,,,,,,q,1,None,0,,4.0,hexagongray.gif,stop,,,,,,,,0.35098695755,,,,,,,,,,,,,,,,,,,,,,,,3.84,0.514153003693,0.000962018966675,0.35098695755,1,q,646.620730877,,,,,,,,,,,,,,,,,,,,,,,,,,,,,,,,,2015_Jun_30_1148,60.1767869876,LearningTask,1,54,
200,s,-200,,,,,,,,,,,,,,,,,1,0,1,0,5,2,22,2,,,,,,,,,,,,,,,,,,,,,,,,,,,,,s,1,None,0,,0.5,diamondorange.gif,go,,,,,,,,0.367375135422,,,,,,,,,,,,,,,,,,,,,,,,0.72,0.51434803009,0.015949010849,0.367375135422,1,s,649.62408185,,,,,,,,,,,,,,,,,,,,,,,,,,,,,,,,,2015_Jun_30_1148,60.1767869876,LearningTask,1,54,
-200,q,200,,,,,,,,,,,,,,,,,1,0,1,0,5,3,23,1,,,,,,,,,,,,,,,,,,,,,,,,,,,,,q,1,None,0,,2.0,linemagenta.gif,go,,,,,,,,0.483803033829,,,,,,,,,,,,,,,,,,,,,,,,1.85,0.51433300972,0.000924110412598,0.483803033829,1,q,652.627858877,,,,,,,,,,,,,,,,,,,,,,,,,,,,,,,,,2015_Jun_30_1148,60.1767869876,LearningTask,1,54,
-200,q,200,,,,,,,,,,,,,,,,,1,0,1,0,6,0,24,1,,,,,,,,,,,,,,,,,,,,,,,,,,,,,q,1,None,0,,0.5,crossblue.gif,stop,,,,,,,,0.43369102478,,,,,,,,,,,,,,,,,,,,,,,,0.61,0.514362812042,0.000937938690186,0.43369102478,1,q,655.631093979,,,,,,,,,,,,,,,,,,,,,,,,,,,,,,,,,2015_Jun_30_1148,60.1767869876,LearningTask,1,54,
200,w,200,,,,,,,,,,,,,,,,,1,0,1,0,6,1,25,0,,,,,,,,,,,,,,,,,,,,,,,,,,,,,w,1,None,0,,4.0,invertedtriangleyellow.gif,go,,,,,,,,0.367501974106,,,,,,,,,,,,,,,,,,,,,,,,4.01,0.51388502121,0.000906944274902,0.367501974106,1,w,658.634210825,,,,,,,,,,,,,,,,,,,,,,,,,,,,,,,,,2015_Jun_30_1148,60.1767869876,LearningTask,1,54,
200,w,200,,,,,,,,,,,,,,,,,1,0,1,0,6,2,26,0,,,,,,,,,,,,,,,,,,,,,,,,,,,,,w,1,None,0,,2.0,circlecyan.gif,stop,,,,,,,,0.351076841354,,,,,,,,,,,,,,,,,,,,,,,,0,0.51419878006,0.000954866409302,0.351076841354,1,w,661.637365818,,,,,,,,,,,,,,,,,,,,,,,,,,,,,,,,,2015_Jun_30_1148,60.1767869876,LearningTask,1,54,
200,s,-200,,,,,,,,,,,,,,,,,1,0,1,0,6,3,27,2,,,,,,,,,,,,,,,,,,,,,,,,,,,,,s,1,None,0,,4.0,hexagongray.gif,stop,,,,,,,,0.367537975311,,,,,,,,,,,,,,,,,,,,,,,,3.78,0.514232158661,0.00094199180603,0.367537975311,1,s,664.640779018,,,,,,,,,,,,,,,,,,,,,,,,,,,,,,,,,2015_Jun_30_1148,60.1767869876,LearningTask,1,54,
200,s,-200,,,,,,,,,,,,,,,,,1,0,1,0,7,0,28,2,,,,,,,,,,,,,,,,,,,,,,,,,,,,,s,1,None,0,,2.0,circlecyan.gif,stop,,,,,,,,0.367281913757,,,,,,,,,,,,,,,,,,,,,,,,2.07,0.514397859573,0.000910043716431,0.367281913757,1,s,667.644444942,,,,,,,,,,,,,,,,,,,,,,,,,,,,,,,,,2015_Jun_30_1148,60.1767869876,LearningTask,1,54,
-200,a,-200,,,,,,,,,,,,,,,,,1,0,1,0,7,1,29,3,,,,,,,,,,,,,,,,,,,,,,,,,,,,,a,1,None,0,,4.0,hexagongray.gif,stop,,,,,,,,0.384442090988,,,,,,,,,,,,,,,,,,,,,,,,3.96,0.513915061951,0.00135493278503,0.384442090988,1,a,670.647875786,,,,,,,,,,,,,,,,,,,,,,,,,,,,,,,,,2015_Jun_30_1148,60.1767869876,LearningTask,1,54,
-200,q,200,,,,,,,,,,,,,,,,,1,0,1,0,7,2,30,1,,,,,,,,,,,,,,,,,,,,,,,,,,,,,q,1,None,0,,0.5,diamondorange.gif,go,,,,,,,,0.383702993393,,,,,,,,,,,,,,,,,,,,,,,,0.27,0.514117956161,0.000900983810425,0.383702993393,1,q,673.650999784,,,,,,,,,,,,,,,,,,,,,,,,,,,,,,,,,2015_Jun_30_1148,60.1767869876,LearningTask,1,54,
200,w,200,,,,,,,,,,,,,,,,,1,0,1,0,7,3,31,0,,,,,,,,,,,,,,,,,,,,,,,,,,,,,w,1,None,0,,0.5,diamondorange.gif,go,,,,,,,,0.317153930664,,,,,,,,,,,,,,,,,,,,,,,,0,0.513960123062,0.00110197067261,0.317153930664,1,w,676.654340982,,,,,,,,,,,,,,,,,,,,,,,,,,,,,,,,,2015_Jun_30_1148,60.1767869876,LearningTask,1,54,
200,s,-200,,,,,,,,,,,,,,,,,1,0,1,0,8,0,32,2,,,,,,,,,,,,,,,,,,,,,,,,,,,,,s,1,None,0,,2.0,linemagenta.gif,go,,,,,,,,0.417587995529,,,,,,,,,,,,,,,,,,,,,,,,1.82,0.514263868332,0.000900983810425,0.417587995529,1,s,679.657670975,,,,,,,,,,,,,,,,,,,,,,,,,,,,,,,,,2015_Jun_30_1148,60.1767869876,LearningTask,1,54,
-200,q,200,,,,,,,,,,,,,,,,,1,0,1,0,8,1,33,1,,,,,,,,,,,,,,,,,,,,,,,,,,,,,q,1,None,0,,0.5,crossblue.gif,stop,,,,,,,,0.367589950562,,,,,,,,,,,,,,,,,,,,,,,,0.37,0.513892173767,0.000910997390747,0.367589950562,1,q,682.66116786,,,,,,,,,,,,,,,,,,,,,,,,,,,,,,,,,2015_Jun_30_1148,60.1767869876,LearningTask,1,54,
-200,q,200,,,,,,,,,,,,,,,,,1,0,1,0,8,2,34,1,,,,,,,,,,,,,,,,,,,,,,,,,,,,,q,1,None,0,,0.5,diamondorange.gif,go,,,,,,,,0.350810050964,,,,,,,,,,,,,,,,,,,,,,,,0.67,0.514271020889,0.000920057296753,0.350810050964,1,q,685.664613962,,,,,,,,,,,,,,,,,,,,,,,,,,,,,,,,,2015_Jun_30_1148,60.1767869876,LearningTask,1,54,
200,s,-200,,,,,,,,,,,,,,,,,1,0,1,0,8,3,35,2,,,,,,,,,,,,,,,,,,,,,,,,,,,,,s,1,None,0,,2.0,circlecyan.gif,stop,,,,,,,,0.450926065445,,,,,,,,,,,,,,,,,,,,,,,,1.83,0.513917922974,0.00091290473938,0.450926065445,1,s,688.668051004,,,,,,,,,,,,,,,,,,,,,,,,,,,,,,,,,2015_Jun_30_1148,60.1767869876,LearningTask,1,54,
-200,a,-200,,,,,,,,,,,,,,,,,1,0,1,0,9,0,36,3,,,,,,,,,,,,,,,,,,,,,,,,,,,,,a,1,None,0,,2.0,linemagenta.gif,go,,,,,,,,0.333540916443,,,,,,,,,,,,,,,,,,,,,,,,2.08,0.513849973679,0.000981092453003,0.333540916443,1,a,691.671041965,,,,,,,,,,,,,,,,,,,,,,,,,,,,,,,,,2015_Jun_30_1148,60.1767869876,LearningTask,1,54,
200,w,200,,,,,,,,,,,,,,,,,1,0,1,0,9,1,37,0,,,,,,,,,,,,,,,,,,,,,,,,,,,,,w,1,None,0,,1.0,squarewhite.gif,stop,,,,,,,,0.367433071136,,,,,,,,,,,,,,,,,,,,,,,,0,0.514276027679,0.0251839160919,0.367433071136,1,w,694.67440486,,,,,,,,,,,,,,,,,,,,,,,,,,,,,,,,,2015_Jun_30_1148,60.1767869876,LearningTask,1,54,
-200,q,200,,,,,,,,,,,,,,,,,1,0,1,0,9,2,38,1,,,,,,,,,,,,,,,,,,,,,,,,,,,,,q,1,None,0,,0.5,diamondorange.gif,go,,,,,,,,0.334102869034,,,,,,,,,,,,,,,,,,,,,,,,0.69,0.514327049255,0.000884056091309,0.334102869034,1,q,697.677950859,,,,,,,,,,,,,,,,,,,,,,,,,,,,,,,,,2015_Jun_30_1148,60.1767869876,LearningTask,1,54,
-200,a,-200,,,,,,,,,,,,,,,,,1,0,1,0,9,3,39,3,,,,,,,,,,,,,,,,,,,,,,,,,,,,,a,1,None,0,,0.5,crossblue.gif,stop,,,,,,,,0.3674659729,,,,,,,,,,,,,,,,,,,,,,,,0.55,0.513899087906,0.000876903533936,0.3674659729,1,a,700.681454897,,,,,,,,,,,,,,,,,,,,,,,,,,,,,,,,,2015_Jun_30_1148,60.1767869876,LearningTask,1,54,
200,w,200,,,,,,,,,,,,,,,,,1,0,1,0,10,0,40,0,,,,,,,,,,,,,,,,,,,,,,,,,,,,,w,1,None,0,,2.0,circlecyan.gif,stop,,,,,,,,0.366935968399,,,,,,,,,,,,,,,,,,,,,,,,2.21,0.514503002167,0.00116181373596,0.366935968399,1,w,703.684840918,,,,,,,,,,,,,,,,,,,,,,,,,,,,,,,,,2015_Jun_30_1148,60.1767869876,LearningTask,1,54,
-200,a,-200,,,,,,,,,,,,,,,,,1,0,1,0,10,1,41,3,,,,,,,,,,,,,,,,,,,,,,,,,,,,,a,1,None,0,,2.0,linemagenta.gif,go,,,,,,,,0.367908000946,,,,,,,,,,,,,,,,,,,,,,,,2.05,0.513788938522,0.000892877578735,0.367908000946,1,a,706.68786788,,,,,,,,,,,,,,,,,,,,,,,,,,,,,,,,,2015_Jun_30_1148,60.1767869876,LearningTask,1,54,
200,s,-200,,,,,,,,,,,,,,,,,1,0,1,0,10,2,42,2,,,,,,,,,,,,,,,,,,,,,,,,,,,,,s,1,None,0,,1.0,trianglegreen.gif,go,,,,,,,,0.36719918251,,,,,,,,,,,,,,,,,,,,,,,,1.14,0.514393091202,0.00911903381348,0.36719918251,1,s,709.691489935,,,,,,,,,,,,,,,,,,,,,,,,,,,,,,,,,2015_Jun_30_1148,60.1767869876,LearningTask,1,54,
-200,q,200,,,,,,,,,,,,,,,,,1,0,1,0,10,3,43,1,,,,,,,,,,,,,,,,,,,,,,,,,,,,,q,1,None,0,,2.0,linemagenta.gif,go,,,,,,,,0.36803984642,,,,,,,,,,,,,,,,,,,,,,,,2.19,0.513695001602,0.000940799713135,0.36803984642,1,q,712.694445848,,,,,,,,,,,,,,,,,,,,,,,,,,,,,,,,,2015_Jun_30_1148,60.1767869876,LearningTask,1,54,
-200,a,-200,,,,,,,,,,,,,,,,,1,0,1,0,11,0,44,3,,,,,,,,,,,,,,,,,,,,,,,,,,,,,a,1,None,0,,2.0,linemagenta.gif,go,,,,,,,,0.384042024612,,,,,,,,,,,,,,,,,,,,,,,,1.91,0.514512062073,0.00089693069458,0.384042024612,1,a,715.698284864,,,,,,,,,,,,,,,,,,,,,,,,,,,,,,,,,2015_Jun_30_1148,60.1767869876,LearningTask,1,54,
-200,a,-200,,,,,,,,,,,,,,,,,1,0,1,0,11,1,45,3,,,,,,,,,,,,,,,,,,,,,,,,,,,,,a,1,None,0,,4.0,hexagongray.gif,stop,,,,,,,,0.384526014328,,,,,,,,,,,,,,,,,,,,,,,,4.24,0.513835906982,0.00089693069458,0.384526014328,1,a,718.701674938,,,,,,,,,,,,,,,,,,,,,,,,,,,,,,,,,2015_Jun_30_1148,60.1767869876,LearningTask,1,54,
200,w,200,,,,,,,,,,,,,,,,,1,0,1,0,11,2,46,0,,,,,,,,,,,,,,,,,,,,,,,,,,,,,w,1,None,0,,0.5,diamondorange.gif,go,,,,,,,,0.383765935898,,,,,,,,,,,,,,,,,,,,,,,,0,0.514168024063,0.000910997390747,0.383765935898,1,w,721.704649925,,,,,,,,,,,,,,,,,,,,,,,,,,,,,,,,,2015_Jun_30_1148,60.1767869876,LearningTask,1,54,
-200,q,200,,,,,,,,,,,,,,,,,1,0,1,0,11,3,47,1,,,,,,,,,,,,,,,,,,,,,,,,,,,,,q,1,None,0,,1.0,trianglegreen.gif,go,,,,,,,,0.334575891495,,,,,,,,,,,,,,,,,,,,,,,,1.21,0.514621973038,0.000884056091309,0.334575891495,1,q,724.70773387,,,,,,,,,,,,,,,,,,,,,,,,,,,,,,,,,2015_Jun_30_1148,60.1767869876,LearningTask,1,54,
-200,q,200,,,,,,,,,,,,,,,,,1,0,1,0,12,0,48,1,,,,,,,,,,,,,,,,,,,,,,,,,,,,,q,1,None,0,,0.5,crossblue.gif,stop,,,,,,,,0.417420148849,,,,,,,,,,,,,,,,,,,,,,,,0.58,0.514629125595,0.000884056091309,0.417420148849,1,q,727.711604834,,,,,,,,,,,,,,,,,,,,,,,,,,,,,,,,,2015_Jun_30_1148,60.1767869876,LearningTask,1,54,
-200,q,200,,,,,,,,,,,,,,,,,1,0,1,0,12,1,49,1,,,,,,,,,,,,,,,,,,,,,,,,,,,,,q,1,None,0,,4.0,invertedtriangleyellow.gif,go,,,,,,,,0.350980997086,,,,,,,,,,,,,,,,,,,,,,,,3.85,0.514099121094,0.00121712684631,0.350980997086,1,q,730.714773893,,,,,,,,,,,,,,,,,,,,,,,,,,,,,,,,,2015_Jun_30_1148,60.1767869876,LearningTask,1,54,
200,w,200,,,,,,,,,,,,,,,,,1,0,1,0,12,2,50,0,,,,,,,,,,,,,,,,,,,,,,,,,,,,,w,1,None,0,,1.0,trianglegreen.gif,go,,,,,,,,0.334307193756,,,,,,,,,,,,,,,,,,,,,,,,0.9,0.514225006104,0.000914096832275,0.334307193756,1,w,733.718319893,,,,,,,,,,,,,,,,,,,,,,,,,,,,,,,,,2015_Jun_30_1148,60.1767869876,LearningTask,1,54,
-200,a,-200,,,,,,,,,,,,,,,,,1,0,1,0,12,3,51,3,,,,,,,,,,,,,,,,,,,,,,,,,,,,,a,1,None,0,0.196267127991,2.0,linemagenta.gif,go,,,,,,,,0.350269079208,,,,,,,,,,,,,,,,,,,,,,,,0,0.513916969299,0.000892877578735,0.334947824478,0,q,736.722178936,,,0,0.515305995941,0.000966787338257,0.350269079208,1,a,739.72487092,,,,,,,,,,,,,,,,,,,,,,,,2015_Jun_30_1148,60.1767869876,LearningTask,1,54,
-200,a,-200,,,,,,,,,,,,,,,,,1,0,1,0,13,0,52,3,,,,,,,,,,,,,,,,,,,,,,,,,,,,,a,1,None,0,,2.0,circlecyan.gif,stop,,,,,,,,0.35057091713,,,,,,,,,,,,,,,,,,,,,,,,1.81,0.513705968857,0.026291847229,0.35057091713,1,a,742.728123903,,,,,,,,,,,,,,,,,,,,,,,,,,,,,,,,,2015_Jun_30_1148,60.1767869876,LearningTask,1,54,
200,w,200,,,,,,,,,,,,,,,,,1,0,1,0,13,1,53,0,,,,,,,,,,,,,,,,,,,,,,,,,,,,,w,1,None,0,,0.5,crossblue.gif,stop,,,,,,,,0.350531101227,,,,,,,,,,,,,,,,,,,,,,,,0.35,0.514589071274,0.000893115997314,0.350531101227,1,w,745.731884956,,,,,,,,,,,,,,,,,,,,,,,,,,,,,,,,,2015_Jun_30_1148,60.1767869876,LearningTask,1,54,
200,s,-200,,,,,,,,,,,,,,,,,1,0,1,0,13,2,54,2,,,,,,,,,,,,,,,,,,,,,,,,,,,,,s,1,a,0,0.97589302063,4.0,invertedtriangleyellow.gif,go,,,,,,,,0.383772134781,,,,,,,,,,,,,,,,,,,,,,,,0,0.514153003693,0.000981092453003,0.383772134781,1,s,748.735235929,,,,,,,,,,,,,,,,,,,,,,,,,,,,,,,,,2015_Jun_30_1148,60.1767869876,LearningTask,1,54,
-200,q,200,,,,,,,,,,,,,,,,,1,0,1,0,13,3,55,1,,,,,,,,,,,,,,,,,,,,,,,,,,,,,q,1,None,0,,2.0,circlecyan.gif,stop,,,,,,,,0.367379903793,,,,,,,,,,,,,,,,,,,,,,,,2.17,0.513641834259,0.00105094909668,0.367379903793,1,q,751.738667965,,,,,,,,,,,,,,,,,,,,,,,,,,,,,,,,,2015_Jun_30_1148,60.1767869876,LearningTask,1,54,
200,s,-200,,,,,,,,,,,,,,,,,1,0,1,0,14,0,56,2,,,,,,,,,,,,,,,,,,,,,,,,,,,,,s,1,None,0,,2.0,linemagenta.gif,go,,,,,,,,0.40095281601,,,,,,,,,,,,,,,,,,,,,,,,1.79,0.513525009155,0.000921964645386,0.40095281601,1,s,754.741520882,,,,,,,,,,,,,,,,,,,,,,,,,,,,,,,,,2015_Jun_30_1148,60.1767869876,LearningTask,1,54,
-200,q,200,,,,,,,,,,,,,,,,,1,0,1,0,14,1,57,1,,,,,,,,,,,,,,,,,,,,,,,,,,,,,q,1,None,0,,0.5,crossblue.gif,stop,,,,,,,,0.467669963837,,,,,,,,,,,,,,,,,,,,,,,,0.41,0.51428604126,0.00089693069458,0.467669963837,1,q,757.744952917,,,,,,,,,,,,,,,,,,,,,,,,,,,,,,,,,2015_Jun_30_1148,60.1767869876,LearningTask,1,54,
200,s,-200,,,,,,,,,,,,,,,,,1,0,1,0,14,2,58,2,,,,,,,,,,,,,,,,,,,,,,,,,,,,,s,1,None,0,,2.0,linemagenta.gif,go,,,,,,,,0.400848865509,,,,,,,,,,,,,,,,,,,,,,,,0,0.514052152634,0.0417189598083,0.400848865509,1,s,760.748540878,,,,,,,,,,,,,,,,,,,,,,,,,,,,,,,,,2015_Jun_30_1148,60.1767869876,LearningTask,1,54,
-200,a,-200,,,,,,,,,,,,,,,,,1,0,1,0,14,3,59,3,,,,,,,,,,,,,,,,,,,,,,,,,,,,,a,1,None,0,,2.0,linemagenta.gif,go,,,,,,,,0.400566101074,,,,,,,,,,,,,,,,,,,,,,,,1.75,0.514619112015,0.000899076461792,0.400566101074,1,a,763.751474857,,,,,,,,,,,,,,,,,,,,,,,,,,,,,,,,,2015_Jun_30_1148,60.1767869876,LearningTask,1,54,
-200,a,-200,,,,,,,,,,,,,,,,,1,0,1,0,15,0,60,3,,,,,,,,,,,,,,,,,,,,,,,,,,,,,a,1,None,0,,0.5,diamondorange.gif,go,,,,,,,,0.384021043777,,,,,,,,,,,,,,,,,,,,,,,,0.66,0.514647960663,0.000905990600586,0.384021043777,1,a,766.755395889,,,,,,,,,,,,,,,,,,,,,,,,,,,,,,,,,2015_Jun_30_1148,60.1767869876,LearningTask,1,54,
-200,q,200,,,,,,,,,,,,,,,,,1,0,1,0,15,1,61,1,,,,,,,,,,,,,,,,,,,,,,,,,,,,,q,1,None,0,,2.0,circlecyan.gif,stop,,,,,,,,0.368051052094,,,,,,,,,,,,,,,,,,,,,,,,0,0.513726949692,0.000885009765625,0.368051052094,1,q,769.758210897,,,,,,,,,,,,,,,,,,,,,,,,,,,,,,,,,2015_Jun_30_1148,60.1767869876,LearningTask,1,54,
-200,q,200,,,,,,,,,,,,,,,,,1,0,1,0,15,2,62,1,,,,,,,,,,,,,,,,,,,,,,,,,,,,,q,1,q,1,0.37425494194,4.0,invertedtriangleyellow.gif,go,,,,,,,,0.38415312767,,,,,,,,,,,,,,,,,,,,,,,,3.98,0.514019966125,0.000946044921875,0.38415312767,1,q,772.761765003,,,,,,,,,,,,,,,,,,,,,,,,,,,,,,,,,2015_Jun_30_1148,60.1767869876,LearningTask,1,54,
-200,a,-200,,,,,,,,,,,,,,,,,1,0,1,0,15,3,63,3,,,,,,,,,,,,,,,,,,,,,,,,,,,,,a,1,None,0,,4.0,invertedtriangleyellow.gif,go,,,,,,,,0.334616184235,,,,,,,,,,,,,,,,,,,,,,,,3.93,0.514209985733,0.000909090042114,0.334616184235,1,a,775.765519857,,,,,,,,,,,,,,,,,,,,,,,,,,,,,,,,,2015_Jun_30_1148,60.1767869876,LearningTask,1,54,
200,w,200,,,,,,,,,,,,,,,,,1,0,1,0,16,0,64,0,,,,,,,,,,,,,,,,,,,,,,,,,,,,,w,1,None,0,,2.0,circlecyan.gif,stop,,,,,,,,0.351203203201,,,,,,,,,,,,,,,,,,,,,,,,1.89,0.51352596283,0.000911951065063,0.351203203201,1,w,778.768333912,,,,,,,,,,,,,,,,,,,,,,,,,,,,,,,,,2015_Jun_30_1148,60.1767869876,LearningTask,1,54,
200,s,-200,,,,,,,,,,,,,,,,,1,0,1,0,16,1,65,2,,,,,,,,,,,,,,,,,,,,,,,,,,,,,s,1,None,0,,1.0,squarewhite.gif,stop,,,,,,,,0.367693901062,,,,,,,,,,,,,,,,,,,,,,,,1.23,0.514342069626,0.000920057296753,0.367693901062,1,s,781.772305965,,,,,,,,,,,,,,,,,,,,,,,,,,,,,,,,,2015_Jun_30_1148,60.1767869876,LearningTask,1,54,
200,s,-200,,,,,,,,,,,,,,,,,1,0,1,0,16,2,66,2,,,,,,,,,,,,,,,,,,,,,,,,,,,,,s,1,None,0,,2.0,linemagenta.gif,go,,,,,,,,0.383849859238,,,,,,,,,,,,,,,,,,,,,,,,1.98,0.514047145844,0.000894069671631,0.383849859238,1,s,784.775450945,,,,,,,,,,,,,,,,,,,,,,,,,,,,,,,,,2015_Jun_30_1148,60.1767869876,LearningTask,1,54,
-200,a,-200,,,,,,,,,,,,,,,,,1,0,1,0,16,3,67,3,,,,,,,,,,,,,,,,,,,,,,,,,,,,,a,1,None,0,,0.5,crossblue.gif,stop,,,,,,,,0.450773954391,,,,,,,,,,,,,,,,,,,,,,,,0.33,0.514133930206,0.000897884368896,0.450773954391,1,a,787.778585911,,,,,,,,,,,,,,,,,,,,,,,,,,,,,,,,,2015_Jun_30_1148,60.1767869876,LearningTask,1,54,
200,w,200,,,,,,,,,,,,,,,,,1,0,1,0,17,0,68,0,,,,,,,,,,,,,,,,,,,,,,,,,,,,,w,1,None,0,,4.0,hexagongray.gif,stop,,,,,,,,0.484105825424,,,,,,,,,,,,,,,,,,,,,,,,4.11,0.514294147491,0.00137400627136,0.484105825424,1,w,790.781852961,,,,,,,,,,,,,,,,,,,,,,,,,,,,,,,,,2015_Jun_30_1148,60.1767869876,LearningTask,1,54,
200,s,-200,,,,,,,,,,,,,,,,,1,0,1,0,17,1,69,2,,,,,,,,,,,,,,,,,,,,,,,,,,,,,s,1,None,0,,1.0,trianglegreen.gif,go,,,,,,,,0.384375810623,,,,,,,,,,,,,,,,,,,,,,,,1.22,0.514410972595,0.000908136367798,0.384375810623,1,s,793.785334826,,,,,,,,,,,,,,,,,,,,,,,,,,,,,,,,,2015_Jun_30_1148,60.1767869876,LearningTask,1,54,
200,s,-200,,,,,,,,,,,,,,,,,1,0,1,0,17,2,70,2,,,,,,,,,,,,,,,,,,,,,,,,,,,,,s,1,None,0,,4.0,invertedtriangleyellow.gif,go,,,,,,,,0.383975982666,,,,,,,,,,,,,,,,,,,,,,,,4.1,0.514091968536,0.000900983810425,0.383975982666,1,s,796.788921833,,,,,,,,,,,,,,,,,,,,,,,,,,,,,,,,,2015_Jun_30_1148,60.1767869876,LearningTask,1,54,
-200,a,-200,,,,,,,,,,,,,,,,,1,0,1,0,17,3,71,3,,,,,,,,,,,,,,,,,,,,,,,,,,,,,a,1,None,0,,1.0,trianglegreen.gif,go,,,,,,,,0.367932081223,,,,,,,,,,,,,,,,,,,,,,,,0,0.513432025909,0.000958919525146,0.367932081223,1,a,799.792272806,,,,,,,,,,,,,,,,,,,,,,,,,,,,,,,,,2015_Jun_30_1148,60.1767869876,LearningTask,1,54,
-200,q,200,,,,,,,,,,,,,,,,,1,0,1,0,18,0,72,1,,,,,,,,,,,,,,,,,,,,,,,,,,,,,q,1,None,0,,4.0,invertedtriangleyellow.gif,go,,,,,,,,0.367262840271,,,,,,,,,,,,,,,,,,,,,,,,3.78,0.513951063156,0.000911951065063,0.367262840271,1,q,802.795516014,,,,,,,,,,,,,,,,,,,,,,,,,,,,,,,,,2015_Jun_30_1148,60.1767869876,LearningTask,1,54,
200,w,200,,,,,,,,,,,,,,,,,1,0,1,0,18,1,73,0,,,,,,,,,,,,,,,,,,,,,,,,,,,,,w,1,None,0,,0.5,crossblue.gif,stop,,,,,,,,0.401100158691,,,,,,,,,,,,,,,,,,,,,,,,0,0.514200210571,0.000924110412598,0.401100158691,1,w,805.798690796,,,,,,,,,,,,,,,,,,,,,,,,,,,,,,,,,2015_Jun_30_1148,60.1767869876,LearningTask,1,54,
200,s,-200,,,,,,,,,,,,,,,,,1,0,1,0,18,2,74,2,,,,,,,,,,,,,,,,,,,,,,,,,,,,,s,1,None,0,,1.0,squarewhite.gif,stop,,,,,,,,0.383980035782,,,,,,,,,,,,,,,,,,,,,,,,0.82,0.513870000839,0.00101613998413,0.383980035782,1,s,808.802050829,,,,,,,,,,,,,,,,,,,,,,,,,,,,,,,,,2015_Jun_30_1148,60.1767869876,LearningTask,1,54,
-200,q,200,,,,,,,,,,,,,,,,,1,0,1,0,18,3,75,1,,,,,,,,,,,,,,,,,,,,,,,,,,,,,q,1,None,0,,1.0,trianglegreen.gif,go,,,,,,,,0.351102113724,,,,,,,,,,,,,,,,,,,,,,,,0.84,0.514300107956,0.000901937484741,0.351102113724,1,q,811.805878878,,,,,,,,,,,,,,,,,,,,,,,,,,,,,,,,,2015_Jun_30_1148,60.1767869876,LearningTask,1,54,
200,s,-200,,,,,,,,,,,,,,,,,1,0,1,0,19,0,76,2,,,,,,,,,,,,,,,,,,,,,,,,,,,,,s,1,None,0,,4.0,invertedtriangleyellow.gif,go,,,,,,,,0.36775302887,,,,,,,,,,,,,,,,,,,,,,,,3.76,0.513554096222,0.000914096832275,0.36775302887,1,s,814.808779955,,,,,,,,,,,,,,,,,,,,,,,,,,,,,,,,,2015_Jun_30_1148,60.1767869876,LearningTask,1,54,
-200,q,200,,,,,,,,,,,,,,,,,1,0,1,0,19,1,77,1,,,,,,,,,,,,,,,,,,,,,,,,,,,,,q,1,None,0,,2.0,linemagenta.gif,go,,,,,,,,0.400334119797,,,,,,,,,,,,,,,,,,,,,,,,2.0,0.514564990997,0.000931024551392,0.400334119797,1,q,817.812008858,,,,,,,,,,,,,,,,,,,,,,,,,,,,,,,,,2015_Jun_30_1148,60.1767869876,LearningTask,1,54,
200,w,200,,,,,,,,,,,,,,,,,1,0,1,0,19,2,78,0,,,,,,,,,,,,,,,,,,,,,,,,,,,,,w,1,None,0,,4.0,hexagongray.gif,stop,,,,,,,,0.401059865952,,,,,,,,,,,,,,,,,,,,,,,,0,0.514479160309,0.000898122787476,0.401059865952,1,w,820.815384865,,,,,,,,,,,,,,,,,,,,,,,,,,,,,,,,,2015_Jun_30_1148,60.1767869876,LearningTask,1,54,
-200,a,-200,,,,,,,,,,,,,,,,,1,0,1,0,19,3,79,3,,,,,,,,,,,,,,,,,,,,,,,,,,,,,a,1,None,0,,1.0,squarewhite.gif,stop,,,,,,,,0.317631959915,,,,,,,,,,,,,,,,,,,,,,,,0,0.514518976212,0.00090503692627,0.317631959915,1,a,823.819622993,,,,,,,,,,,,,,,,,,,,,,,,,,,,,,,,,2015_Jun_30_1148,60.1767869876,LearningTask,1,54,
-200,a,-200,,,,,,,,,,,,,,,,,1,0,1,0,20,0,80,3,,,,,,,,,,,,,,,,,,,,,,,,,,,,,a,1,None,0,,2.0,circlecyan.gif,stop,,,,,,,,0.350960969925,,,,,,,,,,,,,,,,,,,,,,,,0,0.513355970383,0.000893831253052,0.350960969925,1,a,826.822088957,,,,,,,,,,,,,,,,,,,,,,,,,,,,,,,,,2015_Jun_30_1148,60.1767869876,LearningTask,1,54,
200,w,200,,,,,,,,,,,,,,,,,1,0,1,0,20,1,81,0,,,,,,,,,,,,,,,,,,,,,,,,,,,,,w,1,None,0,,0.5,diamondorange.gif,go,,,,,,,,0.401087999344,,,,,,,,,,,,,,,,,,,,,,,,0.45,0.514009952545,0.000988960266113,0.401087999344,1,w,829.825809956,,,,,,,,,,,,,,,,,,,,,,,,,,,,,,,,,2015_Jun_30_1148,60.1767869876,LearningTask,1,54,
200,s,-200,,,,,,,,,,,,,,,,,1,0,1,0,20,2,82,2,,,,,,,,,,,,,,,,,,,,,,,,,,,,,s,1,None,0,,1.0,trianglegreen.gif,go,,,,,,,,0.384193897247,,,,,,,,,,,,,,,,,,,,,,,,0,0.51385807991,0.000887155532837,0.384193897247,1,s,832.829477787,,,,,,,,,,,,,,,,,,,,,,,,,,,,,,,,,2015_Jun_30_1148,60.1767869876,LearningTask,1,54,
200,w,200,,,,,,,,,,,,,,,,,1,0,1,0,20,3,83,0,,,,,,,,,,,,,,,,,,,,,,,,,,,,,w,1,None,0,,4.0,invertedtriangleyellow.gif,go,,,,,,,,0.350412130356,,,,,,,,,,,,,,,,,,,,,,,,3.89,0.513793945312,0.000902891159058,0.350412130356,1,w,835.83228302,,,,,,,,,,,,,,,,,,,,,,,,,,,,,,,,,2015_Jun_30_1148,60.1767869876,LearningTask,1,54,
200,w,200,,,,,,,,,,,,,,,,,1,0,1,0,21,0,84,0,,,,,,,,,,,,,,,,,,,,,,,,,,,,,w,1,None,0,,2.0,circlecyan.gif,stop,,,,,,,,0.367594003677,,,,,,,,,,,,,,,,,,,,,,,,1.77,0.514134168625,0.000976085662842,0.367594003677,1,w,838.835445881,,,,,,,,,,,,,,,,,,,,,,,,,,,,,,,,,2015_Jun_30_1148,60.1767869876,LearningTask,1,54,
-200,a,-200,,,,,,,,,,,,,,,,,1,0,1,0,21,1,85,3,,,,,,,,,,,,,,,,,,,,,,,,,,,,,a,1,None,0,,1.0,squarewhite.gif,stop,,,,,,,,0.417843103409,,,,,,,,,,,,,,,,,,,,,,,,1.08,0.514497041702,0.000891923904419,0.417843103409,1,a,841.839108944,,,,,,,,,,,,,,,,,,,,,,,,,,,,,,,,,2015_Jun_30_1148,60.1767869876,LearningTask,1,54,
200,s,-200,,,,,,,,,,,,,,,,,1,0,1,0,21,2,86,2,,,,,,,,,,,,,,,,,,,,,,,,,,,,,s,1,None,0,,4.0,hexagongray.gif,stop,,,,,,,,0.384682893753,,,,,,,,,,,,,,,,,,,,,,,,3.87,0.513961076736,0.000895023345947,0.384682893753,1,s,844.842115879,,,,,,,,,,,,,,,,,,,,,,,,,,,,,,,,,2015_Jun_30_1148,60.1767869876,LearningTask,1,54,
200,s,-200,,,,,,,,,,,,,,,,,1,0,1,0,21,3,87,2,,,,,,,,,,,,,,,,,,,,,,,,,,,,,s,1,None,0,,4.0,hexagongray.gif,stop,,,,,,,,0.383590936661,,,,,,,,,,,,,,,,,,,,,,,,4.08,0.514913082123,0.00107192993164,0.383590936661,1,s,847.846119881,,,,,,,,,,,,,,,,,,,,,,,,,,,,,,,,,2015_Jun_30_1148,60.1767869876,LearningTask,1,54,
-200,q,200,,,,,,,,,,,,,,,,,1,0,1,0,22,0,88,1,,,,,,,,,,,,,,,,,,,,,,,,,,,,,q,1,None,0,,0.5,crossblue.gif,stop,,,,,,,,0.434262037277,,,,,,,,,,,,,,,,,,,,,,,,0.38,0.513644933701,0.0011260509491,0.434262037277,1,q,850.849108934,,,,,,,,,,,,,,,,,,,,,,,,,,,,,,,,,2015_Jun_30_1148,60.1767869876,LearningTask,1,54,
-200,q,200,,,,,,,,,,,,,,,,,1,0,1,0,22,1,89,1,,,,,,,,,,,,,,,,,,,,,,,,,,,,,q,1,None,0,,0.5,crossblue.gif,stop,,,,,,,,0.417577028275,,,,,,,,,,,,,,,,,,,,,,,,0.34,0.514131069183,0.000878095626831,0.417577028275,1,q,853.852373838,,,,,,,,,,,,,,,,,,,,,,,,,,,,,,,,,2015_Jun_30_1148,60.1767869876,LearningTask,1,54,
200,s,-200,,,,,,,,,,,,,,,,,1,0,1,0,22,2,90,2,,,,,,,,,,,,,,,,,,,,,,,,,,,,,s,1,None,0,,4.0,invertedtriangleyellow.gif,go,,,,,,,,0.384348869324,,,,,,,,,,,,,,,,,,,,,,,,4.14,0.514233827591,0.000999927520752,0.384348869324,1,s,856.855726004,,,,,,,,,,,,,,,,,,,,,,,,,,,,,,,,,2015_Jun_30_1148,60.1767869876,LearningTask,1,54,
-200,a,-200,,,,,,,,,,,,,,,,,1,0,1,0,22,3,91,3,,,,,,,,,,,,,,,,,,,,,,,,,,,,,a,1,None,0,,0.5,crossblue.gif,stop,,,,,,,,0.384346008301,,,,,,,,,,,,,,,,,,,,,,,,0.71,0.514111995697,0.000882863998413,0.384346008301,1,a,859.858924866,,,,,,,,,,,,,,,,,,,,,,,,,,,,,,,,,2015_Jun_30_1148,60.1767869876,LearningTask,1,54,
200,w,200,,,,,,,,,,,,,,,,,1,0,1,0,23,0,92,0,,,,,,,,,,,,,,,,,,,,,,,,,,,,,w,1,None,0,,1.0,trianglegreen.gif,go,,,,,,,,0.451099872589,,,,,,,,,,,,,,,,,,,,,,,,1.19,0.51435303688,0.00090503692627,0.451099872589,1,w,862.862882853,,,,,,,,,,,,,,,,,,,,,,,,,,,,,,,,,2015_Jun_30_1148,60.1767869876,LearningTask,1,54,
200,s,-200,,,,,,,,,,,,,,,,,1,0,1,0,23,1,93,2,,,,,,,,,,,,,,,,,,,,,,,,,,,,,s,1,None,0,,2.0,linemagenta.gif,go,,,,,,,,0.383627891541,,,,,,,,,,,,,,,,,,,,,,,,1.94,0.514034986496,0.000931024551392,0.383627891541,1,s,865.865803957,,,,,,,,,,,,,,,,,,,,,,,,,,,,,,,,,2015_Jun_30_1148,60.1767869876,LearningTask,1,54,
200,s,-200,,,,,,,,,,,,,,,,,1,0,1,0,23,2,94,2,,,,,,,,,,,,,,,,,,,,,,,,,,,,,s,1,None,0,,2.0,linemagenta.gif,go,,,,,,,,0.384875059128,,,,,,,,,,,,,,,,,,,,,,,,2.0,0.51433300972,0.000879049301147,0.384875059128,1,s,868.869095802,,,,,,,,,,,,,,,,,,,,,,,,,,,,,,,,,2015_Jun_30_1148,60.1767869876,LearningTask,1,54,
200,s,-200,,,,,,,,,,,,,,,,,1,0,1,0,23,3,95,2,,,,,,,,,,,,,,,,,,,,,,,,,,,,,s,1,None,0,,4.0,invertedtriangleyellow.gif,go,,,,,,,,0.384305000305,,,,,,,,,,,,,,,,,,,,,,,,4.03,0.514174938202,0.000942945480347,0.384305000305,1,s,871.873245955,,,,,,,,,,,,,,,,,,,,,,,,,,,,,,,,,2015_Jun_30_1148,60.1767869876,LearningTask,1,54,
200,w,200,,,,,,,,,,,,,,,,,1,0,1,0,24,0,96,0,,,,,,,,,,,,,,,,,,,,,,,,,,,,,w,1,None,0,,1.0,squarewhite.gif,stop,,,,,,,,0.400241851807,,,,,,,,,,,,,,,,,,,,,,,,1.17,0.513604879379,0.000892877578735,0.400241851807,1,w,874.875608921,,,,,,,,,,,,,,,,,,,,,,,,,,,,,,,,,2015_Jun_30_1148,60.1767869876,LearningTask,1,54,
-200,a,-200,,,,,,,,,,,,,,,,,1,0,1,0,24,1,97,3,,,,,,,,,,,,,,,,,,,,,,,,,,,,,a,1,None,0,,2.0,circlecyan.gif,stop,,,,,,,,0.384266138077,,,,,,,,,,,,,,,,,,,,,,,,1.95,0.514435052872,0.000893115997314,0.384266138077,1,a,877.879784822,,,,,,,,,,,,,,,,,,,,,,,,,,,,,,,,,2015_Jun_30_1148,60.1767869876,LearningTask,1,54,
-200,a,-200,,,,,,,,,,,,,,,,,1,0,1,0,24,2,98,3,,,,,,,,,,,,,,,,,,,,,,,,,,,,,a,1,None,0,,0.5,diamondorange.gif,go,,,,,,,,0.401103973389,,,,,,,,,,,,,,,,,,,,,,,,0.61,0.513543128967,0.000886917114258,0.401103973389,1,a,880.883189917,,,,,,,,,,,,,,,,,,,,,,,,,,,,,,,,,2015_Jun_30_1148,60.1767869876,LearningTask,1,54,
200,w,200,,,,,,,,,,,,,,,,,1,0,1,0,24,3,99,0,,,,,,,,,,,,,,,,,,,,,,,,,,,,,w,1,None,0,,0.5,crossblue.gif,stop,,,,,,,,0.400772094727,,,,,,,,,,,,,,,,,,,,,,,,0.57,0.513799905777,0.000902891159058,0.400772094727,1,w,883.886026859,,,,,,,,,,,,,,,,,,,,,,,,,,,,,,,,,2015_Jun_30_1148,60.1767869876,LearningTask,1,54,
,,,,,,,,,,,,,,,,,,,1,0,1,0,,,,,,,,,,,,,,,,,,,,,,,,,,,,,,,,,,,,,,,,,,,,,,,,,,,,,,,,,,,,,,,,,,,,,,,,,,,,,,,9,16.6370968819,,,,,,,,,,,,,,,,,,,,,,,,,,,,,,,2015_Jun_30_1148,60.1767869876,LearningTask,1,54,
-200,q,200,,,,,,,,,,,,,,,,,2,0,2,0,0,0,0,1,,,,,,,,,,,,,,,,,,,,,,,,,,,,,q,1,None,0,,0.5,diamondorange.gif,go,,,,,,,,0.434252023697,,,,,,,,,,,,,,,,,,,,,,,,0.62,0.512070894241,0.000979900360107,0.434252023697,1,q,904.209131956,,,,,,,,,,,,,,,,,,,,,,,,,,,,,,,,,2015_Jun_30_1148,60.1767869876,LearningTask,1,54,
-200,a,-200,,,,,,,,,,,,,,,,,2,0,2,0,0,1,1,3,,,,,,,,,,,,,,,,,,,,,,,,,,,,,a,1,None,0,,1.0,trianglegreen.gif,go,,,,,,,,0.384006023407,,,,,,,,,,,,,,,,,,,,,,,,1.1,0.51374912262,0.000913143157959,0.384006023407,1,a,907.212042809,,,,,,,,,,,,,,,,,,,,,,,,,,,,,,,,,2015_Jun_30_1148,60.1767869876,LearningTask,1,54,
200,w,200,,,,,,,,,,,,,,,,,2,0,2,0,0,2,2,0,,,,,,,,,,,,,,,,,,,,,,,,,,,,,w,1,None,0,,1.0,squarewhite.gif,stop,,,,,,,,0.350827217102,,,,,,,,,,,,,,,,,,,,,,,,1.15,0.5140209198,0.000874042510986,0.350827217102,1,w,910.215282917,,,,,,,,,,,,,,,,,,,,,,,,,,,,,,,,,2015_Jun_30_1148,60.1767869876,LearningTask,1,54,
-200,a,-200,,,,,,,,,,,,,,,,,2,0,2,0,0,3,3,3,,,,,,,,,,,,,,,,,,,,,,,,,,,,,a,1,None,0,,1.0,trianglegreen.gif,go,,,,,,,,0.384389162064,,,,,,,,,,,,,,,,,,,,,,,,1.07,0.514011859894,0.000937938690186,0.384389162064,1,a,913.219041824,,,,,,,,,,,,,,,,,,,,,,,,,,,,,,,,,2015_Jun_30_1148,60.1767869876,LearningTask,1,54,
-200,a,-200,,,,,,,,,,,,,,,,,2,0,2,0,1,0,4,3,,,,,,,,,,,,,,,,,,,,,,,,,,,,,a,1,None,0,,2.0,circlecyan.gif,stop,,,,,,,,0.384058952332,,,,,,,,,,,,,,,,,,,,,,,,1.75,0.514111042023,0.000903129577637,0.384058952332,1,a,916.222247839,,,,,,,,,,,,,,,,,,,,,,,,,,,,,,,,,2015_Jun_30_1148,60.1767869876,LearningTask,1,54,
200,w,200,,,,,,,,,,,,,,,,,2,0,2,0,1,1,5,0,,,,,,,,,,,,,,,,,,,,,,,,,,,,,w,1,None,0,,1.0,squarewhite.gif,stop,,,,,,,,0.401157855988,,,,,,,,,,,,,,,,,,,,,,,,1.18,0.514199018478,0.000869989395142,0.401157855988,1,w,919.225400925,,,,,,,,,,,,,,,,,,,,,,,,,,,,,,,,,2015_Jun_30_1148,60.1767869876,LearningTask,1,54,
200,s,-200,,,,,,,,,,,,,,,,,2,0,2,0,1,2,6,2,,,,,,,,,,,,,,,,,,,,,,,,,,,,,s,1,None,0,,4.0,invertedtriangleyellow.gif,go,,,,,,,,0.334802150726,,,,,,,,,,,,,,,,,,,,,,,,3.87,0.514070987701,0.000904083251953,0.334802150726,1,s,922.228560925,,,,,,,,,,,,,,,,,,,,,,,,,,,,,,,,,2015_Jun_30_1148,60.1767869876,LearningTask,1,54,
200,w,200,,,,,,,,,,,,,,,,,2,0,2,0,1,3,7,0,,,,,,,,,,,,,,,,,,,,,,,,,,,,,w,1,None,0,,4.0,invertedtriangleyellow.gif,go,,,,,,,,0.401337862015,,,,,,,,,,,,,,,,,,,,,,,,3.98,0.514377117157,0.000941038131714,0.401337862015,1,w,925.232511997,,,,,,,,,,,,,,,,,,,,,,,,,,,,,,,,,2015_Jun_30_1148,60.1767869876,LearningTask,1,54,
-200,a,-200,,,,,,,,,,,,,,,,,2,0,2,0,2,0,8,3,,,,,,,,,,,,,,,,,,,,,,,,,,,,,a,1,None,0,,4.0,hexagongray.gif,stop,,,,,,,,0.334459066391,,,,,,,,,,,,,,,,,,,,,,,,3.88,0.513679981232,0.000890016555786,0.334459066391,1,a,928.2359519,,,,,,,,,,,,,,,,,,,,,,,,,,,,,,,,,2015_Jun_30_1148,60.1767869876,LearningTask,1,54,
-200,q,200,,,,,,,,,,,,,,,,,2,0,2,0,2,1,9,1,,,,,,,,,,,,,,,,,,,,,,,,,,,,,q,1,None,0,,1.0,trianglegreen.gif,go,,,,,,,,0.434329032898,,,,,,,,,,,,,,,,,,,,,,,,0,0.513336896896,0.00095796585083,0.434329032898,1,q,931.238992929,,,,,,,,,,,,,,,,,,,,,,,,,,,,,,,,,2015_Jun_30_1148,60.1767869876,LearningTask,1,54,
200,w,200,,,,,,,,,,,,,,,,,2,0,2,0,2,2,10,0,,,,,,,,,,,,,,,,,,,,,,,,,,,,,w,1,None,0,,0.5,crossblue.gif,stop,,,,,,,,0.484248876572,,,,,,,,,,,,,,,,,,,,,,,,0.65,0.514245033264,0.000875949859619,0.484248876572,1,w,934.242188931,,,,,,,,,,,,,,,,,,,,,,,,,,,,,,,,,2015_Jun_30_1148,60.1767869876,LearningTask,1,54,
-200,a,-200,,,,,,,,,,,,,,,,,2,0,2,0,2,3,11,3,,,,,,,,,,,,,,,,,,,,,,,,,,,,,a,1,None,0,,4.0,invertedtriangleyellow.gif,go,,,,,,,,0.33443903923,,,,,,,,,,,,,,,,,,,,,,,,4.1,0.514366149902,0.000908136367798,0.33443903923,1,a,937.245673895,,,,,,,,,,,,,,,,,,,,,,,,,,,,,,,,,2015_Jun_30_1148,60.1767869876,LearningTask,1,54,
-200,q,200,,,,,,,,,,,,,,,,,2,0,2,0,3,0,12,1,,,,,,,,,,,,,,,,,,,,,,,,,,,,,q,1,None,0,,1.0,squarewhite.gif,stop,,,,,,,,0.367395877838,,,,,,,,,,,,,,,,,,,,,,,,1.16,0.514070987701,0.000909805297852,0.367395877838,1,q,940.248875856,,,,,,,,,,,,,,,,,,,,,,,,,,,,,,,,,2015_Jun_30_1148,60.1767869876,LearningTask,1,54,
200,s,-200,,,,,,,,,,,,,,,,,2,0,2,0,3,1,13,2,,,,,,,,,,,,,,,,,,,,,,,,,,,,,s,1,None,0,,0.5,crossblue.gif,stop,,,,,,,,0.401381015778,,,,,,,,,,,,,,,,,,,,,,,,0.45,0.514300107956,0.00110602378845,0.401381015778,1,s,943.252859831,,,,,,,,,,,,,,,,,,,,,,,,,,,,,,,,,2015_Jun_30_1148,60.1767869876,LearningTask,1,54,
-200,a,-200,,,,,,,,,,,,,,,,,2,0,2,0,3,2,14,3,,,,,,,,,,,,,,,,,,,,,,,,,,,,,a,1,None,0,,4.0,hexagongray.gif,stop,,,,,,,,0.350864887238,,,,,,,,,,,,,,,,,,,,,,,,4.13,0.51346206665,0.000891923904419,0.350864887238,1,a,946.255864859,,,,,,,,,,,,,,,,,,,,,,,,,,,,,,,,,2015_Jun_30_1148,60.1767869876,LearningTask,1,54,
200,w,200,,,,,,,,,,,,,,,,,2,0,2,0,3,3,15,0,,,,,,,,,,,,,,,,,,,,,,,,,,,,,w,1,None,0,,0.5,diamondorange.gif,go,,,,,,,,0.367583036423,,,,,,,,,,,,,,,,,,,,,,,,0.61,0.514365911484,0.000871896743774,0.367583036423,1,w,949.258974791,,,,,,,,,,,,,,,,,,,,,,,,,,,,,,,,,2015_Jun_30_1148,60.1767869876,LearningTask,1,54,
200,w,200,,,,,,,,,,,,,,,,,2,0,2,0,4,0,16,0,,,,,,,,,,,,,,,,,,,,,,,,,,,,,w,1,None,0,,4.0,invertedtriangleyellow.gif,go,,,,,,,,0.417506217957,,,,,,,,,,,,,,,,,,,,,,,,0,0.514216184616,0.00105500221252,0.417506217957,1,w,952.262327909,,,,,,,,,,,,,,,,,,,,,,,,,,,,,,,,,2015_Jun_30_1148,60.1767869876,LearningTask,1,54,
-200,a,-200,,,,,,,,,,,,,,,,,2,0,2,0,4,1,17,3,,,,,,,,,,,,,,,,,,,,,,,,,,,,,a,1,None,0,,0.5,diamondorange.gif,go,,,,,,,,0.384179830551,,,,,,,,,,,,,,,,,,,,,,,,0.47,0.51442694664,0.00088095664978,0.384179830551,1,a,955.266050816,,,,,,,,,,,,,,,,,,,,,,,,,,,,,,,,,2015_Jun_30_1148,60.1767869876,LearningTask,1,54,
200,s,-200,,,,,,,,,,,,,,,,,2,0,2,0,4,2,18,2,,,,,,,,,,,,,,,,,,,,,,,,,,,,,s,1,None,0,,0.5,crossblue.gif,stop,,,,,,,,0.384016990662,,,,,,,,,,,,,,,,,,,,,,,,0,0.513971090317,0.000877141952515,0.384016990662,1,s,958.268896818,,,,,,,,,,,,,,,,,,,,,,,,,,,,,,,,,2015_Jun_30_1148,60.1767869876,LearningTask,1,54,
200,w,200,,,,,,,,,,,,,,,,,2,0,2,0,4,3,19,0,,,,,,,,,,,,,,,,,,,,,,,,,,,,,w,1,None,0,,1.0,trianglegreen.gif,go,,,,,,,,0.384673118591,,,,,,,,,,,,,,,,,,,,,,,,0,0.513962030411,0.000939130783081,0.384673118591,1,w,961.272449017,,,,,,,,,,,,,,,,,,,,,,,,,,,,,,,,,2015_Jun_30_1148,60.1767869876,LearningTask,1,54,
-200,a,-200,,,,,,,,,,,,,,,,,2,0,2,0,5,0,20,3,,,,,,,,,,,,,,,,,,,,,,,,,,,,,a,1,None,0,,1.0,squarewhite.gif,stop,,,,,,,,0.350548028946,,,,,,,,,,,,,,,,,,,,,,,,0.75,0.514493942261,0.000871896743774,0.350548028946,1,a,964.275938988,,,,,,,,,,,,,,,,,,,,,,,,,,,,,,,,,2015_Jun_30_1148,60.1767869876,LearningTask,1,54,
-200,a,-200,,,,,,,,,,,,,,,,,2,0,2,0,5,1,21,3,,,,,,,,,,,,,,,,,,,,,,,,,,,,,a,1,None,0,,1.0,squarewhite.gif,stop,,,,,,,,0.367550849915,,,,,,,,,,,,,,,,,,,,,,,,0,0.514235973358,0.000891923904419,0.367550849915,1,a,967.279061794,,,,,,,,,,,,,,,,,,,,,,,,,,,,,,,,,2015_Jun_30_1148,60.1767869876,LearningTask,1,54,
-200,q,200,,,,,,,,,,,,,,,,,2,0,2,0,5,2,22,1,,,,,,,,,,,,,,,,,,,,,,,,,,,,,q,1,None,0,,2.0,linemagenta.gif,go,,,,,,,,0.434377193451,,,,,,,,,,,,,,,,,,,,,,,,0,0.513890981674,0.00094199180603,0.434377193451,1,q,970.282461882,,,,,,,,,,,,,,,,,,,,,,,,,,,,,,,,,2015_Jun_30_1148,60.1767869876,LearningTask,1,54,
-200,a,-200,,,,,,,,,,,,,,,,,2,0,2,0,5,3,23,3,,,,,,,,,,,,,,,,,,,,,,,,,,,,,a,1,None,0,,4.0,invertedtriangleyellow.gif,go,,,,,,,,0.351034879684,,,,,,,,,,,,,,,,,,,,,,,,4.05,0.514295816422,0.00116586685181,0.351034879684,1,a,973.286379814,,,,,,,,,,,,,,,,,,,,,,,,,,,,,,,,,2015_Jun_30_1148,60.1767869876,LearningTask,1,54,
-200,a,-200,,,,,,,,,,,,,,,,,2,0,2,0,6,0,24,3,,,,,,,,,,,,,,,,,,,,,,,,,,,,,a,1,None,0,,0.5,crossblue.gif,stop,,,,,,,,0.351015806198,,,,,,,,,,,,,,,,,,,,,,,,0.46,0.514047145844,0.000886917114258,0.351015806198,1,a,976.289635897,,,,,,,,,,,,,,,,,,,,,,,,,,,,,,,,,2015_Jun_30_1148,60.1767869876,LearningTask,1,54,
200,w,200,,,,,,,,,,,,,,,,,2,0,2,0,6,1,25,0,,,,,,,,,,,,,,,,,,,,,,,,,,,,,w,1,None,0,,4.0,invertedtriangleyellow.gif,go,,,,,,,,0.43340587616,,,,,,,,,,,,,,,,,,,,,,,,3.98,0.513919115067,0.000924110412598,0.43340587616,1,w,979.292663813,,,,,,,,,,,,,,,,,,,,,,,,,,,,,,,,,2015_Jun_30_1148,60.1767869876,LearningTask,1,54,
200,s,-200,,,,,,,,,,,,,,,,,2,0,2,0,6,2,26,2,,,,,,,,,,,,,,,,,,,,,,,,,,,,,s,1,None,0,,4.0,invertedtriangleyellow.gif,go,,,,,,,,0.367707967758,,,,,,,,,,,,,,,,,,,,,,,,3.78,0.514470815659,0.00088095664978,0.367707967758,1,s,982.29587388,,,,,,,,,,,,,,,,,,,,,,,,,,,,,,,,,2015_Jun_30_1148,60.1767869876,LearningTask,1,54,
200,w,200,,,,,,,,,,,,,,,,,2,0,2,0,6,3,27,0,,,,,,,,,,,,,,,,,,,,,,,,,,,,,w,1,None,0,,0.5,crossblue.gif,stop,,,,,,,,0.418230056763,,,,,,,,,,,,,,,,,,,,,,,,0.25,0.514278888702,0.000897884368896,0.418230056763,1,w,985.29932785,,,,,,,,,,,,,,,,,,,,,,,,,,,,,,,,,2015_Jun_30_1148,60.1767869876,LearningTask,1,54,
-200,a,-200,,,,,,,,,,,,,,,,,2,0,2,0,7,0,28,3,,,,,,,,,,,,,,,,,,,,,,,,,,,,,a,1,None,0,,0.5,diamondorange.gif,go,,,,,,,,0.350844860077,,,,,,,,,,,,,,,,,,,,,,,,0.39,0.513854026794,0.000936031341553,0.350844860077,1,a,988.302748919,,,,,,,,,,,,,,,,,,,,,,,,,,,,,,,,,2015_Jun_30_1148,60.1767869876,LearningTask,1,54,
-200,q,200,,,,,,,,,,,,,,,,,2,0,2,0,7,1,29,1,,,,,,,,,,,,,,,,,,,,,,,,,,,,,q,1,None,0,,0.5,diamondorange.gif,go,,,,,,,,0.36744594574,,,,,,,,,,,,,,,,,,,,,,,,0,0.514111042023,0.000958919525146,0.36744594574,1,q,991.306552887,,,,,,,,,,,,,,,,,,,,,,,,,,,,,,,,,2015_Jun_30_1148,60.1767869876,LearningTask,1,54,
-200,q,200,,,,,,,,,,,,,,,,,2,0,2,0,7,2,30,1,,,,,,,,,,,,,,,,,,,,,,,,,,,,,q,1,None,0,,4.0,hexagongray.gif,stop,,,,,,,,0.434560060501,,,,,,,,,,,,,,,,,,,,,,,,0,0.513570070267,0.000900983810425,0.434560060501,1,q,994.309384823,,,,,,,,,,,,,,,,,,,,,,,,,,,,,,,,,2015_Jun_30_1148,60.1767869876,LearningTask,1,54,
-200,q,200,,,,,,,,,,,,,,,,,2,0,2,0,7,3,31,1,,,,,,,,,,,,,,,,,,,,,,,,,,,,,q,1,None,0,,0.5,diamondorange.gif,go,,,,,,,,0.434121131897,,,,,,,,,,,,,,,,,,,,,,,,0.65,0.514368057251,0.000878095626831,0.434121131897,1,q,997.312599897,,,,,,,,,,,,,,,,,,,,,,,,,,,,,,,,,2015_Jun_30_1148,60.1767869876,LearningTask,1,54,
200,s,-200,,,,,,,,,,,,,,,,,2,0,2,0,8,0,32,2,,,,,,,,,,,,,,,,,,,,,,,,,,,,,s,1,None,0,,2.0,circlecyan.gif,stop,,,,,,,,0.351253986359,,,,,,,,,,,,,,,,,,,,,,,,0,0.51415681839,0.000927925109863,0.351253986359,1,s,1000.31618285,,,,,,,,,,,,,,,,,,,,,,,,,,,,,,,,,2015_Jun_30_1148,60.1767869876,LearningTask,1,54,
200,w,200,,,,,,,,,,,,,,,,,2,0,2,0,8,1,33,0,,,,,,,,,,,,,,,,,,,,,,,,,,,,,w,1,None,0,,2.0,linemagenta.gif,go,,,,,,,,0.367343902588,,,,,,,,,,,,,,,,,,,,,,,,0,0.514129161835,0.00088095664978,0.367343902588,1,w,1003.31949687,,,,,,,,,,,,,,,,,,,,,,,,,,,,,,,,,2015_Jun_30_1148,60.1767869876,LearningTask,1,54,
200,w,200,,,,,,,,,,,,,,,,,2,0,2,0,8,2,34,0,,,,,,,,,,,,,,,,,,,,,,,,,,,,,w,1,None,0,,1.0,squarewhite.gif,stop,,,,,,,,0.350931167603,,,,,,,,,,,,,,,,,,,,,,,,1.12,0.514333963394,0.000880002975464,0.350931167603,1,w,1006.32257795,,,,,,,,,,,,,,,,,,,,,,,,,,,,,,,,,2015_Jun_30_1148,60.1767869876,LearningTask,1,54,
200,s,-200,,,,,,,,,,,,,,,,,2,0,2,0,8,3,35,2,,,,,,,,,,,,,,,,,,,,,,,,,,,,,s,1,None,0,,2.0,circlecyan.gif,stop,,,,,,,,0.417923927307,,,,,,,,,,,,,,,,,,,,,,,,2.0,0.514051914215,0.000936985015869,0.417923927307,1,s,1009.32610679,,,,,,,,,,,,,,,,,,,,,,,,,,,,,,,,,2015_Jun_30_1148,60.1767869876,LearningTask,1,54,
-200,a,-200,,,,,,,,,,,,,,,,,2,0,2,0,9,0,36,3,,,,,,,,,,,,,,,,,,,,,,,,,,,,,a,1,None,0,,4.0,hexagongray.gif,stop,,,,,,,,0.400407075882,,,,,,,,,,,,,,,,,,,,,,,,0,0.514718055725,0.000890016555786,0.400407075882,1,a,1012.32958293,,,,,,,,,,,,,,,,,,,,,,,,,,,,,,,,,2015_Jun_30_1148,60.1767869876,LearningTask,1,54,
-200,q,200,,,,,,,,,,,,,,,,,2,0,2,0,9,1,37,1,,,,,,,,,,,,,,,,,,,,,,,,,,,,,q,1,None,0,,0.5,diamondorange.gif,go,,,,,,,,0.350761890411,,,,,,,,,,,,,,,,,,,,,,,,0.69,0.514137029648,0.000882863998413,0.350761890411,1,q,1015.33285499,,,,,,,,,,,,,,,,,,,,,,,,,,,,,,,,,2015_Jun_30_1148,60.1767869876,LearningTask,1,54,
200,s,-200,,,,,,,,,,,,,,,,,2,0,2,0,9,2,38,2,,,,,,,,,,,,,,,,,,,,,,,,,,,,,s,1,None,0,,2.0,linemagenta.gif,go,,,,,,,,0.351042985916,,,,,,,,,,,,,,,,,,,,,,,,0,0.514051914215,0.000916004180908,0.351042985916,1,s,1018.33604789,,,,,,,,,,,,,,,,,,,,,,,,,,,,,,,,,2015_Jun_30_1148,60.1767869876,LearningTask,1,54,
-200,q,200,,,,,,,,,,,,,,,,,2,0,2,0,9,3,39,1,,,,,,,,,,,,,,,,,,,,,,,,,,,,,q,1,None,0,,0.5,diamondorange.gif,go,,,,,,,,0.367384910583,,,,,,,,,,,,,,,,,,,,,,,,0.51,0.514539003372,0.000875949859619,0.367384910583,1,q,1021.33939481,,,,,,,,,,,,,,,,,,,,,,,,,,,,,,,,,2015_Jun_30_1148,60.1767869876,LearningTask,1,54,
-200,q,200,,,,,,,,,,,,,,,,,2,0,2,0,10,0,40,1,,,,,,,,,,,,,,,,,,,,,,,,,,,,,q,1,None,0,,1.0,squarewhite.gif,stop,,,,,,,,0.351130008698,,,,,,,,,,,,,,,,,,,,,,,,0,0.51426410675,0.000906944274902,0.351130008698,1,q,1024.3433919,,,,,,,,,,,,,,,,,,,,,,,,,,,,,,,,,2015_Jun_30_1148,60.1767869876,LearningTask,1,54,
-200,a,-200,,,,,,,,,,,,,,,,,2,0,2,0,10,1,41,3,,,,,,,,,,,,,,,,,,,,,,,,,,,,,a,1,None,0,,0.5,crossblue.gif,stop,,,,,,,,0.350826978683,,,,,,,,,,,,,,,,,,,,,,,,0.49,0.513559103012,0.000940084457397,0.350826978683,1,a,1027.34640288,,,,,,,,,,,,,,,,,,,,,,,,,,,,,,,,,2015_Jun_30_1148,60.1767869876,LearningTask,1,54,
200,w,200,,,,,,,,,,,,,,,,,2,0,2,0,10,2,42,0,,,,,,,,,,,,,,,,,,,,,,,,,,,,,w,1,None,0,,2.0,circlecyan.gif,stop,,,,,,,,0.350671052933,,,,,,,,,,,,,,,,,,,,,,,,2.09,0.514183998108,0.000885009765625,0.350671052933,1,w,1030.3495419,,,,,,,,,,,,,,,,,,,,,,,,,,,,,,,,,2015_Jun_30_1148,60.1767869876,LearningTask,1,54,
-200,q,200,,,,,,,,,,,,,,,,,2,0,2,0,10,3,43,1,,,,,,,,,,,,,,,,,,,,,,,,,,,,,q,1,None,0,,4.0,hexagongray.gif,stop,,,,,,,,0.317777872086,,,,,,,,,,,,,,,,,,,,,,,,3.99,0.514286994934,0.000967025756836,0.317777872086,1,q,1033.35309792,,,,,,,,,,,,,,,,,,,,,,,,,,,,,,,,,2015_Jun_30_1148,60.1767869876,LearningTask,1,54,
200,w,200,,,,,,,,,,,,,,,,,2,0,2,0,11,0,44,0,,,,,,,,,,,,,,,,,,,,,,,,,,,,,w,1,None,0,,1.0,trianglegreen.gif,go,,,,,,,,0.317651987076,,,,,,,,,,,,,,,,,,,,,,,,1.06,0.513935089111,0.000910043716431,0.317651987076,1,w,1036.35665798,,,,,,,,,,,,,,,,,,,,,,,,,,,,,,,,,2015_Jun_30_1148,60.1767869876,LearningTask,1,54,
200,s,-200,,,,,,,,,,,,,,,,,2,0,2,0,11,1,45,2,,,,,,,,,,,,,,,,,,,,,,,,,,,,,s,1,None,0,,0.5,diamondorange.gif,go,,,,,,,,0.384777069092,,,,,,,,,,,,,,,,,,,,,,,,0.55,0.513813972473,0.00112986564636,0.384777069092,1,s,1039.35982585,,,,,,,,,,,,,,,,,,,,,,,,,,,,,,,,,2015_Jun_30_1148,60.1767869876,LearningTask,1,54,
200,w,200,,,,,,,,,,,,,,,,,2,0,2,0,11,2,46,0,,,,,,,,,,,,,,,,,,,,,,,,,,,,,w,1,None,0,,1.0,trianglegreen.gif,go,,,,,,,,0.367114067078,,,,,,,,,,,,,,,,,,,,,,,,1.07,0.514181852341,0.000895977020264,0.367114067078,1,w,1042.36321092,,,,,,,,,,,,,,,,,,,,,,,,,,,,,,,,,2015_Jun_30_1148,60.1767869876,LearningTask,1,54,
-200,a,-200,,,,,,,,,,,,,,,,,2,0,2,0,11,3,47,3,,,,,,,,,,,,,,,,,,,,,,,,,,,,,a,1,None,0,,0.5,diamondorange.gif,go,,,,,,,,0.367643117905,,,,,,,,,,,,,,,,,,,,,,,,0,0.514258861542,0.000890970230103,0.367643117905,1,a,1045.36639881,,,,,,,,,,,,,,,,,,,,,,,,,,,,,,,,,2015_Jun_30_1148,60.1767869876,LearningTask,1,54,
200,w,200,,,,,,,,,,,,,,,,,2,0,2,0,12,0,48,0,,,,,,,,,,,,,,,,,,,,,,,,,,,,,w,1,None,0,,0.5,diamondorange.gif,go,,,,,,,,0.367340803146,,,,,,,,,,,,,,,,,,,,,,,,0.73,0.514211893082,0.000951051712036,0.367340803146,1,w,1048.36967087,,,,,,,,,,,,,,,,,,,,,,,,,,,,,,,,,2015_Jun_30_1148,60.1767869876,LearningTask,1,54,
-200,q,200,,,,,,,,,,,,,,,,,2,0,2,0,12,1,49,1,,,,,,,,,,,,,,,,,,,,,,,,,,,,,q,1,None,0,,1.0,squarewhite.gif,stop,,,,,,,,0.368086099625,,,,,,,,,,,,,,,,,,,,,,,,0,0.514373064041,0.000880002975464,0.368086099625,1,q,1051.37316799,,,,,,,,,,,,,,,,,,,,,,,,,,,,,,,,,2015_Jun_30_1148,60.1767869876,LearningTask,1,54,
-200,q,200,,,,,,,,,,,,,,,,,2,0,2,0,12,2,50,1,,,,,,,,,,,,,,,,,,,,,,,,,,,,,q,1,None,0,,2.0,circlecyan.gif,stop,,,,,,,,0.333920001984,,,,,,,,,,,,,,,,,,,,,,,,2.05,0.514457941055,0.000906944274902,0.333920001984,1,q,1054.37636781,,,,,,,,,,,,,,,,,,,,,,,,,,,,,,,,,2015_Jun_30_1148,60.1767869876,LearningTask,1,54,
-200,q,200,,,,,,,,,,,,,,,,,2,0,2,0,12,3,51,1,,,,,,,,,,,,,,,,,,,,,,,,,,,,,q,1,None,0,,0.5,crossblue.gif,stop,,,,,,,,0.35089802742,,,,,,,,,,,,,,,,,,,,,,,,0.41,0.513854980469,0.000946998596191,0.35089802742,1,q,1057.37972999,,,,,,,,,,,,,,,,,,,,,,,,,,,,,,,,,2015_Jun_30_1148,60.1767869876,LearningTask,1,54,
200,w,200,,,,,,,,,,,,,,,,,2,0,2,0,13,0,52,0,,,,,,,,,,,,,,,,,,,,,,,,,,,,,w,1,None,0,,2.0,linemagenta.gif,go,,,,,,,,0.333822965622,,,,,,,,,,,,,,,,,,,,,,,,0,0.51459813118,0.000913143157959,0.333822965622,1,w,1060.38332701,,,,,,,,,,,,,,,,,,,,,,,,,,,,,,,,,2015_Jun_30_1148,60.1767869876,LearningTask,1,54,
200,s,-200,,,,,,,,,,,,,,,,,2,0,2,0,13,1,53,2,,,,,,,,,,,,,,,,,,,,,,,,,,,,,s,1,None,0,,1.0,trianglegreen.gif,go,,,,,,,,0.367377996445,,,,,,,,,,,,,,,,,,,,,,,,0,0.513985872269,0.000978946685791,0.367377996445,1,s,1063.38672686,,,,,,,,,,,,,,,,,,,,,,,,,,,,,,,,,2015_Jun_30_1148,60.1767869876,LearningTask,1,54,
-200,q,200,,,,,,,,,,,,,,,,,2,0,2,0,13,2,54,1,,,,,,,,,,,,,,,,,,,,,,,,,,,,,q,1,None,0,,4.0,hexagongray.gif,stop,,,,,,,,0.350951910019,,,,,,,,,,,,,,,,,,,,,,,,4.22,0.513664007187,0.000998020172119,0.350951910019,1,q,1066.38990879,,,,,,,,,,,,,,,,,,,,,,,,,,,,,,,,,2015_Jun_30_1148,60.1767869876,LearningTask,1,54,
-200,a,-200,,,,,,,,,,,,,,,,,2,0,2,0,13,3,55,3,,,,,,,,,,,,,,,,,,,,,,,,,,,,,a,1,None,0,,4.0,hexagongray.gif,stop,,,,,,,,0.333899021149,,,,,,,,,,,,,,,,,,,,,,,,4.0,0.514307975769,0.00088906288147,0.333899021149,1,a,1069.39334083,,,,,,,,,,,,,,,,,,,,,,,,,,,,,,,,,2015_Jun_30_1148,60.1767869876,LearningTask,1,54,
200,w,200,,,,,,,,,,,,,,,,,2,0,2,0,14,0,56,0,,,,,,,,,,,,,,,,,,,,,,,,,,,,,w,1,None,0,,1.0,squarewhite.gif,stop,,,,,,,,0.300801038742,,,,,,,,,,,,,,,,,,,,,,,,1.17,0.514073133469,0.00088095664978,0.300801038742,1,w,1072.39715695,,,,,,,,,,,,,,,,,,,,,,,,,,,,,,,,,2015_Jun_30_1148,60.1767869876,LearningTask,1,54,
200,s,-200,,,,,,,,,,,,,,,,,2,0,2,0,14,1,57,2,,,,,,,,,,,,,,,,,,,,,,,,,,,,,s,1,None,0,,1.0,squarewhite.gif,stop,,,,,,,,0.351057052612,,,,,,,,,,,,,,,,,,,,,,,,0.95,0.513729095459,0.000932216644287,0.351057052612,1,s,1075.40012193,,,,,,,,,,,,,,,,,,,,,,,,,,,,,,,,,2015_Jun_30_1148,60.1767869876,LearningTask,1,54,
200,s,-200,,,,,,,,,,,,,,,,,2,0,2,0,14,2,58,2,,,,,,,,,,,,,,,,,,,,,,,,,,,,,s,1,None,0,,4.0,hexagongray.gif,stop,,,,,,,,0.350476980209,,,,,,,,,,,,,,,,,,,,,,,,4.15,0.514307022095,0.000884056091309,0.350476980209,1,s,1078.40330982,,,,,,,,,,,,,,,,,,,,,,,,,,,,,,,,,2015_Jun_30_1148,60.1767869876,LearningTask,1,54,
200,w,200,,,,,,,,,,,,,,,,,2,0,2,0,14,3,59,0,,,,,,,,,,,,,,,,,,,,,,,,,,,,,w,1,None,0,,2.0,circlecyan.gif,stop,,,,,,,,0.350907802582,,,,,,,,,,,,,,,,,,,,,,,,1.9,0.513984203339,0.000909090042114,0.350907802582,1,w,1081.40679479,,,,,,,,,,,,,,,,,,,,,,,,,,,,,,,,,2015_Jun_30_1148,60.1767869876,LearningTask,1,54,
200,w,200,,,,,,,,,,,,,,,,,2,0,2,0,15,0,60,0,,,,,,,,,,,,,,,,,,,,,,,,,,,,,w,1,None,0,,2.0,circlecyan.gif,stop,,,,,,,,0.350903987885,,,,,,,,,,,,,,,,,,,,,,,,2.11,0.513921022415,0.000962972640991,0.350903987885,1,w,1084.40993381,,,,,,,,,,,,,,,,,,,,,,,,,,,,,,,,,2015_Jun_30_1148,60.1767869876,LearningTask,1,54,
-200,q,200,,,,,,,,,,,,,,,,,2,0,2,0,15,1,61,1,,,,,,,,,,,,,,,,,,,,,,,,,,,,,q,1,None,0,,1.0,squarewhite.gif,stop,,,,,,,,0.350970983505,,,,,,,,,,,,,,,,,,,,,,,,0.99,0.51421380043,0.00101685523987,0.350970983505,1,q,1087.41390896,,,,,,,,,,,,,,,,,,,,,,,,,,,,,,,,,2015_Jun_30_1148,60.1767869876,LearningTask,1,54,
200,s,-200,,,,,,,,,,,,,,,,,2,0,2,0,15,2,62,2,,,,,,,,,,,,,,,,,,,,,,,,,,,,,s,1,None,0,,0.5,crossblue.gif,stop,,,,,,,,0.350821971893,,,,,,,,,,,,,,,,,,,,,,,,0.49,0.513694047928,0.000900983810425,0.350821971893,1,s,1090.41700983,,,,,,,,,,,,,,,,,,,,,,,,,,,,,,,,,2015_Jun_30_1148,60.1767869876,LearningTask,1,54,
200,s,-200,,,,,,,,,,,,,,,,,2,0,2,0,15,3,63,2,,,,,,,,,,,,,,,,,,,,,,,,,,,,,s,1,None,0,,0.5,diamondorange.gif,go,,,,,,,,0.334161996841,,,,,,,,,,,,,,,,,,,,,,,,0.39,0.514168024063,0.000895023345947,0.334161996841,1,s,1093.42005396,,,,,,,,,,,,,,,,,,,,,,,,,,,,,,,,,2015_Jun_30_1148,60.1767869876,LearningTask,1,54,
200,s,-200,,,,,,,,,,,,,,,,,2,0,2,0,16,0,64,2,,,,,,,,,,,,,,,,,,,,,,,,,,,,,s,1,None,0,,4.0,hexagongray.gif,stop,,,,,,,,0.318055152893,,,,,,,,,,,,,,,,,,,,,,,,0,0.514170885086,0.000972986221313,0.318055152893,1,s,1096.42346787,,,,,,,,,,,,,,,,,,,,,,,,,,,,,,,,,2015_Jun_30_1148,60.1767869876,LearningTask,1,54,
200,s,-200,,,,,,,,,,,,,,,,,2,0,2,0,16,1,65,2,,,,,,,,,,,,,,,,,,,,,,,,,,,,,s,1,None,0,,2.0,circlecyan.gif,stop,,,,,,,,0.317538022995,,,,,,,,,,,,,,,,,,,,,,,,2.21,0.51419711113,0.000879049301147,0.317538022995,1,s,1099.42687488,,,,,,,,,,,,,,,,,,,,,,,,,,,,,,,,,2015_Jun_30_1148,60.1767869876,LearningTask,1,54,
200,s,-200,,,,,,,,,,,,,,,,,2,0,2,0,16,2,66,2,,,,,,,,,,,,,,,,,,,,,,,,,,,,,s,1,None,0,,2.0,circlecyan.gif,stop,,,,,,,,0.31797003746,,,,,,,,,,,,,,,,,,,,,,,,2.07,0.514178037643,0.00090503692627,0.31797003746,1,s,1102.43014598,,,,,,,,,,,,,,,,,,,,,,,,,,,,,,,,,2015_Jun_30_1148,60.1767869876,LearningTask,1,54,
200,w,200,,,,,,,,,,,,,,,,,2,0,2,0,16,3,67,0,,,,,,,,,,,,,,,,,,,,,,,,,,,,,w,1,None,0,,4.0,hexagongray.gif,stop,,,,,,,,0.401403903961,,,,,,,,,,,,,,,,,,,,,,,,0,0.513760089874,0.000954866409302,0.401403903961,1,w,1105.43357587,,,,,,,,,,,,,,,,,,,,,,,,,,,,,,,,,2015_Jun_30_1148,60.1767869876,LearningTask,1,54,
200,w,200,,,,,,,,,,,,,,,,,2,0,2,0,17,0,68,0,,,,,,,,,,,,,,,,,,,,,,,,,,,,,w,1,None,0,,4.0,hexagongray.gif,stop,,,,,,,,0.36699795723,,,,,,,,,,,,,,,,,,,,,,,,4.03,0.514539957047,0.000888824462891,0.36699795723,1,w,1108.43692398,,,,,,,,,,,,,,,,,,,,,,,,,,,,,,,,,2015_Jun_30_1148,60.1767869876,LearningTask,1,54,
200,s,-200,,,,,,,,,,,,,,,,,2,0,2,0,17,1,69,2,,,,,,,,,,,,,,,,,,,,,,,,,,,,,s,1,None,0,,4.0,hexagongray.gif,stop,,,,,,,,0.367438077927,,,,,,,,,,,,,,,,,,,,,,,,4.14,0.514436006546,0.000885963439941,0.367438077927,1,s,1111.44017982,,,,,,,,,,,,,,,,,,,,,,,,,,,,,,,,,2015_Jun_30_1148,60.1767869876,LearningTask,1,54,
200,s,-200,,,,,,,,,,,,,,,,,2,0,2,0,17,2,70,2,,,,,,,,,,,,,,,,,,,,,,,,,,,,,s,1,None,0,,0.5,diamondorange.gif,go,,,,,,,,0.401177883148,,,,,,,,,,,,,,,,,,,,,,,,0.28,0.513864994049,0.000921010971069,0.401177883148,1,s,1114.44349694,,,,,,,,,,,,,,,,,,,,,,,,,,,,,,,,,2015_Jun_30_1148,60.1767869876,LearningTask,1,54,
200,s,-200,,,,,,,,,,,,,,,,,2,0,2,0,17,3,71,2,,,,,,,,,,,,,,,,,,,,,,,,,,,,,s,1,None,0,,1.0,squarewhite.gif,stop,,,,,,,,0.384208202362,,,,,,,,,,,,,,,,,,,,,,,,1.18,0.514250040054,0.000900983810425,0.384208202362,1,s,1117.44692993,,,,,,,,,,,,,,,,,,,,,,,,,,,,,,,,,2015_Jun_30_1148,60.1767869876,LearningTask,1,54,
-200,q,200,,,,,,,,,,,,,,,,,2,0,2,0,18,0,72,1,,,,,,,,,,,,,,,,,,,,,,,,,,,,,q,1,None,0,,4.0,invertedtriangleyellow.gif,go,,,,,,,,0.40064406395,,,,,,,,,,,,,,,,,,,,,,,,3.79,0.514555931091,0.000921964645386,0.40064406395,1,q,1120.45105195,,,,,,,,,,,,,,,,,,,,,,,,,,,,,,,,,2015_Jun_30_1148,60.1767869876,LearningTask,1,54,
-200,q,200,,,,,,,,,,,,,,,,,2,0,2,0,18,1,73,1,,,,,,,,,,,,,,,,,,,,,,,,,,,,,q,1,None,0,,4.0,hexagongray.gif,stop,,,,,,,,0.384263038635,,,,,,,,,,,,,,,,,,,,,,,,3.97,0.513234138489,0.000930070877075,0.384263038635,1,q,1123.45383692,,,,,,,,,,,,,,,,,,,,,,,,,,,,,,,,,2015_Jun_30_1148,60.1767869876,LearningTask,1,54,
-200,q,200,,,,,,,,,,,,,,,,,2,0,2,0,18,2,74,1,,,,,,,,,,,,,,,,,,,,,,,,,,,,,q,1,None,0,,0.5,diamondorange.gif,go,,,,,,,,0.334541082382,,,,,,,,,,,,,,,,,,,,,,,,0,0.513914108276,0.000916004180908,0.35089302063,0,a,1126.45699191,,,0.44,0.515441894531,0.000963926315308,0.334541082382,1,q,1129.46077299,,,,,,,,,,,,,,,,,,,,,,,,2015_Jun_30_1148,60.1767869876,LearningTask,1,54,
200,s,-200,,,,,,,,,,,,,,,,,2,0,2,0,18,3,75,2,,,,,,,,,,,,,,,,,,,,,,,,,,,,,s,1,q,0,0.758728027344,0.5,diamondorange.gif,go,,,,,,,,0.368048906326,,,,,,,,,,,,,,,,,,,,,,,,0.75,0.513640880585,0.000920057296753,0.368048906326,1,s,1132.46389985,,,,,,,,,,,,,,,,,,,,,,,,,,,,,,,,,2015_Jun_30_1148,60.1767869876,LearningTask,1,54,
-200,a,-200,,,,,,,,,,,,,,,,,2,0,2,0,19,0,76,3,,,,,,,,,,,,,,,,,,,,,,,,,,,,,a,1,None,0,,1.0,squarewhite.gif,stop,,,,,,,,0.350756168365,,,,,,,,,,,,,,,,,,,,,,,,0.92,0.51401591301,0.000983953475952,0.350756168365,1,a,1135.46740294,,,,,,,,,,,,,,,,,,,,,,,,,,,,,,,,,2015_Jun_30_1148,60.1767869876,LearningTask,1,54,
200,s,-200,,,,,,,,,,,,,,,,,2,0,2,0,19,1,77,2,,,,,,,,,,,,,,,,,,,,,,,,,,,,,s,1,None,0,,1.0,trianglegreen.gif,go,,,,,,,,0.400923013687,,,,,,,,,,,,,,,,,,,,,,,,1.1,0.513941049576,0.000910997390747,0.400923013687,1,s,1138.47038984,,,,,,,,,,,,,,,,,,,,,,,,,,,,,,,,,2015_Jun_30_1148,60.1767869876,LearningTask,1,54,
200,w,200,,,,,,,,,,,,,,,,,2,0,2,0,19,2,78,0,,,,,,,,,,,,,,,,,,,,,,,,,,,,,w,1,None,0,,0.5,diamondorange.gif,go,,,,,,,,0.350578069687,,,,,,,,,,,,,,,,,,,,,,,,0.65,0.514467954636,0.000875949859619,0.350578069687,1,w,1141.47395301,,,,,,,,,,,,,,,,,,,,,,,,,,,,,,,,,2015_Jun_30_1148,60.1767869876,LearningTask,1,54,
-200,q,200,,,,,,,,,,,,,,,,,2,0,2,0,19,3,79,1,,,,,,,,,,,,,,,,,,,,,,,,,,,,,q,1,None,0,,2.0,linemagenta.gif,go,,,,,,,,0.351248979568,,,,,,,,,,,,,,,,,,,,,,,,2.19,0.513856172562,0.000996112823486,0.351248979568,1,q,1144.47714901,,,,,,,,,,,,,,,,,,,,,,,,,,,,,,,,,2015_Jun_30_1148,60.1767869876,LearningTask,1,54,
200,s,-200,,,,,,,,,,,,,,,,,2,0,2,0,20,0,80,2,,,,,,,,,,,,,,,,,,,,,,,,,,,,,s,1,None,0,,1.0,trianglegreen.gif,go,,,,,,,,0.36782002449,,,,,,,,,,,,,,,,,,,,,,,,1.23,0.514046907425,0.000900983810425,0.36782002449,1,s,1147.48068094,,,,,,,,,,,,,,,,,,,,,,,,,,,,,,,,,2015_Jun_30_1148,60.1767869876,LearningTask,1,54,
200,s,-200,,,,,,,,,,,,,,,,,2,0,2,0,20,1,81,2,,,,,,,,,,,,,,,,,,,,,,,,,,,,,s,1,None,0,,1.0,squarewhite.gif,stop,,,,,,,,0.367230892181,,,,,,,,,,,,,,,,,,,,,,,,1.04,0.514050960541,0.000874042510986,0.367230892181,1,s,1150.48424983,,,,,,,,,,,,,,,,,,,,,,,,,,,,,,,,,2015_Jun_30_1148,60.1767869876,LearningTask,1,54,
200,s,-200,,,,,,,,,,,,,,,,,2,0,2,0,20,2,82,2,,,,,,,,,,,,,,,,,,,,,,,,,,,,,s,1,None,0,,2.0,circlecyan.gif,stop,,,,,,,,0.368082046509,,,,,,,,,,,,,,,,,,,,,,,,1.79,0.513289928436,0.000961065292358,0.368082046509,1,s,1153.48706985,,,,,,,,,,,,,,,,,,,,,,,,,,,,,,,,,2015_Jun_30_1148,60.1767869876,LearningTask,1,54,
-200,q,200,,,,,,,,,,,,,,,,,2,0,2,0,20,3,83,1,,,,,,,,,,,,,,,,,,,,,,,,,,,,,q,1,None,0,,0.5,diamondorange.gif,go,,,,,,,,0.417604207993,,,,,,,,,,,,,,,,,,,,,,,,0.58,0.51478600502,0.000885963439941,0.417604207993,1,q,1156.49070692,,,,,,,,,,,,,,,,,,,,,,,,,,,,,,,,,2015_Jun_30_1148,60.1767869876,LearningTask,1,54,
-200,q,200,,,,,,,,,,,,,,,,,2,0,2,0,21,0,84,1,,,,,,,,,,,,,,,,,,,,,,,,,,,,,q,1,None,0,,2.0,circlecyan.gif,stop,,,,,,,,0.400650978088,,,,,,,,,,,,,,,,,,,,,,,,1.84,0.514218091965,0.00090217590332,0.400650978088,1,q,1159.49425697,,,,,,,,,,,,,,,,,,,,,,,,,,,,,,,,,2015_Jun_30_1148,60.1767869876,LearningTask,1,54,
200,w,200,,,,,,,,,,,,,,,,,2,0,2,0,21,1,85,0,,,,,,,,,,,,,,,,,,,,,,,,,,,,,w,1,None,0,,0.5,crossblue.gif,stop,,,,,,,,0.40020108223,,,,,,,,,,,,,,,,,,,,,,,,0.44,0.513854026794,0.000937938690186,0.40020108223,1,w,1162.49723482,,,,,,,,,,,,,,,,,,,,,,,,,,,,,,,,,2015_Jun_30_1148,60.1767869876,LearningTask,1,54,
-200,a,-200,,,,,,,,,,,,,,,,,2,0,2,0,21,2,86,3,,,,,,,,,,,,,,,,,,,,,,,,,,,,,a,1,None,0,,0.5,crossblue.gif,stop,,,,,,,,0.50120306015,,,,,,,,,,,,,,,,,,,,,,,,0.75,0.514429807663,0.00088095664978,0.50120306015,1,a,1165.50066495,,,,,,,,,,,,,,,,,,,,,,,,,,,,,,,,,2015_Jun_30_1148,60.1767869876,LearningTask,1,54,
-200,a,-200,,,,,,,,,,,,,,,,,2,0,2,0,21,3,87,3,,,,,,,,,,,,,,,,,,,,,,,,,,,,,a,1,None,0,,0.5,diamondorange.gif,go,,,,,,,,0.36740899086,,,,,,,,,,,,,,,,,,,,,,,,0,0.514154195786,0.000882148742676,0.36740899086,1,a,1168.50463295,,,,,,,,,,,,,,,,,,,,,,,,,,,,,,,,,2015_Jun_30_1148,60.1767869876,LearningTask,1,54,
-200,a,-200,,,,,,,,,,,,,,,,,2,0,2,0,22,0,88,3,,,,,,,,,,,,,,,,,,,,,,,,,,,,,a,1,None,0,,1.0,trianglegreen.gif,go,,,,,,,,0.400653123856,,,,,,,,,,,,,,,,,,,,,,,,1.01,0.513781070709,0.000955104827881,0.400653123856,1,a,1171.50747991,,,,,,,,,,,,,,,,,,,,,,,,,,,,,,,,,2015_Jun_30_1148,60.1767869876,LearningTask,1,54,
200,s,-200,,,,,,,,,,,,,,,,,2,0,2,0,22,1,89,2,,,,,,,,,,,,,,,,,,,,,,,,,,,,,s,1,None,0,,1.0,squarewhite.gif,stop,,,,,,,,0.333841085434,,,,,,,,,,,,,,,,,,,,,,,,0.82,0.514386892319,0.00086784362793,0.333841085434,1,s,1174.51067781,,,,,,,,,,,,,,,,,,,,,,,,,,,,,,,,,2015_Jun_30_1148,60.1767869876,LearningTask,1,54,
-200,a,-200,,,,,,,,,,,,,,,,,2,0,2,0,22,2,90,3,,,,,,,,,,,,,,,,,,,,,,,,,,,,,a,1,None,0,,4.0,invertedtriangleyellow.gif,go,,,,,,,,0.401061058044,,,,,,,,,,,,,,,,,,,,,,,,4.22,0.5143430233,0.000924110412598,0.401061058044,1,a,1177.51416183,,,,,,,,,,,,,,,,,,,,,,,,,,,,,,,,,2015_Jun_30_1148,60.1767869876,LearningTask,1,54,
-200,a,-200,,,,,,,,,,,,,,,,,2,0,2,0,22,3,91,3,,,,,,,,,,,,,,,,,,,,,,,,,,,,,a,1,None,0,,2.0,linemagenta.gif,go,,,,,,,,0.368067979813,,,,,,,,,,,,,,,,,,,,,,,,2.06,0.513947963715,0.000930070877075,0.368067979813,1,a,1180.51755381,,,,,,,,,,,,,,,,,,,,,,,,,,,,,,,,,2015_Jun_30_1148,60.1767869876,LearningTask,1,54,
200,w,200,,,,,,,,,,,,,,,,,2,0,2,0,23,0,92,0,,,,,,,,,,,,,,,,,,,,,,,,,,,,,w,1,None,0,,4.0,invertedtriangleyellow.gif,go,,,,,,,,0.384445905685,,,,,,,,,,,,,,,,,,,,,,,,3.87,0.51421713829,0.000982999801636,0.384445905685,1,w,1183.52119088,,,,,,,,,,,,,,,,,,,,,,,,,,,,,,,,,2015_Jun_30_1148,60.1767869876,LearningTask,1,54,
-200,q,200,,,,,,,,,,,,,,,,,2,0,2,0,23,1,93,1,,,,,,,,,,,,,,,,,,,,,,,,,,,,,q,1,None,0,,4.0,hexagongray.gif,stop,,,,,,,,0.333961963654,,,,,,,,,,,,,,,,,,,,,,,,3.78,0.513925075531,0.000894069671631,0.333961963654,1,q,1186.52424383,,,,,,,,,,,,,,,,,,,,,,,,,,,,,,,,,2015_Jun_30_1148,60.1767869876,LearningTask,1,54,
