xPos,corrAns,yPos,corrGoResp,yPosGoStim,xPosGoStim,pracTrials.thisRepN,pracTrials.thisTrialN,pracTrials.thisN,pracTrials.thisIndex,ReDoLoopPrac.thisRepN,ReDoLoopPrac.thisTrialN,ReDoLoopPrac.thisN,ReDoLoopPrac.thisIndex,ReDoLoopPrac.thisTrial,pracStopTrials.thisRepN,pracStopTrials.thisTrialN,pracStopTrials.thisN,pracStopTrials.thisIndex,Blocks.thisRepN,Blocks.thisTrialN,Blocks.thisN,Blocks.thisIndex,trials.thisRepN,trials.thisTrialN,trials.thisN,trials.thisIndex,ReDoLoopMain.thisRepN,ReDoLoopMain.thisTrialN,ReDoLoopMain.thisN,ReDoLoopMain.thisIndex,ReDoLoopMain.thisTrial,StopBlocks.thisRepN,StopBlocks.thisTrialN,StopBlocks.thisN,StopBlocks.thisIndex,StopTrials.thisRepN,StopTrials.thisTrialN,StopTrials.thisN,StopTrials.thisIndex,auctionBlocks.thisRepN,auctionBlocks.thisTrialN,auctionBlocks.thisN,auctionBlocks.thisIndex,auctionTrials.thisRepN,auctionTrials.thisTrialN,auctionTrials.thisN,auctionTrials.thisIndex,learningTrialList,learningPracTrialList,stopTrialList,stopPracTrialList,auctionTrialList,ok1.keys,ok1.rt,resp.keys,resp.corr,resp.rt,feedbackResp.keys,feedbackResp.corr,currentReward,currentStimulus,currentStimType,firstPracComputedRewardOutput,firstPracLearningStimOnset,firstPracLearningFixOnset,firstPracPresentationRT,firstPracPresentationAcc,firstPracPresentationResp,firstPracEndTrialTimeStamp,StartTrialTimeStamp,trialType,goStim,stimType,stopStimValue,goResp.keys,goResp.corr,goResp.rt,key_resp_9.keys,key_resp_9.corr,fixStopOnset,goStimOnset,stopSignalOnset,EndTrialTimeStamp,key_resp_3.keys,key_resp_3.rt,firstComputedRewardOutput,firstLearningStimOnset,firstLearningFixOnset,firstPresentationRT,firstPresentationAcc,firstPresentationResp,firstEndTrialTimeStamp,key_resp_7.keys,key_resp_7.rt,feedbackResp.rt,secondComputedRewardOutput,secondLearningStimOnset,secondLearningFixOnset,secondPresentationRT,secondPresentationAcc,secondPresentationResp,secondEndTrialTimeStamp,beginningSSD,EndingSSD,key_resp_4.keys,key_resp_4.rt,auctionResponse.keys,auctionResponse.rt,auctionStimDuration,auctionStim,auctionAmounts,auctionStimValue,auctionCondition,chosenAuctionAmount,key_resp_5.keys,key_resp_5.rt,shuffledRewardList,chosenReward1,chosenReward2,chosenReward3,chosenReward4,chosenReward5,key_resp_6.keys,key_resp_6.rt,date,frameRate,expName,session,participant,
,,,,,,,,,,,,,,,,,,,,,,,,,,,,,,,,,,,,,,,,,,,,,,,,[],[],[],[],[],9,78.1156201363,,,,,,,,,,,,,,,,,,,,,,,,,,,,,,,,,,,,,,,,,,,,,,,,,,,,,,,,,,,,,,,,,,,,,,,2015_Jul_06_1004,59.7029304128,LearningTask,1,55,
200,s,-200,,,,0,0,0,2,,,,,,,,,,,,,,,,,,,,,,,,,,,,,,,,,,,,,,,,,,,,,,s,1,0.718077898026,None,0,0.5,trianglemagenta.gif,go,0.37,0.500169038773,0.0173079967499,0.718077898026,1,s,92.3617539406,,,,,,,,,,,,,,,,,,,,,,,,,,,,,,,,,,,,,,,,,,,,,,,,,,,,,,,,2015_Jul_06_1004,59.7029304128,LearningTask,1,55,
200,w,200,,,,0,1,1,8,,,,,,,,,,,,,,,,,,,,,,,,,,,,,,,,,,,,,,,,,,,,,,w,1,0.36748290062,None,0,0.5,diamondblue.gif,stop,0.67,0.51510310173,0.0440800189972,0.36748290062,1,w,95.3651478291,,,,,,,,,,,,,,,,,,,,,,,,,,,,,,,,,,,,,,,,,,,,,,,,,,,,,,,,2015_Jul_06_1004,59.7029304128,LearningTask,1,55,
-200,a,-200,,,,0,2,2,3,,,,,,,,,,,,,,,,,,,,,,,,,,,,,,,,,,,,,,,,,,,,,,a,1,0.434226036072,None,0,2.0,squaregray.gif,stop,0,0.514620065689,0.0446660518646,0.434226036072,1,a,98.3685588837,,,,,,,,,,,,,,,,,,,,,,,,,,,,,,,,,,,,,,,,,,,,,,,,,,,,,,,,2015_Jul_06_1004,59.7029304128,LearningTask,1,55,
-200,a,-200,,,,0,3,3,7,,,,,,,,,,,,,,,,,,,,,,,,,,,,,,,,,,,,,,,,,,,,,,a,1,0.46773481369,None,0,4.0,linecyan.gif,go,0,0.514469146729,0.0221149921417,0.46773481369,1,a,101.371257782,,,,,,,,,,,,,,,,,,,,,,,,,,,,,,,,,,,,,,,,,,,,,,,,,,,,,,,,2015_Jul_06_1004,59.7029304128,LearningTask,1,55,
200,w,200,,,,0,4,4,0,,,,,,,,,,,,,,,,,,,,,,,,,,,,,,,,,,,,,,,,,,,,,,w,1,0.485095977783,None,0,4.0,hexagonwhite.gif,stop,4.08,0.515114068985,0.0415799617767,0.485095977783,1,w,104.374832869,,,,,,,,,,,,,,,,,,,,,,,,,,,,,,,,,,,,,,,,,,,,,,,,,,,,,,,,2015_Jul_06_1004,59.7029304128,LearningTask,1,55,
-200,q,200,,,,0,5,5,9,,,,,,,,,,,,,,,,,,,,,,,,,,,,,,,,,,,,,,,,,,,,,,q,1,0.384427070618,None,0,4.0,hexagonwhite.gif,stop,3.87,0.51492190361,0.000897884368896,0.384427070618,1,q,107.378146887,,,,,,,,,,,,,,,,,,,,,,,,,,,,,,,,,,,,,,,,,,,,,,,,,,,,,,,,2015_Jul_06_1004,59.7029304128,LearningTask,1,55,
200,s,-200,,,,0,6,6,6,,,,,,,,,,,,,,,,,,,,,,,,,,,,,,,,,,,,,,,,,,,,,,s,1,0.333741903305,None,0,2.0,invertedtriangleorange.gif,go,2.23,0.51557803154,0.0122539997101,0.333741903305,1,s,110.381582975,,,,,,,,,,,,,,,,,,,,,,,,,,,,,,,,,,,,,,,,,,,,,,,,,,,,,,,,2015_Jul_06_1004,59.7029304128,LearningTask,1,55,
200,w,200,,,,0,7,7,4,,,,,,,,,,,,,,,,,,,,,,,,,,,,,,,,,,,,,,,,,,,,,,w,1,0.38406586647,None,0,2.0,squaregray.gif,stop,2.19,0.514957904816,0.000927925109863,0.38406586647,1,w,113.385146856,,,,,,,,,,,,,,,,,,,,,,,,,,,,,,,,,,,,,,,,,,,,,,,,,,,,,,,,2015_Jul_06_1004,59.7029304128,LearningTask,1,55,
-200,q,200,,,,0,8,8,5,,,,,,,,,,,,,,,,,,,,,,,,,,,,,,,,,,,,,,,,,,,,,,q,1,0.351015090942,None,0,0.5,trianglemagenta.gif,go,0.67,0.514724969864,0.000958919525146,0.351015090942,1,q,116.388089895,,,,,,,,,,,,,,,,,,,,,,,,,,,,,,,,,,,,,,,,,,,,,,,,,,,,,,,,2015_Jul_06_1004,59.7029304128,LearningTask,1,55,
-200,q,200,,,,0,9,9,1,,,,,,,,,,,,,,,,,,,,,,,,,,,,,,,,,,,,,,,,,,,,,,q,1,0.334236860275,None,0,2.0,squaregray.gif,stop,0,0.515160799026,0.00113892555237,0.334236860275,1,q,119.391418934,,,,,,,,,,,,,,,,,,,,,,,,,,,,,,,,,,,,,,,,,,,,,,,,,,,,,,,,2015_Jul_06_1004,59.7029304128,LearningTask,1,55,
,,,m,0,200,,,,,,,,,,0,0,0,1,,,,,,,,,,,,,,,,,,,,,,,,,,,,,,,,,,,,,,,,,,,,,,,,,,,,171.468287945,stop,diamondblue.gif,stop,0.5,m,1,0.618407964706,None,0,0.00154519081116,0.513185024261,0.763430118561,174.469712973,,,,,,,,,,,,,,,,,,,,,,,,,,,,,,,,,,,,,,,,,,2015_Jul_06_1004,59.7029304128,LearningTask,1,55,
,,,m,0,200,,,,,,,,,,0,1,1,1,,,,,,,,,,,,,,,,,,,,,,,,,,,,,,,,,,,,,,,,,,,,,,,,,,,,174.470151901,go,linecyan.gif,go,4.0,m,1,0.467651128769,None,0,0.000952005386353,0.515564918518,,177.472730875,,,,,,,,,,,,,,,,,,,,,,,,,,,,,,,,,,,,,,,,,,2015_Jul_06_1004,59.7029304128,LearningTask,1,55,
,,,z,0,-200,,,,,,,,,,1,0,2,0,,,,,,,,,,,,,,,,,,,,,,,,,,,,,,,,,,,,,,,,,,,,,,,,,,,,177.473090887,stop,squaregray.gif,stop,2.0,z,1,0.667673826218,None,0,0.000951051712036,0.515986919403,0.766340970993,180.476113796,,,,,,,,,,,,,,,,,,,,,,,,,,,,,,,,,,,,,,,,,,2015_Jul_06_1004,59.7029304128,LearningTask,1,55,
,,,z,0,-200,,,,,,,,,,1,1,3,0,,,,,,,,,,,,,,,,,,,,,,,,,,,,,,,,,,,,,,,,,,,,,,,,,,,,180.476472855,stop,diamondblue.gif,stop,0.5,z,1,0.617841005325,None,0,0.000962972640991,0.515803813934,0.766269922256,183.479519844,,,,,,,,,,,,,,,,,,,,,,,,,,,,,,,,,,,,,,,,,,2015_Jul_06_1004,59.7029304128,LearningTask,1,55,
,,,z,0,-200,,,,,,,,,,2,0,4,0,,,,,,,,,,,,,,,,,,,,,,,,,,,,,,,,,,,,,,,,,,,,,,,,,,,,183.479908943,stop,hexagonwhite.gif,stop,4.0,z,1,0.601180076599,None,0,0.00108504295349,0.515788078308,0.76601099968,186.482908964,,,,,,,,,,,,,,,,,,,,,,,,,,,,,,,,,,,,,,,,,,2015_Jul_06_1004,59.7029304128,LearningTask,1,55,
,,,z,0,-200,,,,,,,,,,2,1,5,0,,,,,,,,,,,,,,,,,,,,,,,,,,,,,,,,,,,,,,,,,,,,,,,,,,,,186.483270884,go,linecyan.gif,go,4.0,None,0,,None,0,0.000949144363403,0.515689134598,,189.486881971,,,,,,,,,,,,,,,,,,,,,,,,,,,,,,,,,,,,,,,,,,2015_Jul_06_1004,59.7029304128,LearningTask,1,55,
,,,m,0,200,,,,,,,,,,3,0,6,1,,,,,,,,,,,,,,,,,,,,,,,,,,,,,,,,,,,,,,,,,,,,,,,,,,,,189.487290859,go,trianglemagenta.gif,go,0.5,m,1,0.751508235931,None,0,0.000978946685791,0.514804840088,,192.489501953,,,,,,,,,,,,,,,,,,,,,,,,,,,,,,,,,,,,,,,,,,2015_Jul_06_1004,59.7029304128,LearningTask,1,55,
,,,z,0,-200,,,,,,,,,,3,1,7,0,,,,,,,,,,,,,,,,,,,,,,,,,,,,,,,,,,,,,,,,,,,,,,,,,,,,192.489866972,go,linecyan.gif,go,4.0,None,0,,None,0,0.00100493431091,0.515855073929,,195.492852926,,,,,,,,,,,,,,,,,,,,,,,,,,,,,,,,,,,,,,,,,,2015_Jul_06_1004,59.7029304128,LearningTask,1,55,
,,,m,0,200,,,,,,,,,,4,0,8,1,,,,,,,,,,,,,,,,,,,,,,,,,,,,,,,,,,,,,,,,,,,,,,,,,,,,195.493214846,stop,hexagonwhite.gif,stop,4.0,m,1,0.734879016876,None,0,0.000972986221313,0.515872955322,0.766378879547,198.496634007,,,,,,,,,,,,,,,,,,,,,,,,,,,,,,,,,,,,,,,,,,2015_Jul_06_1004,59.7029304128,LearningTask,1,55,
,,,m,0,200,,,,,,,,,,4,1,9,1,,,,,,,,,,,,,,,,,,,,,,,,,,,,,,,,,,,,,,,,,,,,,,,,,,,,198.497049809,stop,squaregray.gif,stop,2.0,m,1,0.701135158539,None,0,0.000957012176514,0.515283107758,0.765866041183,201.499625921,,,,,,,,,,,,,,,,,,,,,,,,,,,,,,,,,,,,,,,,,,2015_Jul_06_1004,59.7029304128,LearningTask,1,55,
,,,,,,,,,,,,,,,,,,,,,,,,,,,,,,,,,,,,,,,,,,,,,,,,,,,,,,,,,,,,,,,,,,,,,,,,,,,,,,,,,,,,9,56.9907381535,,,,,,,,,,,,,,,,,,,,,,,,,,,,,,,,,,,,,,,,2015_Jul_06_1004,59.7029304128,LearningTask,1,55,
,,,,,,,,,,,,,,,,,,,,,,,,,,,,,,,,,,,,,,,,,,,,,,,,,,,,,9,6.65742516518,,,,,,,,,,,,,,,,,,,,,,,,,,,,,,,,,,,,,,,,,,,,,,,,,,,,,,,,,,,,,,,,,,,,,,,2015_Jul_06_1004,59.7029304128,LearningTask,1,55,
200,w,200,,,,,,,,,,,,,,,,,0,0,0,0,0,0,0,0,,,,,,,,,,,,,,,,,,,,,,,,,,,,,w,1,0.834726810455,None,0,2.0,invertedtriangleorange.gif,go,,,,,,,,,,,,,,,,,,,,,,,,2.16,0.514117002487,0.000924825668335,0.834726810455,1,w,268.358704805,,,,,,,,,,,,,,,,,,,,,,,,,,,,,,,,,2015_Jul_06_1004,59.7029304128,LearningTask,1,55,
-200,q,200,,,,,,,,,,,,,,,,,0,0,0,0,0,1,1,1,,,,,,,,,,,,,,,,,,,,,,,,,,,,,q,1,0.367548942566,None,0,4.0,linecyan.gif,go,,,,,,,,,,,,,,,,,,,,,,,,3.91,0.51362991333,0.000926971435547,0.367548942566,1,q,271.36181879,,,,,,,,,,,,,,,,,,,,,,,,,,,,,,,,,2015_Jul_06_1004,59.7029304128,LearningTask,1,55,
200,s,-200,,,,,,,,,,,,,,,,,0,0,0,0,0,2,2,2,,,,,,,,,,,,,,,,,,,,,,,,,,,,,s,1,0.350723981857,None,0,2.0,invertedtriangleorange.gif,go,,,,,,,,,,,,,,,,,,,,,,,,1.81,0.514353990555,0.000960111618042,0.350723981857,1,s,274.364980936,,,,,,,,,,,,,,,,,,,,,,,,,,,,,,,,,2015_Jul_06_1004,59.7029304128,LearningTask,1,55,
-200,a,-200,,,,,,,,,,,,,,,,,0,0,0,0,0,3,3,3,,,,,,,,,,,,,,,,,,,,,,,,,,,,,a,1,0.334416151047,None,0,0.5,trianglemagenta.gif,go,,,,,,,,,,,,,,,,,,,,,,,,0.39,0.514132022858,0.000952005386353,0.334416151047,1,a,277.368350983,,,,,,,,,,,,,,,,,,,,,,,,,,,,,,,,,2015_Jul_06_1004,59.7029304128,LearningTask,1,55,
200,w,200,,,,,,,,,,,,,,,,,0,0,0,0,1,0,4,0,,,,,,,,,,,,,,,,,,,,,,,,,,,,,w,1,0.38387298584,None,0,0.5,trianglemagenta.gif,go,,,,,,,,,,,,,,,,,,,,,,,,0.3,0.514420032501,0.000975131988525,0.38387298584,1,w,280.371703863,,,,,,,,,,,,,,,,,,,,,,,,,,,,,,,,,2015_Jul_06_1004,59.7029304128,LearningTask,1,55,
-200,a,-200,,,,,,,,,,,,,,,,,0,0,0,0,1,1,5,3,,,,,,,,,,,,,,,,,,,,,,,,,,,,,a,1,0.350931882858,None,0,1.0,crossyellow.gif,go,,,,,,,,,,,,,,,,,,,,,,,,1.11,0.514506101608,0.00700807571411,0.350931882858,1,a,283.375110865,,,,,,,,,,,,,,,,,,,,,,,,,,,,,,,,,2015_Jul_06_1004,59.7029304128,LearningTask,1,55,
-200,a,-200,,,,,,,,,,,,,,,,,0,0,0,0,1,2,6,3,,,,,,,,,,,,,,,,,,,,,,,,,,,,,a,1,0.417950868607,None,0,4.0,linecyan.gif,go,,,,,,,,,,,,,,,,,,,,,,,,4.17,0.51443696022,0.000885963439941,0.417950868607,1,a,286.378579855,,,,,,,,,,,,,,,,,,,,,,,,,,,,,,,,,2015_Jul_06_1004,59.7029304128,LearningTask,1,55,
200,w,200,,,,,,,,,,,,,,,,,0,0,0,0,1,3,7,0,,,,,,,,,,,,,,,,,,,,,,,,,,,,,w,1,0.500833034515,None,0,2.0,invertedtriangleorange.gif,go,,,,,,,,,,,,,,,,,,,,,,,,0,0.514008045197,0.000900030136108,0.500833034515,1,w,289.381766796,,,,,,,,,,,,,,,,,,,,,,,,,,,,,,,,,2015_Jul_06_1004,59.7029304128,LearningTask,1,55,
200,s,-200,,,,,,,,,,,,,,,,,0,0,0,0,2,0,8,2,,,,,,,,,,,,,,,,,,,,,,,,,,,,,s,1,0.417436122894,None,0,2.0,invertedtriangleorange.gif,go,,,,,,,,,,,,,,,,,,,,,,,,1.88,0.51435303688,0.000905990600586,0.417436122894,1,s,292.385113955,,,,,,,,,,,,,,,,,,,,,,,,,,,,,,,,,2015_Jul_06_1004,59.7029304128,LearningTask,1,55,
200,w,200,,,,,,,,,,,,,,,,,0,0,0,0,2,1,9,0,,,,,,,,,,,,,,,,,,,,,,,,,,,,,w,1,0.40084695816,None,0,2.0,invertedtriangleorange.gif,go,,,,,,,,,,,,,,,,,,,,,,,,0,0.514308929443,0.00094199180603,0.40084695816,1,w,295.388863802,,,,,,,,,,,,,,,,,,,,,,,,,,,,,,,,,2015_Jul_06_1004,59.7029304128,LearningTask,1,55,
-200,a,-200,,,,,,,,,,,,,,,,,0,0,0,0,2,2,10,3,,,,,,,,,,,,,,,,,,,,,,,,,,,,,a,1,0.317359924316,None,0,2.0,invertedtriangleorange.gif,go,,,,,,,,,,,,,,,,,,,,,,,,1.96,0.513361930847,0.00100088119507,0.317359924316,1,a,298.391935825,,,,,,,,,,,,,,,,,,,,,,,,,,,,,,,,,2015_Jul_06_1004,59.7029304128,LearningTask,1,55,
200,s,-200,,,,,,,,,,,,,,,,,0,0,0,0,2,3,11,2,,,,,,,,,,,,,,,,,,,,,,,,,,,,,s,1,0.334714889526,None,0,2.0,invertedtriangleorange.gif,go,,,,,,,,,,,,,,,,,,,,,,,,1.93,0.514055013657,0.00090503692627,0.334714889526,1,s,301.395177841,,,,,,,,,,,,,,,,,,,,,,,,,,,,,,,,,2015_Jul_06_1004,59.7029304128,LearningTask,1,55,
200,s,-200,,,,,,,,,,,,,,,,,0,0,0,0,3,0,12,2,,,,,,,,,,,,,,,,,,,,,,,,,,,,,s,1,0.367653131485,None,0,1.0,crossyellow.gif,go,,,,,,,,,,,,,,,,,,,,,,,,1.25,0.514246940613,0.000905990600586,0.367653131485,1,s,304.398599863,,,,,,,,,,,,,,,,,,,,,,,,,,,,,,,,,2015_Jul_06_1004,59.7029304128,LearningTask,1,55,
-200,a,-200,,,,,,,,,,,,,,,,,0,0,0,0,3,1,13,3,,,,,,,,,,,,,,,,,,,,,,,,,,,,,a,1,0.368165969849,None,0,0.5,diamondblue.gif,stop,,,,,,,,,,,,,,,,,,,,,,,,0.34,0.514185905457,0.000901937484741,0.368165969849,1,a,307.402070999,,,,,,,,,,,,,,,,,,,,,,,,,,,,,,,,,2015_Jul_06_1004,59.7029304128,LearningTask,1,55,
-200,a,-200,,,,,,,,,,,,,,,,,0,0,0,0,3,2,14,3,,,,,,,,,,,,,,,,,,,,,,,,,,,,,a,1,0.334290027618,None,0,1.0,crossyellow.gif,go,,,,,,,,,,,,,,,,,,,,,,,,0,0.514220952988,0.00101494789124,0.334290027618,1,a,310.405162811,,,,,,,,,,,,,,,,,,,,,,,,,,,,,,,,,2015_Jul_06_1004,59.7029304128,LearningTask,1,55,
200,w,200,,,,,,,,,,,,,,,,,0,0,0,0,3,3,15,0,,,,,,,,,,,,,,,,,,,,,,,,,,,,,w,1,0.367475986481,None,0,1.0,circlegreen.gif,stop,,,,,,,,,,,,,,,,,,,,,,,,0.88,0.515097856522,0.00747585296631,0.367475986481,1,w,313.408963919,,,,,,,,,,,,,,,,,,,,,,,,,,,,,,,,,2015_Jul_06_1004,59.7029304128,LearningTask,1,55,
-200,a,-200,,,,,,,,,,,,,,,,,0,0,0,0,4,0,16,3,,,,,,,,,,,,,,,,,,,,,,,,,,,,,a,1,0.367493867874,None,0,4.0,hexagonwhite.gif,stop,,,,,,,,,,,,,,,,,,,,,,,,4.02,0.51407289505,0.00178384780884,0.367493867874,1,a,316.412040949,,,,,,,,,,,,,,,,,,,,,,,,,,,,,,,,,2015_Jul_06_1004,59.7029304128,LearningTask,1,55,
-200,a,-200,,,,,,,,,,,,,,,,,0,0,0,0,4,1,17,3,,,,,,,,,,,,,,,,,,,,,,,,,,,,,a,1,0.350641012192,None,0,4.0,hexagonwhite.gif,stop,,,,,,,,,,,,,,,,,,,,,,,,4.13,0.514206886292,0.00110483169556,0.350641012192,1,a,319.415879965,,,,,,,,,,,,,,,,,,,,,,,,,,,,,,,,,2015_Jul_06_1004,59.7029304128,LearningTask,1,55,
200,s,-200,,,,,,,,,,,,,,,,,0,0,0,0,4,2,18,2,,,,,,,,,,,,,,,,,,,,,,,,,,,,,s,1,0.367316961288,None,0,4.0,hexagonwhite.gif,stop,,,,,,,,,,,,,,,,,,,,,,,,3.9,0.513626098633,0.00101017951965,0.367316961288,1,s,322.419115782,,,,,,,,,,,,,,,,,,,,,,,,,,,,,,,,,2015_Jul_06_1004,59.7029304128,LearningTask,1,55,
-200,a,-200,,,,,,,,,,,,,,,,,0,0,0,0,4,3,19,3,,,,,,,,,,,,,,,,,,,,,,,,,,,,,a,1,0.351100921631,None,0,1.0,crossyellow.gif,go,,,,,,,,,,,,,,,,,,,,,,,,0,0.514023065567,0.000899076461792,0.351100921631,1,a,325.422076941,,,,,,,,,,,,,,,,,,,,,,,,,,,,,,,,,2015_Jul_06_1004,59.7029304128,LearningTask,1,55,
200,s,-200,,,,,,,,,,,,,,,,,0,0,0,0,5,0,20,2,,,,,,,,,,,,,,,,,,,,,,,,,,,,,s,1,0.384594202042,None,0,4.0,hexagonwhite.gif,stop,,,,,,,,,,,,,,,,,,,,,,,,3.91,0.514099836349,0.00092601776123,0.384594202042,1,s,328.425390005,,,,,,,,,,,,,,,,,,,,,,,,,,,,,,,,,2015_Jul_06_1004,59.7029304128,LearningTask,1,55,
-200,a,-200,,,,,,,,,,,,,,,,,0,0,0,0,5,1,21,3,,,,,,,,,,,,,,,,,,,,,,,,,,,,,a,1,0.35054397583,None,0,0.5,diamondblue.gif,stop,,,,,,,,,,,,,,,,,,,,,,,,0.41,0.514405965805,0.000908851623535,0.35054397583,1,a,331.429051876,,,,,,,,,,,,,,,,,,,,,,,,,,,,,,,,,2015_Jul_06_1004,59.7029304128,LearningTask,1,55,
-200,q,200,,,,,,,,,,,,,,,,,0,0,0,0,5,2,22,1,,,,,,,,,,,,,,,,,,,,,,,,,,,,,q,1,0.317714929581,None,0,1.0,circlegreen.gif,stop,,,,,,,,,,,,,,,,,,,,,,,,0,0.514154195786,0.000894069671631,0.317714929581,1,q,334.432374954,,,,,,,,,,,,,,,,,,,,,,,,,,,,,,,,,2015_Jul_06_1004,59.7029304128,LearningTask,1,55,
-200,a,-200,,,,,,,,,,,,,,,,,0,0,0,0,5,3,23,3,,,,,,,,,,,,,,,,,,,,,,,,,,,,,a,1,0.318017959595,None,0,0.5,diamondblue.gif,stop,,,,,,,,,,,,,,,,,,,,,,,,0.6,0.513805150986,0.000920057296753,0.318017959595,1,a,337.436058998,,,,,,,,,,,,,,,,,,,,,,,,,,,,,,,,,2015_Jul_06_1004,59.7029304128,LearningTask,1,55,
-200,a,-200,,,,,,,,,,,,,,,,,0,0,0,0,6,0,24,3,,,,,,,,,,,,,,,,,,,,,,,,,,,,,a,1,0.317578077316,None,0,0.5,trianglemagenta.gif,go,,,,,,,,,,,,,,,,,,,,,,,,0.31,0.513746023178,0.000888109207153,0.317578077316,1,a,340.439393997,,,,,,,,,,,,,,,,,,,,,,,,,,,,,,,,,2015_Jul_06_1004,59.7029304128,LearningTask,1,55,
-200,a,-200,,,,,,,,,,,,,,,,,0,0,0,0,6,1,25,3,,,,,,,,,,,,,,,,,,,,,,,,,,,,,a,1,0.31759595871,None,0,4.0,linecyan.gif,go,,,,,,,,,,,,,,,,,,,,,,,,4.24,0.513887166977,0.000943183898926,0.31759595871,1,a,343.442674875,,,,,,,,,,,,,,,,,,,,,,,,,,,,,,,,,2015_Jul_06_1004,59.7029304128,LearningTask,1,55,
200,w,200,,,,,,,,,,,,,,,,,0,0,0,0,6,2,26,0,,,,,,,,,,,,,,,,,,,,,,,,,,,,,w,1,0.451112031937,None,0,4.0,hexagonwhite.gif,stop,,,,,,,,,,,,,,,,,,,,,,,,4.01,0.513682842255,0.00092887878418,0.451112031937,1,w,346.445542812,,,,,,,,,,,,,,,,,,,,,,,,,,,,,,,,,2015_Jul_06_1004,59.7029304128,LearningTask,1,55,
200,w,200,,,,,,,,,,,,,,,,,0,0,0,0,6,3,27,0,,,,,,,,,,,,,,,,,,,,,,,,,,,,,w,1,0.467893123627,None,0,2.0,squaregray.gif,stop,,,,,,,,,,,,,,,,,,,,,,,,2.1,0.514392852783,0.000887870788574,0.467893123627,1,w,349.448771,,,,,,,,,,,,,,,,,,,,,,,,,,,,,,,,,2015_Jul_06_1004,59.7029304128,LearningTask,1,55,
-200,a,-200,,,,,,,,,,,,,,,,,0,0,0,0,7,0,28,3,,,,,,,,,,,,,,,,,,,,,,,,,,,,,a,1,0.300512075424,None,0,0.5,diamondblue.gif,stop,,,,,,,,,,,,,,,,,,,,,,,,0.25,0.514609098434,0.000917911529541,0.300512075424,1,a,352.452586889,,,,,,,,,,,,,,,,,,,,,,,,,,,,,,,,,2015_Jul_06_1004,59.7029304128,LearningTask,1,55,
-200,q,200,,,,,,,,,,,,,,,,,0,0,0,0,7,1,29,1,,,,,,,,,,,,,,,,,,,,,,,,,,,,,q,1,0.33414888382,None,0,4.0,hexagonwhite.gif,stop,,,,,,,,,,,,,,,,,,,,,,,,4.24,0.514025211334,0.000898122787476,0.33414888382,1,q,355.455592871,,,,,,,,,,,,,,,,,,,,,,,,,,,,,,,,,2015_Jul_06_1004,59.7029304128,LearningTask,1,55,
200,w,200,,,,,,,,,,,,,,,,,0,0,0,0,7,2,30,0,,,,,,,,,,,,,,,,,,,,,,,,,,,,,w,1,0.383926868439,None,0,0.5,diamondblue.gif,stop,,,,,,,,,,,,,,,,,,,,,,,,0.71,0.514521121979,0.00101804733276,0.383926868439,1,w,358.458817959,,,,,,,,,,,,,,,,,,,,,,,,,,,,,,,,,2015_Jul_06_1004,59.7029304128,LearningTask,1,55,
200,w,200,,,,,,,,,,,,,,,,,0,0,0,0,7,3,31,0,,,,,,,,,,,,,,,,,,,,,,,,,,,,,w,1,0.467505931854,None,0,0.5,diamondblue.gif,stop,,,,,,,,,,,,,,,,,,,,,,,,0.57,0.514568090439,0.000894069671631,0.467505931854,1,w,361.462509871,,,,,,,,,,,,,,,,,,,,,,,,,,,,,,,,,2015_Jul_06_1004,59.7029304128,LearningTask,1,55,
-200,q,200,,,,,,,,,,,,,,,,,0,0,0,0,8,0,32,1,,,,,,,,,,,,,,,,,,,,,,,,,,,,,q,1,0.317742109299,None,0,2.0,invertedtriangleorange.gif,go,,,,,,,,,,,,,,,,,,,,,,,,2.07,0.51403093338,0.000905990600586,0.317742109299,1,q,364.465754986,,,,,,,,,,,,,,,,,,,,,,,,,,,,,,,,,2015_Jul_06_1004,59.7029304128,LearningTask,1,55,
-200,a,-200,,,,,,,,,,,,,,,,,0,0,0,0,8,1,33,3,,,,,,,,,,,,,,,,,,,,,,,,,,,,,a,1,0.334177017212,None,0,4.0,hexagonwhite.gif,stop,,,,,,,,,,,,,,,,,,,,,,,,4.11,0.513833045959,0.000942945480347,0.334177017212,1,a,367.469064951,,,,,,,,,,,,,,,,,,,,,,,,,,,,,,,,,2015_Jul_06_1004,59.7029304128,LearningTask,1,55,
-200,a,-200,,,,,,,,,,,,,,,,,0,0,0,0,8,2,34,3,,,,,,,,,,,,,,,,,,,,,,,,,,,,,a,1,0.350608110428,None,0,1.0,circlegreen.gif,stop,,,,,,,,,,,,,,,,,,,,,,,,0,0.514274120331,0.000908136367798,0.350608110428,1,a,370.47220397,,,,,,,,,,,,,,,,,,,,,,,,,,,,,,,,,2015_Jul_06_1004,59.7029304128,LearningTask,1,55,
200,w,200,,,,,,,,,,,,,,,,,0,0,0,0,8,3,35,0,,,,,,,,,,,,,,,,,,,,,,,,,,,,,w,1,0.367280960083,None,0,2.0,invertedtriangleorange.gif,go,,,,,,,,,,,,,,,,,,,,,,,,1.87,0.51464509964,0.000900983810425,0.367280960083,1,w,373.475819826,,,,,,,,,,,,,,,,,,,,,,,,,,,,,,,,,2015_Jul_06_1004,59.7029304128,LearningTask,1,55,
200,w,200,,,,,,,,,,,,,,,,,0,0,0,0,9,0,36,0,,,,,,,,,,,,,,,,,,,,,,,,,,,,,w,1,0.367605924606,None,0,0.5,diamondblue.gif,stop,,,,,,,,,,,,,,,,,,,,,,,,0.31,0.513972997665,0.000924110412598,0.367605924606,1,w,376.478949785,,,,,,,,,,,,,,,,,,,,,,,,,,,,,,,,,2015_Jul_06_1004,59.7029304128,LearningTask,1,55,
200,s,-200,,,,,,,,,,,,,,,,,0,0,0,0,9,1,37,2,,,,,,,,,,,,,,,,,,,,,,,,,,,,,s,1,0.384269952774,None,0,1.0,circlegreen.gif,stop,,,,,,,,,,,,,,,,,,,,,,,,0.99,0.514503955841,0.00113487243652,0.384269952774,1,s,379.482385874,,,,,,,,,,,,,,,,,,,,,,,,,,,,,,,,,2015_Jul_06_1004,59.7029304128,LearningTask,1,55,
200,s,-200,,,,,,,,,,,,,,,,,0,0,0,0,9,2,38,2,,,,,,,,,,,,,,,,,,,,,,,,,,,,,s,1,0.350926876068,None,0,4.0,linecyan.gif,go,,,,,,,,,,,,,,,,,,,,,,,,3.75,0.514524936676,0.00090503692627,0.350926876068,1,s,382.486244917,,,,,,,,,,,,,,,,,,,,,,,,,,,,,,,,,2015_Jul_06_1004,59.7029304128,LearningTask,1,55,
200,s,-200,,,,,,,,,,,,,,,,,0,0,0,0,9,3,39,2,,,,,,,,,,,,,,,,,,,,,,,,,,,,,s,1,0.351050853729,None,0,4.0,linecyan.gif,go,,,,,,,,,,,,,,,,,,,,,,,,4.1,0.513413190842,0.000909090042114,0.351050853729,1,s,385.48940587,,,,,,,,,,,,,,,,,,,,,,,,,,,,,,,,,2015_Jul_06_1004,59.7029304128,LearningTask,1,55,
-200,q,200,,,,,,,,,,,,,,,,,0,0,0,0,10,0,40,1,,,,,,,,,,,,,,,,,,,,,,,,,,,,,q,1,0.383898019791,None,0,0.5,trianglemagenta.gif,go,,,,,,,,,,,,,,,,,,,,,,,,0,0.514270067215,0.00092601776123,0.383898019791,1,q,388.492403984,,,,,,,,,,,,,,,,,,,,,,,,,,,,,,,,,2015_Jul_06_1004,59.7029304128,LearningTask,1,55,
-200,a,-200,,,,,,,,,,,,,,,,,0,0,0,0,10,1,41,3,,,,,,,,,,,,,,,,,,,,,,,,,,,,,a,1,0.317378997803,None,0,1.0,circlegreen.gif,stop,,,,,,,,,,,,,,,,,,,,,,,,0.77,0.514388084412,0.00090503692627,0.317378997803,1,a,391.495992899,,,,,,,,,,,,,,,,,,,,,,,,,,,,,,,,,2015_Jul_06_1004,59.7029304128,LearningTask,1,55,
200,w,200,,,,,,,,,,,,,,,,,0,0,0,0,10,2,42,0,,,,,,,,,,,,,,,,,,,,,,,,,,,,,w,1,0.351056098938,None,0,4.0,linecyan.gif,go,,,,,,,,,,,,,,,,,,,,,,,,3.91,0.513855934143,0.000949859619141,0.351056098938,1,w,394.499487877,,,,,,,,,,,,,,,,,,,,,,,,,,,,,,,,,2015_Jul_06_1004,59.7029304128,LearningTask,1,55,
-200,q,200,,,,,,,,,,,,,,,,,0,0,0,0,10,3,43,1,,,,,,,,,,,,,,,,,,,,,,,,,,,,,q,1,0.317039012909,None,0,4.0,hexagonwhite.gif,stop,,,,,,,,,,,,,,,,,,,,,,,,3.81,0.514058113098,0.00106310844421,0.317039012909,1,q,397.502465963,,,,,,,,,,,,,,,,,,,,,,,,,,,,,,,,,2015_Jul_06_1004,59.7029304128,LearningTask,1,55,
200,w,200,,,,,,,,,,,,,,,,,0,0,0,0,11,0,44,0,,,,,,,,,,,,,,,,,,,,,,,,,,,,,w,1,0.367094039917,None,0,4.0,hexagonwhite.gif,stop,,,,,,,,,,,,,,,,,,,,,,,,3.99,0.514647960663,0.000916004180908,0.367094039917,1,w,400.506064892,,,,,,,,,,,,,,,,,,,,,,,,,,,,,,,,,2015_Jul_06_1004,59.7029304128,LearningTask,1,55,
-200,q,200,,,,,,,,,,,,,,,,,0,0,0,0,11,1,45,1,,,,,,,,,,,,,,,,,,,,,,,,,,,,,q,1,0.367479085922,None,0,2.0,squaregray.gif,stop,,,,,,,,,,,,,,,,,,,,,,,,0,0.514299869537,0.000903844833374,0.367479085922,1,q,403.509239912,,,,,,,,,,,,,,,,,,,,,,,,,,,,,,,,,2015_Jul_06_1004,59.7029304128,LearningTask,1,55,
-200,q,200,,,,,,,,,,,,,,,,,0,0,0,0,11,2,46,1,,,,,,,,,,,,,,,,,,,,,,,,,,,,,q,1,0.300480127335,None,0,0.5,diamondblue.gif,stop,,,,,,,,,,,,,,,,,,,,,,,,0.3,0.51463508606,0.00099515914917,0.300480127335,1,q,406.512693882,,,,,,,,,,,,,,,,,,,,,,,,,,,,,,,,,2015_Jul_06_1004,59.7029304128,LearningTask,1,55,
-200,q,200,,,,,,,,,,,,,,,,,0,0,0,0,11,3,47,1,,,,,,,,,,,,,,,,,,,,,,,,,,,,,q,1,0.401193141937,None,0,1.0,circlegreen.gif,stop,,,,,,,,,,,,,,,,,,,,,,,,0.79,0.514299869537,0.000907897949219,0.401193141937,1,q,409.516128778,,,,,,,,,,,,,,,,,,,,,,,,,,,,,,,,,2015_Jul_06_1004,59.7029304128,LearningTask,1,55,
-200,q,200,,,,,,,,,,,,,,,,,0,0,0,0,12,0,48,1,,,,,,,,,,,,,,,,,,,,,,,,,,,,,q,1,0.334285974503,None,0,0.5,diamondblue.gif,stop,,,,,,,,,,,,,,,,,,,,,,,,0.26,0.514477968216,0.000930070877075,0.334285974503,1,q,412.519159794,,,,,,,,,,,,,,,,,,,,,,,,,,,,,,,,,2015_Jul_06_1004,59.7029304128,LearningTask,1,55,
200,s,-200,,,,,,,,,,,,,,,,,0,0,0,0,12,1,49,2,,,,,,,,,,,,,,,,,,,,,,,,,,,,,s,1,0.36761713028,None,0,2.0,invertedtriangleorange.gif,go,,,,,,,,,,,,,,,,,,,,,,,,0,0.514330863953,0.000960826873779,0.36761713028,1,s,415.522840977,,,,,,,,,,,,,,,,,,,,,,,,,,,,,,,,,2015_Jul_06_1004,59.7029304128,LearningTask,1,55,
-200,a,-200,,,,,,,,,,,,,,,,,0,0,0,0,12,2,50,3,,,,,,,,,,,,,,,,,,,,,,,,,,,,,a,1,0.351358175278,None,0,2.0,squaregray.gif,stop,,,,,,,,,,,,,,,,,,,,,,,,2.18,0.514136075974,0.000892162322998,0.351358175278,1,a,418.525982857,,,,,,,,,,,,,,,,,,,,,,,,,,,,,,,,,2015_Jul_06_1004,59.7029304128,LearningTask,1,55,
-200,q,200,,,,,,,,,,,,,,,,,0,0,0,0,12,3,51,1,,,,,,,,,,,,,,,,,,,,,,,,,,,,,q,1,0.334020137787,None,0,2.0,invertedtriangleorange.gif,go,,,,,,,,,,,,,,,,,,,,,,,,2.17,0.51452589035,0.000902891159058,0.334020137787,1,q,421.52943778,,,,,,,,,,,,,,,,,,,,,,,,,,,,,,,,,2015_Jul_06_1004,59.7029304128,LearningTask,1,55,
200,w,200,,,,,,,,,,,,,,,,,0,0,0,0,13,0,52,0,,,,,,,,,,,,,,,,,,,,,,,,,,,,,w,1,0.400990962982,None,0,1.0,crossyellow.gif,go,,,,,,,,,,,,,,,,,,,,,,,,0.87,0.514064073563,0.000936985015869,0.400990962982,1,w,424.532780886,,,,,,,,,,,,,,,,,,,,,,,,,,,,,,,,,2015_Jul_06_1004,59.7029304128,LearningTask,1,55,
-200,q,200,,,,,,,,,,,,,,,,,0,0,0,0,13,1,53,1,,,,,,,,,,,,,,,,,,,,,,,,,,,,,q,1,0.334104061127,None,0,4.0,hexagonwhite.gif,stop,,,,,,,,,,,,,,,,,,,,,,,,4.03,0.514518976212,0.000918865203857,0.334104061127,1,q,427.536134005,,,,,,,,,,,,,,,,,,,,,,,,,,,,,,,,,2015_Jul_06_1004,59.7029304128,LearningTask,1,55,
200,w,200,,,,,,,,,,,,,,,,,0,0,0,0,13,2,54,0,,,,,,,,,,,,,,,,,,,,,,,,,,,,,w,1,0.4009308815,None,0,2.0,squaregray.gif,stop,,,,,,,,,,,,,,,,,,,,,,,,0,0.514318943024,0.000915050506592,0.4009308815,1,w,430.539596796,,,,,,,,,,,,,,,,,,,,,,,,,,,,,,,,,2015_Jul_06_1004,59.7029304128,LearningTask,1,55,
-200,a,-200,,,,,,,,,,,,,,,,,0,0,0,0,13,3,55,3,,,,,,,,,,,,,,,,,,,,,,,,,,,,,a,1,0.333914995193,None,0,1.0,circlegreen.gif,stop,,,,,,,,,,,,,,,,,,,,,,,,1.02,0.513976097107,0.000916957855225,0.333914995193,1,a,433.543176889,,,,,,,,,,,,,,,,,,,,,,,,,,,,,,,,,2015_Jul_06_1004,59.7029304128,LearningTask,1,55,
200,s,-200,,,,,,,,,,,,,,,,,0,0,0,0,14,0,56,2,,,,,,,,,,,,,,,,,,,,,,,,,,,,,s,1,0.350476026535,None,0,1.0,crossyellow.gif,go,,,,,,,,,,,,,,,,,,,,,,,,1.23,0.513807058334,0.00100207328796,0.350476026535,1,s,436.546270847,,,,,,,,,,,,,,,,,,,,,,,,,,,,,,,,,2015_Jul_06_1004,59.7029304128,LearningTask,1,55,
200,s,-200,,,,,,,,,,,,,,,,,0,0,0,0,14,1,57,2,,,,,,,,,,,,,,,,,,,,,,,,,,,,,s,1,0.384260177612,None,0,1.0,circlegreen.gif,stop,,,,,,,,,,,,,,,,,,,,,,,,0.87,0.514139890671,0.00262188911438,0.384260177612,1,s,439.549966812,,,,,,,,,,,,,,,,,,,,,,,,,,,,,,,,,2015_Jul_06_1004,59.7029304128,LearningTask,1,55,
-200,q,200,,,,,,,,,,,,,,,,,0,0,0,0,14,2,58,1,,,,,,,,,,,,,,,,,,,,,,,,,,,,,q,1,0.301280975342,None,0,2.0,squaregray.gif,stop,,,,,,,,,,,,,,,,,,,,,,,,2.16,0.513776063919,0.000894069671631,0.301280975342,1,q,442.552889824,,,,,,,,,,,,,,,,,,,,,,,,,,,,,,,,,2015_Jul_06_1004,59.7029304128,LearningTask,1,55,
200,w,200,,,,,,,,,,,,,,,,,0,0,0,0,14,3,59,0,,,,,,,,,,,,,,,,,,,,,,,,,,,,,w,1,0.35113286972,None,0,0.5,diamondblue.gif,stop,,,,,,,,,,,,,,,,,,,,,,,,0.26,0.514408111572,0.000951051712036,0.35113286972,1,w,445.556196928,,,,,,,,,,,,,,,,,,,,,,,,,,,,,,,,,2015_Jul_06_1004,59.7029304128,LearningTask,1,55,
-200,a,-200,,,,,,,,,,,,,,,,,0,0,0,0,15,0,60,3,,,,,,,,,,,,,,,,,,,,,,,,,,,,,a,1,0.317280054092,None,0,2.0,invertedtriangleorange.gif,go,,,,,,,,,,,,,,,,,,,,,,,,0,0.514543056488,0.000893115997314,0.317280054092,1,a,448.559757948,,,,,,,,,,,,,,,,,,,,,,,,,,,,,,,,,2015_Jul_06_1004,59.7029304128,LearningTask,1,55,
200,s,-200,,,,,,,,,,,,,,,,,0,0,0,0,15,1,61,2,,,,,,,,,,,,,,,,,,,,,,,,,,,,,s,1,0.36745095253,None,0,0.5,trianglemagenta.gif,go,,,,,,,,,,,,,,,,,,,,,,,,0.6,0.514266014099,0.000972986221313,0.36745095253,1,s,451.562923908,,,,,,,,,,,,,,,,,,,,,,,,,,,,,,,,,2015_Jul_06_1004,59.7029304128,LearningTask,1,55,
200,s,-200,,,,,,,,,,,,,,,,,0,0,0,0,15,2,62,2,,,,,,,,,,,,,,,,,,,,,,,,,,,,,s,1,0.351100206375,None,0,0.5,trianglemagenta.gif,go,,,,,,,,,,,,,,,,,,,,,,,,0.53,0.514487028122,0.00097918510437,0.351100206375,1,s,454.566249847,,,,,,,,,,,,,,,,,,,,,,,,,,,,,,,,,2015_Jul_06_1004,59.7029304128,LearningTask,1,55,
-200,q,200,,,,,,,,,,,,,,,,,0,0,0,0,15,3,63,1,,,,,,,,,,,,,,,,,,,,,,,,,,,,,q,1,0.284544944763,None,0,2.0,squaregray.gif,stop,,,,,,,,,,,,,,,,,,,,,,,,2.16,0.514285087585,0.000890016555786,0.284544944763,1,q,457.569783926,,,,,,,,,,,,,,,,,,,,,,,,,,,,,,,,,2015_Jul_06_1004,59.7029304128,LearningTask,1,55,
-200,a,-200,,,,,,,,,,,,,,,,,0,0,0,0,16,0,64,3,,,,,,,,,,,,,,,,,,,,,,,,,,,,,a,1,0.284223079681,None,0,0.5,trianglemagenta.gif,go,,,,,,,,,,,,,,,,,,,,,,,,0.34,0.514064073563,0.000895977020264,0.284223079681,1,a,460.572978973,,,,,,,,,,,,,,,,,,,,,,,,,,,,,,,,,2015_Jul_06_1004,59.7029304128,LearningTask,1,55,
-200,q,200,,,,,,,,,,,,,,,,,0,0,0,0,16,1,65,1,,,,,,,,,,,,,,,,,,,,,,,,,,,,,q,1,0.300971984863,None,0,2.0,squaregray.gif,stop,,,,,,,,,,,,,,,,,,,,,,,,0,0.514297008514,0.00126099586487,0.300971984863,1,q,463.576444864,,,,,,,,,,,,,,,,,,,,,,,,,,,,,,,,,2015_Jul_06_1004,59.7029304128,LearningTask,1,55,
200,s,-200,,,,,,,,,,,,,,,,,0,0,0,0,16,2,66,2,,,,,,,,,,,,,,,,,,,,,,,,,,,,,s,1,0.334074020386,None,0,0.5,diamondblue.gif,stop,,,,,,,,,,,,,,,,,,,,,,,,0.39,0.514317035675,0.000891923904419,0.334074020386,1,s,466.579777956,,,,,,,,,,,,,,,,,,,,,,,,,,,,,,,,,2015_Jul_06_1004,59.7029304128,LearningTask,1,55,
200,w,200,,,,,,,,,,,,,,,,,0,0,0,0,16,3,67,0,,,,,,,,,,,,,,,,,,,,,,,,,,,,,w,1,0.367319822311,None,0,2.0,squaregray.gif,stop,,,,,,,,,,,,,,,,,,,,,,,,1.91,0.514318943024,0.000888109207153,0.367319822311,1,w,469.583059788,,,,,,,,,,,,,,,,,,,,,,,,,,,,,,,,,2015_Jul_06_1004,59.7029304128,LearningTask,1,55,
200,w,200,,,,,,,,,,,,,,,,,0,0,0,0,17,0,68,0,,,,,,,,,,,,,,,,,,,,,,,,,,,,,w,1,0.367213010788,None,0,2.0,invertedtriangleorange.gif,go,,,,,,,,,,,,,,,,,,,,,,,,1.98,0.514381885529,0.000936031341553,0.367213010788,1,w,472.586471796,,,,,,,,,,,,,,,,,,,,,,,,,,,,,,,,,2015_Jul_06_1004,59.7029304128,LearningTask,1,55,
200,s,-200,,,,,,,,,,,,,,,,,0,0,0,0,17,1,69,2,,,,,,,,,,,,,,,,,,,,,,,,,,,,,s,1,0.317884922028,None,0,0.5,diamondblue.gif,stop,,,,,,,,,,,,,,,,,,,,,,,,0.46,0.51423406601,0.000897884368896,0.317884922028,1,s,475.58968997,,,,,,,,,,,,,,,,,,,,,,,,,,,,,,,,,2015_Jul_06_1004,59.7029304128,LearningTask,1,55,
-200,q,200,,,,,,,,,,,,,,,,,0,0,0,0,17,2,70,1,,,,,,,,,,,,,,,,,,,,,,,,,,,,,q,1,0.267471075058,None,0,2.0,invertedtriangleorange.gif,go,,,,,,,,,,,,,,,,,,,,,,,,2.25,0.514345884323,0.000900983810425,0.267471075058,1,q,478.593183994,,,,,,,,,,,,,,,,,,,,,,,,,,,,,,,,,2015_Jul_06_1004,59.7029304128,LearningTask,1,55,
200,s,-200,,,,,,,,,,,,,,,,,0,0,0,0,17,3,71,2,,,,,,,,,,,,,,,,,,,,,,,,,,,,,s,1,0.33407998085,None,0,1.0,circlegreen.gif,stop,,,,,,,,,,,,,,,,,,,,,,,,0.97,0.514183044434,0.00093412399292,0.33407998085,1,s,481.596400976,,,,,,,,,,,,,,,,,,,,,,,,,,,,,,,,,2015_Jul_06_1004,59.7029304128,LearningTask,1,55,
-200,q,200,,,,,,,,,,,,,,,,,0,0,0,0,18,0,72,1,,,,,,,,,,,,,,,,,,,,,,,,,,,,,q,1,0.333744049072,None,0,2.0,invertedtriangleorange.gif,go,,,,,,,,,,,,,,,,,,,,,,,,2.13,0.514771938324,0.000895977020264,0.333744049072,1,q,484.599975824,,,,,,,,,,,,,,,,,,,,,,,,,,,,,,,,,2015_Jul_06_1004,59.7029304128,LearningTask,1,55,
200,w,200,,,,,,,,,,,,,,,,,0,0,0,0,18,1,73,0,,,,,,,,,,,,,,,,,,,,,,,,,,,,,w,1,0.36788392067,None,0,2.0,squaregray.gif,stop,,,,,,,,,,,,,,,,,,,,,,,,2.07,0.514205932617,0.000891923904419,0.36788392067,1,w,487.603639841,,,,,,,,,,,,,,,,,,,,,,,,,,,,,,,,,2015_Jul_06_1004,59.7029304128,LearningTask,1,55,
-200,q,200,,,,,,,,,,,,,,,,,0,0,0,0,18,2,74,1,,,,,,,,,,,,,,,,,,,,,,,,,,,,,q,1,0.317329883575,None,0,4.0,hexagonwhite.gif,stop,,,,,,,,,,,,,,,,,,,,,,,,3.81,0.513643026352,0.000916004180908,0.317329883575,1,q,490.606604815,,,,,,,,,,,,,,,,,,,,,,,,,,,,,,,,,2015_Jul_06_1004,59.7029304128,LearningTask,1,55,
200,w,200,,,,,,,,,,,,,,,,,0,0,0,0,18,3,75,0,,,,,,,,,,,,,,,,,,,,,,,,,,,,,w,1,0.334530115128,None,0,2.0,squaregray.gif,stop,,,,,,,,,,,,,,,,,,,,,,,,2.08,0.514270067215,0.000895977020264,0.334530115128,1,w,493.609862804,,,,,,,,,,,,,,,,,,,,,,,,,,,,,,,,,2015_Jul_06_1004,59.7029304128,LearningTask,1,55,
200,s,-200,,,,,,,,,,,,,,,,,0,0,0,0,19,0,76,2,,,,,,,,,,,,,,,,,,,,,,,,,,,,,s,1,0.334036111832,None,0,4.0,hexagonwhite.gif,stop,,,,,,,,,,,,,,,,,,,,,,,,4.24,0.514631032944,0.000898122787476,0.334036111832,1,s,496.613473892,,,,,,,,,,,,,,,,,,,,,,,,,,,,,,,,,2015_Jul_06_1004,59.7029304128,LearningTask,1,55,
-200,q,200,,,,,,,,,,,,,,,,,0,0,0,0,19,1,77,1,,,,,,,,,,,,,,,,,,,,,,,,,,,,,q,1,0.317468881607,None,0,0.5,trianglemagenta.gif,go,,,,,,,,,,,,,,,,,,,,,,,,0.69,0.513927936554,0.00096607208252,0.317468881607,1,q,499.616619825,,,,,,,,,,,,,,,,,,,,,,,,,,,,,,,,,2015_Jul_06_1004,59.7029304128,LearningTask,1,55,
200,w,200,,,,,,,,,,,,,,,,,0,0,0,0,19,2,78,0,,,,,,,,,,,,,,,,,,,,,,,,,,,,,w,1,0.384144067764,None,0,0.5,diamondblue.gif,stop,,,,,,,,,,,,,,,,,,,,,,,,0.44,0.514490127563,0.00113105773926,0.384144067764,1,w,502.619793892,,,,,,,,,,,,,,,,,,,,,,,,,,,,,,,,,2015_Jul_06_1004,59.7029304128,LearningTask,1,55,
-200,q,200,,,,,,,,,,,,,,,,,0,0,0,0,19,3,79,1,,,,,,,,,,,,,,,,,,,,,,,,,,,,,q,1,0.317487955093,None,0,0.5,trianglemagenta.gif,go,,,,,,,,,,,,,,,,,,,,,,,,0.57,0.514616966248,0.000898838043213,0.317487955093,1,q,505.623501778,,,,,,,,,,,,,,,,,,,,,,,,,,,,,,,,,2015_Jul_06_1004,59.7029304128,LearningTask,1,55,
-200,a,-200,,,,,,,,,,,,,,,,,0,0,0,0,20,0,80,3,,,,,,,,,,,,,,,,,,,,,,,,,,,,,a,1,0.417850017548,None,0,1.0,crossyellow.gif,go,,,,,,,,,,,,,,,,,,,,,,,,1.09,0.514115095139,0.000909090042114,0.417850017548,1,a,508.626572847,,,,,,,,,,,,,,,,,,,,,,,,,,,,,,,,,2015_Jul_06_1004,59.7029304128,LearningTask,1,55,
200,s,-200,,,,,,,,,,,,,,,,,0,0,0,0,20,1,81,2,,,,,,,,,,,,,,,,,,,,,,,,,,,,,s,1,0.351423025131,None,0,4.0,linecyan.gif,go,,,,,,,,,,,,,,,,,,,,,,,,4.15,0.514250993729,0.000983953475952,0.351423025131,1,s,511.630096912,,,,,,,,,,,,,,,,,,,,,,,,,,,,,,,,,2015_Jul_06_1004,59.7029304128,LearningTask,1,55,
200,w,200,,,,,,,,,,,,,,,,,0,0,0,0,20,2,82,0,,,,,,,,,,,,,,,,,,,,,,,,,,,,,w,1,0.333936214447,None,0,1.0,circlegreen.gif,stop,,,,,,,,,,,,,,,,,,,,,,,,1.19,0.514402866364,0.00089693069458,0.333936214447,1,w,514.633270979,,,,,,,,,,,,,,,,,,,,,,,,,,,,,,,,,2015_Jul_06_1004,59.7029304128,LearningTask,1,55,
-200,q,200,,,,,,,,,,,,,,,,,0,0,0,0,20,3,83,1,,,,,,,,,,,,,,,,,,,,,,,,,,,,,q,1,0.317306041718,None,0,4.0,linecyan.gif,go,,,,,,,,,,,,,,,,,,,,,,,,0,0.514740943909,0.000916957855225,0.317306041718,1,q,517.63674593,,,,,,,,,,,,,,,,,,,,,,,,,,,,,,,,,2015_Jul_06_1004,59.7029304128,LearningTask,1,55,
-200,a,-200,,,,,,,,,,,,,,,,,0,0,0,0,21,0,84,3,,,,,,,,,,,,,,,,,,,,,,,,,,,,,a,1,0.284222126007,None,0,4.0,linecyan.gif,go,,,,,,,,,,,,,,,,,,,,,,,,0,0.514083147049,0.000931024551392,0.284222126007,1,a,520.640008926,,,,,,,,,,,,,,,,,,,,,,,,,,,,,,,,,2015_Jul_06_1004,59.7029304128,LearningTask,1,55,
200,s,-200,,,,,,,,,,,,,,,,,0,0,0,0,21,1,85,2,,,,,,,,,,,,,,,,,,,,,,,,,,,,,s,1,0.367687940598,None,0,2.0,squaregray.gif,stop,,,,,,,,,,,,,,,,,,,,,,,,2.25,0.514462947845,0.000890016555786,0.367687940598,1,s,523.643426895,,,,,,,,,,,,,,,,,,,,,,,,,,,,,,,,,2015_Jul_06_1004,59.7029304128,LearningTask,1,55,
-200,a,-200,,,,,,,,,,,,,,,,,0,0,0,0,21,2,86,3,,,,,,,,,,,,,,,,,,,,,,,,,,,,,a,1,0.451014995575,None,0,1.0,circlegreen.gif,stop,,,,,,,,,,,,,,,,,,,,,,,,0,0.514339923859,0.000924825668335,0.451014995575,1,a,526.646892786,,,,,,,,,,,,,,,,,,,,,,,,,,,,,,,,,2015_Jul_06_1004,59.7029304128,LearningTask,1,55,
200,w,200,,,,,,,,,,,,,,,,,0,0,0,0,21,3,87,0,,,,,,,,,,,,,,,,,,,,,,,,,,,,,w,1,0.333420038223,None,0,2.0,squaregray.gif,stop,,,,,,,,,,,,,,,,,,,,,,,,1.87,0.514260053635,0.000925064086914,0.333420038223,1,w,529.650195837,,,,,,,,,,,,,,,,,,,,,,,,,,,,,,,,,2015_Jul_06_1004,59.7029304128,LearningTask,1,55,
200,s,-200,,,,,,,,,,,,,,,,,0,0,0,0,22,0,88,2,,,,,,,,,,,,,,,,,,,,,,,,,,,,,s,1,0.333998203278,None,0,1.0,circlegreen.gif,stop,,,,,,,,,,,,,,,,,,,,,,,,0.75,0.514263153076,0.00100612640381,0.333998203278,1,s,532.653582811,,,,,,,,,,,,,,,,,,,,,,,,,,,,,,,,,2015_Jul_06_1004,59.7029304128,LearningTask,1,55,
200,s,-200,,,,,,,,,,,,,,,,,0,0,0,0,22,1,89,2,,,,,,,,,,,,,,,,,,,,,,,,,,,,,s,1,0.351401090622,None,0,1.0,crossyellow.gif,go,,,,,,,,,,,,,,,,,,,,,,,,1.17,0.514245033264,0.000952005386353,0.351401090622,1,s,535.657073975,,,,,,,,,,,,,,,,,,,,,,,,,,,,,,,,,2015_Jul_06_1004,59.7029304128,LearningTask,1,55,
-200,q,200,,,,,,,,,,,,,,,,,0,0,0,0,22,2,90,1,,,,,,,,,,,,,,,,,,,,,,,,,,,,,q,1,0.301208019257,None,0,2.0,invertedtriangleorange.gif,go,,,,,,,,,,,,,,,,,,,,,,,,2.13,0.513924121857,0.000919103622437,0.301208019257,1,q,538.660284996,,,,,,,,,,,,,,,,,,,,,,,,,,,,,,,,,2015_Jul_06_1004,59.7029304128,LearningTask,1,55,
200,w,200,,,,,,,,,,,,,,,,,0,0,0,0,22,3,91,0,,,,,,,,,,,,,,,,,,,,,,,,,,,,,w,1,0.384043931961,None,0,2.0,invertedtriangleorange.gif,go,,,,,,,,,,,,,,,,,,,,,,,,1.77,0.51429605484,0.000894069671631,0.384043931961,1,w,541.66346693,,,,,,,,,,,,,,,,,,,,,,,,,,,,,,,,,2015_Jul_06_1004,59.7029304128,LearningTask,1,55,
200,s,-200,,,,,,,,,,,,,,,,,0,0,0,0,23,0,92,2,,,,,,,,,,,,,,,,,,,,,,,,,,,,,s,1,0.333790063858,None,0,1.0,crossyellow.gif,go,,,,,,,,,,,,,,,,,,,,,,,,0.99,0.514644861221,0.000917911529541,0.333790063858,1,s,544.667174816,,,,,,,,,,,,,,,,,,,,,,,,,,,,,,,,,2015_Jul_06_1004,59.7029304128,LearningTask,1,55,
-200,q,200,,,,,,,,,,,,,,,,,0,0,0,0,23,1,93,1,,,,,,,,,,,,,,,,,,,,,,,,,,,,,q,1,0.300956964493,None,0,1.0,circlegreen.gif,stop,,,,,,,,,,,,,,,,,,,,,,,,0.77,0.514316082001,0.000922918319702,0.300956964493,1,q,547.670282841,,,,,,,,,,,,,,,,,,,,,,,,,,,,,,,,,2015_Jul_06_1004,59.7029304128,LearningTask,1,55,
200,s,-200,,,,,,,,,,,,,,,,,0,0,0,0,23,2,94,2,,,,,,,,,,,,,,,,,,,,,,,,,,,,,s,1,0.334026098251,None,0,1.0,crossyellow.gif,go,,,,,,,,,,,,,,,,,,,,,,,,1.12,0.514408111572,0.00100994110107,0.334026098251,1,s,550.673520803,,,,,,,,,,,,,,,,,,,,,,,,,,,,,,,,,2015_Jul_06_1004,59.7029304128,LearningTask,1,55,
-200,a,-200,,,,,,,,,,,,,,,,,0,0,0,0,23,3,95,3,,,,,,,,,,,,,,,,,,,,,,,,,,,,,a,1,0.317454099655,None,0,0.5,diamondblue.gif,stop,,,,,,,,,,,,,,,,,,,,,,,,0.71,0.514297008514,0.00097393989563,0.317454099655,1,a,553.677229881,,,,,,,,,,,,,,,,,,,,,,,,,,,,,,,,,2015_Jul_06_1004,59.7029304128,LearningTask,1,55,
200,w,200,,,,,,,,,,,,,,,,,0,0,0,0,24,0,96,0,,,,,,,,,,,,,,,,,,,,,,,,,,,,,w,1,0.401155948639,None,0,1.0,crossyellow.gif,go,,,,,,,,,,,,,,,,,,,,,,,,1.25,0.514055013657,0.000907897949219,0.401155948639,1,w,556.680302858,,,,,,,,,,,,,,,,,,,,,,,,,,,,,,,,,2015_Jul_06_1004,59.7029304128,LearningTask,1,55,
200,s,-200,,,,,,,,,,,,,,,,,0,0,0,0,24,1,97,2,,,,,,,,,,,,,,,,,,,,,,,,,,,,,s,1,0.300759077072,None,0,1.0,circlegreen.gif,stop,,,,,,,,,,,,,,,,,,,,,,,,1.2,0.514281988144,0.00106000900269,0.300759077072,1,s,559.683939934,,,,,,,,,,,,,,,,,,,,,,,,,,,,,,,,,2015_Jul_06_1004,59.7029304128,LearningTask,1,55,
-200,q,200,,,,,,,,,,,,,,,,,0,0,0,0,24,2,98,1,,,,,,,,,,,,,,,,,,,,,,,,,,,,,q,1,0.350669145584,None,0,2.0,squaregray.gif,stop,,,,,,,,,,,,,,,,,,,,,,,,0,0.514047861099,0.000895023345947,0.350669145584,1,q,562.687289,,,,,,,,,,,,,,,,,,,,,,,,,,,,,,,,,2015_Jul_06_1004,59.7029304128,LearningTask,1,55,
-200,q,200,,,,,,,,,,,,,,,,,0,0,0,0,24,3,99,1,,,,,,,,,,,,,,,,,,,,,,,,,,,,,q,1,0.283980131149,None,0,1.0,crossyellow.gif,go,,,,,,,,,,,,,,,,,,,,,,,,1.11,0.514133930206,0.000897884368896,0.283980131149,1,q,565.690267801,,,,,,,,,,,,,,,,,,,,,,,,,,,,,,,,,2015_Jul_06_1004,59.7029304128,LearningTask,1,55,
,,,,,,,,,,,,,,,,,,,0,0,0,0,,,,,,,,,,,,,,,,,,,,,,,,,,,,,,,,,,,,,,,,,,,,,,,,,,,,,,,,,,,,,,,,,,,,,,,9,5.0078690052,,,,,,,,,,,,,,,,,,,,,,,,,,,,,,,2015_Jul_06_1004,59.7029304128,LearningTask,1,55,
200,w,200,,,,,,,,,,,,,,,,,1,0,1,0,0,0,0,0,,,,,,,,,,,,,,,,,,,,,,,,,,,,,w,1,0.334040164948,None,0,4.0,hexagonwhite.gif,stop,,,,,,,,,,,,,,,,,,,,,,,,0,0.509161949158,0.000967979431152,[],0,None,574.033685923,,,0.0242569446564,3.84,0.514919996262,0.00107908248901,0.334040164948,1,w,577.036665916,,,,,,,,,,,,,,,,,,,,,,,2015_Jul_06_1004,59.7029304128,LearningTask,1,55,
-200,q,200,,,,,,,,,,,,,,,,,1,0,1,0,0,1,1,1,,,,,,,,,,,,,,,,,,,,,,,,,,,,,q,1,0.334594964981,None,0,0.5,trianglemagenta.gif,go,,,,,,,,,,,,,,,,,,,,,,,,0.42,0.514179944992,0.000900983810425,0.334594964981,1,q,580.039706945,,,,,,,,,,,,,,,,,,,,,,,,,,,,,,,,,2015_Jul_06_1004,59.7029304128,LearningTask,1,55,
-200,a,-200,,,,,,,,,,,,,,,,,1,0,1,0,0,2,2,3,,,,,,,,,,,,,,,,,,,,,,,,,,,,,a,1,0.334469079971,None,0,1.0,circlegreen.gif,stop,,,,,,,,,,,,,,,,,,,,,,,,1.19,0.514086961746,0.000943899154663,0.334469079971,1,a,583.043032885,,,,,,,,,,,,,,,,,,,,,,,,,,,,,,,,,2015_Jul_06_1004,59.7029304128,LearningTask,1,55,
200,s,-200,,,,,,,,,,,,,,,,,1,0,1,0,0,3,3,2,,,,,,,,,,,,,,,,,,,,,,,,,,,,,s,1,0.367814064026,None,0,4.0,hexagonwhite.gif,stop,,,,,,,,,,,,,,,,,,,,,,,,4.25,0.513854026794,0.000955104827881,0.367814064026,1,s,586.046489,,,,,,,,,,,,,,,,,,,,,,,,,,,,,,,,,2015_Jul_06_1004,59.7029304128,LearningTask,1,55,
200,w,200,,,,,,,,,,,,,,,,,1,0,1,0,1,0,4,0,,,,,,,,,,,,,,,,,,,,,,,,,,,,,w,1,0.284055948257,None,0,0.5,trianglemagenta.gif,go,,,,,,,,,,,,,,,,,,,,,,,,0,0.514451980591,0.000890016555786,0.284055948257,1,w,589.050163984,,,,,,,,,,,,,,,,,,,,,,,,,,,,,,,,,2015_Jul_06_1004,59.7029304128,LearningTask,1,55,
-200,a,-200,,,,,,,,,,,,,,,,,1,0,1,0,1,1,5,3,,,,,,,,,,,,,,,,,,,,,,,,,,,,,a,1,0.300888061523,None,0,0.5,diamondblue.gif,stop,,,,,,,,,,,,,,,,,,,,,,,,0.34,0.514091014862,0.000900030136108,0.300888061523,1,a,592.053747892,,,,,,,,,,,,,,,,,,,,,,,,,,,,,,,,,2015_Jul_06_1004,59.7029304128,LearningTask,1,55,
200,s,-200,,,,,,,,,,,,,,,,,1,0,1,0,1,2,6,2,,,,,,,,,,,,,,,,,,,,,,,,,,,,,s,1,0.350958108902,None,0,1.0,crossyellow.gif,go,,,,,,,,,,,,,,,,,,,,,,,,0.78,0.51352596283,0.000924110412598,0.350958108902,1,s,595.056542873,,,,,,,,,,,,,,,,,,,,,,,,,,,,,,,,,2015_Jul_06_1004,59.7029304128,LearningTask,1,55,
-200,q,200,,,,,,,,,,,,,,,,,1,0,1,0,1,3,7,1,,,,,,,,,,,,,,,,,,,,,,,,,,,,,q,1,0.267263889313,None,0,2.0,squaregray.gif,stop,,,,,,,,,,,,,,,,,,,,,,,,0,0.51423406601,0.00118017196655,0.267596960068,0,a,598.060449839,,,,2.08,0.514877080917,0.000965118408203,0.267263889313,1,q,601.063742876,,,,,,,,,,,,,,,,,,,,,,,2015_Jul_06_1004,59.7029304128,LearningTask,1,55,
200,s,-200,,,,,,,,,,,,,,,,,1,0,1,0,2,0,8,2,,,,,,,,,,,,,,,,,,,,,,,,,,,,,s,1,0.333951950073,None,0,0.5,diamondblue.gif,stop,,,,,,,,,,,,,,,,,,,,,,,,0,0.513785123825,0.000952005386353,0.333951950073,1,s,604.066711903,,,,,,,,,,,,,,,,,,,,,,,,,,,,,,,,,2015_Jul_06_1004,59.7029304128,LearningTask,1,55,
-200,a,-200,,,,,,,,,,,,,,,,,1,0,1,0,2,1,9,3,,,,,,,,,,,,,,,,,,,,,,,,,,,,,a,1,0.267204046249,None,0,2.0,invertedtriangleorange.gif,go,,,,,,,,,,,,,,,,,,,,,,,,0,0.514323949814,0.000900983810425,0.267204046249,1,a,607.069969893,,,,,,,,,,,,,,,,,,,,,,,,,,,,,,,,,2015_Jul_06_1004,59.7029304128,LearningTask,1,55,
-200,q,200,,,,,,,,,,,,,,,,,1,0,1,0,2,2,10,1,,,,,,,,,,,,,,,,,,,,,,,,,,,,,q,1,0.301095962524,None,0,1.0,circlegreen.gif,stop,,,,,,,,,,,,,,,,,,,,,,,,0.86,0.514338970184,0.000923871994019,0.301095962524,1,q,610.073615789,,,,,,,,,,,,,,,,,,,,,,,,,,,,,,,,,2015_Jul_06_1004,59.7029304128,LearningTask,1,55,
200,w,200,,,,,,,,,,,,,,,,,1,0,1,0,2,3,11,0,,,,,,,,,,,,,,,,,,,,,,,,,,,,,w,1,0.384192943573,None,0,0.5,diamondblue.gif,stop,,,,,,,,,,,,,,,,,,,,,,,,0,0.513963937759,0.000926971435547,0.384192943573,1,w,613.076578856,,,,,,,,,,,,,,,,,,,,,,,,,,,,,,,,,2015_Jul_06_1004,59.7029304128,LearningTask,1,55,
200,w,200,,,,,,,,,,,,,,,,,1,0,1,0,3,0,12,0,,,,,,,,,,,,,,,,,,,,,,,,,,,,,w,1,0.384287118912,None,0,4.0,linecyan.gif,go,,,,,,,,,,,,,,,,,,,,,,,,0,0.51448392868,0.000933885574341,0.384287118912,1,w,616.079911947,,,,,,,,,,,,,,,,,,,,,,,,,,,,,,,,,2015_Jul_06_1004,59.7029304128,LearningTask,1,55,
-200,a,-200,,,,,,,,,,,,,,,,,1,0,1,0,3,1,13,3,,,,,,,,,,,,,,,,,,,,,,,,,,,,,a,1,0.334071874619,None,0,2.0,invertedtriangleorange.gif,go,,,,,,,,,,,,,,,,,,,,,,,,0,0.514522075653,0.000895023345947,0.334071874619,1,a,619.083589792,,,,,,,,,,,,,,,,,,,,,,,,,,,,,,,,,2015_Jul_06_1004,59.7029304128,LearningTask,1,55,
-200,a,-200,,,,,,,,,,,,,,,,,1,0,1,0,3,2,14,3,,,,,,,,,,,,,,,,,,,,,,,,,,,,,a,1,0.384274959564,None,0,1.0,circlegreen.gif,stop,,,,,,,,,,,,,,,,,,,,,,,,0.92,0.51403594017,0.000963926315308,0.384274959564,1,a,622.086843014,,,,,,,,,,,,,,,,,,,,,,,,,,,,,,,,,2015_Jul_06_1004,59.7029304128,LearningTask,1,55,
-200,q,200,,,,,,,,,,,,,,,,,1,0,1,0,3,3,15,1,,,,,,,,,,,,,,,,,,,,,,,,,,,,,q,1,0.284369945526,None,0,1.0,crossyellow.gif,go,,,,,,,,,,,,,,,,,,,,,,,,0.91,0.514029026031,0.000963926315308,0.284369945526,1,q,625.089933872,,,,,,,,,,,,,,,,,,,,,,,,,,,,,,,,,2015_Jul_06_1004,59.7029304128,LearningTask,1,55,
200,w,200,,,,,,,,,,,,,,,,,1,0,1,0,4,0,16,0,,,,,,,,,,,,,,,,,,,,,,,,,,,,,w,1,0.384285211563,None,0,0.5,diamondblue.gif,stop,,,,,,,,,,,,,,,,,,,,,,,,0.38,0.514491796494,0.000898838043213,0.384285211563,1,w,628.093608856,,,,,,,,,,,,,,,,,,,,,,,,,,,,,,,,,2015_Jul_06_1004,59.7029304128,LearningTask,1,55,
200,w,200,,,,,,,,,,,,,,,,,1,0,1,0,4,1,17,0,,,,,,,,,,,,,,,,,,,,,,,,,,,,,w,1,0.384586811066,None,0,2.0,invertedtriangleorange.gif,go,,,,,,,,,,,,,,,,,,,,,,,,2.23,0.513966798782,0.000930786132812,0.384586811066,1,w,631.096741915,,,,,,,,,,,,,,,,,,,,,,,,,,,,,,,,,2015_Jul_06_1004,59.7029304128,LearningTask,1,55,
-200,q,200,,,,,,,,,,,,,,,,,1,0,1,0,4,2,18,1,,,,,,,,,,,,,,,,,,,,,,,,,,,,,q,1,0.30083489418,None,0,0.5,diamondblue.gif,stop,,,,,,,,,,,,,,,,,,,,,,,,0.44,0.514038085938,0.000932931900024,0.30083489418,1,q,634.100159883,,,,,,,,,,,,,,,,,,,,,,,,,,,,,,,,,2015_Jul_06_1004,59.7029304128,LearningTask,1,55,
200,s,-200,,,,,,,,,,,,,,,,,1,0,1,0,4,3,19,2,,,,,,,,,,,,,,,,,,,,,,,,,,,,,s,1,0.334014892578,None,0,2.0,invertedtriangleorange.gif,go,,,,,,,,,,,,,,,,,,,,,,,,0,0.514365196228,0.000878095626831,0.334014892578,1,s,637.103676796,,,,,,,,,,,,,,,,,,,,,,,,,,,,,,,,,2015_Jul_06_1004,59.7029304128,LearningTask,1,55,
200,s,-200,,,,,,,,,,,,,,,,,1,0,1,0,5,0,20,2,,,,,,,,,,,,,,,,,,,,,,,,,,,,,s,1,0.36733007431,None,0,0.5,diamondblue.gif,stop,,,,,,,,,,,,,,,,,,,,,,,,0.26,0.514334917068,0.000876903533936,0.36733007431,1,s,640.106984854,,,,,,,,,,,,,,,,,,,,,,,,,,,,,,,,,2015_Jul_06_1004,59.7029304128,LearningTask,1,55,
-200,q,200,,,,,,,,,,,,,,,,,1,0,1,0,5,1,21,1,,,,,,,,,,,,,,,,,,,,,,,,,,,,,q,1,0.384061098099,None,0,1.0,crossyellow.gif,go,,,,,,,,,,,,,,,,,,,,,,,,0.88,0.513849020004,0.000874996185303,0.384061098099,1,q,643.11015296,,,,,,,,,,,,,,,,,,,,,,,,,,,,,,,,,2015_Jul_06_1004,59.7029304128,LearningTask,1,55,
200,w,200,,,,,,,,,,,,,,,,,1,0,1,0,5,2,22,0,,,,,,,,,,,,,,,,,,,,,,,,,,,,,w,1,0.301184177399,None,0,4.0,linecyan.gif,go,,,,,,,,,,,,,,,,,,,,,,,,0,0.514438867569,0.000871896743774,0.301184177399,1,w,646.113542795,,,,,,,,,,,,,,,,,,,,,,,,,,,,,,,,,2015_Jul_06_1004,59.7029304128,LearningTask,1,55,
-200,a,-200,,,,,,,,,,,,,,,,,1,0,1,0,5,3,23,3,,,,,,,,,,,,,,,,,,,,,,,,,,,,,a,1,0.283910036087,None,0,2.0,squaregray.gif,stop,,,,,,,,,,,,,,,,,,,,,,,,2.1,0.514245986938,0.000933885574341,0.283910036087,1,a,649.117316961,,,,,,,,,,,,,,,,,,,,,,,,,,,,,,,,,2015_Jul_06_1004,59.7029304128,LearningTask,1,55,
200,s,-200,,,,,,,,,,,,,,,,,1,0,1,0,6,0,24,2,,,,,,,,,,,,,,,,,,,,,,,,,,,,,s,1,0.334391117096,None,0,4.0,linecyan.gif,go,,,,,,,,,,,,,,,,,,,,,,,,3.76,0.513828992844,0.000953912734985,0.334391117096,1,s,652.120237827,,,,,,,,,,,,,,,,,,,,,,,,,,,,,,,,,2015_Jul_06_1004,59.7029304128,LearningTask,1,55,
200,w,200,,,,,,,,,,,,,,,,,1,0,1,0,6,1,25,0,,,,,,,,,,,,,,,,,,,,,,,,,,,,,w,1,0.300673961639,None,0,2.0,invertedtriangleorange.gif,go,,,,,,,,,,,,,,,,,,,,,,,,1.8,0.514492034912,0.000910043716431,0.300673961639,1,w,655.123948812,,,,,,,,,,,,,,,,,,,,,,,,,,,,,,,,,2015_Jul_06_1004,59.7029304128,LearningTask,1,55,
200,s,-200,,,,,,,,,,,,,,,,,1,0,1,0,6,2,26,2,,,,,,,,,,,,,,,,,,,,,,,,,,,,,s,1,0.334671020508,None,0,2.0,squaregray.gif,stop,,,,,,,,,,,,,,,,,,,,,,,,2.17,0.51397895813,0.000885009765625,0.334671020508,1,s,658.127040863,,,,,,,,,,,,,,,,,,,,,,,,,,,,,,,,,2015_Jul_06_1004,59.7029304128,LearningTask,1,55,
-200,q,200,,,,,,,,,,,,,,,,,1,0,1,0,6,3,27,1,,,,,,,,,,,,,,,,,,,,,,,,,,,,,q,1,0.317315101624,None,0,1.0,circlegreen.gif,stop,,,,,,,,,,,,,,,,,,,,,,,,0,0.514364004135,0.000885009765625,0.317315101624,1,q,661.130168915,,,,,,,,,,,,,,,,,,,,,,,,,,,,,,,,,2015_Jul_06_1004,59.7029304128,LearningTask,1,55,
200,w,200,,,,,,,,,,,,,,,,,1,0,1,0,7,0,28,0,,,,,,,,,,,,,,,,,,,,,,,,,,,,,w,1,0.317675113678,None,0,4.0,linecyan.gif,go,,,,,,,,,,,,,,,,,,,,,,,,3.98,0.514477968216,0.000883102416992,0.317675113678,1,w,664.133603811,,,,,,,,,,,,,,,,,,,,,,,,,,,,,,,,,2015_Jul_06_1004,59.7029304128,LearningTask,1,55,
200,s,-200,,,,,,,,,,,,,,,,,1,0,1,0,7,1,29,2,,,,,,,,,,,,,,,,,,,,,,,,,,,,,s,1,0.351171970367,None,0,0.5,diamondblue.gif,stop,,,,,,,,,,,,,,,,,,,,,,,,0.52,0.51434803009,0.000877857208252,0.351171970367,1,s,667.137004852,,,,,,,,,,,,,,,,,,,,,,,,,,,,,,,,,2015_Jul_06_1004,59.7029304128,LearningTask,1,55,
200,s,-200,,,,,,,,,,,,,,,,,1,0,1,0,7,2,30,2,,,,,,,,,,,,,,,,,,,,,,,,,,,,,s,1,0.417895078659,None,0,1.0,circlegreen.gif,stop,,,,,,,,,,,,,,,,,,,,,,,,0,0.514088153839,0.000936985015869,0.417895078659,1,s,670.140522957,,,,,,,,,,,,,,,,,,,,,,,,,,,,,,,,,2015_Jul_06_1004,59.7029304128,LearningTask,1,55,
-200,q,200,,,,,,,,,,,,,,,,,1,0,1,0,7,3,31,1,,,,,,,,,,,,,,,,,,,,,,,,,,,,,q,1,0.317403078079,None,0,1.0,circlegreen.gif,stop,,,,,,,,,,,,,,,,,,,,,,,,0.77,0.514179944992,0.00102281570435,0.317403078079,1,q,673.143706799,,,,,,,,,,,,,,,,,,,,,,,,,,,,,,,,,2015_Jul_06_1004,59.7029304128,LearningTask,1,55,
200,w,200,,,,,,,,,,,,,,,,,1,0,1,0,8,0,32,0,,,,,,,,,,,,,,,,,,,,,,,,,,,,,w,1,0.367436885834,None,0,0.5,diamondblue.gif,stop,,,,,,,,,,,,,,,,,,,,,,,,0.62,0.514446020126,0.000875949859619,0.367436885834,1,w,676.147069931,,,,,,,,,,,,,,,,,,,,,,,,,,,,,,,,,2015_Jul_06_1004,59.7029304128,LearningTask,1,55,
-200,a,-200,,,,,,,,,,,,,,,,,1,0,1,0,8,1,33,3,,,,,,,,,,,,,,,,,,,,,,,,,,,,,a,1,0.350818872452,None,0,0.5,diamondblue.gif,stop,,,,,,,,,,,,,,,,,,,,,,,,0.35,0.514173984528,0.0010039806366,0.350818872452,1,a,679.150304794,,,,,,,,,,,,,,,,,,,,,,,,,,,,,,,,,2015_Jul_06_1004,59.7029304128,LearningTask,1,55,
-200,q,200,,,,,,,,,,,,,,,,,1,0,1,0,8,2,34,1,,,,,,,,,,,,,,,,,,,,,,,,,,,,,q,1,0.317225933075,None,0,4.0,hexagonwhite.gif,stop,,,,,,,,,,,,,,,,,,,,,,,,3.96,0.51464009285,0.0010359287262,0.317225933075,1,q,682.153831005,,,,,,,,,,,,,,,,,,,,,,,,,,,,,,,,,2015_Jul_06_1004,59.7029304128,LearningTask,1,55,
-200,q,200,,,,,,,,,,,,,,,,,1,0,1,0,8,3,35,1,,,,,,,,,,,,,,,,,,,,,,,,,,,,,q,1,0.284226894379,None,0,2.0,invertedtriangleorange.gif,go,,,,,,,,,,,,,,,,,,,,,,,,2.07,0.514508962631,0.00101590156555,0.284226894379,1,q,685.157231808,,,,,,,,,,,,,,,,,,,,,,,,,,,,,,,,,2015_Jul_06_1004,59.7029304128,LearningTask,1,55,
200,w,200,,,,,,,,,,,,,,,,,1,0,1,0,9,0,36,0,,,,,,,,,,,,,,,,,,,,,,,,,,,,,w,1,0.317563056946,None,0,4.0,hexagonwhite.gif,stop,,,,,,,,,,,,,,,,,,,,,,,,0,0.514261007309,0.000964879989624,0.317563056946,1,w,688.16098094,,,,,,,,,,,,,,,,,,,,,,,,,,,,,,,,,2015_Jul_06_1004,59.7029304128,LearningTask,1,55,
-200,q,200,,,,,,,,,,,,,,,,,1,0,1,0,9,1,37,1,,,,,,,,,,,,,,,,,,,,,,,,,,,,,q,1,0.30067896843,None,0,2.0,invertedtriangleorange.gif,go,,,,,,,,,,,,,,,,,,,,,,,,0,0.513755083084,0.000967025756836,0.30067896843,1,q,691.163825989,,,,,,,,,,,,,,,,,,,,,,,,,,,,,,,,,2015_Jul_06_1004,59.7029304128,LearningTask,1,55,
200,s,-200,,,,,,,,,,,,,,,,,1,0,1,0,9,2,38,2,,,,,,,,,,,,,,,,,,,,,,,,,,,,,s,1,0.300846099854,None,0,1.0,crossyellow.gif,go,,,,,,,,,,,,,,,,,,,,,,,,0.82,0.514294862747,0.000880002975464,0.300846099854,1,s,694.167091846,,,,,,,,,,,,,,,,,,,,,,,,,,,,,,,,,2015_Jul_06_1004,59.7029304128,LearningTask,1,55,
-200,a,-200,,,,,,,,,,,,,,,,,1,0,1,0,9,3,39,3,,,,,,,,,,,,,,,,,,,,,,,,,,,,,a,1,0.334110975266,None,0,0.5,trianglemagenta.gif,go,,,,,,,,,,,,,,,,,,,,,,,,0.69,0.514328956604,0.000879049301147,0.334110975266,1,a,697.170994997,,,,,,,,,,,,,,,,,,,,,,,,,,,,,,,,,2015_Jul_06_1004,59.7029304128,LearningTask,1,55,
200,s,-200,,,,,,,,,,,,,,,,,1,0,1,0,10,0,40,2,,,,,,,,,,,,,,,,,,,,,,,,,,,,,s,1,0.300421953201,None,0,0.5,trianglemagenta.gif,go,,,,,,,,,,,,,,,,,,,,,,,,0.57,0.513786077499,0.000939130783081,0.300421953201,1,s,700.173956871,,,,,,,,,,,,,,,,,,,,,,,,,,,,,,,,,2015_Jul_06_1004,59.7029304128,LearningTask,1,55,
-200,a,-200,,,,,,,,,,,,,,,,,1,0,1,0,10,1,41,3,,,,,,,,,,,,,,,,,,,,,,,,,,,,,a,1,0.300586938858,None,0,0.5,trianglemagenta.gif,go,,,,,,,,,,,,,,,,,,,,,,,,0.56,0.514423131943,0.000878095626831,0.300586938858,1,a,703.177587986,,,,,,,,,,,,,,,,,,,,,,,,,,,,,,,,,2015_Jul_06_1004,59.7029304128,LearningTask,1,55,
200,s,-200,,,,,,,,,,,,,,,,,1,0,1,0,10,2,42,2,,,,,,,,,,,,,,,,,,,,,,,,,,,,,s,1,0.267600059509,None,0,1.0,circlegreen.gif,stop,,,,,,,,,,,,,,,,,,,,,,,,1.19,0.514163970947,0.000885009765625,0.267600059509,1,s,706.180826902,,,,,,,,,,,,,,,,,,,,,,,,,,,,,,,,,2015_Jul_06_1004,59.7029304128,LearningTask,1,55,
200,w,200,,,,,,,,,,,,,,,,,1,0,1,0,10,3,43,0,,,,,,,,,,,,,,,,,,,,,,,,,,,,,w,1,0.317247867584,None,0,1.0,circlegreen.gif,stop,,,,,,,,,,,,,,,,,,,,,,,,1.18,0.514172077179,0.000887155532837,0.317247867584,1,w,709.183895826,,,,,,,,,,,,,,,,,,,,,,,,,,,,,,,,,2015_Jul_06_1004,59.7029304128,LearningTask,1,55,
200,s,-200,,,,,,,,,,,,,,,,,1,0,1,0,11,0,44,2,,,,,,,,,,,,,,,,,,,,,,,,,,,,,s,1,0.317708015442,None,0,0.5,trianglemagenta.gif,go,,,,,,,,,,,,,,,,,,,,,,,,0.63,0.514197826385,0.000880002975464,0.317708015442,1,s,712.187456846,,,,,,,,,,,,,,,,,,,,,,,,,,,,,,,,,2015_Jul_06_1004,59.7029304128,LearningTask,1,55,
-200,a,-200,,,,,,,,,,,,,,,,,1,0,1,0,11,1,45,3,,,,,,,,,,,,,,,,,,,,,,,,,,,,,a,1,0.333962917328,None,0,1.0,circlegreen.gif,stop,,,,,,,,,,,,,,,,,,,,,,,,0,0.514267206192,0.000880002975464,0.333962917328,1,a,715.190602779,,,,,,,,,,,,,,,,,,,,,,,,,,,,,,,,,2015_Jul_06_1004,59.7029304128,LearningTask,1,55,
-200,q,200,,,,,,,,,,,,,,,,,1,0,1,0,11,2,46,1,,,,,,,,,,,,,,,,,,,,,,,,,,,,,q,1,0.300534963608,None,0,4.0,hexagonwhite.gif,stop,,,,,,,,,,,,,,,,,,,,,,,,3.88,0.514569997787,0.000941038131714,0.300534963608,1,q,718.194229841,,,,,,,,,,,,,,,,,,,,,,,,,,,,,,,,,2015_Jul_06_1004,59.7029304128,LearningTask,1,55,
-200,a,-200,,,,,,,,,,,,,,,,,1,0,1,0,11,3,47,3,,,,,,,,,,,,,,,,,,,,,,,,,,,,,a,1,0.350728034973,None,0,4.0,hexagonwhite.gif,stop,,,,,,,,,,,,,,,,,,,,,,,,3.77,0.513976097107,0.0010290145874,0.350728034973,1,a,721.197483778,,,,,,,,,,,,,,,,,,,,,,,,,,,,,,,,,2015_Jul_06_1004,59.7029304128,LearningTask,1,55,
-200,q,200,,,,,,,,,,,,,,,,,1,0,1,0,12,0,48,1,,,,,,,,,,,,,,,,,,,,,,,,,,,,,q,1,0.351191997528,None,0,4.0,linecyan.gif,go,,,,,,,,,,,,,,,,,,,,,,,,4.07,0.514271020889,0.000895977020264,0.351191997528,1,q,724.200863838,,,,,,,,,,,,,,,,,,,,,,,,,,,,,,,,,2015_Jul_06_1004,59.7029304128,LearningTask,1,55,
200,w,200,,,,,,,,,,,,,,,,,1,0,1,0,12,1,49,0,,,,,,,,,,,,,,,,,,,,,,,,,,,,,w,1,0.350692033768,None,0,4.0,linecyan.gif,go,,,,,,,,,,,,,,,,,,,,,,,,3.88,0.514182090759,0.000937938690186,0.350692033768,1,w,727.2044909,,,,,,,,,,,,,,,,,,,,,,,,,,,,,,,,,2015_Jul_06_1004,59.7029304128,LearningTask,1,55,
-200,q,200,,,,,,,,,,,,,,,,,1,0,1,0,12,2,50,1,,,,,,,,,,,,,,,,,,,,,,,,,,,,,q,1,0.334556818008,None,0,2.0,invertedtriangleorange.gif,go,,,,,,,,,,,,,,,,,,,,,,,,0,0.513547897339,0.00140190124512,0.334556818008,1,q,730.207606792,,,,,,,,,,,,,,,,,,,,,,,,,,,,,,,,,2015_Jul_06_1004,59.7029304128,LearningTask,1,55,
-200,a,-200,,,,,,,,,,,,,,,,,1,0,1,0,12,3,51,3,,,,,,,,,,,,,,,,,,,,,,,,,,,,,a,1,0.367044210434,None,0,1.0,crossyellow.gif,go,,,,,,,,,,,,,,,,,,,,,,,,0.83,0.514569044113,0.00088906288147,0.367044210434,1,a,733.211669922,,,,,,,,,,,,,,,,,,,,,,,,,,,,,,,,,2015_Jul_06_1004,59.7029304128,LearningTask,1,55,
200,w,200,,,,,,,,,,,,,,,,,1,0,1,0,13,0,52,0,,,,,,,,,,,,,,,,,,,,,,,,,,,,,w,1,0.317651033401,None,0,1.0,circlegreen.gif,stop,,,,,,,,,,,,,,,,,,,,,,,,0,0.513720989227,0.00088906288147,0.317651033401,1,w,736.215047836,,,,,,,,,,,,,,,,,,,,,,,,,,,,,,,,,2015_Jul_06_1004,59.7029304128,LearningTask,1,55,
200,w,200,,,,,,,,,,,,,,,,,1,0,1,0,13,1,53,0,,,,,,,,,,,,,,,,,,,,,,,,,,,,,w,1,0.367376089096,None,0,1.0,crossyellow.gif,go,,,,,,,,,,,,,,,,,,,,,,,,0.98,0.513542890549,0.000895023345947,0.367376089096,1,w,739.217697859,,,,,,,,,,,,,,,,,,,,,,,,,,,,,,,,,2015_Jul_06_1004,59.7029304128,LearningTask,1,55,
200,s,-200,,,,,,,,,,,,,,,,,1,0,1,0,13,2,54,2,,,,,,,,,,,,,,,,,,,,,,,,,,,,,s,1,0.31774187088,None,0,1.0,crossyellow.gif,go,,,,,,,,,,,,,,,,,,,,,,,,1.19,0.514225959778,0.00088095664978,0.31774187088,1,s,742.221035957,,,,,,,,,,,,,,,,,,,,,,,,,,,,,,,,,2015_Jul_06_1004,59.7029304128,LearningTask,1,55,
-200,a,-200,,,,,,,,,,,,,,,,,1,0,1,0,13,3,55,3,,,,,,,,,,,,,,,,,,,,,,,,,,,,,a,1,0.318074941635,None,0,2.0,squaregray.gif,stop,,,,,,,,,,,,,,,,,,,,,,,,1.84,0.514099121094,0.00088095664978,0.318074941635,1,a,745.224450827,,,,,,,,,,,,,,,,,,,,,,,,,,,,,,,,,2015_Jul_06_1004,59.7029304128,LearningTask,1,55,
200,s,-200,,,,,,,,,,,,,,,,,1,0,1,0,14,0,56,2,,,,,,,,,,,,,,,,,,,,,,,,,,,,,s,1,0.334393978119,None,0,4.0,linecyan.gif,go,,,,,,,,,,,,,,,,,,,,,,,,4.07,0.514039039612,0.000905990600586,0.334393978119,1,s,748.227672815,,,,,,,,,,,,,,,,,,,,,,,,,,,,,,,,,2015_Jul_06_1004,59.7029304128,LearningTask,1,55,
-200,q,200,,,,,,,,,,,,,,,,,1,0,1,0,14,1,57,1,,,,,,,,,,,,,,,,,,,,,,,,,,,,,q,1,0.283776044846,None,0,0.5,trianglemagenta.gif,go,,,,,,,,,,,,,,,,,,,,,,,,0,0.514544963837,0.000876903533936,0.283776044846,1,q,751.231209993,,,,,,,,,,,,,,,,,,,,,,,,,,,,,,,,,2015_Jul_06_1004,59.7029304128,LearningTask,1,55,
-200,a,-200,,,,,,,,,,,,,,,,,1,0,1,0,14,2,58,3,,,,,,,,,,,,,,,,,,,,,,,,,,,,,a,1,0.284096956253,None,0,0.5,diamondblue.gif,stop,,,,,,,,,,,,,,,,,,,,,,,,0.27,0.514076948166,0.000887870788574,0.284096956253,1,a,754.234460831,,,,,,,,,,,,,,,,,,,,,,,,,,,,,,,,,2015_Jul_06_1004,59.7029304128,LearningTask,1,55,
-200,q,200,,,,,,,,,,,,,,,,,1,0,1,0,14,3,59,1,,,,,,,,,,,,,,,,,,,,,,,,,,,,,q,1,0.317394971848,None,0,2.0,squaregray.gif,stop,,,,,,,,,,,,,,,,,,,,,,,,2.11,0.514131784439,0.000866889953613,0.317394971848,1,q,757.237562895,,,,,,,,,,,,,,,,,,,,,,,,,,,,,,,,,2015_Jul_06_1004,59.7029304128,LearningTask,1,55,
200,w,200,,,,,,,,,,,,,,,,,1,0,1,0,15,0,60,0,,,,,,,,,,,,,,,,,,,,,,,,,,,,,w,1,0.367470979691,None,0,4.0,hexagonwhite.gif,stop,,,,,,,,,,,,,,,,,,,,,,,,0,0.514451980591,0.0012059211731,0.367470979691,1,w,760.241147995,,,,,,,,,,,,,,,,,,,,,,,,,,,,,,,,,2015_Jul_06_1004,59.7029304128,LearningTask,1,55,
200,w,200,,,,,,,,,,,,,,,,,1,0,1,0,15,1,61,0,,,,,,,,,,,,,,,,,,,,,,,,,,,,,w,1,0.38427901268,None,0,2.0,squaregray.gif,stop,,,,,,,,,,,,,,,,,,,,,,,,2.0,0.514204978943,0.00087308883667,0.38427901268,1,w,763.244573832,,,,,,,,,,,,,,,,,,,,,,,,,,,,,,,,,2015_Jul_06_1004,59.7029304128,LearningTask,1,55,
-200,q,200,,,,,,,,,,,,,,,,,1,0,1,0,15,2,62,1,,,,,,,,,,,,,,,,,,,,,,,,,,,,,q,1,0.334036111832,None,0,0.5,diamondblue.gif,stop,,,,,,,,,,,,,,,,,,,,,,,,0.35,0.514275074005,0.000915050506592,0.334036111832,1,q,766.247815847,,,,,,,,,,,,,,,,,,,,,,,,,,,,,,,,,2015_Jul_06_1004,59.7029304128,LearningTask,1,55,
200,w,200,,,,,,,,,,,,,,,,,1,0,1,0,15,3,63,0,,,,,,,,,,,,,,,,,,,,,,,,,,,,,w,1,0.367766857147,None,0,4.0,hexagonwhite.gif,stop,,,,,,,,,,,,,,,,,,,,,,,,4.09,0.513981819153,0.000936985015869,0.367766857147,1,w,769.25138092,,,,,,,,,,,,,,,,,,,,,,,,,,,,,,,,,2015_Jul_06_1004,59.7029304128,LearningTask,1,55,
200,w,200,,,,,,,,,,,,,,,,,1,0,1,0,16,0,64,0,,,,,,,,,,,,,,,,,,,,,,,,,,,,,w,1,0.334087848663,None,0,4.0,linecyan.gif,go,,,,,,,,,,,,,,,,,,,,,,,,4.04,0.51433801651,0.000870943069458,0.334087848663,1,w,772.254423857,,,,,,,,,,,,,,,,,,,,,,,,,,,,,,,,,2015_Jul_06_1004,59.7029304128,LearningTask,1,55,
-200,a,-200,,,,,,,,,,,,,,,,,1,0,1,0,16,1,65,3,,,,,,,,,,,,,,,,,,,,,,,,,,,,,a,1,0.334452867508,None,0,0.5,diamondblue.gif,stop,,,,,,,,,,,,,,,,,,,,,,,,0.72,0.514195203781,0.000954151153564,0.334452867508,1,a,775.257809877,,,,,,,,,,,,,,,,,,,,,,,,,,,,,,,,,2015_Jul_06_1004,59.7029304128,LearningTask,1,55,
-200,a,-200,,,,,,,,,,,,,,,,,1,0,1,0,16,2,66,3,,,,,,,,,,,,,,,,,,,,,,,,,,,,,a,1,0.384204149246,None,0,2.0,squaregray.gif,stop,,,,,,,,,,,,,,,,,,,,,,,,1.82,0.514142036438,0.000919103622437,0.384204149246,1,a,778.261409998,,,,,,,,,,,,,,,,,,,,,,,,,,,,,,,,,2015_Jul_06_1004,59.7029304128,LearningTask,1,55,
200,s,-200,,,,,,,,,,,,,,,,,1,0,1,0,16,3,67,2,,,,,,,,,,,,,,,,,,,,,,,,,,,,,s,1,0.317939043045,None,0,2.0,invertedtriangleorange.gif,go,,,,,,,,,,,,,,,,,,,,,,,,0,0.514098882675,0.000882863998413,0.317939043045,1,s,781.264652967,,,,,,,,,,,,,,,,,,,,,,,,,,,,,,,,,2015_Jul_06_1004,59.7029304128,LearningTask,1,55,
-200,q,200,,,,,,,,,,,,,,,,,1,0,1,0,17,0,68,1,,,,,,,,,,,,,,,,,,,,,,,,,,,,,q,1,0.30028796196,None,0,4.0,hexagonwhite.gif,stop,,,,,,,,,,,,,,,,,,,,,,,,4.03,0.514362096786,0.000888109207153,0.30028796196,1,q,784.268179893,,,,,,,,,,,,,,,,,,,,,,,,,,,,,,,,,2015_Jul_06_1004,59.7029304128,LearningTask,1,55,
-200,q,200,,,,,,,,,,,,,,,,,1,0,1,0,17,1,69,1,,,,,,,,,,,,,,,,,,,,,,,,,,,,,q,1,0.300656795502,None,0,4.0,hexagonwhite.gif,stop,,,,,,,,,,,,,,,,,,,,,,,,3.89,0.513923883438,0.000935077667236,0.300656795502,1,q,787.271381855,,,,,,,,,,,,,,,,,,,,,,,,,,,,,,,,,2015_Jul_06_1004,59.7029304128,LearningTask,1,55,
-200,a,-200,,,,,,,,,,,,,,,,,1,0,1,0,17,2,70,3,,,,,,,,,,,,,,,,,,,,,,,,,,,,,a,1,0.317474842072,None,0,0.5,trianglemagenta.gif,go,,,,,,,,,,,,,,,,,,,,,,,,0,0.514137029648,0.000877141952515,0.317474842072,1,a,790.274574995,,,,,,,,,,,,,,,,,,,,,,,,,,,,,,,,,2015_Jul_06_1004,59.7029304128,LearningTask,1,55,
200,w,200,,,,,,,,,,,,,,,,,1,0,1,0,17,3,71,0,,,,,,,,,,,,,,,,,,,,,,,,,,,,,w,1,0.317481994629,None,0,4.0,linecyan.gif,go,,,,,,,,,,,,,,,,,,,,,,,,0,0.514313936234,0.000890970230103,0.317481994629,1,w,793.278220892,,,,,,,,,,,,,,,,,,,,,,,,,,,,,,,,,2015_Jul_06_1004,59.7029304128,LearningTask,1,55,
-200,q,200,,,,,,,,,,,,,,,,,1,0,1,0,18,0,72,1,,,,,,,,,,,,,,,,,,,,,,,,,,,,,q,1,0.284247159958,None,0,0.5,trianglemagenta.gif,go,,,,,,,,,,,,,,,,,,,,,,,,0.64,0.513909816742,0.00088095664978,0.284247159958,1,q,796.281335831,,,,,,,,,,,,,,,,,,,,,,,,,,,,,,,,,2015_Jul_06_1004,59.7029304128,LearningTask,1,55,
-200,q,200,,,,,,,,,,,,,,,,,1,0,1,0,18,1,73,1,,,,,,,,,,,,,,,,,,,,,,,,,,,,,q,1,0.300784111023,None,0,2.0,invertedtriangleorange.gif,go,,,,,,,,,,,,,,,,,,,,,,,,1.81,0.514409065247,0.000924110412598,0.300784111023,1,q,799.284799814,,,,,,,,,,,,,,,,,,,,,,,,,,,,,,,,,2015_Jul_06_1004,59.7029304128,LearningTask,1,55,
200,w,200,,,,,,,,,,,,,,,,,1,0,1,0,18,2,74,0,,,,,,,,,,,,,,,,,,,,,,,,,,,,,w,1,0.350681066513,None,0,2.0,squaregray.gif,stop,,,,,,,,,,,,,,,,,,,,,,,,2.21,0.514489889145,0.000877857208252,0.350681066513,1,w,802.288214922,,,,,,,,,,,,,,,,,,,,,,,,,,,,,,,,,2015_Jul_06_1004,59.7029304128,LearningTask,1,55,
200,w,200,,,,,,,,,,,,,,,,,1,0,1,0,18,3,75,0,,,,,,,,,,,,,,,,,,,,,,,,,,,,,w,1,0.318041086197,None,0,4.0,hexagonwhite.gif,stop,,,,,,,,,,,,,,,,,,,,,,,,3.81,0.514019012451,0.00093412399292,0.318041086197,1,w,805.2913239,,,,,,,,,,,,,,,,,,,,,,,,,,,,,,,,,2015_Jul_06_1004,59.7029304128,LearningTask,1,55,
200,s,-200,,,,,,,,,,,,,,,,,1,0,1,0,19,0,76,2,,,,,,,,,,,,,,,,,,,,,,,,,,,,,s,1,0.33399605751,None,0,1.0,circlegreen.gif,stop,,,,,,,,,,,,,,,,,,,,,,,,1.02,0.514573097229,0.000952005386353,0.33399605751,1,s,808.2948668,,,,,,,,,,,,,,,,,,,,,,,,,,,,,,,,,2015_Jul_06_1004,59.7029304128,LearningTask,1,55,
-200,q,200,,,,,,,,,,,,,,,,,1,0,1,0,19,1,77,1,,,,,,,,,,,,,,,,,,,,,,,,,,,,,q,1,0.317878007889,None,0,4.0,hexagonwhite.gif,stop,,,,,,,,,,,,,,,,,,,,,,,,4.12,0.514251947403,0.000894069671631,0.317878007889,1,q,811.298187971,,,,,,,,,,,,,,,,,,,,,,,,,,,,,,,,,2015_Jul_06_1004,59.7029304128,LearningTask,1,55,
200,w,200,,,,,,,,,,,,,,,,,1,0,1,0,19,2,78,0,,,,,,,,,,,,,,,,,,,,,,,,,,,,,w,1,0.317299842834,None,0,4.0,linecyan.gif,go,,,,,,,,,,,,,,,,,,,,,,,,3.8,0.514527797699,0.000949859619141,0.317299842834,1,w,814.301524878,,,,,,,,,,,,,,,,,,,,,,,,,,,,,,,,,2015_Jul_06_1004,59.7029304128,LearningTask,1,55,
-200,a,-200,,,,,,,,,,,,,,,,,1,0,1,0,19,3,79,3,,,,,,,,,,,,,,,,,,,,,,,,,,,,,a,1,0.334580183029,None,0,2.0,squaregray.gif,stop,,,,,,,,,,,,,,,,,,,,,,,,0,0.514106988907,0.000949144363403,0.334580183029,1,a,817.304843903,,,,,,,,,,,,,,,,,,,,,,,,,,,,,,,,,2015_Jul_06_1004,59.7029304128,LearningTask,1,55,
200,w,200,,,,,,,,,,,,,,,,,1,0,1,0,20,0,80,0,,,,,,,,,,,,,,,,,,,,,,,,,,,,,w,1,0.317352056503,None,0,1.0,circlegreen.gif,stop,,,,,,,,,,,,,,,,,,,,,,,,1.12,0.514438867569,0.00088095664978,0.317352056503,1,w,820.308156967,,,,,,,,,,,,,,,,,,,,,,,,,,,,,,,,,2015_Jul_06_1004,59.7029304128,LearningTask,1,55,
-200,q,200,,,,,,,,,,,,,,,,,1,0,1,0,20,1,81,1,,,,,,,,,,,,,,,,,,,,,,,,,,,,,q,1,0.334499120712,None,0,0.5,diamondblue.gif,stop,,,,,,,,,,,,,,,,,,,,,,,,0.67,0.514144897461,0.000919818878174,0.334499120712,1,q,823.311416864,,,,,,,,,,,,,,,,,,,,,,,,,,,,,,,,,2015_Jul_06_1004,59.7029304128,LearningTask,1,55,
-200,q,200,,,,,,,,,,,,,,,,,1,0,1,0,20,2,82,1,,,,,,,,,,,,,,,,,,,,,,,,,,,,,q,1,0.267539024353,None,0,0.5,trianglemagenta.gif,go,,,,,,,,,,,,,,,,,,,,,,,,0.6,0.51412987709,0.000920057296753,0.267539024353,1,q,826.314978838,,,,,,,,,,,,,,,,,,,,,,,,,,,,,,,,,2015_Jul_06_1004,59.7029304128,LearningTask,1,55,
200,s,-200,,,,,,,,,,,,,,,,,1,0,1,0,20,3,83,2,,,,,,,,,,,,,,,,,,,,,,,,,,,,,s,1,0.317971944809,None,0,0.5,trianglemagenta.gif,go,,,,,,,,,,,,,,,,,,,,,,,,0.57,0.514042139053,0.000943183898926,0.317971944809,1,s,829.318639994,,,,,,,,,,,,,,,,,,,,,,,,,,,,,,,,,2015_Jul_06_1004,59.7029304128,LearningTask,1,55,
200,s,-200,,,,,,,,,,,,,,,,,1,0,1,0,21,0,84,2,,,,,,,,,,,,,,,,,,,,,,,,,,,,,s,1,0.350872993469,None,0,4.0,linecyan.gif,go,,,,,,,,,,,,,,,,,,,,,,,,3.93,0.51385807991,0.000878095626831,0.350872993469,1,s,832.321871996,,,,,,,,,,,,,,,,,,,,,,,,,,,,,,,,,2015_Jul_06_1004,59.7029304128,LearningTask,1,55,
200,s,-200,,,,,,,,,,,,,,,,,1,0,1,0,21,1,85,2,,,,,,,,,,,,,,,,,,,,,,,,,,,,,s,1,0.333896160126,None,0,2.0,invertedtriangleorange.gif,go,,,,,,,,,,,,,,,,,,,,,,,,1.93,0.513927936554,0.000886917114258,0.333896160126,1,s,835.325110912,,,,,,,,,,,,,,,,,,,,,,,,,,,,,,,,,2015_Jul_06_1004,59.7029304128,LearningTask,1,55,
-200,a,-200,,,,,,,,,,,,,,,,,1,0,1,0,21,2,86,3,,,,,,,,,,,,,,,,,,,,,,,,,,,,,a,1,0.350975990295,None,0,2.0,squaregray.gif,stop,,,,,,,,,,,,,,,,,,,,,,,,2.16,0.514142036438,0.000869989395142,0.350975990295,1,a,838.328372002,,,,,,,,,,,,,,,,,,,,,,,,,,,,,,,,,2015_Jul_06_1004,59.7029304128,LearningTask,1,55,
-200,q,200,,,,,,,,,,,,,,,,,1,0,1,0,21,3,87,1,,,,,,,,,,,,,,,,,,,,,,,,,,,,,q,1,0.317781925201,None,0,0.5,diamondblue.gif,stop,,,,,,,,,,,,,,,,,,,,,,,,0.69,0.514043807983,0.000874042510986,0.317781925201,1,q,841.332242966,,,,,,,,,,,,,,,,,,,,,,,,,,,,,,,,,2015_Jul_06_1004,59.7029304128,LearningTask,1,55,
200,s,-200,,,,,,,,,,,,,,,,,1,0,1,0,22,0,88,2,,,,,,,,,,,,,,,,,,,,,,,,,,,,,s,1,0.350272893906,None,0,2.0,squaregray.gif,stop,,,,,,,,,,,,,,,,,,,,,,,,2.09,0.51410484314,0.000893831253052,0.350272893906,1,s,844.335114002,,,,,,,,,,,,,,,,,,,,,,,,,,,,,,,,,2015_Jul_06_1004,59.7029304128,LearningTask,1,55,
-200,a,-200,,,,,,,,,,,,,,,,,1,0,1,0,22,1,89,3,,,,,,,,,,,,,,,,,,,,,,,,,,,,,a,1,0.351561069489,None,0,2.0,squaregray.gif,stop,,,,,,,,,,,,,,,,,,,,,,,,2.22,0.5139939785,0.000866889953613,0.351561069489,1,a,847.338382006,,,,,,,,,,,,,,,,,,,,,,,,,,,,,,,,,2015_Jul_06_1004,59.7029304128,LearningTask,1,55,
-200,a,-200,,,,,,,,,,,,,,,,,1,0,1,0,22,2,90,3,,,,,,,,,,,,,,,,,,,,,,,,,,,,,a,1,0.351495027542,None,0,4.0,hexagonwhite.gif,stop,,,,,,,,,,,,,,,,,,,,,,,,3.82,0.514156103134,0.000888109207153,0.351495027542,1,a,850.341738939,,,,,,,,,,,,,,,,,,,,,,,,,,,,,,,,,2015_Jul_06_1004,59.7029304128,LearningTask,1,55,
-200,a,-200,,,,,,,,,,,,,,,,,1,0,1,0,22,3,91,3,,,,,,,,,,,,,,,,,,,,,,,,,,,,,a,1,0.317353963852,None,0,1.0,crossyellow.gif,go,,,,,,,,,,,,,,,,,,,,,,,,1.15,0.51428103447,0.000929832458496,0.317353963852,1,a,853.34488678,,,,,,,,,,,,,,,,,,,,,,,,,,,,,,,,,2015_Jul_06_1004,59.7029304128,LearningTask,1,55,
-200,a,-200,,,,,,,,,,,,,,,,,1,0,1,0,23,0,92,3,,,,,,,,,,,,,,,,,,,,,,,,,,,,,a,1,0.31734919548,None,0,0.5,trianglemagenta.gif,go,,,,,,,,,,,,,,,,,,,,,,,,0,0.514508962631,0.000884056091309,0.31734919548,1,a,856.348340988,,,,,,,,,,,,,,,,,,,,,,,,,,,,,,,,,2015_Jul_06_1004,59.7029304128,LearningTask,1,55,
200,s,-200,,,,,,,,,,,,,,,,,1,0,1,0,23,1,93,2,,,,,,,,,,,,,,,,,,,,,,,,,,,,,s,1,0.334254026413,None,0,4.0,linecyan.gif,go,,,,,,,,,,,,,,,,,,,,,,,,3.87,0.514653921127,0.000885009765625,0.334254026413,1,s,859.351612806,,,,,,,,,,,,,,,,,,,,,,,,,,,,,,,,,2015_Jul_06_1004,59.7029304128,LearningTask,1,55,
200,s,-200,,,,,,,,,,,,,,,,,1,0,1,0,23,2,94,2,,,,,,,,,,,,,,,,,,,,,,,,,,,,,s,1,0.317359209061,None,0,0.5,trianglemagenta.gif,go,,,,,,,,,,,,,,,,,,,,,,,,0.29,0.514669895172,0.000960111618042,0.317359209061,1,s,862.355152845,,,,,,,,,,,,,,,,,,,,,,,,,,,,,,,,,2015_Jul_06_1004,59.7029304128,LearningTask,1,55,
-200,a,-200,,,,,,,,,,,,,,,,,1,0,1,0,23,3,95,3,,,,,,,,,,,,,,,,,,,,,,,,,,,,,a,1,0.300683021545,None,0,1.0,circlegreen.gif,stop,,,,,,,,,,,,,,,,,,,,,,,,1.11,0.514095067978,0.0011191368103,0.300683021545,1,a,865.358555794,,,,,,,,,,,,,,,,,,,,,,,,,,,,,,,,,2015_Jul_06_1004,59.7029304128,LearningTask,1,55,
200,w,200,,,,,,,,,,,,,,,,,1,0,1,0,24,0,96,0,,,,,,,,,,,,,,,,,,,,,,,,,,,,,w,1,0.350733995438,None,0,1.0,crossyellow.gif,go,,,,,,,,,,,,,,,,,,,,,,,,1.05,0.514337062836,0.000877857208252,0.350733995438,1,w,868.361841917,,,,,,,,,,,,,,,,,,,,,,,,,,,,,,,,,2015_Jul_06_1004,59.7029304128,LearningTask,1,55,
200,s,-200,,,,,,,,,,,,,,,,,1,0,1,0,24,1,97,2,,,,,,,,,,,,,,,,,,,,,,,,,,,,,s,1,0.301428079605,None,0,4.0,linecyan.gif,go,,,,,,,,,,,,,,,,,,,,,,,,0,0.51402592659,0.000991106033325,0.301428079605,1,s,871.365092993,,,,,,,,,,,,,,,,,,,,,,,,,,,,,,,,,2015_Jul_06_1004,59.7029304128,LearningTask,1,55,
-200,a,-200,,,,,,,,,,,,,,,,,1,0,1,0,24,2,98,3,,,,,,,,,,,,,,,,,,,,,,,,,,,,,a,1,0.300632953644,None,0,2.0,squaregray.gif,stop,,,,,,,,,,,,,,,,,,,,,,,,2.25,0.51406288147,0.00097393989563,0.300632953644,1,a,874.368518829,,,,,,,,,,,,,,,,,,,,,,,,,,,,,,,,,2015_Jul_06_1004,59.7029304128,LearningTask,1,55,
200,s,-200,,,,,,,,,,,,,,,,,1,0,1,0,24,3,99,2,,,,,,,,,,,,,,,,,,,,,,,,,,,,,s,1,0.284078836441,None,0,2.0,invertedtriangleorange.gif,go,,,,,,,,,,,,,,,,,,,,,,,,0,0.514220952988,0.000888109207153,0.284078836441,1,s,877.372140884,,,,,,,,,,,,,,,,,,,,,,,,,,,,,,,,,2015_Jul_06_1004,59.7029304128,LearningTask,1,55,
,,,,,,,,,,,,,,,,,,,1,0,1,0,,,,,,,,,,,,,,,,,,,,,,,,,,,,,,,,,,,,,,,,,,,,,,,,,,,,,,,,,,,,,,,,,,,,,,,9,6.11774086952,,,,,,,,,,,,,,,,,,,,,,,,,,,,,,,2015_Jul_06_1004,59.7029304128,LearningTask,1,55,
200,w,200,,,,,,,,,,,,,,,,,2,0,2,0,0,0,0,0,,,,,,,,,,,,,,,,,,,,,,,,,,,,,w,1,0.450824022293,None,0,1.0,circlegreen.gif,stop,,,,,,,,,,,,,,,,,,,,,,,,0.9,0.509391069412,0.000880002975464,0.450824022293,1,w,887.050160885,,,,,,,,,,,,,,,,,,,,,,,,,,,,,,,,,2015_Jul_06_1004,59.7029304128,LearningTask,1,55,
200,s,-200,,,,,,,,,,,,,,,,,2,0,2,0,0,1,1,2,,,,,,,,,,,,,,,,,,,,,,,,,,,,,s,1,0.301378011703,None,0,2.0,squaregray.gif,stop,,,,,,,,,,,,,,,,,,,,,,,,1.86,0.513500928879,0.000885009765625,0.301378011703,1,s,890.052706003,,,,,,,,,,,,,,,,,,,,,,,,,,,,,,,,,2015_Jul_06_1004,59.7029304128,LearningTask,1,55,
200,s,-200,,,,,,,,,,,,,,,,,2,0,2,0,0,2,2,2,,,,,,,,,,,,,,,,,,,,,,,,,,,,,s,1,0.317566156387,None,0,2.0,squaregray.gif,stop,,,,,,,,,,,,,,,,,,,,,,,,2.17,0.514101028442,0.000946998596191,0.317566156387,1,s,893.056216955,,,,,,,,,,,,,,,,,,,,,,,,,,,,,,,,,2015_Jul_06_1004,59.7029304128,LearningTask,1,55,
200,w,200,,,,,,,,,,,,,,,,,2,0,2,0,0,3,3,0,,,,,,,,,,,,,,,,,,,,,,,,,,,,,w,1,0.366914987564,None,0,1.0,circlegreen.gif,stop,,,,,,,,,,,,,,,,,,,,,,,,0.85,0.513870000839,0.000919103622437,0.366914987564,1,w,896.059431791,,,,,,,,,,,,,,,,,,,,,,,,,,,,,,,,,2015_Jul_06_1004,59.7029304128,LearningTask,1,55,
-200,q,200,,,,,,,,,,,,,,,,,2,0,2,0,1,0,4,1,,,,,,,,,,,,,,,,,,,,,,,,,,,,,q,1,0.350636959076,None,0,4.0,hexagonwhite.gif,stop,,,,,,,,,,,,,,,,,,,,,,,,4.01,0.514450073242,0.000890016555786,0.350636959076,1,q,899.0628829,,,,,,,,,,,,,,,,,,,,,,,,,,,,,,,,,2015_Jul_06_1004,59.7029304128,LearningTask,1,55,
-200,q,200,,,,,,,,,,,,,,,,,2,0,2,0,1,1,5,1,,,,,,,,,,,,,,,,,,,,,,,,,,,,,q,1,0.333952188492,None,0,2.0,squaregray.gif,stop,,,,,,,,,,,,,,,,,,,,,,,,1.75,0.514132976532,0.000946998596191,0.333952188492,1,q,902.066870928,,,,,,,,,,,,,,,,,,,,,,,,,,,,,,,,,2015_Jul_06_1004,59.7029304128,LearningTask,1,55,
-200,q,200,,,,,,,,,,,,,,,,,2,0,2,0,1,2,6,1,,,,,,,,,,,,,,,,,,,,,,,,,,,,,q,1,0.317964076996,None,0,4.0,linecyan.gif,go,,,,,,,,,,,,,,,,,,,,,,,,3.78,0.513139009476,0.000892877578735,0.317964076996,1,q,905.069877863,,,,,,,,,,,,,,,,,,,,,,,,,,,,,,,,,2015_Jul_06_1004,59.7029304128,LearningTask,1,55,
200,s,-200,,,,,,,,,,,,,,,,,2,0,2,0,1,3,7,2,,,,,,,,,,,,,,,,,,,,,,,,,,,,,s,1,0.367363929749,None,0,1.0,crossyellow.gif,go,,,,,,,,,,,,,,,,,,,,,,,,0.92,0.514208078384,0.00088095664978,0.367363929749,1,s,908.073274851,,,,,,,,,,,,,,,,,,,,,,,,,,,,,,,,,2015_Jul_06_1004,59.7029304128,LearningTask,1,55,
200,s,-200,,,,,,,,,,,,,,,,,2,0,2,0,2,0,8,2,,,,,,,,,,,,,,,,,,,,,,,,,,,,,s,1,0.35138297081,None,0,1.0,crossyellow.gif,go,,,,,,,,,,,,,,,,,,,,,,,,1.0,0.513862848282,0.000881910324097,0.35138297081,1,s,911.07673192,,,,,,,,,,,,,,,,,,,,,,,,,,,,,,,,,2015_Jul_06_1004,59.7029304128,LearningTask,1,55,
-200,q,200,,,,,,,,,,,,,,,,,2,0,2,0,2,1,9,1,,,,,,,,,,,,,,,,,,,,,,,,,,,,,q,1,0.350911140442,None,0,0.5,trianglemagenta.gif,go,,,,,,,,,,,,,,,,,,,,,,,,0,0.513732910156,0.000882863998413,0.350911140442,1,q,914.079639912,,,,,,,,,,,,,,,,,,,,,,,,,,,,,,,,,2015_Jul_06_1004,59.7029304128,LearningTask,1,55,
-200,q,200,,,,,,,,,,,,,,,,,2,0,2,0,2,2,10,1,,,,,,,,,,,,,,,,,,,,,,,,,,,,,q,1,0.334063053131,None,0,1.0,circlegreen.gif,stop,,,,,,,,,,,,,,,,,,,,,,,,0.85,0.514467954636,0.000878810882568,0.334063053131,1,q,917.082810879,,,,,,,,,,,,,,,,,,,,,,,,,,,,,,,,,2015_Jul_06_1004,59.7029304128,LearningTask,1,55,
200,s,-200,,,,,,,,,,,,,,,,,2,0,2,0,2,3,11,2,,,,,,,,,,,,,,,,,,,,,,,,,,,,,s,1,0.333750009537,None,0,4.0,linecyan.gif,go,,,,,,,,,,,,,,,,,,,,,,,,0,0.514858007431,0.000874042510986,0.333750009537,1,s,920.086486816,,,,,,,,,,,,,,,,,,,,,,,,,,,,,,,,,2015_Jul_06_1004,59.7029304128,LearningTask,1,55,
-200,a,-200,,,,,,,,,,,,,,,,,2,0,2,0,3,0,12,3,,,,,,,,,,,,,,,,,,,,,,,,,,,,,a,1,0.333969831467,None,0,4.0,hexagonwhite.gif,stop,,,,,,,,,,,,,,,,,,,,,,,,3.82,0.514370203018,0.000882148742676,0.333969831467,1,a,923.08976388,,,,,,,,,,,,,,,,,,,,,,,,,,,,,,,,,2015_Jul_06_1004,59.7029304128,LearningTask,1,55,
200,s,-200,,,,,,,,,,,,,,,,,2,0,2,0,3,1,13,2,,,,,,,,,,,,,,,,,,,,,,,,,,,,,s,1,0.316955089569,None,0,4.0,hexagonwhite.gif,stop,,,,,,,,,,,,,,,,,,,,,,,,3.88,0.514467954636,0.00115609169006,0.316955089569,1,s,926.093286991,,,,,,,,,,,,,,,,,,,,,,,,,,,,,,,,,2015_Jul_06_1004,59.7029304128,LearningTask,1,55,
-200,q,200,,,,,,,,,,,,,,,,,2,0,2,0,3,2,14,1,,,,,,,,,,,,,,,,,,,,,,,,,,,,,q,1,0.284162044525,None,0,0.5,trianglemagenta.gif,go,,,,,,,,,,,,,,,,,,,,,,,,0.32,0.514011144638,0.000874042510986,0.284162044525,1,q,929.096352816,,,,,,,,,,,,,,,,,,,,,,,,,,,,,,,,,2015_Jul_06_1004,59.7029304128,LearningTask,1,55,
-200,q,200,,,,,,,,,,,,,,,,,2,0,2,0,3,3,15,1,,,,,,,,,,,,,,,,,,,,,,,,,,,,,q,1,0.351106882095,None,0,1.0,crossyellow.gif,go,,,,,,,,,,,,,,,,,,,,,,,,1.02,0.514058113098,0.000875949859619,0.351106882095,1,q,932.099762917,,,,,,,,,,,,,,,,,,,,,,,,,,,,,,,,,2015_Jul_06_1004,59.7029304128,LearningTask,1,55,
200,s,-200,,,,,,,,,,,,,,,,,2,0,2,0,4,0,16,2,,,,,,,,,,,,,,,,,,,,,,,,,,,,,s,1,0.334038972855,None,0,2.0,invertedtriangleorange.gif,go,,,,,,,,,,,,,,,,,,,,,,,,2.08,0.513997077942,0.000942945480347,0.334038972855,1,s,935.103335857,,,,,,,,,,,,,,,,,,,,,,,,,,,,,,,,,2015_Jul_06_1004,59.7029304128,LearningTask,1,55,
200,w,200,,,,,,,,,,,,,,,,,2,0,2,0,4,1,17,0,,,,,,,,,,,,,,,,,,,,,,,,,,,,,w,1,0.367341041565,None,0,4.0,linecyan.gif,go,,,,,,,,,,,,,,,,,,,,,,,,0,0.514279127121,0.000878095626831,0.367341041565,1,w,938.106330872,,,,,,,,,,,,,,,,,,,,,,,,,,,,,,,,,2015_Jul_06_1004,59.7029304128,LearningTask,1,55,
200,s,-200,,,,,,,,,,,,,,,,,2,0,2,0,4,2,18,2,,,,,,,,,,,,,,,,,,,,,,,,,,,,,s,1,0.367414951324,None,0,2.0,squaregray.gif,stop,,,,,,,,,,,,,,,,,,,,,,,,2.16,0.514312028885,0.000891923904419,0.367414951324,1,s,941.109791994,,,,,,,,,,,,,,,,,,,,,,,,,,,,,,,,,2015_Jul_06_1004,59.7029304128,LearningTask,1,55,
200,s,-200,,,,,,,,,,,,,,,,,2,0,2,0,4,3,19,2,,,,,,,,,,,,,,,,,,,,,,,,,,,,,s,1,0.384447097778,None,0,4.0,hexagonwhite.gif,stop,,,,,,,,,,,,,,,,,,,,,,,,4.08,0.514255046844,0.000919103622437,0.384447097778,1,s,944.113088846,,,,,,,,,,,,,,,,,,,,,,,,,,,,,,,,,2015_Jul_06_1004,59.7029304128,LearningTask,1,55,
200,s,-200,,,,,,,,,,,,,,,,,2,0,2,0,5,0,20,2,,,,,,,,,,,,,,,,,,,,,,,,,,,,,s,1,0.317804098129,None,0,0.5,trianglemagenta.gif,go,,,,,,,,,,,,,,,,,,,,,,,,0,0.514477968216,0.000876188278198,0.317804098129,1,s,947.116750956,,,,,,,,,,,,,,,,,,,,,,,,,,,,,,,,,2015_Jul_06_1004,59.7029304128,LearningTask,1,55,
-200,a,-200,,,,,,,,,,,,,,,,,2,0,2,0,5,1,21,3,,,,,,,,,,,,,,,,,,,,,,,,,,,,,a,1,0.317749023438,None,0,0.5,diamondblue.gif,stop,,,,,,,,,,,,,,,,,,,,,,,,0.62,0.514091014862,0.000893115997314,0.317749023438,1,a,950.120101929,,,,,,,,,,,,,,,,,,,,,,,,,,,,,,,,,2015_Jul_06_1004,59.7029304128,LearningTask,1,55,
200,s,-200,,,,,,,,,,,,,,,,,2,0,2,0,5,2,22,2,,,,,,,,,,,,,,,,,,,,,,,,,,,,,s,1,0.300044059753,None,0,2.0,invertedtriangleorange.gif,go,,,,,,,,,,,,,,,,,,,,,,,,2.14,0.514152050018,0.000887870788574,0.300044059753,1,s,953.123291969,,,,,,,,,,,,,,,,,,,,,,,,,,,,,,,,,2015_Jul_06_1004,59.7029304128,LearningTask,1,55,
-200,a,-200,,,,,,,,,,,,,,,,,2,0,2,0,5,3,23,3,,,,,,,,,,,,,,,,,,,,,,,,,,,,,a,1,0.317820072174,None,0,0.5,trianglemagenta.gif,go,,,,,,,,,,,,,,,,,,,,,,,,0,0.514161109924,0.000884056091309,0.317820072174,1,a,956.126682997,,,,,,,,,,,,,,,,,,,,,,,,,,,,,,,,,2015_Jul_06_1004,59.7029304128,LearningTask,1,55,
200,w,200,,,,,,,,,,,,,,,,,2,0,2,0,6,0,24,0,,,,,,,,,,,,,,,,,,,,,,,,,,,,,w,1,0.40043091774,None,0,4.0,linecyan.gif,go,,,,,,,,,,,,,,,,,,,,,,,,4.09,0.514519929886,0.000869035720825,0.40043091774,1,w,959.130555868,,,,,,,,,,,,,,,,,,,,,,,,,,,,,,,,,2015_Jul_06_1004,59.7029304128,LearningTask,1,55,
-200,q,200,,,,,,,,,,,,,,,,,2,0,2,0,6,1,25,1,,,,,,,,,,,,,,,,,,,,,,,,,,,,,q,1,0.334223985672,None,0,2.0,squaregray.gif,stop,,,,,,,,,,,,,,,,,,,,,,,,1.8,0.513334035873,0.000855207443237,0.334223985672,1,q,962.133367777,,,,,,,,,,,,,,,,,,,,,,,,,,,,,,,,,2015_Jul_06_1004,59.7029304128,LearningTask,1,55,
-200,q,200,,,,,,,,,,,,,,,,,2,0,2,0,6,2,26,1,,,,,,,,,,,,,,,,,,,,,,,,,,,,,q,1,0.283936023712,None,0,1.0,crossyellow.gif,go,,,,,,,,,,,,,,,,,,,,,,,,1.14,0.514276981354,0.00087308883667,0.283936023712,1,q,965.136657,,,,,,,,,,,,,,,,,,,,,,,,,,,,,,,,,2015_Jul_06_1004,59.7029304128,LearningTask,1,55,
-200,a,-200,,,,,,,,,,,,,,,,,2,0,2,0,6,3,27,3,,,,,,,,,,,,,,,,,,,,,,,,,,,,,a,1,0.284321069717,None,0,1.0,circlegreen.gif,stop,,,,,,,,,,,,,,,,,,,,,,,,0.92,0.514181852341,0.000884771347046,0.284321069717,1,a,968.140049934,,,,,,,,,,,,,,,,,,,,,,,,,,,,,,,,,2015_Jul_06_1004,59.7029304128,LearningTask,1,55,
-200,a,-200,,,,,,,,,,,,,,,,,2,0,2,0,7,0,28,3,,,,,,,,,,,,,,,,,,,,,,,,,,,,,a,1,0.267457008362,None,0,1.0,crossyellow.gif,go,,,,,,,,,,,,,,,,,,,,,,,,0.75,0.514274120331,0.000870943069458,0.267457008362,1,a,971.143441916,,,,,,,,,,,,,,,,,,,,,,,,,,,,,,,,,2015_Jul_06_1004,59.7029304128,LearningTask,1,55,
200,w,200,,,,,,,,,,,,,,,,,2,0,2,0,7,1,29,0,,,,,,,,,,,,,,,,,,,,,,,,,,,,,w,1,0.367772102356,None,0,4.0,linecyan.gif,go,,,,,,,,,,,,,,,,,,,,,,,,3.85,0.514210939407,0.00103282928467,0.367772102356,1,w,974.146691799,,,,,,,,,,,,,,,,,,,,,,,,,,,,,,,,,2015_Jul_06_1004,59.7029304128,LearningTask,1,55,
200,w,200,,,,,,,,,,,,,,,,,2,0,2,0,7,2,30,0,,,,,,,,,,,,,,,,,,,,,,,,,,,,,w,1,0.368001937866,None,0,0.5,trianglemagenta.gif,go,,,,,,,,,,,,,,,,,,,,,,,,0,0.514132022858,0.000875949859619,0.368001937866,1,w,977.150424004,,,,,,,,,,,,,,,,,,,,,,,,,,,,,,,,,2015_Jul_06_1004,59.7029304128,LearningTask,1,55,
200,w,200,,,,,,,,,,,,,,,,,2,0,2,0,7,3,31,0,,,,,,,,,,,,,,,,,,,,,,,,,,,,,w,1,0.751149177551,None,0,0.5,diamondblue.gif,stop,,,,,,,,,,,,,,,,,,,,,,,,0.58,0.514045953751,0.00086498260498,0.751149177551,1,w,980.153391838,,,,,,,,,,,,,,,,,,,,,,,,,,,,,,,,,2015_Jul_06_1004,59.7029304128,LearningTask,1,55,
200,w,200,,,,,,,,,,,,,,,,,2,0,2,0,8,0,32,0,,,,,,,,,,,,,,,,,,,,,,,,,,,,,w,1,0.300724983215,None,0,0.5,trianglemagenta.gif,go,,,,,,,,,,,,,,,,,,,,,,,,0.32,0.513939142227,0.000926971435547,0.300724983215,1,w,983.15703392,,,,,,,,,,,,,,,,,,,,,,,,,,,,,,,,,2015_Jul_06_1004,59.7029304128,LearningTask,1,55,
-200,a,-200,,,,,,,,,,,,,,,,,2,0,2,0,8,1,33,3,,,,,,,,,,,,,,,,,,,,,,,,,,,,,a,1,0.283702850342,None,0,2.0,squaregray.gif,stop,,,,,,,,,,,,,,,,,,,,,,,,1.77,0.51429104805,0.000862836837769,0.283702850342,1,a,986.159827948,,,,,,,,,,,,,,,,,,,,,,,,,,,,,,,,,2015_Jul_06_1004,59.7029304128,LearningTask,1,55,
-200,q,200,,,,,,,,,,,,,,,,,2,0,2,0,8,2,34,1,,,,,,,,,,,,,,,,,,,,,,,,,,,,,q,1,0.300564050674,None,0,4.0,hexagonwhite.gif,stop,,,,,,,,,,,,,,,,,,,,,,,,3.78,0.514620065689,0.000936031341553,0.300564050674,1,q,989.163443804,,,,,,,,,,,,,,,,,,,,,,,,,,,,,,,,,2015_Jul_06_1004,59.7029304128,LearningTask,1,55,
200,w,200,,,,,,,,,,,,,,,,,2,0,2,0,8,3,35,0,,,,,,,,,,,,,,,,,,,,,,,,,,,,,w,1,0.350000858307,None,0,1.0,crossyellow.gif,go,,,,,,,,,,,,,,,,,,,,,,,,0,0.514380931854,0.000920057296753,0.350000858307,1,w,992.166719913,,,,,,,,,,,,,,,,,,,,,,,,,,,,,,,,,2015_Jul_06_1004,59.7029304128,LearningTask,1,55,
200,w,200,,,,,,,,,,,,,,,,,2,0,2,0,9,0,36,0,,,,,,,,,,,,,,,,,,,,,,,,,,,,,w,1,0.300430774689,None,0,2.0,invertedtriangleorange.gif,go,,,,,,,,,,,,,,,,,,,,,,,,1.83,0.514644861221,0.000874996185303,0.300430774689,1,w,995.170428991,,,,,,,,,,,,,,,,,,,,,,,,,,,,,,,,,2015_Jul_06_1004,59.7029304128,LearningTask,1,55,
-200,q,200,,,,,,,,,,,,,,,,,2,0,2,0,9,1,37,1,,,,,,,,,,,,,,,,,,,,,,,,,,,,,q,1,0.31738114357,None,0,0.5,trianglemagenta.gif,go,,,,,,,,,,,,,,,,,,,,,,,,0.25,0.514097929001,0.000949859619141,0.31738114357,1,q,998.173870802,,,,,,,,,,,,,,,,,,,,,,,,,,,,,,,,,2015_Jul_06_1004,59.7029304128,LearningTask,1,55,
-200,a,-200,,,,,,,,,,,,,,,,,2,0,2,0,9,2,38,3,,,,,,,,,,,,,,,,,,,,,,,,,,,,,a,1,0.300282001495,None,0,1.0,circlegreen.gif,stop,,,,,,,,,,,,,,,,,,,,,,,,0,0.514166116714,0.000915050506592,0.300282001495,1,a,1001.17688489,,,,,,,,,,,,,,,,,,,,,,,,,,,,,,,,,2015_Jul_06_1004,59.7029304128,LearningTask,1,55,
-200,q,200,,,,,,,,,,,,,,,,,2,0,2,0,9,3,39,1,,,,,,,,,,,,,,,,,,,,,,,,,,,,,q,1,0.300785064697,None,0,1.0,circlegreen.gif,stop,,,,,,,,,,,,,,,,,,,,,,,,0.94,0.51430106163,0.000878095626831,0.300785064697,1,q,1004.18038797,,,,,,,,,,,,,,,,,,,,,,,,,,,,,,,,,2015_Jul_06_1004,59.7029304128,LearningTask,1,55,
-200,a,-200,,,,,,,,,,,,,,,,,2,0,2,0,10,0,40,3,,,,,,,,,,,,,,,,,,,,,,,,,,,,,a,1,0.283967018127,None,0,0.5,diamondblue.gif,stop,,,,,,,,,,,,,,,,,,,,,,,,0.64,0.514514923096,0.000871896743774,0.283967018127,1,a,1007.18393779,,,,,,,,,,,,,,,,,,,,,,,,,,,,,,,,,2015_Jul_06_1004,59.7029304128,LearningTask,1,55,
-200,q,200,,,,,,,,,,,,,,,,,2,0,2,0,10,1,41,1,,,,,,,,,,,,,,,,,,,,,,,,,,,,,q,1,0.300825834274,None,0,4.0,hexagonwhite.gif,stop,,,,,,,,,,,,,,,,,,,,,,,,3.9,0.513894081116,0.000910997390747,0.300825834274,1,q,1010.18687797,,,,,,,,,,,,,,,,,,,,,,,,,,,,,,,,,2015_Jul_06_1004,59.7029304128,LearningTask,1,55,
-200,q,200,,,,,,,,,,,,,,,,,2,0,2,0,10,2,42,1,,,,,,,,,,,,,,,,,,,,,,,,,,,,,q,1,0.284247159958,None,0,1.0,crossyellow.gif,go,,,,,,,,,,,,,,,,,,,,,,,,0,0.514601945877,0.00124096870422,0.284247159958,1,q,1013.19049692,,,,,,,,,,,,,,,,,,,,,,,,,,,,,,,,,2015_Jul_06_1004,59.7029304128,LearningTask,1,55,
-200,a,-200,,,,,,,,,,,,,,,,,2,0,2,0,10,3,43,3,,,,,,,,,,,,,,,,,,,,,,,,,,,,,a,1,0.300867080688,None,0,4.0,linecyan.gif,go,,,,,,,,,,,,,,,,,,,,,,,,4.25,0.514070987701,0.000916957855225,0.300867080688,1,a,1016.19384193,,,,,,,,,,,,,,,,,,,,,,,,,,,,,,,,,2015_Jul_06_1004,59.7029304128,LearningTask,1,55,
-200,a,-200,,,,,,,,,,,,,,,,,2,0,2,0,11,0,44,3,,,,,,,,,,,,,,,,,,,,,,,,,,,,,a,1,0.301364898682,None,0,4.0,linecyan.gif,go,,,,,,,,,,,,,,,,,,,,,,,,0,0.514086008072,0.000890970230103,0.301364898682,1,a,1019.19703984,,,,,,,,,,,,,,,,,,,,,,,,,,,,,,,,,2015_Jul_06_1004,59.7029304128,LearningTask,1,55,
200,w,200,,,,,,,,,,,,,,,,,2,0,2,0,11,1,45,0,,,,,,,,,,,,,,,,,,,,,,,,,,,,,w,1,0.31743979454,None,0,1.0,crossyellow.gif,go,,,,,,,,,,,,,,,,,,,,,,,,1.01,0.514230012894,0.00102519989014,0.31743979454,1,w,1022.20035982,,,,,,,,,,,,,,,,,,,,,,,,,,,,,,,,,2015_Jul_06_1004,59.7029304128,LearningTask,1,55,
-200,a,-200,,,,,,,,,,,,,,,,,2,0,2,0,11,2,46,3,,,,,,,,,,,,,,,,,,,,,,,,,,,,,a,1,0.333751916885,None,0,4.0,linecyan.gif,go,,,,,,,,,,,,,,,,,,,,,,,,3.83,0.51434803009,0.00089693069458,0.333751916885,1,a,1025.20374799,,,,,,,,,,,,,,,,,,,,,,,,,,,,,,,,,2015_Jul_06_1004,59.7029304128,LearningTask,1,55,
200,w,200,,,,,,,,,,,,,,,,,2,0,2,0,11,3,47,0,,,,,,,,,,,,,,,,,,,,,,,,,,,,,w,1,0.334503889084,None,0,2.0,invertedtriangleorange.gif,go,,,,,,,,,,,,,,,,,,,,,,,,2.05,0.514477014542,0.000876903533936,0.334503889084,1,w,1028.20707798,,,,,,,,,,,,,,,,,,,,,,,,,,,,,,,,,2015_Jul_06_1004,59.7029304128,LearningTask,1,55,
-200,q,200,,,,,,,,,,,,,,,,,2,0,2,0,12,0,48,1,,,,,,,,,,,,,,,,,,,,,,,,,,,,,q,1,0.267349004745,None,0,1.0,crossyellow.gif,go,,,,,,,,,,,,,,,,,,,,,,,,1.03,0.514029026031,0.000983953475952,0.267349004745,1,q,1031.21100593,,,,,,,,,,,,,,,,,,,,,,,,,,,,,,,,,2015_Jul_06_1004,59.7029304128,LearningTask,1,55,
200,s,-200,,,,,,,,,,,,,,,,,2,0,2,0,12,1,49,2,,,,,,,,,,,,,,,,,,,,,,,,,,,,,s,1,0.351162910461,None,0,1.0,circlegreen.gif,stop,,,,,,,,,,,,,,,,,,,,,,,,0,0.51394701004,0.00088906288147,0.351162910461,1,s,1034.21384096,,,,,,,,,,,,,,,,,,,,,,,,,,,,,,,,,2015_Jul_06_1004,59.7029304128,LearningTask,1,55,
-200,a,-200,,,,,,,,,,,,,,,,,2,0,2,0,12,2,50,3,,,,,,,,,,,,,,,,,,,,,,,,,,,,,a,1,0.300869941711,None,0,2.0,invertedtriangleorange.gif,go,,,,,,,,,,,,,,,,,,,,,,,,2.04,0.514430046082,0.000931978225708,0.300869941711,1,a,1037.21729493,,,,,,,,,,,,,,,,,,,,,,,,,,,,,,,,,2015_Jul_06_1004,59.7029304128,LearningTask,1,55,
-200,q,200,,,,,,,,,,,,,,,,,2,0,2,0,12,3,51,1,,,,,,,,,,,,,,,,,,,,,,,,,,,,,q,1,0.300241947174,None,0,4.0,hexagonwhite.gif,stop,,,,,,,,,,,,,,,,,,,,,,,,3.77,0.514279842377,0.000914812088013,0.300241947174,1,q,1040.22053099,,,,,,,,,,,,,,,,,,,,,,,,,,,,,,,,,2015_Jul_06_1004,59.7029304128,LearningTask,1,55,
200,s,-200,,,,,,,,,,,,,,,,,2,0,2,0,13,0,52,2,,,,,,,,,,,,,,,,,,,,,,,,,,,,,s,1,0.334007024765,None,0,0.5,diamondblue.gif,stop,,,,,,,,,,,,,,,,,,,,,,,,0,0.514290094376,0.000877141952515,0.334007024765,1,s,1043.22393179,,,,,,,,,,,,,,,,,,,,,,,,,,,,,,,,,2015_Jul_06_1004,59.7029304128,LearningTask,1,55,
-200,q,200,,,,,,,,,,,,,,,,,2,0,2,0,13,1,53,1,,,,,,,,,,,,,,,,,,,,,,,,,,,,,q,1,0.367920160294,None,0,0.5,diamondblue.gif,stop,,,,,,,,,,,,,,,,,,,,,,,,0.57,0.514183044434,0.000938177108765,0.367920160294,1,q,1046.22780681,,,,,,,,,,,,,,,,,,,,,,,,,,,,,,,,,2015_Jul_06_1004,59.7029304128,LearningTask,1,55,
200,w,200,,,,,,,,,,,,,,,,,2,0,2,0,13,2,54,0,,,,,,,,,,,,,,,,,,,,,,,,,,,,,w,1,0.333791971207,None,0,0.5,trianglemagenta.gif,go,,,,,,,,,,,,,,,,,,,,,,,,0.54,0.513895988464,0.000904083251953,0.333791971207,1,w,1049.23067784,,,,,,,,,,,,,,,,,,,,,,,,,,,,,,,,,2015_Jul_06_1004,59.7029304128,LearningTask,1,55,
-200,q,200,,,,,,,,,,,,,,,,,2,0,2,0,13,3,55,1,,,,,,,,,,,,,,,,,,,,,,,,,,,,,q,1,0.367521047592,None,0,2.0,invertedtriangleorange.gif,go,,,,,,,,,,,,,,,,,,,,,,,,1.83,0.513999938965,0.000895977020264,0.367521047592,1,q,1052.23375487,,,,,,,,,,,,,,,,,,,,,,,,,,,,,,,,,2015_Jul_06_1004,59.7029304128,LearningTask,1,55,
-200,a,-200,,,,,,,,,,,,,,,,,2,0,2,0,14,0,56,3,,,,,,,,,,,,,,,,,,,,,,,,,,,,,a,1,0.266696929932,None,0,4.0,linecyan.gif,go,,,,,,,,,,,,,,,,,,,,,,,,4.11,0.515075922012,0.000878095626831,0.266696929932,1,a,1055.2378509,,,,,,,,,,,,,,,,,,,,,,,,,,,,,,,,,2015_Jul_06_1004,59.7029304128,LearningTask,1,55,
-200,q,200,,,,,,,,,,,,,,,,,2,0,2,0,14,1,57,1,,,,,,,,,,,,,,,,,,,,,,,,,,,,,q,1,0.283741950989,None,0,1.0,crossyellow.gif,go,,,,,,,,,,,,,,,,,,,,,,,,0,0.513742208481,0.000904083251953,0.283741950989,1,q,1058.24090195,,,,,,,,,,,,,,,,,,,,,,,,,,,,,,,,,2015_Jul_06_1004,59.7029304128,LearningTask,1,55,
200,w,200,,,,,,,,,,,,,,,,,2,0,2,0,14,2,58,0,,,,,,,,,,,,,,,,,,,,,,,,,,,,,w,1,0.317373037338,None,0,4.0,linecyan.gif,go,,,,,,,,,,,,,,,,,,,,,,,,4.07,0.514191150665,0.000940084457397,0.317373037338,1,w,1061.2439549,,,,,,,,,,,,,,,,,,,,,,,,,,,,,,,,,2015_Jul_06_1004,59.7029304128,LearningTask,1,55,
200,s,-200,,,,,,,,,,,,,,,,,2,0,2,0,14,3,59,2,,,,,,,,,,,,,,,,,,,,,,,,,,,,,s,1,0.35113286972,None,0,0.5,trianglemagenta.gif,go,,,,,,,,,,,,,,,,,,,,,,,,0,0.514117002487,0.000897169113159,0.35113286972,1,s,1064.24733281,,,,,,,,,,,,,,,,,,,,,,,,,,,,,,,,,2015_Jul_06_1004,59.7029304128,LearningTask,1,55,
-200,a,-200,,,,,,,,,,,,,,,,,2,0,2,0,15,0,60,3,,,,,,,,,,,,,,,,,,,,,,,,,,,,,a,1,0.284235954285,None,0,4.0,linecyan.gif,go,,,,,,,,,,,,,,,,,,,,,,,,0,0.514430046082,0.00141787528992,0.284235954285,1,a,1067.25054193,,,,,,,,,,,,,,,,,,,,,,,,,,,,,,,,,2015_Jul_06_1004,59.7029304128,LearningTask,1,55,
200,s,-200,,,,,,,,,,,,,,,,,2,0,2,0,15,1,61,2,,,,,,,,,,,,,,,,,,,,,,,,,,,,,s,1,0.317570924759,None,0,4.0,hexagonwhite.gif,stop,,,,,,,,,,,,,,,,,,,,,,,,0,0.514724969864,0.00107502937317,0.35040307045,0,w,1070.25398493,,,,4.04,0.51543879509,0.000944852828979,0.317570924759,1,s,1073.25778198,,,,,,,,,,,,,,,,,,,,,,,2015_Jul_06_1004,59.7029304128,LearningTask,1,55,
-200,q,200,,,,,,,,,,,,,,,,,2,0,2,0,15,2,62,1,,,,,,,,,,,,,,,,,,,,,,,,,,,,,q,1,0.317492008209,None,0,2.0,squaregray.gif,stop,,,,,,,,,,,,,,,,,,,,,,,,0,0.513906002045,0.000880002975464,0.317492008209,1,q,1076.26075792,,,,,,,,,,,,,,,,,,,,,,,,,,,,,,,,,2015_Jul_06_1004,59.7029304128,LearningTask,1,55,
-200,a,-200,,,,,,,,,,,,,,,,,2,0,2,0,15,3,63,3,,,,,,,,,,,,,,,,,,,,,,,,,,,,,a,1,0.283895969391,None,0,0.5,trianglemagenta.gif,go,,,,,,,,,,,,,,,,,,,,,,,,0,0.514098167419,0.00102996826172,0.283895969391,1,a,1079.26433682,,,,,,,,,,,,,,,,,,,,,,,,,,,,,,,,,2015_Jul_06_1004,59.7029304128,LearningTask,1,55,
200,s,-200,,,,,,,,,,,,,,,,,2,0,2,0,16,0,64,2,,,,,,,,,,,,,,,,,,,,,,,,,,,,,s,1,0.333786010742,None,0,0.5,trianglemagenta.gif,go,,,,,,,,,,,,,,,,,,,,,,,,0.65,0.514410972595,0.000876903533936,0.333786010742,1,s,1082.26770878,,,,,,,,,,,,,,,,,,,,,,,,,,,,,,,,,2015_Jul_06_1004,59.7029304128,LearningTask,1,55,
200,s,-200,,,,,,,,,,,,,,,,,2,0,2,0,16,1,65,2,,,,,,,,,,,,,,,,,,,,,,,,,,,,,s,1,0.333556890488,None,0,2.0,invertedtriangleorange.gif,go,,,,,,,,,,,,,,,,,,,,,,,,2.04,0.514096975327,0.000872135162354,0.333556890488,1,s,1085.270823,,,,,,,,,,,,,,,,,,,,,,,,,,,,,,,,,2015_Jul_06_1004,59.7029304128,LearningTask,1,55,
200,s,-200,,,,,,,,,,,,,,,,,2,0,2,0,16,2,66,2,,,,,,,,,,,,,,,,,,,,,,,,,,,,,s,1,0.283957004547,None,0,2.0,invertedtriangleorange.gif,go,,,,,,,,,,,,,,,,,,,,,,,,1.79,0.513925075531,0.000921964645386,0.283957004547,1,s,1088.27416492,,,,,,,,,,,,,,,,,,,,,,,,,,,,,,,,,2015_Jul_06_1004,59.7029304128,LearningTask,1,55,
-200,a,-200,,,,,,,,,,,,,,,,,2,0,2,0,16,3,67,3,,,,,,,,,,,,,,,,,,,,,,,,,,,,,a,1,0.300574064255,None,0,1.0,crossyellow.gif,go,,,,,,,,,,,,,,,,,,,,,,,,1.12,0.514554023743,0.000880002975464,0.300574064255,1,a,1091.27768898,,,,,,,,,,,,,,,,,,,,,,,,,,,,,,,,,2015_Jul_06_1004,59.7029304128,LearningTask,1,55,
200,w,200,,,,,,,,,,,,,,,,,2,0,2,0,17,0,68,0,,,,,,,,,,,,,,,,,,,,,,,,,,,,,w,1,0.333819150925,None,0,2.0,invertedtriangleorange.gif,go,,,,,,,,,,,,,,,,,,,,,,,,1.98,0.514237880707,0.000879049301147,0.333819150925,1,w,1094.28170896,,,,,,,,,,,,,,,,,,,,,,,,,,,,,,,,,2015_Jul_06_1004,59.7029304128,LearningTask,1,55,
-200,q,200,,,,,,,,,,,,,,,,,2,0,2,0,17,1,69,1,,,,,,,,,,,,,,,,,,,,,,,,,,,,,q,1,0.367812871933,None,0,1.0,circlegreen.gif,stop,,,,,,,,,,,,,,,,,,,,,,,,1.2,0.513185977936,0.000885009765625,0.367812871933,1,q,1097.28418684,,,,,,,,,,,,,,,,,,,,,,,,,,,,,,,,,2015_Jul_06_1004,59.7029304128,LearningTask,1,55,
-200,q,200,,,,,,,,,,,,,,,,,2,0,2,0,17,2,70,1,,,,,,,,,,,,,,,,,,,,,,,,,,,,,q,1,0.317576885223,None,0,2.0,squaregray.gif,stop,,,,,,,,,,,,,,,,,,,,,,,,2.25,0.514219999313,0.000862836837769,0.317576885223,1,q,1100.28753781,,,,,,,,,,,,,,,,,,,,,,,,,,,,,,,,,2015_Jul_06_1004,59.7029304128,LearningTask,1,55,
200,w,200,,,,,,,,,,,,,,,,,2,0,2,0,17,3,71,0,,,,,,,,,,,,,,,,,,,,,,,,,,,,,w,1,0.333917856216,None,0,4.0,linecyan.gif,go,,,,,,,,,,,,,,,,,,,,,,,,4.24,0.514393091202,0.000875949859619,0.333917856216,1,w,1103.29154396,,,,,,,,,,,,,,,,,,,,,,,,,,,,,,,,,2015_Jul_06_1004,59.7029304128,LearningTask,1,55,
200,s,-200,,,,,,,,,,,,,,,,,2,0,2,0,18,0,72,2,,,,,,,,,,,,,,,,,,,,,,,,,,,,,s,1,0.334607124329,None,0,4.0,linecyan.gif,go,,,,,,,,,,,,,,,,,,,,,,,,4.02,0.513674020767,0.000880002975464,0.334607124329,1,s,1106.29440594,,,,,,,,,,,,,,,,,,,,,,,,,,,,,,,,,2015_Jul_06_1004,59.7029304128,LearningTask,1,55,
200,s,-200,,,,,,,,,,,,,,,,,2,0,2,0,18,1,73,2,,,,,,,,,,,,,,,,,,,,,,,,,,,,,s,1,0.334162950516,None,0,1.0,crossyellow.gif,go,,,,,,,,,,,,,,,,,,,,,,,,0.97,0.514220952988,0.000941038131714,0.334162950516,1,s,1109.29762793,,,,,,,,,,,,,,,,,,,,,,,,,,,,,,,,,2015_Jul_06_1004,59.7029304128,LearningTask,1,55,
200,w,200,,,,,,,,,,,,,,,,,2,0,2,0,18,2,74,0,,,,,,,,,,,,,,,,,,,,,,,,,,,,,w,1,0.383756875992,None,0,2.0,squaregray.gif,stop,,,,,,,,,,,,,,,,,,,,,,,,2.17,0.514075994492,0.000885009765625,0.383756875992,1,w,1112.30125189,,,,,,,,,,,,,,,,,,,,,,,,,,,,,,,,,2015_Jul_06_1004,59.7029304128,LearningTask,1,55,
-200,a,-200,,,,,,,,,,,,,,,,,2,0,2,0,18,3,75,3,,,,,,,,,,,,,,,,,,,,,,,,,,,,,a,1,0.300266027451,None,0,2.0,invertedtriangleorange.gif,go,,,,,,,,,,,,,,,,,,,,,,,,2.16,0.514415025711,0.000868082046509,0.300266027451,1,a,1115.3042028,,,,,,,,,,,,,,,,,,,,,,,,,,,,,,,,,2015_Jul_06_1004,59.7029304128,LearningTask,1,55,
-200,a,-200,,,,,,,,,,,,,,,,,2,0,2,0,19,0,76,3,,,,,,,,,,,,,,,,,,,,,,,,,,,,,a,1,0.31675696373,None,0,2.0,invertedtriangleorange.gif,go,,,,,,,,,,,,,,,,,,,,,,,,0,0.515116930008,0.000874042510986,0.31675696373,1,a,1118.30826187,,,,,,,,,,,,,,,,,,,,,,,,,,,,,,,,,2015_Jul_06_1004,59.7029304128,LearningTask,1,55,
-200,a,-200,,,,,,,,,,,,,,,,,2,0,2,0,19,1,77,3,,,,,,,,,,,,,,,,,,,,,,,,,,,,,a,1,0.251132011414,None,0,4.0,hexagonwhite.gif,stop,,,,,,,,,,,,,,,,,,,,,,,,3.93,0.513823986053,0.000886201858521,0.251132011414,1,a,1121.31118798,,,,,,,,,,,,,,,,,,,,,,,,,,,,,,,,,2015_Jul_06_1004,59.7029304128,LearningTask,1,55,
-200,q,200,,,,,,,,,,,,,,,,,2,0,2,0,19,2,78,1,,,,,,,,,,,,,,,,,,,,,,,,,,,,,q,1,0.283971071243,None,0,4.0,hexagonwhite.gif,stop,,,,,,,,,,,,,,,,,,,,,,,,4.24,0.514506101608,0.000884056091309,0.283971071243,1,q,1124.31461382,,,,,,,,,,,,,,,,,,,,,,,,,,,,,,,,,2015_Jul_06_1004,59.7029304128,LearningTask,1,55,
-200,a,-200,,,,,,,,,,,,,,,,,2,0,2,0,19,3,79,3,,,,,,,,,,,,,,,,,,,,,,,,,,,,,a,1,0.301034927368,None,0,0.5,diamondblue.gif,stop,,,,,,,,,,,,,,,,,,,,,,,,0.53,0.514019012451,0.000950813293457,0.301034927368,1,a,1127.31816387,,,,,,,,,,,,,,,,,,,,,,,,,,,,,,,,,2015_Jul_06_1004,59.7029304128,LearningTask,1,55,
200,w,200,,,,,,,,,,,,,,,,,2,0,2,0,20,0,80,0,,,,,,,,,,,,,,,,,,,,,,,,,,,,,w,1,0.367663145065,None,0,1.0,circlegreen.gif,stop,,,,,,,,,,,,,,,,,,,,,,,,0.9,0.514075040817,0.000898122787476,0.367663145065,1,w,1130.32118797,,,,,,,,,,,,,,,,,,,,,,,,,,,,,,,,,2015_Jul_06_1004,59.7029304128,LearningTask,1,55,
-200,a,-200,,,,,,,,,,,,,,,,,2,0,2,0,20,1,81,3,,,,,,,,,,,,,,,,,,,,,,,,,,,,,a,1,0.300541877747,None,0,0.5,diamondblue.gif,stop,,,,,,,,,,,,,,,,,,,,,,,,0,0.514287948608,0.000946044921875,0.284070968628,0,q,1133.32434797,,,,0.65,0.51574587822,0.00117802619934,0.300541877747,1,a,1136.32783389,,,,,,,,,,,,,,,,,,,,,,,2015_Jul_06_1004,59.7029304128,LearningTask,1,55,
-200,a,-200,,,,,,,,,,,,,,,,,2,0,2,0,20,2,82,3,,,,,,,,,,,,,,,,,,,,,,,,,,,,,a,1,0.317427158356,None,0,1.0,crossyellow.gif,go,,,,,,,,,,,,,,,,,,,,,,,,0,0.514564990997,0.00088095664978,0.317427158356,1,a,1139.33154082,,,,,,,,,,,,,,,,,,,,,,,,,,,,,,,,,2015_Jul_06_1004,59.7029304128,LearningTask,1,55,
200,s,-200,,,,,,,,,,,,,,,,,2,0,2,0,20,3,83,2,,,,,,,,,,,,,,,,,,,,,,,,,,,,,s,1,0.366923093796,None,0,1.0,circlegreen.gif,stop,,,,,,,,,,,,,,,,,,,,,,,,0.87,0.513915061951,0.00109195709229,0.366923093796,1,s,1142.33488989,,,,,,,,,,,,,,,,,,,,,,,,,,,,,,,,,2015_Jul_06_1004,59.7029304128,LearningTask,1,55,
200,w,200,,,,,,,,,,,,,,,,,2,0,2,0,21,0,84,0,,,,,,,,,,,,,,,,,,,,,,,,,,,,,w,1,0.350086927414,None,0,2.0,squaregray.gif,stop,,,,,,,,,,,,,,,,,,,,,,,,2.18,0.514304161072,0.000866174697876,0.350086927414,1,w,1145.33806896,,,,,,,,,,,,,,,,,,,,,,,,,,,,,,,,,2015_Jul_06_1004,59.7029304128,LearningTask,1,55,
200,w,200,,,,,,,,,,,,,,,,,2,0,2,0,21,1,85,0,,,,,,,,,,,,,,,,,,,,,,,,,,,,,w,1,0.367433071136,None,0,4.0,hexagonwhite.gif,stop,,,,,,,,,,,,,,,,,,,,,,,,3.77,0.514058113098,0.000962972640991,0.367433071136,1,w,1148.34119201,,,,,,,,,,,,,,,,,,,,,,,,,,,,,,,,,2015_Jul_06_1004,59.7029304128,LearningTask,1,55,
200,w,200,,,,,,,,,,,,,,,,,2,0,2,0,21,2,86,0,,,,,,,,,,,,,,,,,,,,,,,,,,,,,w,1,0.367563009262,None,0,2.0,squaregray.gif,stop,,,,,,,,,,,,,,,,,,,,,,,,2.04,0.514044046402,0.000911951065063,0.367563009262,1,w,1151.34465289,,,,,,,,,,,,,,,,,,,,,,,,,,,,,,,,,2015_Jul_06_1004,59.7029304128,LearningTask,1,55,
200,w,200,,,,,,,,,,,,,,,,,2,0,2,0,21,3,87,0,,,,,,,,,,,,,,,,,,,,,,,,,,,,,w,1,0.40118098259,None,0,2.0,squaregray.gif,stop,,,,,,,,,,,,,,,,,,,,,,,,0,0.514356136322,0.000874042510986,0.40118098259,1,w,1154.34782887,,,,,,,,,,,,,,,,,,,,,,,,,,,,,,,,,2015_Jul_06_1004,59.7029304128,LearningTask,1,55,
-200,a,-200,,,,,,,,,,,,,,,,,2,0,2,0,22,0,88,3,,,,,,,,,,,,,,,,,,,,,,,,,,,,,a,1,0.317214012146,None,0,1.0,circlegreen.gif,stop,,,,,,,,,,,,,,,,,,,,,,,,0.91,0.514811038971,0.000899076461792,0.317214012146,1,a,1157.35130286,,,,,,,,,,,,,,,,,,,,,,,,,,,,,,,,,2015_Jul_06_1004,59.7029304128,LearningTask,1,55,
200,s,-200,,,,,,,,,,,,,,,,,2,0,2,0,22,1,89,2,,,,,,,,,,,,,,,,,,,,,,,,,,,,,s,1,0.367608070374,None,0,0.5,trianglemagenta.gif,go,,,,,,,,,,,,,,,,,,,,,,,,0.35,0.513954162598,0.000920057296753,0.367608070374,1,s,1160.35485888,,,,,,,,,,,,,,,,,,,,,,,,,,,,,,,,,2015_Jul_06_1004,59.7029304128,LearningTask,1,55,
200,s,-200,,,,,,,,,,,,,,,,,2,0,2,0,22,2,90,2,,,,,,,,,,,,,,,,,,,,,,,,,,,,,s,1,0.367481946945,None,0,4.0,linecyan.gif,go,,,,,,,,,,,,,,,,,,,,,,,,0,0.513980150223,0.000879049301147,0.367481946945,1,s,1163.35806394,,,,,,,,,,,,,,,,,,,,,,,,,,,,,,,,,2015_Jul_06_1004,59.7029304128,LearningTask,1,55,
200,w,200,,,,,,,,,,,,,,,,,2,0,2,0,22,3,91,0,,,,,,,,,,,,,,,,,,,,,,,,,,,,,w,1,0.351022005081,None,0,1.0,crossyellow.gif,go,,,,,,,,,,,,,,,,,,,,,,,,1.14,0.514286994934,0.000874996185303,0.351022005081,1,w,1166.36159778,,,,,,,,,,,,,,,,,,,,,,,,,,,,,,,,,2015_Jul_06_1004,59.7029304128,LearningTask,1,55,
-200,a,-200,,,,,,,,,,,,,,,,,2,0,2,0,23,0,92,3,,,,,,,,,,,,,,,,,,,,,,,,,,,,,a,1,0.300565004349,None,0,4.0,hexagonwhite.gif,stop,,,,,,,,,,,,,,,,,,,,,,,,4.12,0.514055013657,0.000998020172119,0.300565004349,1,a,1169.36482286,,,,,,,,,,,,,,,,,,,,,,,,,,,,,,,,,2015_Jul_06_1004,59.7029304128,LearningTask,1,55,
-200,q,200,,,,,,,,,,,,,,,,,2,0,2,0,23,1,93,1,,,,,,,,,,,,,,,,,,,,,,,,,,,,,q,1,0.350844860077,None,0,2.0,squaregray.gif,stop,,,,,,,,,,,,,,,,,,,,,,,,1.9,0.51421380043,0.000865936279297,0.350844860077,1,q,1172.36822796,,,,,,,,,,,,,,,,,,,,,,,,,,,,,,,,,2015_Jul_06_1004,59.7029304128,LearningTask,1,55,
200,s,-200,,,,,,,,,,,,,,,,,2,0,2,0,23,2,94,2,,,,,,,,,,,,,,,,,,,,,,,,,,,,,s,1,0.350533008575,None,0,2.0,squaregray.gif,stop,,,,,,,,,,,,,,,,,,,,,,,,2.19,0.514289140701,0.000909090042114,0.350533008575,1,s,1175.37193298,,,,,,,,,,,,,,,,,,,,,,,,,,,,,,,,,2015_Jul_06_1004,59.7029304128,LearningTask,1,55,
200,s,-200,,,,,,,,,,,,,,,,,2,0,2,0,23,3,95,2,,,,,,,,,,,,,,,,,,,,,,,,,,,,,s,1,0.351337909698,None,0,0.5,diamondblue.gif,stop,,,,,,,,,,,,,,,,,,,,,,,,0.67,0.513784170151,0.000877141952515,0.351337909698,1,s,1178.37498784,,,,,,,,,,,,,,,,,,,,,,,,,,,,,,,,,2015_Jul_06_1004,59.7029304128,LearningTask,1,55,
-200,a,-200,,,,,,,,,,,,,,,,,2,0,2,0,24,0,96,3,,,,,,,,,,,,,,,,,,,,,,,,,,,,,a,1,0.350961923599,None,0,0.5,trianglemagenta.gif,go,,,,,,,,,,,,,,,,,,,,,,,,0,0.51419210434,0.00100708007812,0.334280014038,0,q,1181.37795496,,,,0.3,0.515678882599,0.000941038131714,0.350961923599,1,a,1184.38161087,,,,,,,,,,,,,,,,,,,,,,,2015_Jul_06_1004,59.7029304128,LearningTask,1,55,
200,w,200,,,,,,,,,,,,,,,,,2,0,2,0,24,1,97,0,,,,,,,,,,,,,,,,,,,,,,,,,,,,,w,1,0.400796890259,None,0,4.0,hexagonwhite.gif,stop,,,,,,,,,,,,,,,,,,,,,,,,0,0.514276027679,0.000882863998413,0.400796890259,1,w,1187.38501883,,,,,,,,,,,,,,,,,,,,,,,,,,,,,,,,,2015_Jul_06_1004,59.7029304128,LearningTask,1,55,
200,w,200,,,,,,,,,,,,,,,,,2,0,2,0,24,2,98,0,,,,,,,,,,,,,,,,,,,,,,,,,,,,,w,1,0.384313106537,None,0,4.0,linecyan.gif,go,,,,,,,,,,,,,,,,,,,,,,,,3.96,0.513840913773,0.000964879989624,0.384313106537,1,w,1190.38825488,,,,,,,,,,,,,,,,,,,,,,,,,,,,,,,,,2015_Jul_06_1004,59.7029304128,LearningTask,1,55,
-200,q,200,,,,,,,,,,,,,,,,,2,0,2,0,24,3,99,1,,,,,,,,,,,,,,,,,,,,,,,,,,,,,q,1,0.418071985245,None,0,1.0,crossyellow.gif,go,,,,,,,,,,,,,,,,,,,,,,,,1.1,0.514147996902,0.000977039337158,0.418071985245,1,q,1193.39148784,,,,,,,,,,,,,,,,,,,,,,,,,,,,,,,,,2015_Jul_06_1004,59.7029304128,LearningTask,1,55,
,,,,,,,,,,,,,,,,,,,2,0,2,0,,,,,,,,,,,,,,,,,,,,,,,,,,,,,,,,,,,,,,,,,,,,,,,,,,,,,,,,,,,,,,,,,,,,,,,9,10.0434770584,,,,,,,,,,,,,,,,,,,,,,,,,,,,,,,2015_Jul_06_1004,59.7029304128,LearningTask,1,55,
200,s,-200,,,,,,,,,,,,,,,,,3,0,3,0,0,0,0,2,,,,,,,,,,,,,,,,,,,,,,,,,,,,,s,1,0.451000928879,None,0,0.5,trianglemagenta.gif,go,,,,,,,,,,,,,,,,,,,,,,,,0,0.510001897812,0.000874042510986,0.451000928879,1,s,1207.25762796,,,,,,,,,,,,,,,,,,,,,,,,,,,,,,,,,2015_Jul_06_1004,59.7029304128,LearningTask,1,55,
-200,q,200,,,,,,,,,,,,,,,,,3,0,3,0,0,1,1,1,,,,,,,,,,,,,,,,,,,,,,,,,,,,,q,1,0.351529121399,None,0,1.0,circlegreen.gif,stop,,,,,,,,,,,,,,,,,,,,,,,,0,0.513632059097,0.000874042510986,0.351529121399,1,q,1210.2609539,,,,,,,,,,,,,,,,,,,,,,,,,,,,,,,,,2015_Jul_06_1004,59.7029304128,LearningTask,1,55,
