xPos,corrAns,yPos,corrGoResp,yPosGoStim,xPosGoStim,pracTrials.thisRepN,pracTrials.thisTrialN,pracTrials.thisN,pracTrials.thisIndex,ReDoLoopPrac.thisRepN,ReDoLoopPrac.thisTrialN,ReDoLoopPrac.thisN,ReDoLoopPrac.thisIndex,ReDoLoopPrac.thisTrial,pracStopTrials.thisRepN,pracStopTrials.thisTrialN,pracStopTrials.thisN,pracStopTrials.thisIndex,Blocks.thisRepN,Blocks.thisTrialN,Blocks.thisN,Blocks.thisIndex,trials.thisRepN,trials.thisTrialN,trials.thisN,trials.thisIndex,ReDoLoopMain.thisRepN,ReDoLoopMain.thisTrialN,ReDoLoopMain.thisN,ReDoLoopMain.thisIndex,ReDoLoopMain.thisTrial,StopBlocks.thisRepN,StopBlocks.thisTrialN,StopBlocks.thisN,StopBlocks.thisIndex,StopTrials.thisRepN,StopTrials.thisTrialN,StopTrials.thisN,StopTrials.thisIndex,auctionBlocks.thisRepN,auctionBlocks.thisTrialN,auctionBlocks.thisN,auctionBlocks.thisIndex,auctionTrials.thisRepN,auctionTrials.thisTrialN,auctionTrials.thisN,auctionTrials.thisIndex,learningTrialList,learningPracTrialList,stopTrialList,stopPracTrialList,auctionTrialList,ok1.keys,ok1.rt,resp.keys,resp.corr,resp.rt,feedbackResp.keys,feedbackResp.corr,currentReward,currentStimulus,currentStimType,firstPracComputedRewardOutput,firstPracLearningStimOnset,firstPracLearningFixOnset,firstPracPresentationRT,firstPracPresentationAcc,firstPracPresentationResp,firstPracEndTrialTimeStamp,StartTrialTimeStamp,trialType,goStim,stimType,stopStimValue,goResp.keys,goResp.corr,goResp.rt,key_resp_9.keys,key_resp_9.corr,fixStopOnset,goStimOnset,stopSignalOnset,EndTrialTimeStamp,key_resp_3.keys,key_resp_3.rt,firstComputedRewardOutput,firstLearningStimOnset,firstLearningFixOnset,firstPresentationRT,firstPresentationAcc,firstPresentationResp,firstEndTrialTimeStamp,key_resp_7.keys,key_resp_7.rt,feedbackResp.rt,secondComputedRewardOutput,secondLearningStimOnset,secondLearningFixOnset,secondPresentationRT,secondPresentationAcc,secondPresentationResp,secondEndTrialTimeStamp,beginningSSD,EndingSSD,key_resp_4.keys,key_resp_4.rt,auctionResponse.keys,auctionResponse.rt,auctionStimDuration,auctionStim,auctionAmounts,auctionStimValue,auctionCondition,chosenAuctionAmount,key_resp_5.keys,key_resp_5.rt,shuffledRewardList,chosenReward1,chosenReward2,chosenReward3,chosenReward4,chosenReward5,key_resp_6.keys,key_resp_6.rt,date,frameRate,expName,session,participant,
,,,,,,,,,,,,,,,,,,,,,,,,,,,,,,,,,,,,,,,,,,,,,,,,[],[],[],[],[],9,45.5272879601,,,,,,,,,,,,,,,,,,,,,,,,,,,,,,,,,,,,,,,,,,,,,,,,,,,,,,,,,,,,,,,,,,,,,,,2015_Jun_24_1125,59.9516876449,LearningTask,1,63,
200,s,-200,,,,0,0,0,2,,,,,,,,,,,,,,,,,,,,,,,,,,,,,,,,,,,,,,,,,,,,,,s,1,0.634450912476,None,0,1.0,crossblue.gif,go,1.19,0.508907079697,0.0165820121765,0.634450912476,1,s,85.5009899139,,,,,,,,,,,,,,,,,,,,,,,,,,,,,,,,,,,,,,,,,,,,,,,,,,,,,,,,2015_Jun_24_1125,59.9516876449,LearningTask,1,63,
-200,a,-200,,,,0,1,1,7,,,,,,,,,,,,,,,,,,,,,,,,,,,,,,,,,,,,,,,,,,,,,,a,1,0.401067972183,None,0,2.0,circlecyan.gif,go,0,0.514940977097,0.00135087966919,0.401067972183,1,a,88.5041348934,,,,,,,,,,,,,,,,,,,,,,,,,,,,,,,,,,,,,,,,,,,,,,,,,,,,,,,,2015_Jun_24_1125,59.9516876449,LearningTask,1,63,
-200,a,-200,,,,0,2,2,3,,,,,,,,,,,,,,,,,,,,,,,,,,,,,,,,,,,,,,,,,,,,,,a,1,0.400760889053,None,0,1.0,crossblue.gif,go,0,0.515196084976,0.000915050506592,0.400760889053,1,a,91.507322073,,,,,,,,,,,,,,,,,,,,,,,,,,,,,,,,,,,,,,,,,,,,,,,,,,,,,,,,2015_Jun_24_1125,59.9516876449,LearningTask,1,63,
200,w,200,,,,0,3,3,0,,,,,,,,,,,,,,,,,,,,,,,,,,,,,,,,,,,,,,,,,,,,,,w,1,0.517951965332,None,0,0.5,diamondwhite.gif,go,0,0.515114068985,0.00142002105713,0.517951965332,1,w,94.5109479427,,,,,,,,,,,,,,,,,,,,,,,,,,,,,,,,,,,,,,,,,,,,,,,,,,,,,,,,2015_Jun_24_1125,59.9516876449,LearningTask,1,63,
200,w,200,,,,0,4,4,4,,,,,,,,,,,,,,,,,,,,,,,,,,,,,,,,,,,,,,,,,,,,,,w,1,0.46785902977,None,0,4.0,lineorange.gif,go,4.12,0.515146970749,0.00131583213806,0.46785902977,1,w,97.514122963,,,,,,,,,,,,,,,,,,,,,,,,,,,,,,,,,,,,,,,,,,,,,,,,,,,,,,,,2015_Jun_24_1125,59.9516876449,LearningTask,1,63,
200,s,-200,,,,0,5,5,6,,,,,,,,,,,,,,,,,,,,,,,,,,,,,,,,,,,,,,,,,,,,,,s,1,0.484185934067,None,0,1.0,trianglegreen.gif,stop,1.18,0.515204191208,0.0012891292572,0.484185934067,1,s,100.517373085,,,,,,,,,,,,,,,,,,,,,,,,,,,,,,,,,,,,,,,,,,,,,,,,,,,,,,,,2015_Jun_24_1125,59.9516876449,LearningTask,1,63,
-200,q,200,,,,0,6,6,9,,,,,,,,,,,,,,,,,,,,,,,,,,,,,,,,,,,,,,,,,,,,,,q,1,0.400867938995,None,0,2.0,invertedtriangleyellow.gif,stop,1.95,0.5151450634,0.00184202194214,0.400867938995,1,q,103.520752907,,,,,,,,,,,,,,,,,,,,,,,,,,,,,,,,,,,,,,,,,,,,,,,,,,,,,,,,2015_Jun_24_1125,59.9516876449,LearningTask,1,63,
200,w,200,,,,0,7,7,8,,,,,,,,,,,,,,,,,,,,,,,,,,,,,,,,,,,,,,,,,,,,,,w,1,0.417367935181,None,0,4.0,lineorange.gif,go,3.76,0.515306949615,0.000897884368896,0.417367935181,1,w,106.524252892,,,,,,,,,,,,,,,,,,,,,,,,,,,,,,,,,,,,,,,,,,,,,,,,,,,,,,,,2015_Jun_24_1125,59.9516876449,LearningTask,1,63,
-200,q,200,,,,0,8,8,5,,,,,,,,,,,,,,,,,,,,,,,,,,,,,,,,,,,,,,,,,,,,,,q,1,0.417705059052,None,0,0.5,hexagongray.gif,stop,0.31,0.515153884888,0.00130796432495,0.417705059052,1,q,109.527635098,,,,,,,,,,,,,,,,,,,,,,,,,,,,,,,,,,,,,,,,,,,,,,,,,,,,,,,,2015_Jun_24_1125,59.9516876449,LearningTask,1,63,
-200,q,200,,,,0,9,9,1,,,,,,,,,,,,,,,,,,,,,,,,,,,,,,,,,,,,,,,,,,,,,,q,1,0.417237997055,None,0,2.0,invertedtriangleyellow.gif,stop,1.98,0.51535320282,0.000970125198364,0.417237997055,1,q,112.531053066,,,,,,,,,,,,,,,,,,,,,,,,,,,,,,,,,,,,,,,,,,,,,,,,,,,,,,,,2015_Jun_24_1125,59.9516876449,LearningTask,1,63,
,,,m,0,200,,,,,,,,,,0,0,0,1,,,,,,,,,,,,,,,,,,,,,,,,,,,,,,,,,,,,,,,,,,,,,,,,,,,,182.752227068,stop,hexagongray.gif,stop,0.5,m,1,0.501021146774,None,0,0.00139689445496,0.506298065186,0.756507873535,185.746885061,,,,,,,,,,,,,,,,,,,,,,,,,,,,,,,,,,,,,,,,,,2015_Jun_24_1125,59.9516876449,LearningTask,1,63,
,,,z,0,-200,,,,,,,,,,0,1,1,0,,,,,,,,,,,,,,,,,,,,,,,,,,,,,,,,,,,,,,,,,,,,,,,,,,,,185.747278929,stop,squaremagenta.gif,stop,4.0,z,1,0.334286928177,None,0,0.00139284133911,0.514993906021,0.76539683342,188.749483109,,,,,,,,,,,,,,,,,,,,,,,,,,,,,,,,,,,,,,,,,,2015_Jun_24_1125,59.9516876449,LearningTask,1,63,
,,,z,0,-200,,,,,,,,,,1,0,2,0,,,,,,,,,,,,,,,,,,,,,,,,,,,,,,,,,,,,,,,,,,,,,,,,,,,,188.749841928,go,crossblue.gif,go,1.0,z,1,0.417741060257,None,0,0.000933885574341,0.516052007675,,191.753113985,,,,,,,,,,,,,,,,,,,,,,,,,,,,,,,,,,,,,,,,,,2015_Jun_24_1125,59.9516876449,LearningTask,1,63,
,,,m,0,200,,,,,,,,,,1,1,3,1,,,,,,,,,,,,,,,,,,,,,,,,,,,,,,,,,,,,,,,,,,,,,,,,,,,,191.753551006,go,crossblue.gif,go,1.0,m,1,0.434401035309,None,0,0.000940084457397,0.515702009201,,194.756412029,,,,,,,,,,,,,,,,,,,,,,,,,,,,,,,,,,,,,,,,,,2015_Jun_24_1125,59.9516876449,LearningTask,1,63,
,,,z,0,-200,,,,,,,,,,2,0,4,0,,,,,,,,,,,,,,,,,,,,,,,,,,,,,,,,,,,,,,,,,,,,,,,,,,,,194.756771088,stop,squaremagenta.gif,stop,4.0,None,0,,None,0,0.00122499465942,0.515765190125,0.766216993332,197.759929895,,,,,,,,,,,,,,,,,,,,,,,,,,,,,,,,,,,,,,,,,,2015_Jun_24_1125,59.9516876449,LearningTask,1,63,
,,,z,0,-200,,,,,,,,,,2,1,5,0,,,,,,,,,,,,,,,,,,,,,,,,,,,,,,,,,,,,,,,,,,,,,,,,,,,,197.760335922,go,lineorange.gif,go,4.0,z,1,0.617627859116,None,0,0.000944137573242,0.515679121017,,200.763339996,,,,,,,,,,,,,,,,,,,,,,,,,,,,,,,,,,,,,,,,,,2015_Jun_24_1125,59.9516876449,LearningTask,1,63,
,,,z,0,-200,,,,,,,,,,3,0,6,0,,,,,,,,,,,,,,,,,,,,,,,,,,,,,,,,,,,,,,,,,,,,,,,,,,,,200.763704062,stop,hexagongray.gif,stop,0.5,None,0,,None,0,0.000954151153564,0.516036987305,0.76602101326,203.7663939,,,,,,,,,,,,,,,,,,,,,,,,,,,,,,,,,,,,,,,,,,2015_Jun_24_1125,59.9516876449,LearningTask,1,63,
,,,m,0,200,,,,,,,,,,3,1,7,1,,,,,,,,,,,,,,,,,,,,,,,,,,,,,,,,,,,,,,,,,,,,,,,,,,,,203.766834021,stop,hexagongray.gif,stop,0.5,None,0,,None,0,0.00103092193604,0.515980005264,0.766331911087,206.769996881,,,,,,,,,,,,,,,,,,,,,,,,,,,,,,,,,,,,,,,,,,2015_Jun_24_1125,59.9516876449,LearningTask,1,63,
,,,m,0,200,,,,,,,,,,4,0,8,1,,,,,,,,,,,,,,,,,,,,,,,,,,,,,,,,,,,,,,,,,,,,,,,,,,,,206.770359039,stop,squaremagenta.gif,stop,4.0,None,0,,None,0,0.000964879989624,0.51580786705,0.766130924225,209.773364067,,,,,,,,,,,,,,,,,,,,,,,,,,,,,,,,,,,,,,,,,,2015_Jun_24_1125,59.9516876449,LearningTask,1,63,
,,,m,0,200,,,,,,,,,,4,1,9,1,,,,,,,,,,,,,,,,,,,,,,,,,,,,,,,,,,,,,,,,,,,,,,,,,,,,209.773725033,go,circlecyan.gif,go,2.0,m,1,0.417168855667,None,0,0.000946998596191,0.516010046005,,212.776802063,,,,,,,,,,,,,,,,,,,,,,,,,,,,,,,,,,,,,,,,,,2015_Jun_24_1125,59.9516876449,LearningTask,1,63,
,,,,,,,,,,,,,,,,,,,,,,,,,,,,,,,,,,,,,,,,,,,,,,,,,,,,,,,,,,,,,,,,,,,,,,,,,,,,,,,,,,,,9,46.4942831993,,,,,,,,,,,,,,,,,,,,,,,,,,,,,,,,,,,,,,,,2015_Jun_24_1125,59.9516876449,LearningTask,1,63,
,,,,,,,,,,,,,,,,,,,,,,,,,,,,,,,,,,,,,,,,,,,,,,,,,,,,,9,5.22280192375,,,,,,,,,,,,,,,,,,,,,,,,,,,,,,,,,,,,,,,,,,,,,,,,,,,,,,,,,,,,,,,,,,,,,,,2015_Jun_24_1125,59.9516876449,LearningTask,1,63,
200,s,-200,,,,,,,,,,,,,,,,,0,0,0,0,0,0,0,2,,,,,,,,,,,,,,,,,,,,,,,,,,,,,s,1,0.367709875107,None,0,2.0,invertedtriangleyellow.gif,stop,,,,,,,,,,,,,,,,,,,,,,,,2.08,0.504762172699,0.000975131988525,0.367709875107,1,s,267.672889948,,,,,,,,,,,,,,,,,,,,,,,,,,,,,,,,,2015_Jun_24_1125,59.9516876449,LearningTask,1,63,
-200,a,-200,,,,,,,,,,,,,,,,,0,0,0,0,0,1,1,3,,,,,,,,,,,,,,,,,,,,,,,,,,,,,a,1,0.333705186844,None,0,2.0,circlecyan.gif,go,,,,,,,,,,,,,,,,,,,,,,,,2.08,0.514220952988,0.000943899154663,0.333705186844,1,a,270.67641902,,,,,,,,,,,,,,,,,,,,,,,,,,,,,,,,,2015_Jun_24_1125,59.9516876449,LearningTask,1,63,
200,s,-200,,,,,,,,,,,,,,,,,0,0,0,0,0,2,2,2,,,,,,,,,,,,,,,,,,,,,,,,,,,,,s,1,0.351142168045,None,0,0.5,diamondwhite.gif,go,,,,,,,,,,,,,,,,,,,,,,,,0.32,0.513719081879,0.000906229019165,0.351142168045,1,s,273.679269075,,,,,,,,,,,,,,,,,,,,,,,,,,,,,,,,,2015_Jun_24_1125,59.9516876449,LearningTask,1,63,
-200,a,-200,,,,,,,,,,,,,,,,,0,0,0,0,0,3,3,3,,,,,,,,,,,,,,,,,,,,,,,,,,,,,a,1,0.334733009338,None,0,2.0,circlecyan.gif,go,,,,,,,,,,,,,,,,,,,,,,,,1.78,0.514284133911,0.000935077667236,0.334733009338,1,a,276.682401896,,,,,,,,,,,,,,,,,,,,,,,,,,,,,,,,,2015_Jun_24_1125,59.9516876449,LearningTask,1,63,
200,w,200,,,,,,,,,,,,,,,,,0,0,0,0,1,0,4,0,,,,,,,,,,,,,,,,,,,,,,,,,,,,,w,1,0.351000070572,None,0,0.5,hexagongray.gif,stop,,,,,,,,,,,,,,,,,,,,,,,,0.52,0.514494895935,0.00105285644531,0.351000070572,1,w,279.686172009,,,,,,,,,,,,,,,,,,,,,,,,,,,,,,,,,2015_Jun_24_1125,59.9516876449,LearningTask,1,63,
-200,a,-200,,,,,,,,,,,,,,,,,0,0,0,0,1,1,5,3,,,,,,,,,,,,,,,,,,,,,,,,,,,,,a,1,0.350486040115,None,0,0.5,hexagongray.gif,stop,,,,,,,,,,,,,,,,,,,,,,,,0.55,0.514437913895,0.000910997390747,0.350486040115,1,a,282.689387083,,,,,,,,,,,,,,,,,,,,,,,,,,,,,,,,,2015_Jun_24_1125,59.9516876449,LearningTask,1,63,
200,w,200,,,,,,,,,,,,,,,,,0,0,0,0,1,2,6,0,,,,,,,,,,,,,,,,,,,,,,,,,,,,,w,1,0.384339094162,None,0,2.0,circlecyan.gif,go,,,,,,,,,,,,,,,,,,,,,,,,2.08,0.514363050461,0.0011990070343,0.384339094162,1,w,285.692822933,,,,,,,,,,,,,,,,,,,,,,,,,,,,,,,,,2015_Jun_24_1125,59.9516876449,LearningTask,1,63,
-200,a,-200,,,,,,,,,,,,,,,,,0,0,0,0,1,3,7,3,,,,,,,,,,,,,,,,,,,,,,,,,,,,,a,1,0.417349100113,None,0,0.5,diamondwhite.gif,go,,,,,,,,,,,,,,,,,,,,,,,,0.6,0.514235019684,0.000885963439941,0.417349100113,1,a,288.695851088,,,,,,,,,,,,,,,,,,,,,,,,,,,,,,,,,2015_Jun_24_1125,59.9516876449,LearningTask,1,63,
200,w,200,,,,,,,,,,,,,,,,,0,0,0,0,2,0,8,0,,,,,,,,,,,,,,,,,,,,,,,,,,,,,w,1,0.451349973679,None,0,2.0,circlecyan.gif,go,,,,,,,,,,,,,,,,,,,,,,,,2.25,0.514459133148,0.00091814994812,0.451349973679,1,w,291.699374914,,,,,,,,,,,,,,,,,,,,,,,,,,,,,,,,,2015_Jun_24_1125,59.9516876449,LearningTask,1,63,
-200,q,200,,,,,,,,,,,,,,,,,0,0,0,0,2,1,9,1,,,,,,,,,,,,,,,,,,,,,,,,,,,,,q,1,0.450998067856,None,0,4.0,lineorange.gif,go,,,,,,,,,,,,,,,,,,,,,,,,3.83,0.514182806015,0.000947952270508,0.450998067856,1,q,294.702835083,,,,,,,,,,,,,,,,,,,,,,,,,,,,,,,,,2015_Jun_24_1125,59.9516876449,LearningTask,1,63,
-200,q,200,,,,,,,,,,,,,,,,,0,0,0,0,2,2,10,1,,,,,,,,,,,,,,,,,,,,,,,,,,,,,q,1,0.350857019424,None,0,2.0,invertedtriangleyellow.gif,stop,,,,,,,,,,,,,,,,,,,,,,,,2.01,0.514396905899,0.000890016555786,0.350857019424,1,q,297.706413031,,,,,,,,,,,,,,,,,,,,,,,,,,,,,,,,,2015_Jun_24_1125,59.9516876449,LearningTask,1,63,
200,w,200,,,,,,,,,,,,,,,,,0,0,0,0,2,3,11,0,,,,,,,,,,,,,,,,,,,,,,,,,,,,,w,1,0.350924015045,None,0,1.0,crossblue.gif,go,,,,,,,,,,,,,,,,,,,,,,,,0.98,0.514281988144,0.000899076461792,0.350924015045,1,w,300.709536076,,,,,,,,,,,,,,,,,,,,,,,,,,,,,,,,,2015_Jun_24_1125,59.9516876449,LearningTask,1,63,
-200,q,200,,,,,,,,,,,,,,,,,0,0,0,0,3,0,12,1,,,,,,,,,,,,,,,,,,,,,,,,,,,,,q,1,0.350924015045,None,0,4.0,squaremagenta.gif,stop,,,,,,,,,,,,,,,,,,,,,,,,3.94,0.514074087143,0.000931024551392,0.350924015045,1,q,303.712956905,,,,,,,,,,,,,,,,,,,,,,,,,,,,,,,,,2015_Jun_24_1125,59.9516876449,LearningTask,1,63,
-200,a,-200,,,,,,,,,,,,,,,,,0,0,0,0,3,1,13,3,,,,,,,,,,,,,,,,,,,,,,,,,,,,,a,1,0.401079177856,None,0,4.0,lineorange.gif,go,,,,,,,,,,,,,,,,,,,,,,,,4.2,0.514386892319,0.00088906288147,0.401079177856,1,a,306.716178894,,,,,,,,,,,,,,,,,,,,,,,,,,,,,,,,,2015_Jun_24_1125,59.9516876449,LearningTask,1,63,
-200,a,-200,,,,,,,,,,,,,,,,,0,0,0,0,3,2,14,3,,,,,,,,,,,,,,,,,,,,,,,,,,,,,a,1,0.384656906128,None,0,4.0,lineorange.gif,go,,,,,,,,,,,,,,,,,,,,,,,,3.98,0.514531135559,0.000895023345947,0.384656906128,1,a,309.720179081,,,,,,,,,,,,,,,,,,,,,,,,,,,,,,,,,2015_Jun_24_1125,59.9516876449,LearningTask,1,63,
200,w,200,,,,,,,,,,,,,,,,,0,0,0,0,3,3,15,0,,,,,,,,,,,,,,,,,,,,,,,,,,,,,w,1,0.350938796997,None,0,2.0,invertedtriangleyellow.gif,stop,,,,,,,,,,,,,,,,,,,,,,,,2.01,0.513738155365,0.00102400779724,0.350938796997,1,w,312.723184109,,,,,,,,,,,,,,,,,,,,,,,,,,,,,,,,,2015_Jun_24_1125,59.9516876449,LearningTask,1,63,
-200,q,200,,,,,,,,,,,,,,,,,0,0,0,0,4,0,16,1,,,,,,,,,,,,,,,,,,,,,,,,,,,,,q,1,0.401215076447,None,0,0.5,diamondwhite.gif,go,,,,,,,,,,,,,,,,,,,,,,,,0.25,0.514276027679,0.000886917114258,0.401215076447,1,q,315.72646904,,,,,,,,,,,,,,,,,,,,,,,,,,,,,,,,,2015_Jun_24_1125,59.9516876449,LearningTask,1,63,
-200,a,-200,,,,,,,,,,,,,,,,,0,0,0,0,4,1,17,3,,,,,,,,,,,,,,,,,,,,,,,,,,,,,a,1,0.400503158569,None,0,0.5,hexagongray.gif,stop,,,,,,,,,,,,,,,,,,,,,,,,0.3,0.514579057693,0.000945091247559,0.400503158569,1,a,318.730170965,,,,,,,,,,,,,,,,,,,,,,,,,,,,,,,,,2015_Jun_24_1125,59.9516876449,LearningTask,1,63,
200,s,-200,,,,,,,,,,,,,,,,,0,0,0,0,4,2,18,2,,,,,,,,,,,,,,,,,,,,,,,,,,,,,s,1,0.467742919922,None,0,1.0,trianglegreen.gif,stop,,,,,,,,,,,,,,,,,,,,,,,,0.99,0.513978004456,0.000891923904419,0.467742919922,1,s,321.733412027,,,,,,,,,,,,,,,,,,,,,,,,,,,,,,,,,2015_Jun_24_1125,59.9516876449,LearningTask,1,63,
200,s,-200,,,,,,,,,,,,,,,,,0,0,0,0,4,3,19,2,,,,,,,,,,,,,,,,,,,,,,,,,,,,,s,1,0.367938995361,None,0,1.0,crossblue.gif,go,,,,,,,,,,,,,,,,,,,,,,,,0.85,0.51401591301,0.000967979431152,0.367938995361,1,s,324.736393929,,,,,,,,,,,,,,,,,,,,,,,,,,,,,,,,,2015_Jun_24_1125,59.9516876449,LearningTask,1,63,
200,s,-200,,,,,,,,,,,,,,,,,0,0,0,0,5,0,20,2,,,,,,,,,,,,,,,,,,,,,,,,,,,,,s,1,0.401287078857,None,0,1.0,trianglegreen.gif,stop,,,,,,,,,,,,,,,,,,,,,,,,1.13,0.514393091202,0.000939130783081,0.401287078857,1,s,327.739983082,,,,,,,,,,,,,,,,,,,,,,,,,,,,,,,,,2015_Jun_24_1125,59.9516876449,LearningTask,1,63,
-200,q,200,,,,,,,,,,,,,,,,,0,0,0,0,5,1,21,1,,,,,,,,,,,,,,,,,,,,,,,,,,,,,q,1,0.367730855942,None,0,2.0,circlecyan.gif,go,,,,,,,,,,,,,,,,,,,,,,,,0,0.514231920242,0.000900030136108,0.367730855942,1,q,330.743192911,,,,,,,,,,,,,,,,,,,,,,,,,,,,,,,,,2015_Jun_24_1125,59.9516876449,LearningTask,1,63,
200,s,-200,,,,,,,,,,,,,,,,,0,0,0,0,5,2,22,2,,,,,,,,,,,,,,,,,,,,,,,,,,,,,s,1,0.367385864258,None,0,4.0,squaremagenta.gif,stop,,,,,,,,,,,,,,,,,,,,,,,,0,0.514271020889,0.000949859619141,0.367385864258,1,s,333.74665308,,,,,,,,,,,,,,,,,,,,,,,,,,,,,,,,,2015_Jun_24_1125,59.9516876449,LearningTask,1,63,
200,s,-200,,,,,,,,,,,,,,,,,0,0,0,0,5,3,23,2,,,,,,,,,,,,,,,,,,,,,,,,,,,,,s,1,0.400547981262,None,0,0.5,hexagongray.gif,stop,,,,,,,,,,,,,,,,,,,,,,,,0.5,0.51445889473,0.000898838043213,0.400547981262,1,s,336.750102997,,,,,,,,,,,,,,,,,,,,,,,,,,,,,,,,,2015_Jun_24_1125,59.9516876449,LearningTask,1,63,
200,s,-200,,,,,,,,,,,,,,,,,0,0,0,0,6,0,24,2,,,,,,,,,,,,,,,,,,,,,,,,,,,,,s,1,0.334259033203,None,0,0.5,hexagongray.gif,stop,,,,,,,,,,,,,,,,,,,,,,,,0.32,0.514377832413,0.00090479850769,0.334259033203,1,s,339.753629923,,,,,,,,,,,,,,,,,,,,,,,,,,,,,,,,,2015_Jun_24_1125,59.9516876449,LearningTask,1,63,
-200,a,-200,,,,,,,,,,,,,,,,,0,0,0,0,6,1,25,3,,,,,,,,,,,,,,,,,,,,,,,,,,,,,a,1,0.317838907242,None,0,1.0,trianglegreen.gif,stop,,,,,,,,,,,,,,,,,,,,,,,,1.12,0.513642072678,0.000936985015869,0.317838907242,1,a,342.756862879,,,,,,,,,,,,,,,,,,,,,,,,,,,,,,,,,2015_Jun_24_1125,59.9516876449,LearningTask,1,63,
200,s,-200,,,,,,,,,,,,,,,,,0,0,0,0,6,2,26,2,,,,,,,,,,,,,,,,,,,,,,,,,,,,,s,1,0.384093046188,None,0,4.0,lineorange.gif,go,,,,,,,,,,,,,,,,,,,,,,,,4.13,0.513976097107,0.000885009765625,0.384093046188,1,s,345.760117054,,,,,,,,,,,,,,,,,,,,,,,,,,,,,,,,,2015_Jun_24_1125,59.9516876449,LearningTask,1,63,
200,w,200,,,,,,,,,,,,,,,,,0,0,0,0,6,3,27,0,,,,,,,,,,,,,,,,,,,,,,,,,,,,,w,1,0.38441991806,None,0,1.0,crossblue.gif,go,,,,,,,,,,,,,,,,,,,,,,,,1.1,0.51446890831,0.000895977020264,0.38441991806,1,w,348.76354599,,,,,,,,,,,,,,,,,,,,,,,,,,,,,,,,,2015_Jun_24_1125,59.9516876449,LearningTask,1,63,
200,w,200,,,,,,,,,,,,,,,,,0,0,0,0,7,0,28,0,,,,,,,,,,,,,,,,,,,,,,,,,,,,,w,1,0.384191036224,None,0,0.5,diamondwhite.gif,go,,,,,,,,,,,,,,,,,,,,,,,,0.3,0.513957977295,0.000929832458496,0.384191036224,1,w,351.766887903,,,,,,,,,,,,,,,,,,,,,,,,,,,,,,,,,2015_Jun_24_1125,59.9516876449,LearningTask,1,63,
200,s,-200,,,,,,,,,,,,,,,,,0,0,0,0,7,1,29,2,,,,,,,,,,,,,,,,,,,,,,,,,,,,,s,1,0.350908041,None,0,4.0,squaremagenta.gif,stop,,,,,,,,,,,,,,,,,,,,,,,,3.89,0.514351844788,0.00111198425293,0.350908041,1,s,354.770303965,,,,,,,,,,,,,,,,,,,,,,,,,,,,,,,,,2015_Jun_24_1125,59.9516876449,LearningTask,1,63,
200,s,-200,,,,,,,,,,,,,,,,,0,0,0,0,7,2,30,2,,,,,,,,,,,,,,,,,,,,,,,,,,,,,s,1,0.351190090179,None,0,2.0,circlecyan.gif,go,,,,,,,,,,,,,,,,,,,,,,,,1.77,0.514309883118,0.00089693069458,0.351190090179,1,s,357.774117947,,,,,,,,,,,,,,,,,,,,,,,,,,,,,,,,,2015_Jun_24_1125,59.9516876449,LearningTask,1,63,
-200,q,200,,,,,,,,,,,,,,,,,0,0,0,0,7,3,31,1,,,,,,,,,,,,,,,,,,,,,,,,,,,,,q,1,0.400923013687,None,0,1.0,trianglegreen.gif,stop,,,,,,,,,,,,,,,,,,,,,,,,0,0.513827085495,0.000901937484741,0.400923013687,1,q,360.77707696,,,,,,,,,,,,,,,,,,,,,,,,,,,,,,,,,2015_Jun_24_1125,59.9516876449,LearningTask,1,63,
200,s,-200,,,,,,,,,,,,,,,,,0,0,0,0,8,0,32,2,,,,,,,,,,,,,,,,,,,,,,,,,,,,,s,1,0.401319026947,None,0,2.0,invertedtriangleyellow.gif,stop,,,,,,,,,,,,,,,,,,,,,,,,1.88,0.514271020889,0.000897169113159,0.401319026947,1,s,363.780391932,,,,,,,,,,,,,,,,,,,,,,,,,,,,,,,,,2015_Jun_24_1125,59.9516876449,LearningTask,1,63,
200,s,-200,,,,,,,,,,,,,,,,,0,0,0,0,8,1,33,2,,,,,,,,,,,,,,,,,,,,,,,,,,,,,s,1,0.384067058563,None,0,2.0,invertedtriangleyellow.gif,stop,,,,,,,,,,,,,,,,,,,,,,,,2.22,0.514281988144,0.000927925109863,0.384067058563,1,s,366.783847094,,,,,,,,,,,,,,,,,,,,,,,,,,,,,,,,,2015_Jun_24_1125,59.9516876449,LearningTask,1,63,
-200,a,-200,,,,,,,,,,,,,,,,,0,0,0,0,8,2,34,3,,,,,,,,,,,,,,,,,,,,,,,,,,,,,a,1,0.367478847504,None,0,1.0,trianglegreen.gif,stop,,,,,,,,,,,,,,,,,,,,,,,,1.02,0.514372110367,0.000903129577637,0.367478847504,1,a,369.787029982,,,,,,,,,,,,,,,,,,,,,,,,,,,,,,,,,2015_Jun_24_1125,59.9516876449,LearningTask,1,63,
-200,q,200,,,,,,,,,,,,,,,,,0,0,0,0,8,3,35,1,,,,,,,,,,,,,,,,,,,,,,,,,,,,,q,1,0.484163045883,None,0,0.5,hexagongray.gif,stop,,,,,,,,,,,,,,,,,,,,,,,,0.38,0.514528989792,0.00104284286499,0.484163045883,1,q,372.790678024,,,,,,,,,,,,,,,,,,,,,,,,,,,,,,,,,2015_Jun_24_1125,59.9516876449,LearningTask,1,63,
-200,q,200,,,,,,,,,,,,,,,,,0,0,0,0,9,0,36,1,,,,,,,,,,,,,,,,,,,,,,,,,,,,,q,1,0.551190137863,None,0,0.5,diamondwhite.gif,go,,,,,,,,,,,,,,,,,,,,,,,,0.65,0.513917922974,0.000929832458496,0.551190137863,1,q,375.794099092,,,,,,,,,,,,,,,,,,,,,,,,,,,,,,,,,2015_Jun_24_1125,59.9516876449,LearningTask,1,63,
-200,a,-200,,,,,,,,,,,,,,,,,0,0,0,0,9,1,37,3,,,,,,,,,,,,,,,,,,,,,,,,,,,,,a,1,0.434249162674,None,0,0.5,diamondwhite.gif,go,,,,,,,,,,,,,,,,,,,,,,,,0.26,0.514243841171,0.000895977020264,0.434249162674,1,a,378.797272921,,,,,,,,,,,,,,,,,,,,,,,,,,,,,,,,,2015_Jun_24_1125,59.9516876449,LearningTask,1,63,
-200,a,-200,,,,,,,,,,,,,,,,,0,0,0,0,9,2,38,3,,,,,,,,,,,,,,,,,,,,,,,,,,,,,a,1,0.418161153793,None,0,4.0,lineorange.gif,go,,,,,,,,,,,,,,,,,,,,,,,,0,0.514155864716,0.00105595588684,0.418161153793,1,a,381.800647974,,,,,,,,,,,,,,,,,,,,,,,,,,,,,,,,,2015_Jun_24_1125,59.9516876449,LearningTask,1,63,
200,w,200,,,,,,,,,,,,,,,,,0,0,0,0,9,3,39,0,,,,,,,,,,,,,,,,,,,,,,,,,,,,,w,1,0.41726398468,None,0,2.0,invertedtriangleyellow.gif,stop,,,,,,,,,,,,,,,,,,,,,,,,0,0.514437913895,0.000899076461792,0.41726398468,1,w,384.804019928,,,,,,,,,,,,,,,,,,,,,,,,,,,,,,,,,2015_Jun_24_1125,59.9516876449,LearningTask,1,63,
-200,a,-200,,,,,,,,,,,,,,,,,0,0,0,0,10,0,40,3,,,,,,,,,,,,,,,,,,,,,,,,,,,,,a,1,0.367010116577,None,0,2.0,circlecyan.gif,go,,,,,,,,,,,,,,,,,,,,,,,,2.1,0.514694929123,0.000916957855225,0.367010116577,1,a,387.807492971,,,,,,,,,,,,,,,,,,,,,,,,,,,,,,,,,2015_Jun_24_1125,59.9516876449,LearningTask,1,63,
-200,a,-200,,,,,,,,,,,,,,,,,0,0,0,0,10,1,41,3,,,,,,,,,,,,,,,,,,,,,,,,,,,,,a,1,0.384725093842,None,0,1.0,trianglegreen.gif,stop,,,,,,,,,,,,,,,,,,,,,,,,0.8,0.513955116272,0.000948190689087,0.384725093842,1,a,390.810781956,,,,,,,,,,,,,,,,,,,,,,,,,,,,,,,,,2015_Jun_24_1125,59.9516876449,LearningTask,1,63,
200,s,-200,,,,,,,,,,,,,,,,,0,0,0,0,10,2,42,2,,,,,,,,,,,,,,,,,,,,,,,,,,,,,s,1,0.36742401123,None,0,0.5,diamondwhite.gif,go,,,,,,,,,,,,,,,,,,,,,,,,0,0.514365911484,0.000892877578735,0.36742401123,1,s,393.814145088,,,,,,,,,,,,,,,,,,,,,,,,,,,,,,,,,2015_Jun_24_1125,59.9516876449,LearningTask,1,63,
-200,a,-200,,,,,,,,,,,,,,,,,0,0,0,0,10,3,43,3,,,,,,,,,,,,,,,,,,,,,,,,,,,,,a,1,0.350968837738,None,0,4.0,squaremagenta.gif,stop,,,,,,,,,,,,,,,,,,,,,,,,3.85,0.514344930649,0.000904083251953,0.350968837738,1,a,396.817568064,,,,,,,,,,,,,,,,,,,,,,,,,,,,,,,,,2015_Jun_24_1125,59.9516876449,LearningTask,1,63,
200,w,200,,,,,,,,,,,,,,,,,0,0,0,0,11,0,44,0,,,,,,,,,,,,,,,,,,,,,,,,,,,,,w,1,0.367634057999,None,0,1.0,crossblue.gif,go,,,,,,,,,,,,,,,,,,,,,,,,0.86,0.514066934586,0.000928163528442,0.367634057999,1,w,399.821181059,,,,,,,,,,,,,,,,,,,,,,,,,,,,,,,,,2015_Jun_24_1125,59.9516876449,LearningTask,1,63,
200,s,-200,,,,,,,,,,,,,,,,,0,0,0,0,11,1,45,2,,,,,,,,,,,,,,,,,,,,,,,,,,,,,s,1,0.350896120071,None,0,2.0,invertedtriangleyellow.gif,stop,,,,,,,,,,,,,,,,,,,,,,,,1.94,0.514116048813,0.000901937484741,0.350896120071,1,s,402.824611902,,,,,,,,,,,,,,,,,,,,,,,,,,,,,,,,,2015_Jun_24_1125,59.9516876449,LearningTask,1,63,
-200,q,200,,,,,,,,,,,,,,,,,0,0,0,0,11,2,46,1,,,,,,,,,,,,,,,,,,,,,,,,,,,,,q,1,0.484693050385,None,0,4.0,squaremagenta.gif,stop,,,,,,,,,,,,,,,,,,,,,,,,3.79,0.514059066772,0.000998020172119,0.484693050385,1,q,405.828191042,,,,,,,,,,,,,,,,,,,,,,,,,,,,,,,,,2015_Jun_24_1125,59.9516876449,LearningTask,1,63,
-200,q,200,,,,,,,,,,,,,,,,,0,0,0,0,11,3,47,1,,,,,,,,,,,,,,,,,,,,,,,,,,,,,q,1,0.450893878937,None,0,4.0,lineorange.gif,go,,,,,,,,,,,,,,,,,,,,,,,,3.97,0.513795137405,0.000909090042114,0.450893878937,1,q,408.831110954,,,,,,,,,,,,,,,,,,,,,,,,,,,,,,,,,2015_Jun_24_1125,59.9516876449,LearningTask,1,63,
-200,a,-200,,,,,,,,,,,,,,,,,0,0,0,0,12,0,48,3,,,,,,,,,,,,,,,,,,,,,,,,,,,,,a,1,0.451143026352,None,0,1.0,crossblue.gif,go,,,,,,,,,,,,,,,,,,,,,,,,1.25,0.51421380043,0.000922918319702,0.451143026352,1,a,411.834352016,,,,,,,,,,,,,,,,,,,,,,,,,,,,,,,,,2015_Jun_24_1125,59.9516876449,LearningTask,1,63,
-200,q,200,,,,,,,,,,,,,,,,,0,0,0,0,12,1,49,1,,,,,,,,,,,,,,,,,,,,,,,,,,,,,q,1,0.350857973099,None,0,0.5,diamondwhite.gif,go,,,,,,,,,,,,,,,,,,,,,,,,0.34,0.514230012894,0.000957012176514,0.350857973099,1,q,414.837807894,,,,,,,,,,,,,,,,,,,,,,,,,,,,,,,,,2015_Jun_24_1125,59.9516876449,LearningTask,1,63,
200,w,200,,,,,,,,,,,,,,,,,0,0,0,0,12,2,50,0,,,,,,,,,,,,,,,,,,,,,,,,,,,,,w,1,0.350945949554,None,0,4.0,squaremagenta.gif,stop,,,,,,,,,,,,,,,,,,,,,,,,3.81,0.514008045197,0.00101590156555,0.350945949554,1,w,417.841212034,,,,,,,,,,,,,,,,,,,,,,,,,,,,,,,,,2015_Jun_24_1125,59.9516876449,LearningTask,1,63,
-200,q,200,,,,,,,,,,,,,,,,,0,0,0,0,12,3,51,1,,,,,,,,,,,,,,,,,,,,,,,,,,,,,q,1,0.350682020187,None,0,0.5,diamondwhite.gif,go,,,,,,,,,,,,,,,,,,,,,,,,0,0.514356136322,0.00118803977966,0.350682020187,1,q,420.844530106,,,,,,,,,,,,,,,,,,,,,,,,,,,,,,,,,2015_Jun_24_1125,59.9516876449,LearningTask,1,63,
200,w,200,,,,,,,,,,,,,,,,,0,0,0,0,13,0,52,0,,,,,,,,,,,,,,,,,,,,,,,,,,,,,w,1,0.350646018982,None,0,0.5,diamondwhite.gif,go,,,,,,,,,,,,,,,,,,,,,,,,0.3,0.514685869217,0.000892877578735,0.350646018982,1,w,423.847723007,,,,,,,,,,,,,,,,,,,,,,,,,,,,,,,,,2015_Jun_24_1125,59.9516876449,LearningTask,1,63,
200,w,200,,,,,,,,,,,,,,,,,0,0,0,0,13,1,53,0,,,,,,,,,,,,,,,,,,,,,,,,,,,,,w,1,0.351093053818,None,0,2.0,circlecyan.gif,go,,,,,,,,,,,,,,,,,,,,,,,,0,0.514562129974,0.00114107131958,0.351093053818,1,w,426.851193905,,,,,,,,,,,,,,,,,,,,,,,,,,,,,,,,,2015_Jun_24_1125,59.9516876449,LearningTask,1,63,
-200,a,-200,,,,,,,,,,,,,,,,,0,0,0,0,13,2,54,3,,,,,,,,,,,,,,,,,,,,,,,,,,,,,a,1,0.33433508873,None,0,2.0,circlecyan.gif,go,,,,,,,,,,,,,,,,,,,,,,,,1.75,0.514342069626,0.000941038131714,0.33433508873,1,a,429.854824066,,,,,,,,,,,,,,,,,,,,,,,,,,,,,,,,,2015_Jun_24_1125,59.9516876449,LearningTask,1,63,
200,w,200,,,,,,,,,,,,,,,,,0,0,0,0,13,3,55,0,,,,,,,,,,,,,,,,,,,,,,,,,,,,,w,1,0.351258039474,None,0,1.0,crossblue.gif,go,,,,,,,,,,,,,,,,,,,,,,,,0.82,0.514117956161,0.000901937484741,0.351258039474,1,w,432.85808897,,,,,,,,,,,,,,,,,,,,,,,,,,,,,,,,,2015_Jun_24_1125,59.9516876449,LearningTask,1,63,
-200,q,200,,,,,,,,,,,,,,,,,0,0,0,0,14,0,56,1,,,,,,,,,,,,,,,,,,,,,,,,,,,,,q,1,0.384507894516,None,0,1.0,crossblue.gif,go,,,,,,,,,,,,,,,,,,,,,,,,0,0.51416683197,0.000892877578735,0.384507894516,1,q,435.861411095,,,,,,,,,,,,,,,,,,,,,,,,,,,,,,,,,2015_Jun_24_1125,59.9516876449,LearningTask,1,63,
-200,a,-200,,,,,,,,,,,,,,,,,0,0,0,0,14,1,57,3,,,,,,,,,,,,,,,,,,,,,,,,,,,,,a,1,0.384779930115,None,0,1.0,trianglegreen.gif,stop,,,,,,,,,,,,,,,,,,,,,,,,0.81,0.513940095901,0.000900030136108,0.384779930115,1,a,438.864909887,,,,,,,,,,,,,,,,,,,,,,,,,,,,,,,,,2015_Jun_24_1125,59.9516876449,LearningTask,1,63,
-200,q,200,,,,,,,,,,,,,,,,,0,0,0,0,14,2,58,1,,,,,,,,,,,,,,,,,,,,,,,,,,,,,q,1,0.334188938141,None,0,0.5,hexagongray.gif,stop,,,,,,,,,,,,,,,,,,,,,,,,0.41,0.514290094376,0.000910997390747,0.334188938141,1,q,441.868299007,,,,,,,,,,,,,,,,,,,,,,,,,,,,,,,,,2015_Jun_24_1125,59.9516876449,LearningTask,1,63,
-200,a,-200,,,,,,,,,,,,,,,,,0,0,0,0,14,3,59,3,,,,,,,,,,,,,,,,,,,,,,,,,,,,,a,1,0.384347200394,None,0,0.5,hexagongray.gif,stop,,,,,,,,,,,,,,,,,,,,,,,,0.3,0.514158964157,0.000898122787476,0.384347200394,1,a,444.871890068,,,,,,,,,,,,,,,,,,,,,,,,,,,,,,,,,2015_Jun_24_1125,59.9516876449,LearningTask,1,63,
200,s,-200,,,,,,,,,,,,,,,,,0,0,0,0,15,0,60,2,,,,,,,,,,,,,,,,,,,,,,,,,,,,,s,1,0.351207017899,None,0,0.5,hexagongray.gif,stop,,,,,,,,,,,,,,,,,,,,,,,,0.56,0.513977050781,0.000917911529541,0.351207017899,1,s,447.874958038,,,,,,,,,,,,,,,,,,,,,,,,,,,,,,,,,2015_Jun_24_1125,59.9516876449,LearningTask,1,63,
200,s,-200,,,,,,,,,,,,,,,,,0,0,0,0,15,1,61,2,,,,,,,,,,,,,,,,,,,,,,,,,,,,,s,1,0.367350101471,None,0,4.0,squaremagenta.gif,stop,,,,,,,,,,,,,,,,,,,,,,,,4.15,0.514432907104,0.000882863998413,0.367350101471,1,s,450.878201962,,,,,,,,,,,,,,,,,,,,,,,,,,,,,,,,,2015_Jun_24_1125,59.9516876449,LearningTask,1,63,
-200,a,-200,,,,,,,,,,,,,,,,,0,0,0,0,15,2,62,3,,,,,,,,,,,,,,,,,,,,,,,,,,,,,a,1,0.350673913956,None,0,4.0,squaremagenta.gif,stop,,,,,,,,,,,,,,,,,,,,,,,,3.91,0.514626979828,0.000923871994019,0.350673913956,1,a,453.881939888,,,,,,,,,,,,,,,,,,,,,,,,,,,,,,,,,2015_Jun_24_1125,59.9516876449,LearningTask,1,63,
-200,a,-200,,,,,,,,,,,,,,,,,0,0,0,0,15,3,63,3,,,,,,,,,,,,,,,,,,,,,,,,,,,,,a,1,0.318004131317,None,0,0.5,diamondwhite.gif,go,,,,,,,,,,,,,,,,,,,,,,,,0.51,0.513958930969,0.000892877578735,0.318004131317,1,a,456.885042906,,,,,,,,,,,,,,,,,,,,,,,,,,,,,,,,,2015_Jun_24_1125,59.9516876449,LearningTask,1,63,
-200,q,200,,,,,,,,,,,,,,,,,0,0,0,0,16,0,64,1,,,,,,,,,,,,,,,,,,,,,,,,,,,,,q,1,0.36794090271,None,0,2.0,invertedtriangleyellow.gif,stop,,,,,,,,,,,,,,,,,,,,,,,,0,0.514429092407,0.00105690956116,0.36794090271,1,q,459.888127089,,,,,,,,,,,,,,,,,,,,,,,,,,,,,,,,,2015_Jun_24_1125,59.9516876449,LearningTask,1,63,
200,w,200,,,,,,,,,,,,,,,,,0,0,0,0,16,1,65,0,,,,,,,,,,,,,,,,,,,,,,,,,,,,,w,1,0.367714166641,None,0,1.0,crossblue.gif,go,,,,,,,,,,,,,,,,,,,,,,,,0.8,0.514371871948,0.00100088119507,0.367714166641,1,w,462.891782045,,,,,,,,,,,,,,,,,,,,,,,,,,,,,,,,,2015_Jun_24_1125,59.9516876449,LearningTask,1,63,
-200,q,200,,,,,,,,,,,,,,,,,0,0,0,0,16,2,66,1,,,,,,,,,,,,,,,,,,,,,,,,,,,,,q,1,0.434593200684,None,0,2.0,circlecyan.gif,go,,,,,,,,,,,,,,,,,,,,,,,,1.9,0.514270067215,0.000897169113159,0.434593200684,1,q,465.895173073,,,,,,,,,,,,,,,,,,,,,,,,,,,,,,,,,2015_Jun_24_1125,59.9516876449,LearningTask,1,63,
-200,a,-200,,,,,,,,,,,,,,,,,0,0,0,0,16,3,67,3,,,,,,,,,,,,,,,,,,,,,,,,,,,,,a,1,0.350675106049,None,0,4.0,lineorange.gif,go,,,,,,,,,,,,,,,,,,,,,,,,3.82,0.514241933823,0.00122785568237,0.350675106049,1,a,468.898465872,,,,,,,,,,,,,,,,,,,,,,,,,,,,,,,,,2015_Jun_24_1125,59.9516876449,LearningTask,1,63,
200,s,-200,,,,,,,,,,,,,,,,,0,0,0,0,17,0,68,2,,,,,,,,,,,,,,,,,,,,,,,,,,,,,s,1,0.4681661129,None,0,2.0,invertedtriangleyellow.gif,stop,,,,,,,,,,,,,,,,,,,,,,,,2.14,0.514344930649,0.000900030136108,0.4681661129,1,s,471.901921034,,,,,,,,,,,,,,,,,,,,,,,,,,,,,,,,,2015_Jun_24_1125,59.9516876449,LearningTask,1,63,
-200,q,200,,,,,,,,,,,,,,,,,0,0,0,0,17,1,69,1,,,,,,,,,,,,,,,,,,,,,,,,,,,,,q,1,0.384018182755,None,0,0.5,hexagongray.gif,stop,,,,,,,,,,,,,,,,,,,,,,,,0.64,0.514534950256,0.000900983810425,0.384018182755,1,q,474.905400991,,,,,,,,,,,,,,,,,,,,,,,,,,,,,,,,,2015_Jun_24_1125,59.9516876449,LearningTask,1,63,
200,w,200,,,,,,,,,,,,,,,,,0,0,0,0,17,2,70,0,,,,,,,,,,,,,,,,,,,,,,,,,,,,,w,1,0.367281913757,None,0,1.0,trianglegreen.gif,stop,,,,,,,,,,,,,,,,,,,,,,,,0.98,0.51437497139,0.000918865203857,0.367281913757,1,w,477.908740997,,,,,,,,,,,,,,,,,,,,,,,,,,,,,,,,,2015_Jun_24_1125,59.9516876449,LearningTask,1,63,
-200,a,-200,,,,,,,,,,,,,,,,,0,0,0,0,17,3,71,3,,,,,,,,,,,,,,,,,,,,,,,,,,,,,a,1,0.317846059799,None,0,2.0,invertedtriangleyellow.gif,stop,,,,,,,,,,,,,,,,,,,,,,,,0,0.513977050781,0.000894069671631,0.317846059799,1,a,480.911917925,,,,,,,,,,,,,,,,,,,,,,,,,,,,,,,,,2015_Jun_24_1125,59.9516876449,LearningTask,1,63,
200,w,200,,,,,,,,,,,,,,,,,0,0,0,0,18,0,72,0,,,,,,,,,,,,,,,,,,,,,,,,,,,,,w,1,0.350898981094,None,0,1.0,crossblue.gif,go,,,,,,,,,,,,,,,,,,,,,,,,0,0.514506101608,0.000890970230103,0.350898981094,1,w,483.915616989,,,,,,,,,,,,,,,,,,,,,,,,,,,,,,,,,2015_Jun_24_1125,59.9516876449,LearningTask,1,63,
200,w,200,,,,,,,,,,,,,,,,,0,0,0,0,18,1,73,0,,,,,,,,,,,,,,,,,,,,,,,,,,,,,w,1,0.36736702919,None,0,0.5,diamondwhite.gif,go,,,,,,,,,,,,,,,,,,,,,,,,0,0.514047861099,0.000905990600586,0.36736702919,1,w,486.919018984,,,,,,,,,,,,,,,,,,,,,,,,,,,,,,,,,2015_Jun_24_1125,59.9516876449,LearningTask,1,63,
200,s,-200,,,,,,,,,,,,,,,,,0,0,0,0,18,2,74,2,,,,,,,,,,,,,,,,,,,,,,,,,,,,,s,1,0.384399175644,None,0,2.0,invertedtriangleyellow.gif,stop,,,,,,,,,,,,,,,,,,,,,,,,1.91,0.514034032822,0.000890016555786,0.384399175644,1,s,489.922301054,,,,,,,,,,,,,,,,,,,,,,,,,,,,,,,,,2015_Jun_24_1125,59.9516876449,LearningTask,1,63,
-200,a,-200,,,,,,,,,,,,,,,,,0,0,0,0,18,3,75,3,,,,,,,,,,,,,,,,,,,,,,,,,,,,,a,1,0.417703151703,None,0,1.0,trianglegreen.gif,stop,,,,,,,,,,,,,,,,,,,,,,,,0,0.514081954956,0.00090503692627,0.417703151703,1,a,492.925936937,,,,,,,,,,,,,,,,,,,,,,,,,,,,,,,,,2015_Jun_24_1125,59.9516876449,LearningTask,1,63,
200,s,-200,,,,,,,,,,,,,,,,,0,0,0,0,19,0,76,2,,,,,,,,,,,,,,,,,,,,,,,,,,,,,s,1,0.434163093567,None,0,4.0,lineorange.gif,go,,,,,,,,,,,,,,,,,,,,,,,,4.16,0.51395201683,0.000946998596191,0.434163093567,1,s,495.929111004,,,,,,,,,,,,,,,,,,,,,,,,,,,,,,,,,2015_Jun_24_1125,59.9516876449,LearningTask,1,63,
200,s,-200,,,,,,,,,,,,,,,,,0,0,0,0,19,1,77,2,,,,,,,,,,,,,,,,,,,,,,,,,,,,,s,1,0.351199150085,None,0,2.0,invertedtriangleyellow.gif,stop,,,,,,,,,,,,,,,,,,,,,,,,0,0.514123916626,0.000927925109863,0.351199150085,1,s,498.932164907,,,,,,,,,,,,,,,,,,,,,,,,,,,,,,,,,2015_Jun_24_1125,59.9516876449,LearningTask,1,63,
-200,a,-200,,,,,,,,,,,,,,,,,0,0,0,0,19,2,78,3,,,,,,,,,,,,,,,,,,,,,,,,,,,,,a,1,0.367602109909,None,0,4.0,lineorange.gif,go,,,,,,,,,,,,,,,,,,,,,,,,3.89,0.514286994934,0.000977993011475,0.367602109909,1,a,501.935669899,,,,,,,,,,,,,,,,,,,,,,,,,,,,,,,,,2015_Jun_24_1125,59.9516876449,LearningTask,1,63,
200,w,200,,,,,,,,,,,,,,,,,0,0,0,0,19,3,79,0,,,,,,,,,,,,,,,,,,,,,,,,,,,,,w,1,0.367451906204,None,0,2.0,circlecyan.gif,go,,,,,,,,,,,,,,,,,,,,,,,,2.12,0.514230966568,0.000900983810425,0.367451906204,1,w,504.939007998,,,,,,,,,,,,,,,,,,,,,,,,,,,,,,,,,2015_Jun_24_1125,59.9516876449,LearningTask,1,63,
-200,q,200,,,,,,,,,,,,,,,,,0,0,0,0,20,0,80,1,,,,,,,,,,,,,,,,,,,,,,,,,,,,,q,1,0.384165048599,None,0,0.5,diamondwhite.gif,go,,,,,,,,,,,,,,,,,,,,,,,,0,0.514777898788,0.000999927520752,0.384165048599,1,q,507.942496061,,,,,,,,,,,,,,,,,,,,,,,,,,,,,,,,,2015_Jun_24_1125,59.9516876449,LearningTask,1,63,
200,s,-200,,,,,,,,,,,,,,,,,0,0,0,0,20,1,81,2,,,,,,,,,,,,,,,,,,,,,,,,,,,,,s,1,0.367883205414,None,0,1.0,trianglegreen.gif,stop,,,,,,,,,,,,,,,,,,,,,,,,0,0.514005899429,0.000908851623535,0.367883205414,1,s,510.945667982,,,,,,,,,,,,,,,,,,,,,,,,,,,,,,,,,2015_Jun_24_1125,59.9516876449,LearningTask,1,63,
-200,a,-200,,,,,,,,,,,,,,,,,0,0,0,0,20,2,82,3,,,,,,,,,,,,,,,,,,,,,,,,,,,,,a,1,0.367531061172,None,0,0.5,hexagongray.gif,stop,,,,,,,,,,,,,,,,,,,,,,,,0.58,0.514585018158,0.000904083251953,0.367531061172,1,a,513.94917202,,,,,,,,,,,,,,,,,,,,,,,,,,,,,,,,,2015_Jun_24_1125,59.9516876449,LearningTask,1,63,
-200,q,200,,,,,,,,,,,,,,,,,0,0,0,0,20,3,83,1,,,,,,,,,,,,,,,,,,,,,,,,,,,,,q,1,0.401000022888,None,0,4.0,squaremagenta.gif,stop,,,,,,,,,,,,,,,,,,,,,,,,4.19,0.514016866684,0.000957012176514,0.401000022888,1,q,516.952449083,,,,,,,,,,,,,,,,,,,,,,,,,,,,,,,,,2015_Jun_24_1125,59.9516876449,LearningTask,1,63,
-200,q,200,,,,,,,,,,,,,,,,,0,0,0,0,21,0,84,1,,,,,,,,,,,,,,,,,,,,,,,,,,,,,q,1,0.567692041397,None,0,2.0,invertedtriangleyellow.gif,stop,,,,,,,,,,,,,,,,,,,,,,,,2.06,0.514543056488,0.000895023345947,0.567692041397,1,q,519.955976963,,,,,,,,,,,,,,,,,,,,,,,,,,,,,,,,,2015_Jun_24_1125,59.9516876449,LearningTask,1,63,
200,w,200,,,,,,,,,,,,,,,,,0,0,0,0,21,1,85,0,,,,,,,,,,,,,,,,,,,,,,,,,,,,,w,1,0.634927988052,None,0,1.0,crossblue.gif,go,,,,,,,,,,,,,,,,,,,,,,,,0.97,0.514262914658,0.000891923904419,0.634927988052,1,w,522.959054947,,,,,,,,,,,,,,,,,,,,,,,,,,,,,,,,,2015_Jun_24_1125,59.9516876449,LearningTask,1,63,
200,s,-200,,,,,,,,,,,,,,,,,0,0,0,0,21,2,86,2,,,,,,,,,,,,,,,,,,,,,,,,,,,,,s,1,0.384160041809,None,0,1.0,trianglegreen.gif,stop,,,,,,,,,,,,,,,,,,,,,,,,1.13,0.514634847641,0.000907897949219,0.384160041809,1,s,525.962687969,,,,,,,,,,,,,,,,,,,,,,,,,,,,,,,,,2015_Jun_24_1125,59.9516876449,LearningTask,1,63,
200,s,-200,,,,,,,,,,,,,,,,,0,0,0,0,21,3,87,2,,,,,,,,,,,,,,,,,,,,,,,,,,,,,s,1,0.351268053055,None,0,1.0,trianglegreen.gif,stop,,,,,,,,,,,,,,,,,,,,,,,,1.16,0.514355182648,0.000900030136108,0.351268053055,1,s,528.965919018,,,,,,,,,,,,,,,,,,,,,,,,,,,,,,,,,2015_Jun_24_1125,59.9516876449,LearningTask,1,63,
-200,q,200,,,,,,,,,,,,,,,,,0,0,0,0,22,0,88,1,,,,,,,,,,,,,,,,,,,,,,,,,,,,,q,1,0.368052005768,None,0,2.0,circlecyan.gif,go,,,,,,,,,,,,,,,,,,,,,,,,2.03,0.514437198639,0.000893115997314,0.368052005768,1,q,531.969832897,,,,,,,,,,,,,,,,,,,,,,,,,,,,,,,,,2015_Jun_24_1125,59.9516876449,LearningTask,1,63,
200,s,-200,,,,,,,,,,,,,,,,,0,0,0,0,22,1,89,2,,,,,,,,,,,,,,,,,,,,,,,,,,,,,s,1,0.351020812988,None,0,1.0,crossblue.gif,go,,,,,,,,,,,,,,,,,,,,,,,,0.92,0.513929843903,0.000891923904419,0.351020812988,1,s,534.972984076,,,,,,,,,,,,,,,,,,,,,,,,,,,,,,,,,2015_Jun_24_1125,59.9516876449,LearningTask,1,63,
-200,q,200,,,,,,,,,,,,,,,,,0,0,0,0,22,2,90,1,,,,,,,,,,,,,,,,,,,,,,,,,,,,,q,1,0.351160049438,None,0,1.0,trianglegreen.gif,stop,,,,,,,,,,,,,,,,,,,,,,,,0.99,0.514260053635,0.000900983810425,0.351160049438,1,q,537.97617507,,,,,,,,,,,,,,,,,,,,,,,,,,,,,,,,,2015_Jun_24_1125,59.9516876449,LearningTask,1,63,
200,w,200,,,,,,,,,,,,,,,,,0,0,0,0,22,3,91,0,,,,,,,,,,,,,,,,,,,,,,,,,,,,,w,1,0.367129087448,None,0,2.0,circlecyan.gif,go,,,,,,,,,,,,,,,,,,,,,,,,2.16,0.514446020126,0.000911951065063,0.367129087448,1,w,540.979911089,,,,,,,,,,,,,,,,,,,,,,,,,,,,,,,,,2015_Jun_24_1125,59.9516876449,LearningTask,1,63,
-200,q,200,,,,,,,,,,,,,,,,,0,0,0,0,23,0,92,1,,,,,,,,,,,,,,,,,,,,,,,,,,,,,q,1,0.400995016098,None,0,1.0,crossblue.gif,go,,,,,,,,,,,,,,,,,,,,,,,,0,0.513969182968,0.000885009765625,0.400995016098,1,q,543.982913017,,,,,,,,,,,,,,,,,,,,,,,,,,,,,,,,,2015_Jun_24_1125,59.9516876449,LearningTask,1,63,
200,w,200,,,,,,,,,,,,,,,,,0,0,0,0,23,1,93,0,,,,,,,,,,,,,,,,,,,,,,,,,,,,,w,1,0.417752981186,None,0,1.0,crossblue.gif,go,,,,,,,,,,,,,,,,,,,,,,,,1.14,0.514281988144,0.000895023345947,0.417752981186,1,w,546.986061096,,,,,,,,,,,,,,,,,,,,,,,,,,,,,,,,,2015_Jun_24_1125,59.9516876449,LearningTask,1,63,
200,w,200,,,,,,,,,,,,,,,,,0,0,0,0,23,2,94,0,,,,,,,,,,,,,,,,,,,,,,,,,,,,,w,1,0.501410007477,None,0,4.0,lineorange.gif,go,,,,,,,,,,,,,,,,,,,,,,,,4.14,0.514340877533,0.00101184844971,0.501410007477,1,w,549.989655018,,,,,,,,,,,,,,,,,,,,,,,,,,,,,,,,,2015_Jun_24_1125,59.9516876449,LearningTask,1,63,
200,w,200,,,,,,,,,,,,,,,,,0,0,0,0,23,3,95,0,,,,,,,,,,,,,,,,,,,,,,,,,,,,,w,1,0.417919874191,None,0,1.0,trianglegreen.gif,stop,,,,,,,,,,,,,,,,,,,,,,,,1.06,0.514381170273,0.000888109207153,0.417919874191,1,w,552.992995977,,,,,,,,,,,,,,,,,,,,,,,,,,,,,,,,,2015_Jun_24_1125,59.9516876449,LearningTask,1,63,
200,w,200,,,,,,,,,,,,,,,,,0,0,0,0,24,0,96,0,,,,,,,,,,,,,,,,,,,,,,,,,,,,,w,1,0.384115934372,None,0,1.0,crossblue.gif,go,,,,,,,,,,,,,,,,,,,,,,,,0.98,0.514403104782,0.00113010406494,0.384115934372,1,w,555.996402025,,,,,,,,,,,,,,,,,,,,,,,,,,,,,,,,,2015_Jun_24_1125,59.9516876449,LearningTask,1,63,
-200,q,200,,,,,,,,,,,,,,,,,0,0,0,0,24,1,97,1,,,,,,,,,,,,,,,,,,,,,,,,,,,,,q,1,0.433174133301,None,0,4.0,squaremagenta.gif,stop,,,,,,,,,,,,,,,,,,,,,,,,3.84,0.514889001846,0.000896215438843,0.433174133301,1,q,558.999733925,,,,,,,,,,,,,,,,,,,,,,,,,,,,,,,,,2015_Jun_24_1125,59.9516876449,LearningTask,1,63,
-200,q,200,,,,,,,,,,,,,,,,,0,0,0,0,24,2,98,1,,,,,,,,,,,,,,,,,,,,,,,,,,,,,q,1,0.367383003235,None,0,0.5,diamondwhite.gif,go,,,,,,,,,,,,,,,,,,,,,,,,0.47,0.514526844025,0.000891923904419,0.367383003235,1,q,562.003117085,,,,,,,,,,,,,,,,,,,,,,,,,,,,,,,,,2015_Jun_24_1125,59.9516876449,LearningTask,1,63,
200,w,200,,,,,,,,,,,,,,,,,0,0,0,0,24,3,99,0,,,,,,,,,,,,,,,,,,,,,,,,,,,,,w,1,0.333647966385,None,0,2.0,circlecyan.gif,go,,,,,,,,,,,,,,,,,,,,,,,,2.18,0.514111042023,0.000936985015869,0.333647966385,1,w,565.007189989,,,,,,,,,,,,,,,,,,,,,,,,,,,,,,,,,2015_Jun_24_1125,59.9516876449,LearningTask,1,63,
,,,,,,,,,,,,,,,,,,,0,0,0,0,,,,,,,,,,,,,,,,,,,,,,,,,,,,,,,,,,,,,,,,,,,,,,,,,,,,,,,,,,,,,,,,,,,,,,,9,11.2064740658,,,,,,,,,,,,,,,,,,,,,,,,,,,,,,,2015_Jun_24_1125,59.9516876449,LearningTask,1,63,
-200,q,200,,,,,,,,,,,,,,,,,1,0,1,0,0,0,0,1,,,,,,,,,,,,,,,,,,,,,,,,,,,,,q,1,0.367678880692,None,0,0.5,hexagongray.gif,stop,,,,,,,,,,,,,,,,,,,,,,,,0,0.510033130646,0.00101208686829,0.367678880692,1,q,579.556796074,,,,,,,,,,,,,,,,,,,,,,,,,,,,,,,,,2015_Jun_24_1125,59.9516876449,LearningTask,1,63,
200,s,-200,,,,,,,,,,,,,,,,,1,0,1,0,0,1,1,2,,,,,,,,,,,,,,,,,,,,,,,,,,,,,s,1,0.367123126984,None,0,2.0,circlecyan.gif,go,,,,,,,,,,,,,,,,,,,,,,,,2.1,0.513962984085,0.000890016555786,0.367123126984,1,s,582.559529066,,,,,,,,,,,,,,,,,,,,,,,,,,,,,,,,,2015_Jun_24_1125,59.9516876449,LearningTask,1,63,
200,s,-200,,,,,,,,,,,,,,,,,1,0,1,0,0,2,2,2,,,,,,,,,,,,,,,,,,,,,,,,,,,,,s,1,0.35089802742,None,0,1.0,trianglegreen.gif,stop,,,,,,,,,,,,,,,,,,,,,,,,1.18,0.51420879364,0.00111889839172,0.35089802742,1,s,585.56298995,,,,,,,,,,,,,,,,,,,,,,,,,,,,,,,,,2015_Jun_24_1125,59.9516876449,LearningTask,1,63,
-200,a,-200,,,,,,,,,,,,,,,,,1,0,1,0,0,3,3,3,,,,,,,,,,,,,,,,,,,,,,,,,,,,,a,1,0.484579086304,None,0,1.0,crossblue.gif,go,,,,,,,,,,,,,,,,,,,,,,,,0,0.514225006104,0.000924825668335,0.484579086304,1,a,588.566514015,,,,,,,,,,,,,,,,,,,,,,,,,,,,,,,,,2015_Jun_24_1125,59.9516876449,LearningTask,1,63,
-200,q,200,,,,,,,,,,,,,,,,,1,0,1,0,1,0,4,1,,,,,,,,,,,,,,,,,,,,,,,,,,,,,q,1,0.500971078873,None,0,2.0,circlecyan.gif,go,,,,,,,,,,,,,,,,,,,,,,,,2.1,0.514019012451,0.000938177108765,0.500971078873,1,q,591.569633007,,,,,,,,,,,,,,,,,,,,,,,,,,,,,,,,,2015_Jun_24_1125,59.9516876449,LearningTask,1,63,
200,w,200,,,,,,,,,,,,,,,,,1,0,1,0,1,1,5,0,,,,,,,,,,,,,,,,,,,,,,,,,,,,,w,1,0.50081205368,None,0,4.0,lineorange.gif,go,,,,,,,,,,,,,,,,,,,,,,,,0,0.514360904694,0.000947952270508,0.50081205368,1,w,594.573230982,,,,,,,,,,,,,,,,,,,,,,,,,,,,,,,,,2015_Jun_24_1125,59.9516876449,LearningTask,1,63,
-200,q,200,,,,,,,,,,,,,,,,,1,0,1,0,1,2,6,1,,,,,,,,,,,,,,,,,,,,,,,,,,,,,q,1,0.401063919067,None,0,2.0,invertedtriangleyellow.gif,stop,,,,,,,,,,,,,,,,,,,,,,,,0,0.513694047928,0.000934839248657,0.401063919067,1,q,597.576457977,,,,,,,,,,,,,,,,,,,,,,,,,,,,,,,,,2015_Jun_24_1125,59.9516876449,LearningTask,1,63,
200,w,200,,,,,,,,,,,,,,,,,1,0,1,0,1,3,7,0,,,,,,,,,,,,,,,,,,,,,,,,,,,,,w,1,0.367777109146,None,0,4.0,lineorange.gif,go,,,,,,,,,,,,,,,,,,,,,,,,4.05,0.514106035233,0.000911951065063,0.367777109146,1,w,600.579783916,,,,,,,,,,,,,,,,,,,,,,,,,,,,,,,,,2015_Jun_24_1125,59.9516876449,LearningTask,1,63,
-200,q,200,,,,,,,,,,,,,,,,,1,0,1,0,2,0,8,1,,,,,,,,,,,,,,,,,,,,,,,,,,,,,q,1,0.417682886124,None,0,4.0,squaremagenta.gif,stop,,,,,,,,,,,,,,,,,,,,,,,,4.1,0.514169931412,0.000886917114258,0.417682886124,1,q,603.583084106,,,,,,,,,,,,,,,,,,,,,,,,,,,,,,,,,2015_Jun_24_1125,59.9516876449,LearningTask,1,63,
-200,q,200,,,,,,,,,,,,,,,,,1,0,1,0,2,1,9,1,,,,,,,,,,,,,,,,,,,,,,,,,,,,,q,1,0.367774009705,None,0,4.0,lineorange.gif,go,,,,,,,,,,,,,,,,,,,,,,,,4.22,0.513918161392,0.00133299827576,0.367774009705,1,q,606.586622953,,,,,,,,,,,,,,,,,,,,,,,,,,,,,,,,,2015_Jun_24_1125,59.9516876449,LearningTask,1,63,
200,s,-200,,,,,,,,,,,,,,,,,1,0,1,0,2,2,10,2,,,,,,,,,,,,,,,,,,,,,,,,,,,,,s,1,0.434634208679,None,0,1.0,crossblue.gif,go,,,,,,,,,,,,,,,,,,,,,,,,1.12,0.514196872711,0.00132989883423,0.434634208679,1,s,609.59051609,,,,,,,,,,,,,,,,,,,,,,,,,,,,,,,,,2015_Jun_24_1125,59.9516876449,LearningTask,1,63,
-200,a,-200,,,,,,,,,,,,,,,,,1,0,1,0,2,3,11,3,,,,,,,,,,,,,,,,,,,,,,,,,,,,,a,1,0.400507926941,None,0,0.5,diamondwhite.gif,go,,,,,,,,,,,,,,,,,,,,,,,,0,0.513981103897,0.00126194953918,0.400507926941,1,a,612.593421936,,,,,,,,,,,,,,,,,,,,,,,,,,,,,,,,,2015_Jun_24_1125,59.9516876449,LearningTask,1,63,
200,s,-200,,,,,,,,,,,,,,,,,1,0,1,0,3,0,12,2,,,,,,,,,,,,,,,,,,,,,,,,,,,,,s,1,0.367805957794,None,0,2.0,circlecyan.gif,go,,,,,,,,,,,,,,,,,,,,,,,,1.82,0.514288902283,0.00164198875427,0.367805957794,1,s,615.596936941,,,,,,,,,,,,,,,,,,,,,,,,,,,,,,,,,2015_Jun_24_1125,59.9516876449,LearningTask,1,63,
-200,a,-200,,,,,,,,,,,,,,,,,1,0,1,0,3,1,13,3,,,,,,,,,,,,,,,,,,,,,,,,,,,,,a,1,0.351103067398,None,0,2.0,invertedtriangleyellow.gif,stop,,,,,,,,,,,,,,,,,,,,,,,,0,0.514041900635,0.00139904022217,0.351103067398,1,a,618.600128889,,,,,,,,,,,,,,,,,,,,,,,,,,,,,,,,,2015_Jun_24_1125,59.9516876449,LearningTask,1,63,
200,s,-200,,,,,,,,,,,,,,,,,1,0,1,0,3,2,14,2,,,,,,,,,,,,,,,,,,,,,,,,,,,,,s,1,0.350757837296,None,0,4.0,squaremagenta.gif,stop,,,,,,,,,,,,,,,,,,,,,,,,4.11,0.514243125916,0.000906944274902,0.350757837296,1,s,621.603425026,,,,,,,,,,,,,,,,,,,,,,,,,,,,,,,,,2015_Jun_24_1125,59.9516876449,LearningTask,1,63,
200,w,200,,,,,,,,,,,,,,,,,1,0,1,0,3,3,15,0,,,,,,,,,,,,,,,,,,,,,,,,,,,,,w,1,0.400780200958,None,0,2.0,invertedtriangleyellow.gif,stop,,,,,,,,,,,,,,,,,,,,,,,,0,0.514349937439,0.00103306770325,0.400780200958,1,w,624.606721878,,,,,,,,,,,,,,,,,,,,,,,,,,,,,,,,,2015_Jun_24_1125,59.9516876449,LearningTask,1,63,
-200,q,200,,,,,,,,,,,,,,,,,1,0,1,0,4,0,16,1,,,,,,,,,,,,,,,,,,,,,,,,,,,,,q,1,0.43453001976,None,0,2.0,circlecyan.gif,go,,,,,,,,,,,,,,,,,,,,,,,,1.86,0.514685153961,0.000900030136108,0.43453001976,1,q,627.610270977,,,,,,,,,,,,,,,,,,,,,,,,,,,,,,,,,2015_Jun_24_1125,59.9516876449,LearningTask,1,63,
200,s,-200,,,,,,,,,,,,,,,,,1,0,1,0,4,1,17,2,,,,,,,,,,,,,,,,,,,,,,,,,,,,,s,1,0.401709079742,None,0,4.0,lineorange.gif,go,,,,,,,,,,,,,,,,,,,,,,,,4.2,0.514107942581,0.000899076461792,0.401709079742,1,s,630.613589048,,,,,,,,,,,,,,,,,,,,,,,,,,,,,,,,,2015_Jun_24_1125,59.9516876449,LearningTask,1,63,
-200,q,200,,,,,,,,,,,,,,,,,1,0,1,0,4,2,18,1,,,,,,,,,,,,,,,,,,,,,,,,,,,,,q,1,0.400471925735,None,0,2.0,invertedtriangleyellow.gif,stop,,,,,,,,,,,,,,,,,,,,,,,,0,0.51421713829,0.000962972640991,0.417557954788,0,a,633.616955996,,,0.159197092056,0,0.515813112259,0.000967025756836,0.400471925735,1,q,636.620445967,,,,,,,,,,,,,,,,,,,,,,,2015_Jun_24_1125,59.9516876449,LearningTask,1,63,
200,w,200,,,,,,,,,,,,,,,,,1,0,1,0,4,3,19,0,,,,,,,,,,,,,,,,,,,,,,,,,,,,,w,1,0.401214122772,None,0,0.5,hexagongray.gif,stop,,,,,,,,,,,,,,,,,,,,,,,,0.37,0.513900995255,0.00141596794128,0.401214122772,1,w,639.623724937,,,,,,,,,,,,,,,,,,,,,,,,,,,,,,,,,2015_Jun_24_1125,59.9516876449,LearningTask,1,63,
200,w,200,,,,,,,,,,,,,,,,,1,0,1,0,5,0,20,0,,,,,,,,,,,,,,,,,,,,,,,,,,,,,w,1,0.417546987534,None,0,1.0,trianglegreen.gif,stop,,,,,,,,,,,,,,,,,,,,,,,,0,0.51393699646,0.00129103660583,0.417546987534,1,w,642.627104998,,,,,,,,,,,,,,,,,,,,,,,,,,,,,,,,,2015_Jun_24_1125,59.9516876449,LearningTask,1,63,
-200,q,200,,,,,,,,,,,,,,,,,1,0,1,0,5,1,21,1,,,,,,,,,,,,,,,,,,,,,,,,,,,,,q,1,0.384379148483,None,0,0.5,diamondwhite.gif,go,,,,,,,,,,,,,,,,,,,,,,,,0.34,0.514456033707,0.000897884368896,0.384379148483,1,q,645.630486012,,,,,,,,,,,,,,,,,,,,,,,,,,,,,,,,,2015_Jun_24_1125,59.9516876449,LearningTask,1,63,
-200,a,-200,,,,,,,,,,,,,,,,,1,0,1,0,5,2,22,3,,,,,,,,,,,,,,,,,,,,,,,,,,,,,a,1,0.40107011795,None,0,0.5,hexagongray.gif,stop,,,,,,,,,,,,,,,,,,,,,,,,0.74,0.514365911484,0.000887870788574,0.40107011795,1,a,648.633997917,,,,,,,,,,,,,,,,,,,,,,,,,,,,,,,,,2015_Jun_24_1125,59.9516876449,LearningTask,1,63,
200,w,200,,,,,,,,,,,,,,,,,1,0,1,0,5,3,23,0,,,,,,,,,,,,,,,,,,,,,,,,,,,,,w,1,0.351548910141,None,0,2.0,invertedtriangleyellow.gif,stop,,,,,,,,,,,,,,,,,,,,,,,,1.84,0.513617038727,0.000894069671631,0.351548910141,1,w,651.637243986,,,,,,,,,,,,,,,,,,,,,,,,,,,,,,,,,2015_Jun_24_1125,59.9516876449,LearningTask,1,63,
200,w,200,,,,,,,,,,,,,,,,,1,0,1,0,6,0,24,0,,,,,,,,,,,,,,,,,,,,,,,,,,,,,w,1,0.484174966812,None,0,4.0,lineorange.gif,go,,,,,,,,,,,,,,,,,,,,,,,,4.24,0.514907121658,0.000879049301147,0.484174966812,1,w,654.640568972,,,,,,,,,,,,,,,,,,,,,,,,,,,,,,,,,2015_Jun_24_1125,59.9516876449,LearningTask,1,63,
-200,a,-200,,,,,,,,,,,,,,,,,1,0,1,0,6,1,25,3,,,,,,,,,,,,,,,,,,,,,,,,,,,,,a,1,0.434210062027,None,0,4.0,squaremagenta.gif,stop,,,,,,,,,,,,,,,,,,,,,,,,3.75,0.514318943024,0.00086498260498,0.434210062027,1,a,657.644450903,,,,,,,,,,,,,,,,,,,,,,,,,,,,,,,,,2015_Jun_24_1125,59.9516876449,LearningTask,1,63,
200,w,200,,,,,,,,,,,,,,,,,1,0,1,0,6,2,26,0,,,,,,,,,,,,,,,,,,,,,,,,,,,,,w,1,0.451132059097,None,0,1.0,trianglegreen.gif,stop,,,,,,,,,,,,,,,,,,,,,,,,1.18,0.513247013092,0.000919103622437,0.451132059097,1,w,660.647315979,,,,,,,,,,,,,,,,,,,,,,,,,,,,,,,,,2015_Jun_24_1125,59.9516876449,LearningTask,1,63,
200,s,-200,,,,,,,,,,,,,,,,,1,0,1,0,6,3,27,2,,,,,,,,,,,,,,,,,,,,,,,,,,,,,s,1,0.367291927338,None,0,4.0,squaremagenta.gif,stop,,,,,,,,,,,,,,,,,,,,,,,,4.23,0.514730215073,0.000905990600586,0.367291927338,1,s,663.650765896,,,,,,,,,,,,,,,,,,,,,,,,,,,,,,,,,2015_Jun_24_1125,59.9516876449,LearningTask,1,63,
200,w,200,,,,,,,,,,,,,,,,,1,0,1,0,7,0,28,0,,,,,,,,,,,,,,,,,,,,,,,,,,,,,w,1,0.434303045273,None,0,2.0,invertedtriangleyellow.gif,stop,,,,,,,,,,,,,,,,,,,,,,,,1.8,0.514344930649,0.000878095626831,0.434303045273,1,w,666.654196024,,,,,,,,,,,,,,,,,,,,,,,,,,,,,,,,,2015_Jun_24_1125,59.9516876449,LearningTask,1,63,
200,s,-200,,,,,,,,,,,,,,,,,1,0,1,0,7,1,29,2,,,,,,,,,,,,,,,,,,,,,,,,,,,,,s,1,0.401052951813,None,0,2.0,circlecyan.gif,go,,,,,,,,,,,,,,,,,,,,,,,,2.0,0.514276027679,0.000895023345947,0.401052951813,1,s,669.657440901,,,,,,,,,,,,,,,,,,,,,,,,,,,,,,,,,2015_Jun_24_1125,59.9516876449,LearningTask,1,63,
-200,a,-200,,,,,,,,,,,,,,,,,1,0,1,0,7,2,30,3,,,,,,,,,,,,,,,,,,,,,,,,,,,,,a,1,0.534411907196,None,0,0.5,diamondwhite.gif,go,,,,,,,,,,,,,,,,,,,,,,,,0.37,0.514219999313,0.000962972640991,0.534411907196,1,a,672.661200047,,,,,,,,,,,,,,,,,,,,,,,,,,,,,,,,,2015_Jun_24_1125,59.9516876449,LearningTask,1,63,
-200,a,-200,,,,,,,,,,,,,,,,,1,0,1,0,7,3,31,3,,,,,,,,,,,,,,,,,,,,,,,,,,,,,a,1,0.401373147964,None,0,1.0,crossblue.gif,go,,,,,,,,,,,,,,,,,,,,,,,,0,0.514045000076,0.000885963439941,0.401373147964,1,a,675.664300919,,,,,,,,,,,,,,,,,,,,,,,,,,,,,,,,,2015_Jun_24_1125,59.9516876449,LearningTask,1,63,
200,s,-200,,,,,,,,,,,,,,,,,1,0,1,0,8,0,32,2,,,,,,,,,,,,,,,,,,,,,,,,,,,,,s,1,0.467517852783,None,0,4.0,squaremagenta.gif,stop,,,,,,,,,,,,,,,,,,,,,,,,3.95,0.51442694664,0.000878095626831,0.467517852783,1,s,678.667551994,,,,,,,,,,,,,,,,,,,,,,,,,,,,,,,,,2015_Jun_24_1125,59.9516876449,LearningTask,1,63,
200,s,-200,,,,,,,,,,,,,,,,,1,0,1,0,8,1,33,2,,,,,,,,,,,,,,,,,,,,,,,,,,,,,s,1,0.417587041855,None,0,0.5,diamondwhite.gif,go,,,,,,,,,,,,,,,,,,,,,,,,0.65,0.514065027237,0.00106406211853,0.417587041855,1,s,681.670872927,,,,,,,,,,,,,,,,,,,,,,,,,,,,,,,,,2015_Jun_24_1125,59.9516876449,LearningTask,1,63,
200,s,-200,,,,,,,,,,,,,,,,,1,0,1,0,8,2,34,2,,,,,,,,,,,,,,,,,,,,,,,,,,,,,s,1,0.383746862411,None,0,1.0,trianglegreen.gif,stop,,,,,,,,,,,,,,,,,,,,,,,,1.03,0.514629125595,0.00112795829773,0.383746862411,1,s,684.674283028,,,,,,,,,,,,,,,,,,,,,,,,,,,,,,,,,2015_Jun_24_1125,59.9516876449,LearningTask,1,63,
200,w,200,,,,,,,,,,,,,,,,,1,0,1,0,8,3,35,0,,,,,,,,,,,,,,,,,,,,,,,,,,,,,w,1,0.367859125137,None,0,4.0,squaremagenta.gif,stop,,,,,,,,,,,,,,,,,,,,,,,,3.78,0.514199972153,0.000872135162354,0.367859125137,1,w,687.678519964,,,,,,,,,,,,,,,,,,,,,,,,,,,,,,,,,2015_Jun_24_1125,59.9516876449,LearningTask,1,63,
-200,q,200,,,,,,,,,,,,,,,,,1,0,1,0,9,0,36,1,,,,,,,,,,,,,,,,,,,,,,,,,,,,,q,1,0.433668851852,None,0,4.0,lineorange.gif,go,,,,,,,,,,,,,,,,,,,,,,,,0,0.51355099678,0.000880002975464,0.433668851852,1,q,690.681219101,,,,,,,,,,,,,,,,,,,,,,,,,,,,,,,,,2015_Jun_24_1125,59.9516876449,LearningTask,1,63,
200,w,200,,,,,,,,,,,,,,,,,1,0,1,0,9,1,37,0,,,,,,,,,,,,,,,,,,,,,,,,,,,,,w,1,0.384444952011,None,0,2.0,circlecyan.gif,go,,,,,,,,,,,,,,,,,,,,,,,,1.93,0.514222860336,0.000884056091309,0.384444952011,1,w,693.684464931,,,,,,,,,,,,,,,,,,,,,,,,,,,,,,,,,2015_Jun_24_1125,59.9516876449,LearningTask,1,63,
-200,a,-200,,,,,,,,,,,,,,,,,1,0,1,0,9,2,38,3,,,,,,,,,,,,,,,,,,,,,,,,,,,,,a,1,0.434079170227,None,0,2.0,circlecyan.gif,go,,,,,,,,,,,,,,,,,,,,,,,,0,0.514492034912,0.000919103622437,0.434079170227,1,a,696.688235998,,,,,,,,,,,,,,,,,,,,,,,,,,,,,,,,,2015_Jun_24_1125,59.9516876449,LearningTask,1,63,
200,w,200,,,,,,,,,,,,,,,,,1,0,1,0,9,3,39,0,,,,,,,,,,,,,,,,,,,,,,,,,,,,,w,1,0.417828083038,None,0,0.5,hexagongray.gif,stop,,,,,,,,,,,,,,,,,,,,,,,,0,0.513586044312,0.00091290473938,0.417828083038,1,w,699.691308975,,,,,,,,,,,,,,,,,,,,,,,,,,,,,,,,,2015_Jun_24_1125,59.9516876449,LearningTask,1,63,
-200,q,200,,,,,,,,,,,,,,,,,1,0,1,0,10,0,40,1,,,,,,,,,,,,,,,,,,,,,,,,,,,,,q,1,0.434255123138,None,0,0.5,hexagongray.gif,stop,,,,,,,,,,,,,,,,,,,,,,,,0,0.5141248703,0.000892877578735,0.434255123138,1,q,702.69444108,,,,,,,,,,,,,,,,,,,,,,,,,,,,,,,,,2015_Jun_24_1125,59.9516876449,LearningTask,1,63,
-200,a,-200,,,,,,,,,,,,,,,,,1,0,1,0,10,1,41,3,,,,,,,,,,,,,,,,,,,,,,,,,,,,,a,1,0.467653036118,None,0,1.0,crossblue.gif,go,,,,,,,,,,,,,,,,,,,,,,,,1.08,0.514865159988,0.000893115997314,0.467653036118,1,a,705.698113918,,,,,,,,,,,,,,,,,,,,,,,,,,,,,,,,,2015_Jun_24_1125,59.9516876449,LearningTask,1,63,
-200,q,200,,,,,,,,,,,,,,,,,1,0,1,0,10,2,42,1,,,,,,,,,,,,,,,,,,,,,,,,,,,,,q,1,0.434540987015,None,0,1.0,trianglegreen.gif,stop,,,,,,,,,,,,,,,,,,,,,,,,0,0.514656066895,0.000891923904419,0.434540987015,1,q,708.701251984,,,,,,,,,,,,,,,,,,,,,,,,,,,,,,,,,2015_Jun_24_1125,59.9516876449,LearningTask,1,63,
200,w,200,,,,,,,,,,,,,,,,,1,0,1,0,10,3,43,0,,,,,,,,,,,,,,,,,,,,,,,,,,,,,w,1,0.417600154877,None,0,1.0,trianglegreen.gif,stop,,,,,,,,,,,,,,,,,,,,,,,,0.9,0.514780044556,0.000914096832275,0.417600154877,1,w,711.704848051,,,,,,,,,,,,,,,,,,,,,,,,,,,,,,,,,2015_Jun_24_1125,59.9516876449,LearningTask,1,63,
-200,a,-200,,,,,,,,,,,,,,,,,1,0,1,0,11,0,44,3,,,,,,,,,,,,,,,,,,,,,,,,,,,,,a,1,0.534514904022,None,0,2.0,circlecyan.gif,go,,,,,,,,,,,,,,,,,,,,,,,,1.88,0.514295816422,0.000877857208252,0.534514904022,1,a,714.708180904,,,,,,,,,,,,,,,,,,,,,,,,,,,,,,,,,2015_Jun_24_1125,59.9516876449,LearningTask,1,63,
-200,a,-200,,,,,,,,,,,,,,,,,1,0,1,0,11,1,45,3,,,,,,,,,,,,,,,,,,,,,,,,,,,,,a,1,0.601157903671,None,0,0.5,diamondwhite.gif,go,,,,,,,,,,,,,,,,,,,,,,,,0.56,0.514363050461,0.000883102416992,0.601157903671,1,a,717.711353064,,,,,,,,,,,,,,,,,,,,,,,,,,,,,,,,,2015_Jun_24_1125,59.9516876449,LearningTask,1,63,
-200,q,200,,,,,,,,,,,,,,,,,1,0,1,0,11,2,46,1,,,,,,,,,,,,,,,,,,,,,,,,,,,,,q,1,0.468192100525,None,0,2.0,invertedtriangleyellow.gif,stop,,,,,,,,,,,,,,,,,,,,,,,,0,0.51406288147,0.00102496147156,0.468192100525,1,q,720.714982986,,,,,,,,,,,,,,,,,,,,,,,,,,,,,,,,,2015_Jun_24_1125,59.9516876449,LearningTask,1,63,
200,s,-200,,,,,,,,,,,,,,,,,1,0,1,0,11,3,47,2,,,,,,,,,,,,,,,,,,,,,,,,,,,,,s,1,0.467882871628,None,0,2.0,invertedtriangleyellow.gif,stop,,,,,,,,,,,,,,,,,,,,,,,,1.79,0.514034032822,0.000877141952515,0.467882871628,1,s,723.718244076,,,,,,,,,,,,,,,,,,,,,,,,,,,,,,,,,2015_Jun_24_1125,59.9516876449,LearningTask,1,63,
200,w,200,,,,,,,,,,,,,,,,,1,0,1,0,12,0,48,0,,,,,,,,,,,,,,,,,,,,,,,,,,,,,w,1,0.41770195961,None,0,2.0,invertedtriangleyellow.gif,stop,,,,,,,,,,,,,,,,,,,,,,,,0,0.514401912689,0.000944852828979,0.41770195961,1,w,726.722470045,,,,,,,,,,,,,,,,,,,,,,,,,,,,,,,,,2015_Jun_24_1125,59.9516876449,LearningTask,1,63,
-200,a,-200,,,,,,,,,,,,,,,,,1,0,1,0,12,1,49,3,,,,,,,,,,,,,,,,,,,,,,,,,,,,,a,1,0.61795091629,None,0,1.0,crossblue.gif,go,,,,,,,,,,,,,,,,,,,,,,,,0.85,0.513095855713,0.000892877578735,0.61795091629,1,a,729.725023985,,,,,,,,,,,,,,,,,,,,,,,,,,,,,,,,,2015_Jun_24_1125,59.9516876449,LearningTask,1,63,
200,w,200,,,,,,,,,,,,,,,,,1,0,1,0,12,2,50,0,,,,,,,,,,,,,,,,,,,,,,,,,,,,,w,1,0.43443608284,None,0,0.5,diamondwhite.gif,go,,,,,,,,,,,,,,,,,,,,,,,,0,0.514354944229,0.000875949859619,0.43443608284,1,w,732.728421926,,,,,,,,,,,,,,,,,,,,,,,,,,,,,,,,,2015_Jun_24_1125,59.9516876449,LearningTask,1,63,
-200,a,-200,,,,,,,,,,,,,,,,,1,0,1,0,12,3,51,3,,,,,,,,,,,,,,,,,,,,,,,,,,,,,a,1,0.567671060562,None,0,0.5,hexagongray.gif,stop,,,,,,,,,,,,,,,,,,,,,,,,0,0.514670848846,0.000885009765625,0.567671060562,1,a,735.732059956,,,,,,,,,,,,,,,,,,,,,,,,,,,,,,,,,2015_Jun_24_1125,59.9516876449,LearningTask,1,63,
200,s,-200,,,,,,,,,,,,,,,,,1,0,1,0,13,0,52,2,,,,,,,,,,,,,,,,,,,,,,,,,,,,,s,1,0.467436075211,None,0,1.0,trianglegreen.gif,stop,,,,,,,,,,,,,,,,,,,,,,,,0.75,0.513935089111,0.000901222229004,0.467436075211,1,s,738.735204935,,,,,,,,,,,,,,,,,,,,,,,,,,,,,,,,,2015_Jun_24_1125,59.9516876449,LearningTask,1,63,
-200,q,200,,,,,,,,,,,,,,,,,1,0,1,0,13,1,53,1,,,,,,,,,,,,,,,,,,,,,,,,,,,,,q,1,0.33473110199,None,0,4.0,squaremagenta.gif,stop,,,,,,,,,,,,,,,,,,,,,,,,4.08,0.514199972153,0.000881910324097,0.33473110199,1,q,741.738538027,,,,,,,,,,,,,,,,,,,,,,,,,,,,,,,,,2015_Jun_24_1125,59.9516876449,LearningTask,1,63,
200,w,200,,,,,,,,,,,,,,,,,1,0,1,0,13,2,54,0,,,,,,,,,,,,,,,,,,,,,,,,,,,,,w,1,0.334357976913,None,0,4.0,squaremagenta.gif,stop,,,,,,,,,,,,,,,,,,,,,,,,4.05,0.514095067978,0.000945091247559,0.334357976913,1,w,744.742414951,,,,,,,,,,,,,,,,,,,,,,,,,,,,,,,,,2015_Jun_24_1125,59.9516876449,LearningTask,1,63,
-200,q,200,,,,,,,,,,,,,,,,,1,0,1,0,13,3,55,1,,,,,,,,,,,,,,,,,,,,,,,,,,,,,q,1,0.484365940094,None,0,2.0,circlecyan.gif,go,,,,,,,,,,,,,,,,,,,,,,,,0,0.513642787933,0.000871896743774,0.484365940094,1,q,747.745208979,,,,,,,,,,,,,,,,,,,,,,,,,,,,,,,,,2015_Jun_24_1125,59.9516876449,LearningTask,1,63,
200,w,200,,,,,,,,,,,,,,,,,1,0,1,0,14,0,56,0,,,,,,,,,,,,,,,,,,,,,,,,,,,,,w,1,0.434468984604,None,0,1.0,crossblue.gif,go,,,,,,,,,,,,,,,,,,,,,,,,1.02,0.51460313797,0.00126600265503,0.434468984604,1,w,750.748945951,,,,,,,,,,,,,,,,,,,,,,,,,,,,,,,,,2015_Jun_24_1125,59.9516876449,LearningTask,1,63,
-200,a,-200,,,,,,,,,,,,,,,,,1,0,1,0,14,1,57,3,,,,,,,,,,,,,,,,,,,,,,,,,,,,,a,1,0.384259939194,None,0,2.0,circlecyan.gif,go,,,,,,,,,,,,,,,,,,,,,,,,2.22,0.513987779617,0.000879764556885,0.384259939194,1,a,753.752089977,,,,,,,,,,,,,,,,,,,,,,,,,,,,,,,,,2015_Jun_24_1125,59.9516876449,LearningTask,1,63,
-200,q,200,,,,,,,,,,,,,,,,,1,0,1,0,14,2,58,1,,,,,,,,,,,,,,,,,,,,,,,,,,,,,q,1,0.417778015137,None,0,1.0,trianglegreen.gif,stop,,,,,,,,,,,,,,,,,,,,,,,,0.92,0.514133930206,0.00088095664978,0.417778015137,1,q,756.755356073,,,,,,,,,,,,,,,,,,,,,,,,,,,,,,,,,2015_Jun_24_1125,59.9516876449,LearningTask,1,63,
200,w,200,,,,,,,,,,,,,,,,,1,0,1,0,14,3,59,0,,,,,,,,,,,,,,,,,,,,,,,,,,,,,w,1,0.451090097427,None,0,1.0,trianglegreen.gif,stop,,,,,,,,,,,,,,,,,,,,,,,,0,0.514266967773,0.00102090835571,0.451090097427,1,w,759.759012938,,,,,,,,,,,,,,,,,,,,,,,,,,,,,,,,,2015_Jun_24_1125,59.9516876449,LearningTask,1,63,
200,s,-200,,,,,,,,,,,,,,,,,1,0,1,0,15,0,60,2,,,,,,,,,,,,,,,,,,,,,,,,,,,,,s,1,0.400889873505,None,0,2.0,circlecyan.gif,go,,,,,,,,,,,,,,,,,,,,,,,,1.94,0.514089822769,0.000881910324097,0.400889873505,1,s,762.762157917,,,,,,,,,,,,,,,,,,,,,,,,,,,,,,,,,2015_Jun_24_1125,59.9516876449,LearningTask,1,63,
200,w,200,,,,,,,,,,,,,,,,,1,0,1,0,15,1,61,0,,,,,,,,,,,,,,,,,,,,,,,,,,,,,w,1,0.351037979126,None,0,2.0,circlecyan.gif,go,,,,,,,,,,,,,,,,,,,,,,,,1.9,0.514050960541,0.000875949859619,0.351037979126,1,w,765.765724897,,,,,,,,,,,,,,,,,,,,,,,,,,,,,,,,,2015_Jun_24_1125,59.9516876449,LearningTask,1,63,
200,w,200,,,,,,,,,,,,,,,,,1,0,1,0,15,2,62,0,,,,,,,,,,,,,,,,,,,,,,,,,,,,,w,1,0.484184980392,None,0,1.0,crossblue.gif,go,,,,,,,,,,,,,,,,,,,,,,,,0.99,0.513942956924,0.000930070877075,0.484184980392,1,w,768.768946886,,,,,,,,,,,,,,,,,,,,,,,,,,,,,,,,,2015_Jun_24_1125,59.9516876449,LearningTask,1,63,
200,w,200,,,,,,,,,,,,,,,,,1,0,1,0,15,3,63,0,,,,,,,,,,,,,,,,,,,,,,,,,,,,,w,1,0.384249925613,None,0,1.0,trianglegreen.gif,stop,,,,,,,,,,,,,,,,,,,,,,,,0.81,0.514302015305,0.000875949859619,0.384249925613,1,w,771.772362947,,,,,,,,,,,,,,,,,,,,,,,,,,,,,,,,,2015_Jun_24_1125,59.9516876449,LearningTask,1,63,
200,s,-200,,,,,,,,,,,,,,,,,1,0,1,0,16,0,64,2,,,,,,,,,,,,,,,,,,,,,,,,,,,,,s,1,0.417605876923,None,0,1.0,trianglegreen.gif,stop,,,,,,,,,,,,,,,,,,,,,,,,1.03,0.514262914658,0.000879049301147,0.417605876923,1,s,774.775624037,,,,,,,,,,,,,,,,,,,,,,,,,,,,,,,,,2015_Jun_24_1125,59.9516876449,LearningTask,1,63,
200,s,-200,,,,,,,,,,,,,,,,,1,0,1,0,16,1,65,2,,,,,,,,,,,,,,,,,,,,,,,,,,,,,s,1,0.451144933701,None,0,1.0,crossblue.gif,go,,,,,,,,,,,,,,,,,,,,,,,,1.23,0.513890028,0.000892877578735,0.451144933701,1,s,777.77888608,,,,,,,,,,,,,,,,,,,,,,,,,,,,,,,,,2015_Jun_24_1125,59.9516876449,LearningTask,1,63,
-200,a,-200,,,,,,,,,,,,,,,,,1,0,1,0,16,2,66,3,,,,,,,,,,,,,,,,,,,,,,,,,,,,,a,1,0.534992933273,None,0,1.0,trianglegreen.gif,stop,,,,,,,,,,,,,,,,,,,,,,,,0,0.51429104805,0.000881910324097,0.534992933273,1,a,780.782414913,,,,,,,,,,,,,,,,,,,,,,,,,,,,,,,,,2015_Jun_24_1125,59.9516876449,LearningTask,1,63,
-200,q,200,,,,,,,,,,,,,,,,,1,0,1,0,16,3,67,1,,,,,,,,,,,,,,,,,,,,,,,,,,,,,q,1,0.400695085526,None,0,2.0,invertedtriangleyellow.gif,stop,,,,,,,,,,,,,,,,,,,,,,,,0,0.514543056488,0.000885009765625,0.400695085526,1,q,783.786313057,,,,,,,,,,,,,,,,,,,,,,,,,,,,,,,,,2015_Jun_24_1125,59.9516876449,LearningTask,1,63,
-200,a,-200,,,,,,,,,,,,,,,,,1,0,1,0,17,0,68,3,,,,,,,,,,,,,,,,,,,,,,,,,,,,,a,1,0.417449951172,None,0,1.0,trianglegreen.gif,stop,,,,,,,,,,,,,,,,,,,,,,,,1.24,0.513556003571,0.000885963439941,0.417449951172,1,a,786.78908205,,,,,,,,,,,,,,,,,,,,,,,,,,,,,,,,,2015_Jun_24_1125,59.9516876449,LearningTask,1,63,
200,s,-200,,,,,,,,,,,,,,,,,1,0,1,0,17,1,69,2,,,,,,,,,,,,,,,,,,,,,,,,,,,,,s,1,0.434085130692,None,0,2.0,circlecyan.gif,go,,,,,,,,,,,,,,,,,,,,,,,,2.12,0.514425992966,0.000884056091309,0.434085130692,1,s,789.792347908,,,,,,,,,,,,,,,,,,,,,,,,,,,,,,,,,2015_Jun_24_1125,59.9516876449,LearningTask,1,63,
-200,a,-200,,,,,,,,,,,,,,,,,1,0,1,0,17,2,70,3,,,,,,,,,,,,,,,,,,,,,,,,,,,,,a,1,0.434302091599,None,0,1.0,crossblue.gif,go,,,,,,,,,,,,,,,,,,,,,,,,1.11,0.514415025711,0.000880002975464,0.434302091599,1,a,792.796339035,,,,,,,,,,,,,,,,,,,,,,,,,,,,,,,,,2015_Jun_24_1125,59.9516876449,LearningTask,1,63,
200,s,-200,,,,,,,,,,,,,,,,,1,0,1,0,17,3,71,2,,,,,,,,,,,,,,,,,,,,,,,,,,,,,s,1,0.468103170395,None,0,0.5,hexagongray.gif,stop,,,,,,,,,,,,,,,,,,,,,,,,0.62,0.513722896576,0.000907897949219,0.468103170395,1,s,795.799292088,,,,,,,,,,,,,,,,,,,,,,,,,,,,,,,,,2015_Jun_24_1125,59.9516876449,LearningTask,1,63,
200,s,-200,,,,,,,,,,,,,,,,,1,0,1,0,18,0,72,2,,,,,,,,,,,,,,,,,,,,,,,,,,,,,s,1,0.317457914352,None,0,2.0,invertedtriangleyellow.gif,stop,,,,,,,,,,,,,,,,,,,,,,,,1.75,0.514321804047,0.000986814498901,0.317457914352,1,s,798.802664042,,,,,,,,,,,,,,,,,,,,,,,,,,,,,,,,,2015_Jun_24_1125,59.9516876449,LearningTask,1,63,
200,w,200,,,,,,,,,,,,,,,,,1,0,1,0,18,1,73,0,,,,,,,,,,,,,,,,,,,,,,,,,,,,,w,1,0.367355108261,None,0,4.0,squaremagenta.gif,stop,,,,,,,,,,,,,,,,,,,,,,,,0,0.514480113983,0.000871181488037,0.367355108261,1,w,801.806225061,,,,,,,,,,,,,,,,,,,,,,,,,,,,,,,,,2015_Jun_24_1125,59.9516876449,LearningTask,1,63,
200,s,-200,,,,,,,,,,,,,,,,,1,0,1,0,18,2,74,2,,,,,,,,,,,,,,,,,,,,,,,,,,,,,s,1,0.367852926254,None,0,2.0,circlecyan.gif,go,,,,,,,,,,,,,,,,,,,,,,,,0,0.514009952545,0.000881910324097,0.367852926254,1,s,804.809272051,,,,,,,,,,,,,,,,,,,,,,,,,,,,,,,,,2015_Jun_24_1125,59.9516876449,LearningTask,1,63,
200,s,-200,,,,,,,,,,,,,,,,,1,0,1,0,18,3,75,2,,,,,,,,,,,,,,,,,,,,,,,,,,,,,s,1,0.367817878723,None,0,1.0,trianglegreen.gif,stop,,,,,,,,,,,,,,,,,,,,,,,,0.79,0.514189958572,0.00102996826172,0.367817878723,1,s,807.813034058,,,,,,,,,,,,,,,,,,,,,,,,,,,,,,,,,2015_Jun_24_1125,59.9516876449,LearningTask,1,63,
-200,a,-200,,,,,,,,,,,,,,,,,1,0,1,0,19,0,76,3,,,,,,,,,,,,,,,,,,,,,,,,,,,,,a,1,0.468209981918,None,0,4.0,lineorange.gif,go,,,,,,,,,,,,,,,,,,,,,,,,4.21,0.51388502121,0.000885963439941,0.468209981918,1,a,810.816176891,,,,,,,,,,,,,,,,,,,,,,,,,,,,,,,,,2015_Jun_24_1125,59.9516876449,LearningTask,1,63,
200,s,-200,,,,,,,,,,,,,,,,,1,0,1,0,19,1,77,2,,,,,,,,,,,,,,,,,,,,,,,,,,,,,s,1,0.35135602951,None,0,1.0,crossblue.gif,go,,,,,,,,,,,,,,,,,,,,,,,,0.83,0.514420986176,0.000879049301147,0.35135602951,1,s,813.819427967,,,,,,,,,,,,,,,,,,,,,,,,,,,,,,,,,2015_Jun_24_1125,59.9516876449,LearningTask,1,63,
-200,q,200,,,,,,,,,,,,,,,,,1,0,1,0,19,2,78,1,,,,,,,,,,,,,,,,,,,,,,,,,,,,,q,1,0.451075077057,None,0,1.0,crossblue.gif,go,,,,,,,,,,,,,,,,,,,,,,,,0,0.514089107513,0.00092601776123,0.451075077057,1,q,816.822869062,,,,,,,,,,,,,,,,,,,,,,,,,,,,,,,,,2015_Jun_24_1125,59.9516876449,LearningTask,1,63,
-200,a,-200,,,,,,,,,,,,,,,,,1,0,1,0,19,3,79,3,,,,,,,,,,,,,,,,,,,,,,,,,,,,,a,1,0.417618989944,None,0,1.0,trianglegreen.gif,stop,,,,,,,,,,,,,,,,,,,,,,,,1.03,0.514694929123,0.000874996185303,0.417618989944,1,a,819.82625103,,,,,,,,,,,,,,,,,,,,,,,,,,,,,,,,,2015_Jun_24_1125,59.9516876449,LearningTask,1,63,
-200,q,200,,,,,,,,,,,,,,,,,1,0,1,0,20,0,80,1,,,,,,,,,,,,,,,,,,,,,,,,,,,,,q,1,0.417540073395,None,0,4.0,lineorange.gif,go,,,,,,,,,,,,,,,,,,,,,,,,3.92,0.5143430233,0.000946998596191,0.417540073395,1,q,822.829883099,,,,,,,,,,,,,,,,,,,,,,,,,,,,,,,,,2015_Jun_24_1125,59.9516876449,LearningTask,1,63,
200,s,-200,,,,,,,,,,,,,,,,,1,0,1,0,20,1,81,2,,,,,,,,,,,,,,,,,,,,,,,,,,,,,s,1,0.417306900024,None,0,2.0,invertedtriangleyellow.gif,stop,,,,,,,,,,,,,,,,,,,,,,,,1.99,0.514110088348,0.000895977020264,0.417306900024,1,s,825.833014011,,,,,,,,,,,,,,,,,,,,,,,,,,,,,,,,,2015_Jun_24_1125,59.9516876449,LearningTask,1,63,
200,w,200,,,,,,,,,,,,,,,,,1,0,1,0,20,2,82,0,,,,,,,,,,,,,,,,,,,,,,,,,,,,,w,1,0.417793035507,None,0,1.0,trianglegreen.gif,stop,,,,,,,,,,,,,,,,,,,,,,,,0,0.514441013336,0.000875949859619,0.417793035507,1,w,828.836363077,,,,,,,,,,,,,,,,,,,,,,,,,,,,,,,,,2015_Jun_24_1125,59.9516876449,LearningTask,1,63,
-200,q,200,,,,,,,,,,,,,,,,,1,0,1,0,20,3,83,1,,,,,,,,,,,,,,,,,,,,,,,,,,,,,q,1,0.350944042206,None,0,0.5,hexagongray.gif,stop,,,,,,,,,,,,,,,,,,,,,,,,0.59,0.514276027679,0.000911951065063,0.350944042206,1,q,831.840020895,,,,,,,,,,,,,,,,,,,,,,,,,,,,,,,,,2015_Jun_24_1125,59.9516876449,LearningTask,1,63,
-200,a,-200,,,,,,,,,,,,,,,,,1,0,1,0,21,0,84,3,,,,,,,,,,,,,,,,,,,,,,,,,,,,,a,1,0.317211866379,None,0,4.0,squaremagenta.gif,stop,,,,,,,,,,,,,,,,,,,,,,,,3.98,0.51397395134,0.000918865203857,0.317211866379,1,a,834.843259096,,,,,,,,,,,,,,,,,,,,,,,,,,,,,,,,,2015_Jun_24_1125,59.9516876449,LearningTask,1,63,
-200,q,200,,,,,,,,,,,,,,,,,1,0,1,0,21,1,85,1,,,,,,,,,,,,,,,,,,,,,,,,,,,,,q,1,0.384400844574,None,0,0.5,diamondwhite.gif,go,,,,,,,,,,,,,,,,,,,,,,,,0,0.514128923416,0.00102806091309,0.384400844574,1,q,837.846306086,,,,,,,,,,,,,,,,,,,,,,,,,,,,,,,,,2015_Jun_24_1125,59.9516876449,LearningTask,1,63,
-200,q,200,,,,,,,,,,,,,,,,,1,0,1,0,21,2,86,1,,,,,,,,,,,,,,,,,,,,,,,,,,,,,q,1,0.350673913956,None,0,4.0,squaremagenta.gif,stop,,,,,,,,,,,,,,,,,,,,,,,,0,0.514833927155,0.000870943069458,0.350673913956,1,q,840.850044012,,,,,,,,,,,,,,,,,,,,,,,,,,,,,,,,,2015_Jun_24_1125,59.9516876449,LearningTask,1,63,
200,w,200,,,,,,,,,,,,,,,,,1,0,1,0,21,3,87,0,,,,,,,,,,,,,,,,,,,,,,,,,,,,,w,1,0.400536060333,None,0,0.5,hexagongray.gif,stop,,,,,,,,,,,,,,,,,,,,,,,,0,0.514485120773,0.000883102416992,0.400536060333,1,w,843.85335803,,,,,,,,,,,,,,,,,,,,,,,,,,,,,,,,,2015_Jun_24_1125,59.9516876449,LearningTask,1,63,
-200,q,200,,,,,,,,,,,,,,,,,1,0,1,0,22,0,88,1,,,,,,,,,,,,,,,,,,,,,,,,,,,,,q,1,0.417407035828,None,0,4.0,squaremagenta.gif,stop,,,,,,,,,,,,,,,,,,,,,,,,0,0.514268159866,0.00103807449341,0.417407035828,1,q,846.856509924,,,,,,,,,,,,,,,,,,,,,,,,,,,,,,,,,2015_Jun_24_1125,59.9516876449,LearningTask,1,63,
-200,a,-200,,,,,,,,,,,,,,,,,1,0,1,0,22,1,89,3,,,,,,,,,,,,,,,,,,,,,,,,,,,,,a,1,0.450643062592,None,0,4.0,lineorange.gif,go,,,,,,,,,,,,,,,,,,,,,,,,3.92,0.514896154404,0.000872135162354,0.450643062592,1,a,849.860069036,,,,,,,,,,,,,,,,,,,,,,,,,,,,,,,,,2015_Jun_24_1125,59.9516876449,LearningTask,1,63,
-200,q,200,,,,,,,,,,,,,,,,,1,0,1,0,22,2,90,1,,,,,,,,,,,,,,,,,,,,,,,,,,,,,q,1,0.434544086456,None,0,0.5,hexagongray.gif,stop,,,,,,,,,,,,,,,,,,,,,,,,0.57,0.514609098434,0.000888109207153,0.434544086456,1,q,852.863440037,,,,,,,,,,,,,,,,,,,,,,,,,,,,,,,,,2015_Jun_24_1125,59.9516876449,LearningTask,1,63,
-200,q,200,,,,,,,,,,,,,,,,,1,0,1,0,22,3,91,1,,,,,,,,,,,,,,,,,,,,,,,,,,,,,q,1,0.368241071701,None,0,0.5,hexagongray.gif,stop,,,,,,,,,,,,,,,,,,,,,,,,0,0.513669013977,0.00104403495789,0.368241071701,1,q,855.866780996,,,,,,,,,,,,,,,,,,,,,,,,,,,,,,,,,2015_Jun_24_1125,59.9516876449,LearningTask,1,63,
-200,q,200,,,,,,,,,,,,,,,,,1,0,1,0,23,0,92,1,,,,,,,,,,,,,,,,,,,,,,,,,,,,,q,1,0.367435932159,None,0,1.0,trianglegreen.gif,stop,,,,,,,,,,,,,,,,,,,,,,,,0.86,0.514414072037,0.000879049301147,0.367435932159,1,q,858.870132923,,,,,,,,,,,,,,,,,,,,,,,,,,,,,,,,,2015_Jun_24_1125,59.9516876449,LearningTask,1,63,
-200,a,-200,,,,,,,,,,,,,,,,,1,0,1,0,23,1,93,3,,,,,,,,,,,,,,,,,,,,,,,,,,,,,a,1,0.36790895462,None,0,2.0,invertedtriangleyellow.gif,stop,,,,,,,,,,,,,,,,,,,,,,,,2.24,0.51429605484,0.000877141952515,0.36790895462,1,a,861.873445034,,,,,,,,,,,,,,,,,,,,,,,,,,,,,,,,,2015_Jun_24_1125,59.9516876449,LearningTask,1,63,
-200,a,-200,,,,,,,,,,,,,,,,,1,0,1,0,23,2,94,3,,,,,,,,,,,,,,,,,,,,,,,,,,,,,a,1,0.384546995163,None,0,4.0,lineorange.gif,go,,,,,,,,,,,,,,,,,,,,,,,,4.23,0.514173030853,0.000916004180908,0.384546995163,1,a,864.876836061,,,,,,,,,,,,,,,,,,,,,,,,,,,,,,,,,2015_Jun_24_1125,59.9516876449,LearningTask,1,63,
200,w,200,,,,,,,,,,,,,,,,,1,0,1,0,23,3,95,0,,,,,,,,,,,,,,,,,,,,,,,,,,,,,w,1,0.368002176285,None,0,0.5,diamondwhite.gif,go,,,,,,,,,,,,,,,,,,,,,,,,0,0.514429092407,0.000874996185303,0.368002176285,1,w,867.880240917,,,,,,,,,,,,,,,,,,,,,,,,,,,,,,,,,2015_Jun_24_1125,59.9516876449,LearningTask,1,63,
200,s,-200,,,,,,,,,,,,,,,,,1,0,1,0,24,0,96,2,,,,,,,,,,,,,,,,,,,,,,,,,,,,,s,1,0.417490005493,None,0,1.0,crossblue.gif,go,,,,,,,,,,,,,,,,,,,,,,,,0.81,0.514657020569,0.000880002975464,0.417490005493,1,s,870.883846998,,,,,,,,,,,,,,,,,,,,,,,,,,,,,,,,,2015_Jun_24_1125,59.9516876449,LearningTask,1,63,
-200,a,-200,,,,,,,,,,,,,,,,,1,0,1,0,24,1,97,3,,,,,,,,,,,,,,,,,,,,,,,,,,,,,a,1,0.36795091629,None,0,0.5,diamondwhite.gif,go,,,,,,,,,,,,,,,,,,,,,,,,0.57,0.513911962509,0.00117897987366,0.36795091629,1,a,873.887096882,,,,,,,,,,,,,,,,,,,,,,,,,,,,,,,,,2015_Jun_24_1125,59.9516876449,LearningTask,1,63,
200,s,-200,,,,,,,,,,,,,,,,,1,0,1,0,24,2,98,2,,,,,,,,,,,,,,,,,,,,,,,,,,,,,s,1,0.417312145233,None,0,4.0,lineorange.gif,go,,,,,,,,,,,,,,,,,,,,,,,,3.88,0.514622926712,0.000875949859619,0.417312145233,1,s,876.890300035,,,,,,,,,,,,,,,,,,,,,,,,,,,,,,,,,2015_Jun_24_1125,59.9516876449,LearningTask,1,63,
-200,a,-200,,,,,,,,,,,,,,,,,1,0,1,0,24,3,99,3,,,,,,,,,,,,,,,,,,,,,,,,,,,,,a,1,0.467858791351,None,0,4.0,lineorange.gif,go,,,,,,,,,,,,,,,,,,,,,,,,3.93,0.51450586319,0.000874042510986,0.467858791351,1,a,879.893961906,,,,,,,,,,,,,,,,,,,,,,,,,,,,,,,,,2015_Jun_24_1125,59.9516876449,LearningTask,1,63,
,,,,,,,,,,,,,,,,,,,1,0,1,0,,,,,,,,,,,,,,,,,,,,,,,,,,,,,,,,,,,,,,,,,,,,,,,,,,,,,,,,,,,,,,,,,,,,,,,9,13.5522711277,,,,,,,,,,,,,,,,,,,,,,,,,,,,,,,2015_Jun_24_1125,59.9516876449,LearningTask,1,63,
-200,q,200,,,,,,,,,,,,,,,,,2,0,2,0,0,0,0,1,,,,,,,,,,,,,,,,,,,,,,,,,,,,,q,1,0.418349027634,None,0,2.0,invertedtriangleyellow.gif,stop,,,,,,,,,,,,,,,,,,,,,,,,2.17,0.508744001389,0.00107383728027,0.418349027634,1,q,897.030906916,,,,,,,,,,,,,,,,,,,,,,,,,,,,,,,,,2015_Jun_24_1125,59.9516876449,LearningTask,1,63,
200,s,-200,,,,,,,,,,,,,,,,,2,0,2,0,0,1,1,2,,,,,,,,,,,,,,,,,,,,,,,,,,,,,s,1,0.351333856583,None,0,2.0,circlecyan.gif,go,,,,,,,,,,,,,,,,,,,,,,,,2.12,0.513037919998,0.00088906288147,0.351333856583,1,s,900.033250093,,,,,,,,,,,,,,,,,,,,,,,,,,,,,,,,,2015_Jun_24_1125,59.9516876449,LearningTask,1,63,
-200,q,200,,,,,,,,,,,,,,,,,2,0,2,0,0,2,2,1,,,,,,,,,,,,,,,,,,,,,,,,,,,,,q,1,0.334319114685,None,0,0.5,hexagongray.gif,stop,,,,,,,,,,,,,,,,,,,,,,,,0.43,0.513940811157,0.000919818878174,0.334319114685,1,q,903.036309004,,,,,,,,,,,,,,,,,,,,,,,,,,,,,,,,,2015_Jun_24_1125,59.9516876449,LearningTask,1,63,
-200,a,-200,,,,,,,,,,,,,,,,,2,0,2,0,0,3,3,3,,,,,,,,,,,,,,,,,,,,,,,,,,,,,a,1,0.417826890945,None,0,4.0,lineorange.gif,go,,,,,,,,,,,,,,,,,,,,,,,,4.11,0.514382123947,0.00088095664978,0.417826890945,1,a,906.040040016,,,,,,,,,,,,,,,,,,,,,,,,,,,,,,,,,2015_Jun_24_1125,59.9516876449,LearningTask,1,63,
-200,q,200,,,,,,,,,,,,,,,,,2,0,2,0,1,0,4,1,,,,,,,,,,,,,,,,,,,,,,,,,,,,,q,1,0.384533882141,None,0,0.5,hexagongray.gif,stop,,,,,,,,,,,,,,,,,,,,,,,,0.38,0.514219999313,0.000885009765625,0.384533882141,1,q,909.043341875,,,,,,,,,,,,,,,,,,,,,,,,,,,,,,,,,2015_Jun_24_1125,59.9516876449,LearningTask,1,63,
-200,q,200,,,,,,,,,,,,,,,,,2,0,2,0,1,1,5,1,,,,,,,,,,,,,,,,,,,,,,,,,,,,,q,1,0.351361989975,None,0,4.0,squaremagenta.gif,stop,,,,,,,,,,,,,,,,,,,,,,,,3.81,0.514172077179,0.000931978225708,0.351361989975,1,q,912.046474934,,,,,,,,,,,,,,,,,,,,,,,,,,,,,,,,,2015_Jun_24_1125,59.9516876449,LearningTask,1,63,
-200,q,200,,,,,,,,,,,,,,,,,2,0,2,0,1,2,6,1,,,,,,,,,,,,,,,,,,,,,,,,,,,,,q,1,0.350972890854,None,0,2.0,circlecyan.gif,go,,,,,,,,,,,,,,,,,,,,,,,,1.87,0.51461315155,0.000880002975464,0.350972890854,1,q,915.050092936,,,,,,,,,,,,,,,,,,,,,,,,,,,,,,,,,2015_Jun_24_1125,59.9516876449,LearningTask,1,63,
-200,q,200,,,,,,,,,,,,,,,,,2,0,2,0,1,3,7,1,,,,,,,,,,,,,,,,,,,,,,,,,,,,,q,1,0.384253978729,None,0,0.5,hexagongray.gif,stop,,,,,,,,,,,,,,,,,,,,,,,,0.3,0.514248132706,0.000885009765625,0.384253978729,1,q,918.053606987,,,,,,,,,,,,,,,,,,,,,,,,,,,,,,,,,2015_Jun_24_1125,59.9516876449,LearningTask,1,63,
200,s,-200,,,,,,,,,,,,,,,,,2,0,2,0,2,0,8,2,,,,,,,,,,,,,,,,,,,,,,,,,,,,,s,1,0.384422063828,None,0,1.0,trianglegreen.gif,stop,,,,,,,,,,,,,,,,,,,,,,,,0,0.513617992401,0.00111508369446,0.384422063828,1,s,921.05686307,,,,,,,,,,,,,,,,,,,,,,,,,,,,,,,,,2015_Jun_24_1125,59.9516876449,LearningTask,1,63,
-200,a,-200,,,,,,,,,,,,,,,,,2,0,2,0,2,1,9,3,,,,,,,,,,,,,,,,,,,,,,,,,,,,,a,1,0.367640972137,None,0,4.0,squaremagenta.gif,stop,,,,,,,,,,,,,,,,,,,,,,,,0,0.514427900314,0.00086498260498,0.367640972137,1,a,924.060138941,,,,,,,,,,,,,,,,,,,,,,,,,,,,,,,,,2015_Jun_24_1125,59.9516876449,LearningTask,1,63,
200,w,200,,,,,,,,,,,,,,,,,2,0,2,0,2,2,10,0,,,,,,,,,,,,,,,,,,,,,,,,,,,,,w,1,0.367496013641,None,0,1.0,crossblue.gif,go,,,,,,,,,,,,,,,,,,,,,,,,0.9,0.514415979385,0.000881910324097,0.367496013641,1,w,927.063441992,,,,,,,,,,,,,,,,,,,,,,,,,,,,,,,,,2015_Jun_24_1125,59.9516876449,LearningTask,1,63,
-200,a,-200,,,,,,,,,,,,,,,,,2,0,2,0,2,3,11,3,,,,,,,,,,,,,,,,,,,,,,,,,,,,,a,1,0.334438085556,None,0,4.0,squaremagenta.gif,stop,,,,,,,,,,,,,,,,,,,,,,,,4.19,0.514242172241,0.000903129577637,0.334438085556,1,a,930.066926003,,,,,,,,,,,,,,,,,,,,,,,,,,,,,,,,,2015_Jun_24_1125,59.9516876449,LearningTask,1,63,
200,s,-200,,,,,,,,,,,,,,,,,2,0,2,0,3,0,12,2,,,,,,,,,,,,,,,,,,,,,,,,,,,,,s,1,0.350664138794,None,0,1.0,trianglegreen.gif,stop,,,,,,,,,,,,,,,,,,,,,,,,0.91,0.514461040497,0.00087308883667,0.350664138794,1,s,933.070343971,,,,,,,,,,,,,,,,,,,,,,,,,,,,,,,,,2015_Jun_24_1125,59.9516876449,LearningTask,1,63,
-200,q,200,,,,,,,,,,,,,,,,,2,0,2,0,3,1,13,1,,,,,,,,,,,,,,,,,,,,,,,,,,,,,q,1,0.367195129395,None,0,0.5,hexagongray.gif,stop,,,,,,,,,,,,,,,,,,,,,,,,0,0.514477014542,0.000885963439941,0.367195129395,1,q,936.073925972,,,,,,,,,,,,,,,,,,,,,,,,,,,,,,,,,2015_Jun_24_1125,59.9516876449,LearningTask,1,63,
-200,a,-200,,,,,,,,,,,,,,,,,2,0,2,0,3,2,14,3,,,,,,,,,,,,,,,,,,,,,,,,,,,,,a,1,0.400963068008,None,0,1.0,crossblue.gif,go,,,,,,,,,,,,,,,,,,,,,,,,0.93,0.513682126999,0.000874042510986,0.400963068008,1,a,939.077079058,,,,,,,,,,,,,,,,,,,,,,,,,,,,,,,,,2015_Jun_24_1125,59.9516876449,LearningTask,1,63,
-200,q,200,,,,,,,,,,,,,,,,,2,0,2,0,3,3,15,1,,,,,,,,,,,,,,,,,,,,,,,,,,,,,q,1,0.368104934692,None,0,2.0,circlecyan.gif,go,,,,,,,,,,,,,,,,,,,,,,,,0,0.514305114746,0.000871896743774,0.368104934692,1,q,942.080547094,,,,,,,,,,,,,,,,,,,,,,,,,,,,,,,,,2015_Jun_24_1125,59.9516876449,LearningTask,1,63,
-200,q,200,,,,,,,,,,,,,,,,,2,0,2,0,4,0,16,1,,,,,,,,,,,,,,,,,,,,,,,,,,,,,q,1,0.334137916565,None,0,4.0,squaremagenta.gif,stop,,,,,,,,,,,,,,,,,,,,,,,,4.1,0.514182090759,0.000870943069458,0.334137916565,1,q,945.084222078,,,,,,,,,,,,,,,,,,,,,,,,,,,,,,,,,2015_Jun_24_1125,59.9516876449,LearningTask,1,63,
200,s,-200,,,,,,,,,,,,,,,,,2,0,2,0,4,1,17,2,,,,,,,,,,,,,,,,,,,,,,,,,,,,,s,1,0.417541980743,None,0,2.0,invertedtriangleyellow.gif,stop,,,,,,,,,,,,,,,,,,,,,,,,1.89,0.513677835464,0.00092601776123,0.417541980743,1,s,948.087251902,,,,,,,,,,,,,,,,,,,,,,,,,,,,,,,,,2015_Jun_24_1125,59.9516876449,LearningTask,1,63,
-200,a,-200,,,,,,,,,,,,,,,,,2,0,2,0,4,2,18,3,,,,,,,,,,,,,,,,,,,,,,,,,,,,,a,1,0.334290981293,None,0,1.0,crossblue.gif,go,,,,,,,,,,,,,,,,,,,,,,,,0.87,0.514185905457,0.00101399421692,0.334290981293,1,a,951.09077692,,,,,,,,,,,,,,,,,,,,,,,,,,,,,,,,,2015_Jun_24_1125,59.9516876449,LearningTask,1,63,
-200,q,200,,,,,,,,,,,,,,,,,2,0,2,0,4,3,19,1,,,,,,,,,,,,,,,,,,,,,,,,,,,,,q,1,0.367804050446,None,0,4.0,lineorange.gif,go,,,,,,,,,,,,,,,,,,,,,,,,4.06,0.514137029648,0.00087308883667,0.367804050446,1,q,954.094023943,,,,,,,,,,,,,,,,,,,,,,,,,,,,,,,,,2015_Jun_24_1125,59.9516876449,LearningTask,1,63,
-200,a,-200,,,,,,,,,,,,,,,,,2,0,2,0,5,0,20,3,,,,,,,,,,,,,,,,,,,,,,,,,,,,,a,1,0.334743022919,None,0,2.0,invertedtriangleyellow.gif,stop,,,,,,,,,,,,,,,,,,,,,,,,1.85,0.514310836792,0.000878810882568,0.334743022919,1,a,957.097239971,,,,,,,,,,,,,,,,,,,,,,,,,,,,,,,,,2015_Jun_24_1125,59.9516876449,LearningTask,1,63,
-200,a,-200,,,,,,,,,,,,,,,,,2,0,2,0,5,1,21,3,,,,,,,,,,,,,,,,,,,,,,,,,,,,,a,1,0.401005983353,None,0,2.0,invertedtriangleyellow.gif,stop,,,,,,,,,,,,,,,,,,,,,,,,1.97,0.514196157455,0.00109195709229,0.401005983353,1,a,960.101010084,,,,,,,,,,,,,,,,,,,,,,,,,,,,,,,,,2015_Jun_24_1125,59.9516876449,LearningTask,1,63,
-200,q,200,,,,,,,,,,,,,,,,,2,0,2,0,5,2,22,1,,,,,,,,,,,,,,,,,,,,,,,,,,,,,q,1,0.384110927582,None,0,4.0,squaremagenta.gif,stop,,,,,,,,,,,,,,,,,,,,,,,,4.18,0.514015197754,0.00087308883667,0.384110927582,1,q,963.103996992,,,,,,,,,,,,,,,,,,,,,,,,,,,,,,,,,2015_Jun_24_1125,59.9516876449,LearningTask,1,63,
200,s,-200,,,,,,,,,,,,,,,,,2,0,2,0,5,3,23,2,,,,,,,,,,,,,,,,,,,,,,,,,,,,,s,1,0.333751916885,None,0,4.0,squaremagenta.gif,stop,,,,,,,,,,,,,,,,,,,,,,,,0,0.514603853226,0.000866889953613,0.333751916885,1,s,966.107434034,,,,,,,,,,,,,,,,,,,,,,,,,,,,,,,,,2015_Jun_24_1125,59.9516876449,LearningTask,1,63,
-200,q,200,,,,,,,,,,,,,,,,,2,0,2,0,6,0,24,1,,,,,,,,,,,,,,,,,,,,,,,,,,,,,q,1,0.3512570858,None,0,0.5,hexagongray.gif,stop,,,,,,,,,,,,,,,,,,,,,,,,0.48,0.514085054398,0.00106000900269,0.3512570858,1,q,969.110833883,,,,,,,,,,,,,,,,,,,,,,,,,,,,,,,,,2015_Jun_24_1125,59.9516876449,LearningTask,1,63,
200,s,-200,,,,,,,,,,,,,,,,,2,0,2,0,6,1,25,2,,,,,,,,,,,,,,,,,,,,,,,,,,,,,s,1,0.367818832397,None,0,4.0,lineorange.gif,go,,,,,,,,,,,,,,,,,,,,,,,,4.24,0.514573097229,0.000871896743774,0.367818832397,1,s,972.114162922,,,,,,,,,,,,,,,,,,,,,,,,,,,,,,,,,2015_Jun_24_1125,59.9516876449,LearningTask,1,63,
-200,a,-200,,,,,,,,,,,,,,,,,2,0,2,0,6,2,26,3,,,,,,,,,,,,,,,,,,,,,,,,,,,,,a,1,0.40114402771,None,0,4.0,lineorange.gif,go,,,,,,,,,,,,,,,,,,,,,,,,3.91,0.514326095581,0.000869989395142,0.40114402771,1,a,975.117803097,,,,,,,,,,,,,,,,,,,,,,,,,,,,,,,,,2015_Jun_24_1125,59.9516876449,LearningTask,1,63,
200,s,-200,,,,,,,,,,,,,,,,,2,0,2,0,6,3,27,2,,,,,,,,,,,,,,,,,,,,,,,,,,,,,s,1,0.351246118546,None,0,2.0,circlecyan.gif,go,,,,,,,,,,,,,,,,,,,,,,,,1.76,0.513479948044,0.000888109207153,0.351246118546,1,s,978.12085104,,,,,,,,,,,,,,,,,,,,,,,,,,,,,,,,,2015_Jun_24_1125,59.9516876449,LearningTask,1,63,
-200,a,-200,,,,,,,,,,,,,,,,,2,0,2,0,7,0,28,3,,,,,,,,,,,,,,,,,,,,,,,,,,,,,a,1,0.350826025009,None,0,0.5,diamondwhite.gif,go,,,,,,,,,,,,,,,,,,,,,,,,0.52,0.514441013336,0.000885963439941,0.350826025009,1,a,981.124254942,,,,,,,,,,,,,,,,,,,,,,,,,,,,,,,,,2015_Jun_24_1125,59.9516876449,LearningTask,1,63,
-200,q,200,,,,,,,,,,,,,,,,,2,0,2,0,7,1,29,1,,,,,,,,,,,,,,,,,,,,,,,,,,,,,q,1,0.334150075912,None,0,1.0,trianglegreen.gif,stop,,,,,,,,,,,,,,,,,,,,,,,,1.2,0.514469861984,0.000872850418091,0.334150075912,1,q,984.128107071,,,,,,,,,,,,,,,,,,,,,,,,,,,,,,,,,2015_Jun_24_1125,59.9516876449,LearningTask,1,63,
-200,a,-200,,,,,,,,,,,,,,,,,2,0,2,0,7,2,30,3,,,,,,,,,,,,,,,,,,,,,,,,,,,,,a,1,0.351066112518,None,0,0.5,diamondwhite.gif,go,,,,,,,,,,,,,,,,,,,,,,,,0,0.513869047165,0.000891923904419,0.351066112518,1,a,987.131236076,,,,,,,,,,,,,,,,,,,,,,,,,,,,,,,,,2015_Jun_24_1125,59.9516876449,LearningTask,1,63,
-200,a,-200,,,,,,,,,,,,,,,,,2,0,2,0,7,3,31,3,,,,,,,,,,,,,,,,,,,,,,,,,,,,,a,1,0.334255933762,None,0,0.5,diamondwhite.gif,go,,,,,,,,,,,,,,,,,,,,,,,,0.74,0.514027118683,0.00093412399292,0.334255933762,1,a,990.134345055,,,,,,,,,,,,,,,,,,,,,,,,,,,,,,,,,2015_Jun_24_1125,59.9516876449,LearningTask,1,63,
200,s,-200,,,,,,,,,,,,,,,,,2,0,2,0,8,0,32,2,,,,,,,,,,,,,,,,,,,,,,,,,,,,,s,1,0.351269006729,None,0,0.5,diamondwhite.gif,go,,,,,,,,,,,,,,,,,,,,,,,,0.49,0.514452934265,0.00088095664978,0.351269006729,1,s,993.1382339,,,,,,,,,,,,,,,,,,,,,,,,,,,,,,,,,2015_Jun_24_1125,59.9516876449,LearningTask,1,63,
-200,a,-200,,,,,,,,,,,,,,,,,2,0,2,0,8,1,33,3,,,,,,,,,,,,,,,,,,,,,,,,,,,,,a,1,0.400777101517,None,0,1.0,trianglegreen.gif,stop,,,,,,,,,,,,,,,,,,,,,,,,1.08,0.513761043549,0.000905990600586,0.400777101517,1,a,996.140999079,,,,,,,,,,,,,,,,,,,,,,,,,,,,,,,,,2015_Jun_24_1125,59.9516876449,LearningTask,1,63,
200,w,200,,,,,,,,,,,,,,,,,2,0,2,0,8,2,34,0,,,,,,,,,,,,,,,,,,,,,,,,,,,,,w,1,0.334174156189,None,0,1.0,crossblue.gif,go,,,,,,,,,,,,,,,,,,,,,,,,1.01,0.514617919922,0.000906944274902,0.334174156189,1,w,999.144537926,,,,,,,,,,,,,,,,,,,,,,,,,,,,,,,,,2015_Jun_24_1125,59.9516876449,LearningTask,1,63,
200,s,-200,,,,,,,,,,,,,,,,,2,0,2,0,8,3,35,2,,,,,,,,,,,,,,,,,,,,,,,,,,,,,s,1,0.367365121841,None,0,0.5,diamondwhite.gif,go,,,,,,,,,,,,,,,,,,,,,,,,0.74,0.514590978622,0.000874996185303,0.367365121841,1,s,1002.14787197,,,,,,,,,,,,,,,,,,,,,,,,,,,,,,,,,2015_Jun_24_1125,59.9516876449,LearningTask,1,63,
200,s,-200,,,,,,,,,,,,,,,,,2,0,2,0,9,0,36,2,,,,,,,,,,,,,,,,,,,,,,,,,,,,,s,1,0.367331027985,None,0,1.0,crossblue.gif,go,,,,,,,,,,,,,,,,,,,,,,,,0,0.514409065247,0.000880002975464,0.367331027985,1,s,1005.15124488,,,,,,,,,,,,,,,,,,,,,,,,,,,,,,,,,2015_Jun_24_1125,59.9516876449,LearningTask,1,63,
200,w,200,,,,,,,,,,,,,,,,,2,0,2,0,9,1,37,0,,,,,,,,,,,,,,,,,,,,,,,,,,,,,w,1,0.384356021881,None,0,2.0,circlecyan.gif,go,,,,,,,,,,,,,,,,,,,,,,,,1.95,0.514096021652,0.00113201141357,0.384356021881,1,w,1008.15473199,,,,,,,,,,,,,,,,,,,,,,,,,,,,,,,,,2015_Jun_24_1125,59.9516876449,LearningTask,1,63,
-200,a,-200,,,,,,,,,,,,,,,,,2,0,2,0,9,2,38,3,,,,,,,,,,,,,,,,,,,,,,,,,,,,,a,1,0.384088039398,None,0,0.5,diamondwhite.gif,go,,,,,,,,,,,,,,,,,,,,,,,,0.42,0.514484882355,0.00089693069458,0.384088039398,1,a,1011.15809894,,,,,,,,,,,,,,,,,,,,,,,,,,,,,,,,,2015_Jun_24_1125,59.9516876449,LearningTask,1,63,
-200,q,200,,,,,,,,,,,,,,,,,2,0,2,0,9,3,39,1,,,,,,,,,,,,,,,,,,,,,,,,,,,,,q,1,0.367176055908,None,0,0.5,hexagongray.gif,stop,,,,,,,,,,,,,,,,,,,,,,,,0,0.514575004578,0.000883102416992,0.367176055908,1,q,1014.16133904,,,,,,,,,,,,,,,,,,,,,,,,,,,,,,,,,2015_Jun_24_1125,59.9516876449,LearningTask,1,63,
200,w,200,,,,,,,,,,,,,,,,,2,0,2,0,10,0,40,0,,,,,,,,,,,,,,,,,,,,,,,,,,,,,w,1,0.551326990128,None,0,1.0,trianglegreen.gif,stop,,,,,,,,,,,,,,,,,,,,,,,,0,0.514209032059,0.000922918319702,0.551326990128,1,w,1017.16469407,,,,,,,,,,,,,,,,,,,,,,,,,,,,,,,,,2015_Jun_24_1125,59.9516876449,LearningTask,1,63,
-200,q,200,,,,,,,,,,,,,,,,,2,0,2,0,10,1,41,1,,,,,,,,,,,,,,,,,,,,,,,,,,,,,q,1,0.368001937866,None,0,4.0,squaremagenta.gif,stop,,,,,,,,,,,,,,,,,,,,,,,,3.82,0.514445066452,0.000869035720825,0.368001937866,1,q,1020.16825604,,,,,,,,,,,,,,,,,,,,,,,,,,,,,,,,,2015_Jun_24_1125,59.9516876449,LearningTask,1,63,
200,s,-200,,,,,,,,,,,,,,,,,2,0,2,0,10,2,42,2,,,,,,,,,,,,,,,,,,,,,,,,,,,,,s,1,0.40062212944,None,0,4.0,squaremagenta.gif,stop,,,,,,,,,,,,,,,,,,,,,,,,3.88,0.514436006546,0.000875949859619,0.40062212944,1,s,1023.17162991,,,,,,,,,,,,,,,,,,,,,,,,,,,,,,,,,2015_Jun_24_1125,59.9516876449,LearningTask,1,63,
200,w,200,,,,,,,,,,,,,,,,,2,0,2,0,10,3,43,0,,,,,,,,,,,,,,,,,,,,,,,,,,,,,w,1,0.367525815964,None,0,1.0,crossblue.gif,go,,,,,,,,,,,,,,,,,,,,,,,,0.87,0.514036178589,0.000892162322998,0.367525815964,1,w,1026.17499399,,,,,,,,,,,,,,,,,,,,,,,,,,,,,,,,,2015_Jun_24_1125,59.9516876449,LearningTask,1,63,
200,s,-200,,,,,,,,,,,,,,,,,2,0,2,0,11,0,44,2,,,,,,,,,,,,,,,,,,,,,,,,,,,,,s,1,0.350610017776,None,0,4.0,lineorange.gif,go,,,,,,,,,,,,,,,,,,,,,,,,4.16,0.514420032501,0.000875949859619,0.350610017776,1,s,1029.17835593,,,,,,,,,,,,,,,,,,,,,,,,,,,,,,,,,2015_Jun_24_1125,59.9516876449,LearningTask,1,63,
-200,a,-200,,,,,,,,,,,,,,,,,2,0,2,0,11,1,45,3,,,,,,,,,,,,,,,,,,,,,,,,,,,,,a,1,0.350917100906,None,0,2.0,circlecyan.gif,go,,,,,,,,,,,,,,,,,,,,,,,,2.25,0.514186859131,0.000881910324097,0.350917100906,1,a,1032.18254995,,,,,,,,,,,,,,,,,,,,,,,,,,,,,,,,,2015_Jun_24_1125,59.9516876449,LearningTask,1,63,
200,s,-200,,,,,,,,,,,,,,,,,2,0,2,0,11,2,46,2,,,,,,,,,,,,,,,,,,,,,,,,,,,,,s,1,0.350723981857,None,0,4.0,lineorange.gif,go,,,,,,,,,,,,,,,,,,,,,,,,3.9,0.513394117355,0.000888109207153,0.350723981857,1,s,1035.18506598,,,,,,,,,,,,,,,,,,,,,,,,,,,,,,,,,2015_Jun_24_1125,59.9516876449,LearningTask,1,63,
200,w,200,,,,,,,,,,,,,,,,,2,0,2,0,11,3,47,0,,,,,,,,,,,,,,,,,,,,,,,,,,,,,w,1,0.384145021439,None,0,1.0,trianglegreen.gif,stop,,,,,,,,,,,,,,,,,,,,,,,,0.95,0.514570951462,0.000911951065063,0.384145021439,1,w,1038.18856788,,,,,,,,,,,,,,,,,,,,,,,,,,,,,,,,,2015_Jun_24_1125,59.9516876449,LearningTask,1,63,
200,w,200,,,,,,,,,,,,,,,,,2,0,2,0,12,0,48,0,,,,,,,,,,,,,,,,,,,,,,,,,,,,,w,1,0.451008796692,None,0,4.0,squaremagenta.gif,stop,,,,,,,,,,,,,,,,,,,,,,,,4.03,0.514219045639,0.000871896743774,0.451008796692,1,w,1041.19199491,,,,,,,,,,,,,,,,,,,,,,,,,,,,,,,,,2015_Jun_24_1125,59.9516876449,LearningTask,1,63,
200,w,200,,,,,,,,,,,,,,,,,2,0,2,0,12,1,49,0,,,,,,,,,,,,,,,,,,,,,,,,,,,,,w,1,0.384074926376,None,0,0.5,hexagongray.gif,stop,,,,,,,,,,,,,,,,,,,,,,,,0.73,0.514491081238,0.000884056091309,0.384074926376,1,w,1044.19514894,,,,,,,,,,,,,,,,,,,,,,,,,,,,,,,,,2015_Jun_24_1125,59.9516876449,LearningTask,1,63,
200,w,200,,,,,,,,,,,,,,,,,2,0,2,0,12,2,50,0,,,,,,,,,,,,,,,,,,,,,,,,,,,,,w,1,0.3678150177,None,0,4.0,lineorange.gif,go,,,,,,,,,,,,,,,,,,,,,,,,3.92,0.514280080795,0.001060962677,0.3678150177,1,w,1047.19834709,,,,,,,,,,,,,,,,,,,,,,,,,,,,,,,,,2015_Jun_24_1125,59.9516876449,LearningTask,1,63,
-200,q,200,,,,,,,,,,,,,,,,,2,0,2,0,12,3,51,1,,,,,,,,,,,,,,,,,,,,,,,,,,,,,q,1,0.350878000259,None,0,2.0,circlecyan.gif,go,,,,,,,,,,,,,,,,,,,,,,,,1.89,0.514391899109,0.000898838043213,0.350878000259,1,q,1050.20216703,,,,,,,,,,,,,,,,,,,,,,,,,,,,,,,,,2015_Jun_24_1125,59.9516876449,LearningTask,1,63,
200,w,200,,,,,,,,,,,,,,,,,2,0,2,0,13,0,52,0,,,,,,,,,,,,,,,,,,,,,,,,,,,,,w,1,0.400687932968,None,0,1.0,crossblue.gif,go,,,,,,,,,,,,,,,,,,,,,,,,0,0.513918876648,0.000880002975464,0.400687932968,1,w,1053.20530796,,,,,,,,,,,,,,,,,,,,,,,,,,,,,,,,,2015_Jun_24_1125,59.9516876449,LearningTask,1,63,
-200,a,-200,,,,,,,,,,,,,,,,,2,0,2,0,13,1,53,3,,,,,,,,,,,,,,,,,,,,,,,,,,,,,a,1,0.451001882553,None,0,4.0,lineorange.gif,go,,,,,,,,,,,,,,,,,,,,,,,,0,0.514282941818,0.00103878974915,0.350671052933,0,q,1056.20878792,,,0.212410926819,4.02,0.515485048294,0.000949859619141,0.451001882553,1,a,1059.212363,,,,,,,,,,,,,,,,,,,,,,,2015_Jun_24_1125,59.9516876449,LearningTask,1,63,
200,s,-200,,,,,,,,,,,,,,,,,2,0,2,0,13,2,54,2,,,,,,,,,,,,,,,,,,,,,,,,,,,,,s,1,0.3342628479,None,0,2.0,invertedtriangleyellow.gif,stop,,,,,,,,,,,,,,,,,,,,,,,,2.06,0.513995170593,0.000885009765625,0.3342628479,1,s,1062.2158289,,,,,,,,,,,,,,,,,,,,,,,,,,,,,,,,,2015_Jun_24_1125,59.9516876449,LearningTask,1,63,
200,w,200,,,,,,,,,,,,,,,,,2,0,2,0,13,3,55,0,,,,,,,,,,,,,,,,,,,,,,,,,,,,,w,1,0.451346874237,None,0,0.5,diamondwhite.gif,go,,,,,,,,,,,,,,,,,,,,,,,,0,0.513498067856,0.000925064086914,0.451346874237,1,w,1065.21884203,,,,,,,,,,,,,,,,,,,,,,,,,,,,,,,,,2015_Jun_24_1125,59.9516876449,LearningTask,1,63,
200,s,-200,,,,,,,,,,,,,,,,,2,0,2,0,14,0,56,2,,,,,,,,,,,,,,,,,,,,,,,,,,,,,s,1,0.350679159164,None,0,1.0,crossblue.gif,go,,,,,,,,,,,,,,,,,,,,,,,,0.95,0.514436006546,0.000875949859619,0.350679159164,1,s,1068.22230005,,,,,,,,,,,,,,,,,,,,,,,,,,,,,,,,,2015_Jun_24_1125,59.9516876449,LearningTask,1,63,
200,s,-200,,,,,,,,,,,,,,,,,2,0,2,0,14,1,57,2,,,,,,,,,,,,,,,,,,,,,,,,,,,,,s,1,0.383765935898,None,0,2.0,invertedtriangleyellow.gif,stop,,,,,,,,,,,,,,,,,,,,,,,,2.01,0.514513969421,0.000870943069458,0.383765935898,1,s,1071.22585487,,,,,,,,,,,,,,,,,,,,,,,,,,,,,,,,,2015_Jun_24_1125,59.9516876449,LearningTask,1,63,
-200,q,200,,,,,,,,,,,,,,,,,2,0,2,0,14,2,58,1,,,,,,,,,,,,,,,,,,,,,,,,,,,,,q,1,0.400985002518,None,0,4.0,squaremagenta.gif,stop,,,,,,,,,,,,,,,,,,,,,,,,3.9,0.513867855072,0.000885963439941,0.400985002518,1,q,1074.22894788,,,,,,,,,,,,,,,,,,,,,,,,,,,,,,,,,2015_Jun_24_1125,59.9516876449,LearningTask,1,63,
200,s,-200,,,,,,,,,,,,,,,,,2,0,2,0,14,3,59,2,,,,,,,,,,,,,,,,,,,,,,,,,,,,,s,1,0.400938034058,None,0,4.0,lineorange.gif,go,,,,,,,,,,,,,,,,,,,,,,,,3.86,0.514347076416,0.000877141952515,0.400938034058,1,s,1077.23229098,,,,,,,,,,,,,,,,,,,,,,,,,,,,,,,,,2015_Jun_24_1125,59.9516876449,LearningTask,1,63,
200,s,-200,,,,,,,,,,,,,,,,,2,0,2,0,15,0,60,2,,,,,,,,,,,,,,,,,,,,,,,,,,,,,s,1,0.550832033157,None,0,0.5,hexagongray.gif,stop,,,,,,,,,,,,,,,,,,,,,,,,0.62,0.51474404335,0.000885963439941,0.550832033157,1,s,1080.2361939,,,,,,,,,,,,,,,,,,,,,,,,,,,,,,,,,2015_Jun_24_1125,59.9516876449,LearningTask,1,63,
-200,q,200,,,,,,,,,,,,,,,,,2,0,2,0,15,1,61,1,,,,,,,,,,,,,,,,,,,,,,,,,,,,,q,1,0.43418097496,None,0,2.0,circlecyan.gif,go,,,,,,,,,,,,,,,,,,,,,,,,1.98,0.513738155365,0.000926971435547,0.43418097496,1,q,1083.23923397,,,,,,,,,,,,,,,,,,,,,,,,,,,,,,,,,2015_Jun_24_1125,59.9516876449,LearningTask,1,63,
-200,a,-200,,,,,,,,,,,,,,,,,2,0,2,0,15,2,62,3,,,,,,,,,,,,,,,,,,,,,,,,,,,,,a,1,0.484085083008,None,0,0.5,hexagongray.gif,stop,,,,,,,,,,,,,,,,,,,,,,,,0.44,0.514302015305,0.000958919525146,0.484085083008,1,a,1086.24244499,,,,,,,,,,,,,,,,,,,,,,,,,,,,,,,,,2015_Jun_24_1125,59.9516876449,LearningTask,1,63,
-200,q,200,,,,,,,,,,,,,,,,,2,0,2,0,15,3,63,1,,,,,,,,,,,,,,,,,,,,,,,,,,,,,q,1,0.400832891464,None,0,2.0,invertedtriangleyellow.gif,stop,,,,,,,,,,,,,,,,,,,,,,,,1.8,0.514268159866,0.000874996185303,0.400832891464,1,q,1089.24598503,,,,,,,,,,,,,,,,,,,,,,,,,,,,,,,,,2015_Jun_24_1125,59.9516876449,LearningTask,1,63,
200,w,200,,,,,,,,,,,,,,,,,2,0,2,0,16,0,64,0,,,,,,,,,,,,,,,,,,,,,,,,,,,,,w,1,0.36736702919,None,0,2.0,invertedtriangleyellow.gif,stop,,,,,,,,,,,,,,,,,,,,,,,,1.76,0.514270067215,0.000880002975464,0.36736702919,1,w,1092.24909306,,,,,,,,,,,,,,,,,,,,,,,,,,,,,,,,,2015_Jun_24_1125,59.9516876449,LearningTask,1,63,
200,w,200,,,,,,,,,,,,,,,,,2,0,2,0,16,1,65,0,,,,,,,,,,,,,,,,,,,,,,,,,,,,,w,1,0.367672920227,None,0,2.0,circlecyan.gif,go,,,,,,,,,,,,,,,,,,,,,,,,0,0.514235019684,0.000972032546997,0.367672920227,1,w,1095.25267291,,,,,,,,,,,,,,,,,,,,,,,,,,,,,,,,,2015_Jun_24_1125,59.9516876449,LearningTask,1,63,
-200,q,200,,,,,,,,,,,,,,,,,2,0,2,0,16,2,66,1,,,,,,,,,,,,,,,,,,,,,,,,,,,,,q,1,0.334462881088,None,0,2.0,invertedtriangleyellow.gif,stop,,,,,,,,,,,,,,,,,,,,,,,,0,0.514521121979,0.000877141952515,0.451205968857,0,a,1098.25595999,,,,2.1,0.515599012375,0.00094199180603,0.334462881088,1,q,1101.25928402,,,,,,,,,,,,,,,,,,,,,,,2015_Jun_24_1125,59.9516876449,LearningTask,1,63,
-200,a,-200,,,,,,,,,,,,,,,,,2,0,2,0,16,3,67,3,,,,,,,,,,,,,,,,,,,,,,,,,,,,,a,1,0.517892837524,None,0,2.0,circlecyan.gif,go,,,,,,,,,,,,,,,,,,,,,,,,2.23,0.513820886612,0.000969886779785,0.517892837524,1,a,1104.26260996,,,,,,,,,,,,,,,,,,,,,,,,,,,,,,,,,2015_Jun_24_1125,59.9516876449,LearningTask,1,63,
200,w,200,,,,,,,,,,,,,,,,,2,0,2,0,17,0,68,0,,,,,,,,,,,,,,,,,,,,,,,,,,,,,w,1,0.450850009918,None,0,1.0,trianglegreen.gif,stop,,,,,,,,,,,,,,,,,,,,,,,,0,0.514606952667,0.000880002975464,0.450850009918,1,w,1107.26603603,,,,,,,,,,,,,,,,,,,,,,,,,,,,,,,,,2015_Jun_24_1125,59.9516876449,LearningTask,1,63,
200,s,-200,,,,,,,,,,,,,,,,,2,0,2,0,17,1,69,2,,,,,,,,,,,,,,,,,,,,,,,,,,,,,s,1,0.417737960815,None,0,4.0,lineorange.gif,go,,,,,,,,,,,,,,,,,,,,,,,,0,0.514375925064,0.000869989395142,0.417737960815,1,s,1110.26968908,,,,,,,,,,,,,,,,,,,,,,,,,,,,,,,,,2015_Jun_24_1125,59.9516876449,LearningTask,1,63,
-200,a,-200,,,,,,,,,,,,,,,,,2,0,2,0,17,2,70,3,,,,,,,,,,,,,,,,,,,,,,,,,,,,,a,1,0.500852108002,None,0,4.0,squaremagenta.gif,stop,,,,,,,,,,,,,,,,,,,,,,,,0,0.514034032822,0.00106000900269,0.500852108002,1,a,1113.27285004,,,,,,,,,,,,,,,,,,,,,,,,,,,,,,,,,2015_Jun_24_1125,59.9516876449,LearningTask,1,63,
200,s,-200,,,,,,,,,,,,,,,,,2,0,2,0,17,3,71,2,,,,,,,,,,,,,,,,,,,,,,,,,,,,,s,1,0.517660856247,None,0,1.0,crossblue.gif,go,,,,,,,,,,,,,,,,,,,,,,,,0.8,0.51442193985,0.000874042510986,0.517660856247,1,s,1116.27628303,,,,,,,,,,,,,,,,,,,,,,,,,,,,,,,,,2015_Jun_24_1125,59.9516876449,LearningTask,1,63,
-200,a,-200,,,,,,,,,,,,,,,,,2,0,2,0,18,0,72,3,,,,,,,,,,,,,,,,,,,,,,,,,,,,,a,1,0.400683879852,None,0,2.0,invertedtriangleyellow.gif,stop,,,,,,,,,,,,,,,,,,,,,,,,1.76,0.514409065247,0.000875949859619,0.400683879852,1,a,1119.279845,,,,,,,,,,,,,,,,,,,,,,,,,,,,,,,,,2015_Jun_24_1125,59.9516876449,LearningTask,1,63,
200,s,-200,,,,,,,,,,,,,,,,,2,0,2,0,18,1,73,2,,,,,,,,,,,,,,,,,,,,,,,,,,,,,s,1,0.400700092316,None,0,1.0,trianglegreen.gif,stop,,,,,,,,,,,,,,,,,,,,,,,,0.75,0.514145851135,0.00091290473938,0.400700092316,1,s,1122.28300595,,,,,,,,,,,,,,,,,,,,,,,,,,,,,,,,,2015_Jun_24_1125,59.9516876449,LearningTask,1,63,
200,w,200,,,,,,,,,,,,,,,,,2,0,2,0,18,2,74,0,,,,,,,,,,,,,,,,,,,,,,,,,,,,,w,1,0.417388916016,None,0,0.5,diamondwhite.gif,go,,,,,,,,,,,,,,,,,,,,,,,,0.38,0.514250040054,0.000982046127319,0.417388916016,1,w,1125.28699803,,,,,,,,,,,,,,,,,,,,,,,,,,,,,,,,,2015_Jun_24_1125,59.9516876449,LearningTask,1,63,
-200,a,-200,,,,,,,,,,,,,,,,,2,0,2,0,18,3,75,3,,,,,,,,,,,,,,,,,,,,,,,,,,,,,a,1,0.367596149445,None,0,1.0,trianglegreen.gif,stop,,,,,,,,,,,,,,,,,,,,,,,,1.2,0.513822078705,0.000880002975464,0.367596149445,1,a,1128.28986406,,,,,,,,,,,,,,,,,,,,,,,,,,,,,,,,,2015_Jun_24_1125,59.9516876449,LearningTask,1,63,
200,w,200,,,,,,,,,,,,,,,,,2,0,2,0,19,0,76,0,,,,,,,,,,,,,,,,,,,,,,,,,,,,,w,1,0.434025764465,None,0,4.0,squaremagenta.gif,stop,,,,,,,,,,,,,,,,,,,,,,,,4.02,0.513984918594,0.000883102416992,0.434025764465,1,w,1131.29320097,,,,,,,,,,,,,,,,,,,,,,,,,,,,,,,,,2015_Jun_24_1125,59.9516876449,LearningTask,1,63,
200,w,200,,,,,,,,,,,,,,,,,2,0,2,0,19,1,77,0,,,,,,,,,,,,,,,,,,,,,,,,,,,,,w,1,0.368016004562,None,0,4.0,squaremagenta.gif,stop,,,,,,,,,,,,,,,,,,,,,,,,0,0.514056921005,0.000965118408203,0.417599201202,0,s,1134.29654002,,,0.211684942245,4.04,0.515448093414,0.000933170318604,0.368016004562,1,w,1137.30021906,,,,,,,,,,,,,,,,,,,,,,,2015_Jun_24_1125,59.9516876449,LearningTask,1,63,
-200,a,-200,,,,,,,,,,,,,,,,,2,0,2,0,19,2,78,3,,,,,,,,,,,,,,,,,,,,,,,,,,,,,a,1,0.451168060303,None,0,0.5,hexagongray.gif,stop,,,,,,,,,,,,,,,,,,,,,,,,0.71,0.51390004158,0.000921964645386,0.451168060303,1,a,1140.30355501,,,,,,,,,,,,,,,,,,,,,,,,,,,,,,,,,2015_Jun_24_1125,59.9516876449,LearningTask,1,63,
-200,a,-200,,,,,,,,,,,,,,,,,2,0,2,0,19,3,79,3,,,,,,,,,,,,,,,,,,,,,,,,,,,,,a,1,0.434293985367,None,0,4.0,squaremagenta.gif,stop,,,,,,,,,,,,,,,,,,,,,,,,3.75,0.514406919479,0.000864028930664,0.434293985367,1,a,1143.30670404,,,,,,,,,,,,,,,,,,,,,,,,,,,,,,,,,2015_Jun_24_1125,59.9516876449,LearningTask,1,63,
-200,q,200,,,,,,,,,,,,,,,,,2,0,2,0,20,0,80,1,,,,,,,,,,,,,,,,,,,,,,,,,,,,,q,1,0.484791994095,None,0,0.5,hexagongray.gif,stop,,,,,,,,,,,,,,,,,,,,,,,,0,0.514008045197,0.000962018966675,0.484791994095,1,q,1146.31012392,,,,,,,,,,,,,,,,,,,,,,,,,,,,,,,,,2015_Jun_24_1125,59.9516876449,LearningTask,1,63,
200,w,200,,,,,,,,,,,,,,,,,2,0,2,0,20,1,81,0,,,,,,,,,,,,,,,,,,,,,,,,,,,,,w,1,0.517838001251,None,0,0.5,hexagongray.gif,stop,,,,,,,,,,,,,,,,,,,,,,,,0.53,0.514211893082,0.000952959060669,0.517838001251,1,w,1149.31328297,,,,,,,,,,,,,,,,,,,,,,,,,,,,,,,,,2015_Jun_24_1125,59.9516876449,LearningTask,1,63,
200,s,-200,,,,,,,,,,,,,,,,,2,0,2,0,20,2,82,2,,,,,,,,,,,,,,,,,,,,,,,,,,,,,s,1,0.434344053268,None,0,0.5,diamondwhite.gif,go,,,,,,,,,,,,,,,,,,,,,,,,0,0.514317989349,0.000881910324097,0.434344053268,1,s,1152.31655288,,,,,,,,,,,,,,,,,,,,,,,,,,,,,,,,,2015_Jun_24_1125,59.9516876449,LearningTask,1,63,
200,s,-200,,,,,,,,,,,,,,,,,2,0,2,0,20,3,83,2,,,,,,,,,,,,,,,,,,,,,,,,,,,,,s,1,0.450834035873,None,0,2.0,circlecyan.gif,go,,,,,,,,,,,,,,,,,,,,,,,,1.86,0.514414072037,0.000882148742676,0.450834035873,1,s,1155.32012987,,,,,,,,,,,,,,,,,,,,,,,,,,,,,,,,,2015_Jun_24_1125,59.9516876449,LearningTask,1,63,
-200,a,-200,,,,,,,,,,,,,,,,,2,0,2,0,21,0,84,3,,,,,,,,,,,,,,,,,,,,,,,,,,,,,a,1,0.517549037933,None,0,0.5,hexagongray.gif,stop,,,,,,,,,,,,,,,,,,,,,,,,0,0.514529943466,0.000885009765625,0.517549037933,1,a,1158.32361197,,,,,,,,,,,,,,,,,,,,,,,,,,,,,,,,,2015_Jun_24_1125,59.9516876449,LearningTask,1,63,
-200,q,200,,,,,,,,,,,,,,,,,2,0,2,0,21,1,85,1,,,,,,,,,,,,,,,,,,,,,,,,,,,,,q,1,0.467478990555,None,0,2.0,circlecyan.gif,go,,,,,,,,,,,,,,,,,,,,,,,,1.94,0.514100074768,0.00111794471741,0.467478990555,1,q,1161.32687593,,,,,,,,,,,,,,,,,,,,,,,,,,,,,,,,,2015_Jun_24_1125,59.9516876449,LearningTask,1,63,
-200,q,200,,,,,,,,,,,,,,,,,2,0,2,0,21,2,86,1,,,,,,,,,,,,,,,,,,,,,,,,,,,,,q,1,0.46787405014,None,0,4.0,squaremagenta.gif,stop,,,,,,,,,,,,,,,,,,,,,,,,0,0.514359951019,0.000863790512085,0.46787405014,1,q,1164.33009696,,,,,,,,,,,,,,,,,,,,,,,,,,,,,,,,,2015_Jun_24_1125,59.9516876449,LearningTask,1,63,
200,w,200,,,,,,,,,,,,,,,,,2,0,2,0,21,3,87,0,,,,,,,,,,,,,,,,,,,,,,,,,,,,,w,1,0.417540073395,None,0,4.0,lineorange.gif,go,,,,,,,,,,,,,,,,,,,,,,,,4.0,0.514355897903,0.000866889953613,0.417540073395,1,w,1167.33357191,,,,,,,,,,,,,,,,,,,,,,,,,,,,,,,,,2015_Jun_24_1125,59.9516876449,LearningTask,1,63,
200,w,200,,,,,,,,,,,,,,,,,2,0,2,0,22,0,88,0,,,,,,,,,,,,,,,,,,,,,,,,,,,,,w,1,0.451020002365,None,0,2.0,circlecyan.gif,go,,,,,,,,,,,,,,,,,,,,,,,,2.13,0.513989925385,0.000916957855225,0.451020002365,1,w,1170.3370049,,,,,,,,,,,,,,,,,,,,,,,,,,,,,,,,,2015_Jun_24_1125,59.9516876449,LearningTask,1,63,
-200,a,-200,,,,,,,,,,,,,,,,,2,0,2,0,22,1,89,3,,,,,,,,,,,,,,,,,,,,,,,,,,,,,a,1,0.41784119606,None,0,2.0,invertedtriangleyellow.gif,stop,,,,,,,,,,,,,,,,,,,,,,,,1.97,0.514216899872,0.00095796585083,0.41784119606,1,a,1173.34052396,,,,,,,,,,,,,,,,,,,,,,,,,,,,,,,,,2015_Jun_24_1125,59.9516876449,LearningTask,1,63,
200,w,200,,,,,,,,,,,,,,,,,2,0,2,0,22,2,90,0,,,,,,,,,,,,,,,,,,,,,,,,,,,,,w,1,0.401427984238,None,0,0.5,diamondwhite.gif,go,,,,,,,,,,,,,,,,,,,,,,,,0.34,0.514109134674,0.000893115997314,0.401427984238,1,w,1176.34376502,,,,,,,,,,,,,,,,,,,,,,,,,,,,,,,,,2015_Jun_24_1125,59.9516876449,LearningTask,1,63,
-200,q,200,,,,,,,,,,,,,,,,,2,0,2,0,22,3,91,1,,,,,,,,,,,,,,,,,,,,,,,,,,,,,q,1,0.400780916214,None,0,1.0,trianglegreen.gif,stop,,,,,,,,,,,,,,,,,,,,,,,,1.22,0.514048099518,0.000895977020264,0.400780916214,1,q,1179.34709501,,,,,,,,,,,,,,,,,,,,,,,,,,,,,,,,,2015_Jun_24_1125,59.9516876449,LearningTask,1,63,
200,s,-200,,,,,,,,,,,,,,,,,2,0,2,0,23,0,92,2,,,,,,,,,,,,,,,,,,,,,,,,,,,,,s,1,0.400940179825,None,0,0.5,hexagongray.gif,stop,,,,,,,,,,,,,,,,,,,,,,,,0.47,0.514351129532,0.000952005386353,0.400940179825,1,s,1182.35054302,,,,,,,,,,,,,,,,,,,,,,,,,,,,,,,,,2015_Jun_24_1125,59.9516876449,LearningTask,1,63,
-200,q,200,,,,,,,,,,,,,,,,,2,0,2,0,23,1,93,1,,,,,,,,,,,,,,,,,,,,,,,,,,,,,q,1,0.434355974197,None,0,4.0,lineorange.gif,go,,,,,,,,,,,,,,,,,,,,,,,,0,0.514457941055,0.000875949859619,0.434355974197,1,q,1185.3545351,,,,,,,,,,,,,,,,,,,,,,,,,,,,,,,,,2015_Jun_24_1125,59.9516876449,LearningTask,1,63,
-200,a,-200,,,,,,,,,,,,,,,,,2,0,2,0,23,2,94,3,,,,,,,,,,,,,,,,,,,,,,,,,,,,,a,1,0.401438951492,None,0,2.0,circlecyan.gif,go,,,,,,,,,,,,,,,,,,,,,,,,0,0.513370037079,0.000894069671631,0.401438951492,1,a,1188.35735488,,,,,,,,,,,,,,,,,,,,,,,,,,,,,,,,,2015_Jun_24_1125,59.9516876449,LearningTask,1,63,
200,w,200,,,,,,,,,,,,,,,,,2,0,2,0,23,3,95,0,,,,,,,,,,,,,,,,,,,,,,,,,,,,,w,1,0.417512178421,None,0,1.0,trianglegreen.gif,stop,,,,,,,,,,,,,,,,,,,,,,,,0.76,0.514364957809,0.000869035720825,0.417512178421,1,w,1191.36069202,,,,,,,,,,,,,,,,,,,,,,,,,,,,,,,,,2015_Jun_24_1125,59.9516876449,LearningTask,1,63,
200,w,200,,,,,,,,,,,,,,,,,2,0,2,0,24,0,96,0,,,,,,,,,,,,,,,,,,,,,,,,,,,,,w,1,0.45082783699,None,0,4.0,squaremagenta.gif,stop,,,,,,,,,,,,,,,,,,,,,,,,4.22,0.514288902283,0.000868082046509,0.45082783699,1,w,1194.36427498,,,,,,,,,,,,,,,,,,,,,,,,,,,,,,,,,2015_Jun_24_1125,59.9516876449,LearningTask,1,63,
200,w,200,,,,,,,,,,,,,,,,,2,0,2,0,24,1,97,0,,,,,,,,,,,,,,,,,,,,,,,,,,,,,w,1,0.401010036469,None,0,4.0,squaremagenta.gif,stop,,,,,,,,,,,,,,,,,,,,,,,,3.82,0.513756036758,0.000930070877075,0.401010036469,1,w,1197.36742687,,,,,,,,,,,,,,,,,,,,,,,,,,,,,,,,,2015_Jun_24_1125,59.9516876449,LearningTask,1,63,
200,w,200,,,,,,,,,,,,,,,,,2,0,2,0,24,2,98,0,,,,,,,,,,,,,,,,,,,,,,,,,,,,,w,1,0.450841903687,None,0,2.0,invertedtriangleyellow.gif,stop,,,,,,,,,,,,,,,,,,,,,,,,0,0.514161109924,0.00100016593933,0.450841903687,1,w,1200.37114692,,,,,,,,,,,,,,,,,,,,,,,,,,,,,,,,,2015_Jun_24_1125,59.9516876449,LearningTask,1,63,
200,s,-200,,,,,,,,,,,,,,,,,2,0,2,0,24,3,99,2,,,,,,,,,,,,,,,,,,,,,,,,,,,,,s,1,0.401165008545,None,0,4.0,lineorange.gif,go,,,,,,,,,,,,,,,,,,,,,,,,4.23,0.513825893402,0.000871896743774,0.401165008545,1,s,1203.37439704,,,,,,,,,,,,,,,,,,,,,,,,,,,,,,,,,2015_Jun_24_1125,59.9516876449,LearningTask,1,63,
,,,,,,,,,,,,,,,,,,,2,0,2,0,,,,,,,,,,,,,,,,,,,,,,,,,,,,,,,,,,,,,,,,,,,,,,,,,,,,,,,,,,,,,,,,,,,,,,,9,42.5043070316,,,,,,,,,,,,,,,,,,,,,,,,,,,,,,,2015_Jun_24_1125,59.9516876449,LearningTask,1,63,
-200,q,200,,,,,,,,,,,,,,,,,3,0,3,0,0,0,0,1,,,,,,,,,,,,,,,,,,,,,,,,,,,,,q,1,0.434376955032,None,0,0.5,hexagongray.gif,stop,,,,,,,,,,,,,,,,,,,,,,,,0,0.508756160736,0.00117611885071,0.434376955032,1,q,1249.7101469,,,,,,,,,,,,,,,,,,,,,,,,,,,,,,,,,2015_Jun_24_1125,59.9516876449,LearningTask,1,63,
-200,q,200,,,,,,,,,,,,,,,,,3,0,3,0,0,1,1,1,,,,,,,,,,,,,,,,,,,,,,,,,,,,,q,1,0.334118127823,None,0,0.5,hexagongray.gif,stop,,,,,,,,,,,,,,,,,,,,,,,,0.54,0.513672113419,0.000988006591797,0.334118127823,1,q,1252.71318889,,,,,,,,,,,,,,,,,,,,,,,,,,,,,,,,,2015_Jun_24_1125,59.9516876449,LearningTask,1,63,
