xPos,corrAns,yPos,corrGoResp,yPosGoStim,xPosGoStim,pracTrials.thisRepN,pracTrials.thisTrialN,pracTrials.thisN,pracTrials.thisIndex,ReDoLoopPrac.thisRepN,ReDoLoopPrac.thisTrialN,ReDoLoopPrac.thisN,ReDoLoopPrac.thisIndex,ReDoLoopPrac.thisTrial,pracStopTrials.thisRepN,pracStopTrials.thisTrialN,pracStopTrials.thisN,pracStopTrials.thisIndex,Blocks.thisRepN,Blocks.thisTrialN,Blocks.thisN,Blocks.thisIndex,trials.thisRepN,trials.thisTrialN,trials.thisN,trials.thisIndex,ReDoLoopMain.thisRepN,ReDoLoopMain.thisTrialN,ReDoLoopMain.thisN,ReDoLoopMain.thisIndex,ReDoLoopMain.thisTrial,StopBlocks.thisRepN,StopBlocks.thisTrialN,StopBlocks.thisN,StopBlocks.thisIndex,StopTrials.thisRepN,StopTrials.thisTrialN,StopTrials.thisN,StopTrials.thisIndex,auctionBlocks.thisRepN,auctionBlocks.thisTrialN,auctionBlocks.thisN,auctionBlocks.thisIndex,auctionTrials.thisRepN,auctionTrials.thisTrialN,auctionTrials.thisN,auctionTrials.thisIndex,learningTrialList,learningPracTrialList,stopTrialList,stopPracTrialList,auctionTrialList,ok1.keys,ok1.rt,resp.keys,resp.corr,resp.rt,feedbackResp.keys,feedbackResp.corr,currentReward,currentStimulus,currentStimType,firstPracComputedRewardOutput,firstPracLearningStimOnset,firstPracLearningFixOnset,firstPracPresentationRT,firstPracPresentationAcc,firstPracPresentationResp,firstPracEndTrialTimeStamp,secondPracComputedRewardOutput,secondPracLearningStimOnset,secondPracLearningFixOnset,secondPracPresentationRT,secondPracPresentationAcc,secondPracPresentationResp,secondPracEndTrialTimeStamp,StartTrialTimeStamp,trialType,goStim,stimType,stopStimValue,goResp.keys,goResp.corr,goResp.rt,key_resp_9.keys,key_resp_9.corr,fixStopOnset,goStimOnset,stopSignalOnset,EndTrialTimeStamp,key_resp_3.keys,key_resp_3.rt,firstComputedRewardOutput,firstLearningStimOnset,firstLearningFixOnset,firstPresentationRT,firstPresentationAcc,firstPresentationResp,firstEndTrialTimeStamp,secondComputedRewardOutput,secondLearningStimOnset,secondLearningFixOnset,secondPresentationRT,secondPresentationAcc,secondPresentationResp,secondEndTrialTimeStamp,key_resp_7.keys,key_resp_7.rt,thirdComputedRewardOutput,thirdLearningStimOnset,thirdLearningFixOnset,thirdPresentationRT,thirdPresentationAcc,thirdPresentationResp,thirdEndTrialTimeStamp,fourthComputedRewardOutput,fourthLearningStimOnset,fourthLearningFixOnset,fourthPresentationRT,fourthPresentationAcc,fourthPresentationResp,fourthEndTrialTimeStamp,fifthComputedRewardOutput,fifthLearningStimOnset,fifthLearningFixOnset,fifthPresentationRT,fifthPresentationAcc,fifthPresentationResp,fifthEndTrialTimeStamp,feedbackResp.rt,beginningSSD,EndingSSD,key_resp_9.rt,key_resp_4.keys,key_resp_4.rt,auctionResponse.keys,auctionStimDuration,auctionStim,auctionAmounts,auctionStimValue,auctionCondition,chosenAuctionAmount,auctionResponse.rt,key_resp_5.keys,key_resp_5.rt,shuffledRewardList,chosenReward1,chosenReward2,chosenReward3,chosenReward4,chosenReward5,key_resp_6.keys,key_resp_6.rt,date,frameRate,expName,session,participant,
,,,,,,,,,,,,,,,,,,,,,,,,,,,,,,,,,,,,,,,,,,,,,,,,[],[],[],[],[],9,102.716211796,,,,,,,,,,,,,,,,,,,,,,,,,,,,,,,,,,,,,,,,,,,,,,,,,,,,,,,,,,,,,,,,,,,,,,,,,,,,,,,,,,,,,,,,,,,,,,,,,,,,2015_Jul_08_1018,59.9261621461,LearningTask,1,72,
200,w,200,,,,0,0,0,8,,,,,,,,,,,,,,,,,,,,,,,,,,,,,,,,,,,,,,,,,,,,,,w,1,0.684740066528,None,0,1.0,trianglemagenta.gif,stop,0.85,0.50695514679,0.0268571376801,0.684740066528,1,w,141.238044977,,,,,,,,,,,,,,,,,,,,,,,,,,,,,,,,,,,,,,,,,,,,,,,,,,,,,,,,,,,,,,,,,,,,,,,,,,,,,,,,,,,,,2015_Jul_08_1018,59.9261621461,LearningTask,1,72,
-200,q,200,,,,0,1,1,5,,,,,,,,,,,,,,,,,,,,,,,,,,,,,,,,,,,,,,,,,,,,,,q,1,0.534219026566,None,0,0.5,lineyellow.gif,stop,0.68,0.514253854752,0.00176787376404,0.534219026566,1,q,144.240639925,,,,,,,,,,,,,,,,,,,,,,,,,,,,,,,,,,,,,,,,,,,,,,,,,,,,,,,,,,,,,,,,,,,,,,,,,,,,,,,,,,,,,2015_Jul_08_1018,59.9261621461,LearningTask,1,72,
200,w,200,,,,0,2,2,0,,,,,,,,,,,,,,,,,,,,,,,,,,,,,,,,,,,,,,,,,,,,,,w,1,0.534570932388,None,0,4.0,diamondgreen.gif,stop,4.13,0.51514005661,0.00134086608887,0.534570932388,1,w,147.243981838,,,,,,,,,,,,,,,,,,,,,,,,,,,,,,,,,,,,,,,,,,,,,,,,,,,,,,,,,,,,,,,,,,,,,,,,,,,,,,,,,,,,,2015_Jul_08_1018,59.9261621461,LearningTask,1,72,
-200,q,200,,,,0,3,3,1,,,,,,,,,,,,,,,,,,,,,,,,,,,,,,,,,,,,,,,,,,,,,,q,1,0.434699058533,None,0,2.0,squarewhite.gif,go,0,0.515100002289,0.0448920726776,0.384087085724,0,a,150.247361898,2.17,0.515969991684,0.00118398666382,0.434699058533,1,q,153.251476049,,,,,,,,,,,,,,,,,,,,,,,,,,,,,,,,,,,,,,,,,,,,,,,,,,,,,,,,,,,,,,,,,,,,,,,,,,,,,,2015_Jul_08_1018,59.9261621461,LearningTask,1,72,
-200,a,-200,,,,0,4,4,7,,,,,,,,,,,,,,,,,,,,,,,,,,,,,,,,,,,,,,,,,,,,,,a,1,0.517822027206,None,0,2.0,squarewhite.gif,go,2.02,0.514165878296,0.00108003616333,0.517822027206,1,a,156.254607916,,,,,,,,,,,,,,,,,,,,,,,,,,,,,,,,,,,,,,,,,,,,,,,,,,,,,,,,,,,,,,,,,,,,,,,,,,,,,,,,,,,,,2015_Jul_08_1018,59.9261621461,LearningTask,1,72,
-200,a,-200,,,,0,5,5,3,,,,,,,,,,,,,,,,,,,,,,,,,,,,,,,,,,,,,,,,,,,,,,a,1,0.483929157257,None,0,0.5,lineyellow.gif,stop,0,0.514881849289,0.000955820083618,0.483929157257,1,a,159.257423878,,,,,,,,,,,,,,,,,,,,,,,,,,,,,,,,,,,,,,,,,,,,,,,,,,,,,,,,,,,,,,,,,,,,,,,,,,,,,,,,,,,,,2015_Jul_08_1018,59.9261621461,LearningTask,1,72,
-200,q,200,,,,0,6,6,9,,,,,,,,,,,,,,,,,,,,,,,,,,,,,,,,,,,,,,,,,,,,,,q,1,0.467829227448,None,0,2.0,crossorange.gif,stop,2.03,0.51485490799,0.00131392478943,0.467829227448,1,q,162.260782957,,,,,,,,,,,,,,,,,,,,,,,,,,,,,,,,,,,,,,,,,,,,,,,,,,,,,,,,,,,,,,,,,,,,,,,,,,,,,,,,,,,,,2015_Jul_08_1018,59.9261621461,LearningTask,1,72,
200,s,-200,,,,0,7,7,2,,,,,,,,,,,,,,,,,,,,,,,,,,,,,,,,,,,,,,,,,,,,,,s,1,0.450752019882,None,0,4.0,invertedtrianglegray.gif,go,4.1,0.515133142471,0.040225982666,0.450752019882,1,s,165.263984919,,,,,,,,,,,,,,,,,,,,,,,,,,,,,,,,,,,,,,,,,,,,,,,,,,,,,,,,,,,,,,,,,,,,,,,,,,,,,,,,,,,,,2015_Jul_08_1018,59.9261621461,LearningTask,1,72,
200,w,200,,,,0,8,8,4,,,,,,,,,,,,,,,,,,,,,,,,,,,,,,,,,,,,,,,,,,,,,,w,1,0.434260845184,None,0,1.0,hexagoncyan.gif,go,1.16,0.515104055405,0.0364110469818,0.434260845184,1,w,168.267179966,,,,,,,,,,,,,,,,,,,,,,,,,,,,,,,,,,,,,,,,,,,,,,,,,,,,,,,,,,,,,,,,,,,,,,,,,,,,,,,,,,,,,2015_Jul_08_1018,59.9261621461,LearningTask,1,72,
200,s,-200,,,,0,9,9,6,,,,,,,,,,,,,,,,,,,,,,,,,,,,,,,,,,,,,,,,,,,,,,s,1,0.384149074554,None,0,4.0,diamondgreen.gif,stop,3.8,0.515377044678,0.00089693069458,0.384149074554,1,s,171.270648003,,,,,,,,,,,,,,,,,,,,,,,,,,,,,,,,,,,,,,,,,,,,,,,,,,,,,,,,,,,,,,,,,,,,,,,,,,,,,,,,,,,,,2015_Jul_08_1018,59.9261621461,LearningTask,1,72,
,,,m,0,200,,,,,,,,,,0,0,0,1,,,,,,,,,,,,,,,,,,,,,,,,,,,,,,,,,,,,,,,,,,,,,,,,,,,,,,,,,,,213.806895971,stop,diamondgreen.gif,stop,4.0,m,1,0.43399310112,None,0,0.00129389762878,0.51021194458,0.760876893997,216.805171967,,,,,,,,,,,,,,,,,,,,,,,,,,,,,,,,,,,,,,,,,,,,,,,,,,,,,,,,,,,,,,,,2015_Jul_08_1018,59.9261621461,LearningTask,1,72,
,,,z,0,-200,,,,,,,,,,0,1,1,0,,,,,,,,,,,,,,,,,,,,,,,,,,,,,,,,,,,,,,,,,,,,,,,,,,,,,,,,,,,216.80556798,stop,crossorange.gif,stop,2.0,z,1,0.368095874786,None,0,0.00112795829773,0.515115976334,0.765678882599,219.808049917,,,,,,,,,,,,,,,,,,,,,,,,,,,,,,,,,,,,,,,,,,,,,,,,,,,,,,,,,,,,,,,,2015_Jul_08_1018,59.9261621461,LearningTask,1,72,
,,,z,0,-200,,,,,,,,,,1,0,2,0,,,,,,,,,,,,,,,,,,,,,,,,,,,,,,,,,,,,,,,,,,,,,,,,,,,,,,,,,,,219.808414936,go,hexagoncyan.gif,go,1.0,z,1,0.43457698822,None,0,0.00107502937317,0.515779972076,,222.811559916,,,,,,,,,,,,,,,,,,,,,,,,,,,,,,,,,,,,,,,,,,,,,,,,,,,,,,,,,,,,,,,,2015_Jul_08_1018,59.9261621461,LearningTask,1,72,
,,,m,0,200,,,,,,,,,,1,1,3,1,,,,,,,,,,,,,,,,,,,,,,,,,,,,,,,,,,,,,,,,,,,,,,,,,,,,,,,,,,,222.811924934,go,invertedtrianglegray.gif,go,4.0,m,1,0.40075302124,None,0,0.000977993011475,0.515486955643,,225.814903021,,,,,,,,,,,,,,,,,,,,,,,,,,,,,,,,,,,,,,,,,,,,,,,,,,,,,,,,,,,,,,,,2015_Jul_08_1018,59.9261621461,LearningTask,1,72,
,,,m,0,200,,,,,,,,,,2,0,4,1,,,,,,,,,,,,,,,,,,,,,,,,,,,,,,,,,,,,,,,,,,,,,,,,,,,,,,,,,,,225.815320969,stop,lineyellow.gif,stop,0.5,m,1,0.367453098297,None,0,0.000971078872681,0.515808105469,0.765888214111,228.818088055,,,,,,,,,,,,,,,,,,,,,,,,,,,,,,,,,,,,,,,,,,,,,,,,,,,,,,,,,,,,,,,,2015_Jul_08_1018,59.9261621461,LearningTask,1,72,
,,,z,0,-200,,,,,,,,,,2,1,5,0,,,,,,,,,,,,,,,,,,,,,,,,,,,,,,,,,,,,,,,,,,,,,,,,,,,,,,,,,,,228.818455935,stop,lineyellow.gif,stop,0.5,None,0,,None,0,0.00109910964966,0.515823125839,0.766273975372,231.821662903,,,,,,,,,,,,,,,,,,,,,,,,,,,,,,,,,,,,,,,,,,,,,,,,,,,,,,,,,,,,,,,,2015_Jul_08_1018,59.9261621461,LearningTask,1,72,
,,,z,0,-200,,,,,,,,,,3,0,6,0,,,,,,,,,,,,,,,,,,,,,,,,,,,,,,,,,,,,,,,,,,,,,,,,,,,,,,,,,,,231.822073936,stop,trianglemagenta.gif,stop,1.0,z,1,0.401458978653,None,0,0.00095796585083,0.51550412178,0.765774011612,234.824910879,,,,,,,,,,,,,,,,,,,,,,,,,,,,,,,,,,,,,,,,,,,,,,,,,,,,,,,,,,,,,,,,2015_Jul_08_1018,59.9261621461,LearningTask,1,72,
,,,m,0,200,,,,,,,,,,3,1,7,1,,,,,,,,,,,,,,,,,,,,,,,,,,,,,,,,,,,,,,,,,,,,,,,,,,,,,,,,,,,234.825501919,go,circleblue.gif,go,0.5,m,1,0.601114034653,None,0,0.00139212608337,0.515248060226,,237.828166008,,,,,,,,,,,,,,,,,,,,,,,,,,,,,,,,,,,,,,,,,,,,,,,,,,,,,,,,,,,,,,,,2015_Jul_08_1018,59.9261621461,LearningTask,1,72,
,,,z,0,-200,,,,,,,,,,4,0,8,0,,,,,,,,,,,,,,,,,,,,,,,,,,,,,,,,,,,,,,,,,,,,,,,,,,,,,,,,,,,237.828534842,go,invertedtrianglegray.gif,go,4.0,z,1,0.450675964355,None,0,0.000997066497803,0.516036987305,,240.831574917,,,,,,,,,,,,,,,,,,,,,,,,,,,,,,,,,,,,,,,,,,,,,,,,,,,,,,,,,,,,,,,,2015_Jul_08_1018,59.9261621461,LearningTask,1,72,
,,,m,0,200,,,,,,,,,,4,1,9,1,,,,,,,,,,,,,,,,,,,,,,,,,,,,,,,,,,,,,,,,,,,,,,,,,,,,,,,,,,,240.831959963,go,squarewhite.gif,go,2.0,m,1,0.367568969727,None,0,0.000945806503296,0.515550851822,,243.83513093,,,,,,,,,,,,,,,,,,,,,,,,,,,,,,,,,,,,,,,,,,,,,,,,,,,,,,,,,,,,,,,,2015_Jul_08_1018,59.9261621461,LearningTask,1,72,
,,,,,,,,,,,,,,,,,,,,,,,,,,,,,,,,,,,,,,,,,,,,,,,,,,,,,,,,,,,,,,,,,,,,,,,,,,,,,,,,,,,,,,,,,,,9,58.7119231224,,,,,,,,,,,,,,,,,,,,,,,,,,,,,,,,,,,,,,,,,,,,,,,,,,,,,,,,,,,,,,2015_Jul_08_1018,59.9261621461,LearningTask,1,72,
,,,,,,,,,,,,,,,,,,,,,,,,,,,,,,,,,,,,,,,,,,,,,,,,,,,,,9,14.2994551659,,,,,,,,,,,,,,,,,,,,,,,,,,,,,,,,,,,,,,,,,,,,,,,,,,,,,,,,,,,,,,,,,,,,,,,,,,,,,,,,,,,,,,,,,,,,,,,,,,,,2015_Jul_08_1018,59.9261621461,LearningTask,1,72,
200,w,200,,,,,,,,,,,,,,,,,0,0,0,0,0,0,0,0,,,,,,,,,,,,,,,,,,,,,,,,,,,,,w,1,0.400764942169,None,0,1.0,trianglemagenta.gif,stop,,,,,,,,,,,,,,,,,,,,,,,,,,,,,,,1.04,0.508795022964,0.000954151153564,0.400764942169,1,w,320.004520893,,,,,,,,,,,,,,,,,,,,,,,,,,,,,,,,,,,,,,,,,,,,,,,,,,,,,,,2015_Jul_08_1018,59.9261621461,LearningTask,1,72,
200,s,-200,,,,,,,,,,,,,,,,,0,0,0,0,0,1,1,2,,,,,,,,,,,,,,,,,,,,,,,,,,,,,s,1,0.334521055222,None,0,4.0,invertedtrianglegray.gif,go,,,,,,,,,,,,,,,,,,,,,,,,,,,,,,,3.95,0.513289928436,0.000903129577637,0.334521055222,1,s,323.007865906,,,,,,,,,,,,,,,,,,,,,,,,,,,,,,,,,,,,,,,,,,,,,,,,,,,,,,,2015_Jul_08_1018,59.9261621461,LearningTask,1,72,
-200,a,-200,,,,,,,,,,,,,,,,,0,0,0,0,0,2,2,3,,,,,,,,,,,,,,,,,,,,,,,,,,,,,a,1,0.384181022644,None,0,4.0,diamondgreen.gif,stop,,,,,,,,,,,,,,,,,,,,,,,,,,,,,,,3.93,0.513670921326,0.000915050506592,0.384181022644,1,a,326.011757851,,,,,,,,,,,,,,,,,,,,,,,,,,,,,,,,,,,,,,,,,,,,,,,,,,,,,,,2015_Jul_08_1018,59.9261621461,LearningTask,1,72,
-200,a,-200,,,,,,,,,,,,,,,,,0,0,0,0,0,3,3,3,,,,,,,,,,,,,,,,,,,,,,,,,,,,,a,1,0.334235191345,None,0,1.0,trianglemagenta.gif,stop,,,,,,,,,,,,,,,,,,,,,,,,,,,,,,,1.19,0.513133049011,0.00093412399292,0.334235191345,1,a,329.014107943,,,,,,,,,,,,,,,,,,,,,,,,,,,,,,,,,,,,,,,,,,,,,,,,,,,,,,,2015_Jul_08_1018,59.9261621461,LearningTask,1,72,
-200,a,-200,,,,,,,,,,,,,,,,,0,0,0,0,1,0,4,3,,,,,,,,,,,,,,,,,,,,,,,,,,,,,a,1,0.451025009155,None,0,4.0,diamondgreen.gif,stop,,,,,,,,,,,,,,,,,,,,,,,,,,,,,,,3.77,0.514316082001,0.000906944274902,0.451025009155,1,a,332.017396927,,,,,,,,,,,,,,,,,,,,,,,,,,,,,,,,,,,,,,,,,,,,,,,,,,,,,,,2015_Jul_08_1018,59.9261621461,LearningTask,1,72,
200,w,200,,,,,,,,,,,,,,,,,0,0,0,0,1,1,5,0,,,,,,,,,,,,,,,,,,,,,,,,,,,,,w,1,0.400623083115,None,0,4.0,diamondgreen.gif,stop,,,,,,,,,,,,,,,,,,,,,,,,,,,,,,,3.75,0.514276981354,0.000897169113159,0.400623083115,1,w,335.020905018,,,,,,,,,,,,,,,,,,,,,,,,,,,,,,,,,,,,,,,,,,,,,,,,,,,,,,,2015_Jul_08_1018,59.9261621461,LearningTask,1,72,
200,s,-200,,,,,,,,,,,,,,,,,0,0,0,0,1,2,6,2,,,,,,,,,,,,,,,,,,,,,,,,,,,,,s,1,0.384468793869,None,0,0.5,lineyellow.gif,stop,,,,,,,,,,,,,,,,,,,,,,,,,,,,,,,0,0.514014959335,0.000910043716431,0.384468793869,1,s,338.024063826,,,,,,,,,,,,,,,,,,,,,,,,,,,,,,,,,,,,,,,,,,,,,,,,,,,,,,,2015_Jul_08_1018,59.9261621461,LearningTask,1,72,
-200,q,200,,,,,,,,,,,,,,,,,0,0,0,0,1,3,7,1,,,,,,,,,,,,,,,,,,,,,,,,,,,,,q,1,0.35052895546,None,0,1.0,trianglemagenta.gif,stop,,,,,,,,,,,,,,,,,,,,,,,,,,,,,,,0.88,0.514322042465,0.00108408927917,0.35052895546,1,q,341.027832985,,,,,,,,,,,,,,,,,,,,,,,,,,,,,,,,,,,,,,,,,,,,,,,,,,,,,,,2015_Jul_08_1018,59.9261621461,LearningTask,1,72,
-200,q,200,,,,,,,,,,,,,,,,,0,0,0,0,2,0,8,1,,,,,,,,,,,,,,,,,,,,,,,,,,,,,q,1,0.384420871735,None,0,1.0,hexagoncyan.gif,go,,,,,,,,,,,,,,,,,,,,,,,,,,,,,,,0.95,0.51367521286,0.000907182693481,0.384420871735,1,q,344.030807972,,,,,,,,,,,,,,,,,,,,,,,,,,,,,,,,,,,,,,,,,,,,,,,,,,,,,,,2015_Jul_08_1018,59.9261621461,LearningTask,1,72,
-200,q,200,,,,,,,,,,,,,,,,,0,0,0,0,2,1,9,1,,,,,,,,,,,,,,,,,,,,,,,,,,,,,q,1,0.500965833664,None,0,4.0,invertedtrianglegray.gif,go,,,,,,,,,,,,,,,,,,,,,,,,,,,,,,,4.02,0.514258146286,0.000977993011475,0.500965833664,1,q,347.034548044,,,,,,,,,,,,,,,,,,,,,,,,,,,,,,,,,,,,,,,,,,,,,,,,,,,,,,,2015_Jul_08_1018,59.9261621461,LearningTask,1,72,
200,w,200,,,,,,,,,,,,,,,,,0,0,0,0,2,2,10,0,,,,,,,,,,,,,,,,,,,,,,,,,,,,,w,1,0.384085893631,None,0,1.0,hexagoncyan.gif,go,,,,,,,,,,,,,,,,,,,,,,,,,,,,,,,0,0.513757944107,0.000948905944824,0.384085893631,1,w,350.037562847,,,,,,,,,,,,,,,,,,,,,,,,,,,,,,,,,,,,,,,,,,,,,,,,,,,,,,,2015_Jul_08_1018,59.9261621461,LearningTask,1,72,
-200,a,-200,,,,,,,,,,,,,,,,,0,0,0,0,2,3,11,3,,,,,,,,,,,,,,,,,,,,,,,,,,,,,a,1,0.433357000351,None,0,2.0,crossorange.gif,stop,,,,,,,,,,,,,,,,,,,,,,,,,,,,,,,1.75,0.514581918716,0.00123691558838,0.433357000351,1,a,353.040591002,,,,,,,,,,,,,,,,,,,,,,,,,,,,,,,,,,,,,,,,,,,,,,,,,,,,,,,2015_Jul_08_1018,59.9261621461,LearningTask,1,72,
-200,q,200,,,,,,,,,,,,,,,,,0,0,0,0,3,0,12,1,,,,,,,,,,,,,,,,,,,,,,,,,,,,,q,1,0.334661960602,None,0,1.0,trianglemagenta.gif,stop,,,,,,,,,,,,,,,,,,,,,,,,,,,,,,,1.18,0.51438498497,0.000897884368896,0.334661960602,1,q,356.044482946,,,,,,,,,,,,,,,,,,,,,,,,,,,,,,,,,,,,,,,,,,,,,,,,,,,,,,,2015_Jul_08_1018,59.9261621461,LearningTask,1,72,
-200,q,200,,,,,,,,,,,,,,,,,0,0,0,0,3,1,13,1,,,,,,,,,,,,,,,,,,,,,,,,,,,,,q,1,0.333925962448,None,0,2.0,squarewhite.gif,go,,,,,,,,,,,,,,,,,,,,,,,,,,,,,,,1.82,0.513458013535,0.000931978225708,0.333925962448,1,q,359.047508001,,,,,,,,,,,,,,,,,,,,,,,,,,,,,,,,,,,,,,,,,,,,,,,,,,,,,,,2015_Jul_08_1018,59.9261621461,LearningTask,1,72,
200,s,-200,,,,,,,,,,,,,,,,,0,0,0,0,3,2,14,2,,,,,,,,,,,,,,,,,,,,,,,,,,,,,s,1,0.366922855377,None,0,4.0,diamondgreen.gif,stop,,,,,,,,,,,,,,,,,,,,,,,,,,,,,,,3.83,0.514208078384,0.00095009803772,0.366922855377,1,s,362.051139832,,,,,,,,,,,,,,,,,,,,,,,,,,,,,,,,,,,,,,,,,,,,,,,,,,,,,,,2015_Jul_08_1018,59.9261621461,LearningTask,1,72,
200,s,-200,,,,,,,,,,,,,,,,,0,0,0,0,3,3,15,2,,,,,,,,,,,,,,,,,,,,,,,,,,,,,s,1,0.467669963837,None,0,0.5,circleblue.gif,go,,,,,,,,,,,,,,,,,,,,,,,,,,,,,,,0,0.513994932175,0.00092601776123,0.467669963837,1,s,365.05429101,,,,,,,,,,,,,,,,,,,,,,,,,,,,,,,,,,,,,,,,,,,,,,,,,,,,,,,2015_Jul_08_1018,59.9261621461,LearningTask,1,72,
-200,a,-200,,,,,,,,,,,,,,,,,0,0,0,0,4,0,16,3,,,,,,,,,,,,,,,,,,,,,,,,,,,,,a,1,0.367291927338,None,0,1.0,hexagoncyan.gif,go,,,,,,,,,,,,,,,,,,,,,,,,,,,,,,,1.17,0.514001131058,0.000914096832275,0.367291927338,1,a,368.057569981,,,,,,,,,,,,,,,,,,,,,,,,,,,,,,,,,,,,,,,,,,,,,,,,,,,,,,,2015_Jul_08_1018,59.9261621461,LearningTask,1,72,
200,w,200,,,,,,,,,,,,,,,,,0,0,0,0,4,1,17,0,,,,,,,,,,,,,,,,,,,,,,,,,,,,,w,1,0.317576885223,None,0,1.0,trianglemagenta.gif,stop,,,,,,,,,,,,,,,,,,,,,,,,,,,,,,,0.78,0.514037132263,0.00092601776123,0.317576885223,1,w,371.061136961,,,,,,,,,,,,,,,,,,,,,,,,,,,,,,,,,,,,,,,,,,,,,,,,,,,,,,,2015_Jul_08_1018,59.9261621461,LearningTask,1,72,
-200,a,-200,,,,,,,,,,,,,,,,,0,0,0,0,4,2,18,3,,,,,,,,,,,,,,,,,,,,,,,,,,,,,a,1,0.367712020874,None,0,2.0,squarewhite.gif,go,,,,,,,,,,,,,,,,,,,,,,,,,,,,,,,1.85,0.514023065567,0.00095009803772,0.367712020874,1,a,374.065119982,,,,,,,,,,,,,,,,,,,,,,,,,,,,,,,,,,,,,,,,,,,,,,,,,,,,,,,2015_Jul_08_1018,59.9261621461,LearningTask,1,72,
200,w,200,,,,,,,,,,,,,,,,,0,0,0,0,4,3,19,0,,,,,,,,,,,,,,,,,,,,,,,,,,,,,w,1,0.383908033371,None,0,0.5,lineyellow.gif,stop,,,,,,,,,,,,,,,,,,,,,,,,,,,,,,,0.25,0.513549089432,0.000909090042114,0.383908033371,1,w,377.06761694,,,,,,,,,,,,,,,,,,,,,,,,,,,,,,,,,,,,,,,,,,,,,,,,,,,,,,,2015_Jul_08_1018,59.9261621461,LearningTask,1,72,
-200,q,200,,,,,,,,,,,,,,,,,0,0,0,0,5,0,20,1,,,,,,,,,,,,,,,,,,,,,,,,,,,,,q,1,0.33398103714,None,0,1.0,trianglemagenta.gif,stop,,,,,,,,,,,,,,,,,,,,,,,,,,,,,,,1.16,0.514364004135,0.000935077667236,0.33398103714,1,q,380.071007013,,,,,,,,,,,,,,,,,,,,,,,,,,,,,,,,,,,,,,,,,,,,,,,,,,,,,,,2015_Jul_08_1018,59.9261621461,LearningTask,1,72,
-200,q,200,,,,,,,,,,,,,,,,,0,0,0,0,5,1,21,1,,,,,,,,,,,,,,,,,,,,,,,,,,,,,q,1,0.35077381134,None,0,4.0,invertedtrianglegray.gif,go,,,,,,,,,,,,,,,,,,,,,,,,,,,,,,,4.12,0.514803886414,0.000895977020264,0.35077381134,1,q,383.074369907,,,,,,,,,,,,,,,,,,,,,,,,,,,,,,,,,,,,,,,,,,,,,,,,,,,,,,,2015_Jul_08_1018,59.9261621461,LearningTask,1,72,
200,s,-200,,,,,,,,,,,,,,,,,0,0,0,0,5,2,22,2,,,,,,,,,,,,,,,,,,,,,,,,,,,,,s,1,0.317875146866,None,0,1.0,trianglemagenta.gif,stop,,,,,,,,,,,,,,,,,,,,,,,,,,,,,,,1.24,0.514192819595,0.000910997390747,0.317875146866,1,s,386.077837944,,,,,,,,,,,,,,,,,,,,,,,,,,,,,,,,,,,,,,,,,,,,,,,,,,,,,,,2015_Jul_08_1018,59.9261621461,LearningTask,1,72,
-200,q,200,,,,,,,,,,,,,,,,,0,0,0,0,5,3,23,1,,,,,,,,,,,,,,,,,,,,,,,,,,,,,q,1,0.334211826324,None,0,4.0,invertedtrianglegray.gif,go,,,,,,,,,,,,,,,,,,,,,,,,,,,,,,,4.12,0.514186859131,0.00100302696228,0.334211826324,1,q,389.081634998,,,,,,,,,,,,,,,,,,,,,,,,,,,,,,,,,,,,,,,,,,,,,,,,,,,,,,,2015_Jul_08_1018,59.9261621461,LearningTask,1,72,
-200,q,200,,,,,,,,,,,,,,,,,0,0,0,0,6,0,24,1,,,,,,,,,,,,,,,,,,,,,,,,,,,,,q,1,0.451370000839,None,0,4.0,invertedtrianglegray.gif,go,,,,,,,,,,,,,,,,,,,,,,,,,,,,,,,0,0.513730049133,0.00090503692627,0.451370000839,1,q,392.084571838,,,,,,,,,,,,,,,,,,,,,,,,,,,,,,,,,,,,,,,,,,,,,,,,,,,,,,,2015_Jul_08_1018,59.9261621461,LearningTask,1,72,
200,s,-200,,,,,,,,,,,,,,,,,0,0,0,0,6,1,25,2,,,,,,,,,,,,,,,,,,,,,,,,,,,,,s,1,0.383947134018,None,0,2.0,crossorange.gif,stop,,,,,,,,,,,,,,,,,,,,,,,,,,,,,,,1.92,0.514322042465,0.000895977020264,0.383947134018,1,s,395.087918997,,,,,,,,,,,,,,,,,,,,,,,,,,,,,,,,,,,,,,,,,,,,,,,,,,,,,,,2015_Jul_08_1018,59.9261621461,LearningTask,1,72,
-200,q,200,,,,,,,,,,,,,,,,,0,0,0,0,6,2,26,1,,,,,,,,,,,,,,,,,,,,,,,,,,,,,q,1,0.417467832565,None,0,2.0,squarewhite.gif,go,,,,,,,,,,,,,,,,,,,,,,,,,,,,,,,1.84,0.514069795609,0.000954866409302,0.417467832565,1,q,398.091063023,,,,,,,,,,,,,,,,,,,,,,,,,,,,,,,,,,,,,,,,,,,,,,,,,,,,,,,2015_Jul_08_1018,59.9261621461,LearningTask,1,72,
200,w,200,,,,,,,,,,,,,,,,,0,0,0,0,6,3,27,0,,,,,,,,,,,,,,,,,,,,,,,,,,,,,w,1,0.300230026245,None,0,0.5,circleblue.gif,go,,,,,,,,,,,,,,,,,,,,,,,,,,,,,,,0.6,0.514726161957,0.00094199180603,0.300230026245,1,w,401.094310045,,,,,,,,,,,,,,,,,,,,,,,,,,,,,,,,,,,,,,,,,,,,,,,,,,,,,,,2015_Jul_08_1018,59.9261621461,LearningTask,1,72,
200,w,200,,,,,,,,,,,,,,,,,0,0,0,0,7,0,28,0,,,,,,,,,,,,,,,,,,,,,,,,,,,,,w,1,0.384813070297,None,0,4.0,diamondgreen.gif,stop,,,,,,,,,,,,,,,,,,,,,,,,,,,,,,,4.25,0.514498949051,0.000935792922974,0.384813070297,1,w,404.098062992,,,,,,,,,,,,,,,,,,,,,,,,,,,,,,,,,,,,,,,,,,,,,,,,,,,,,,,2015_Jul_08_1018,59.9261621461,LearningTask,1,72,
-200,q,200,,,,,,,,,,,,,,,,,0,0,0,0,7,1,29,1,,,,,,,,,,,,,,,,,,,,,,,,,,,,,q,1,0.300847053528,None,0,4.0,invertedtrianglegray.gif,go,,,,,,,,,,,,,,,,,,,,,,,,,,,,,,,4.15,0.513589143753,0.00103306770325,0.300847053528,1,q,407.101459026,,,,,,,,,,,,,,,,,,,,,,,,,,,,,,,,,,,,,,,,,,,,,,,,,,,,,,,2015_Jul_08_1018,59.9261621461,LearningTask,1,72,
-200,q,200,,,,,,,,,,,,,,,,,0,0,0,0,7,2,30,1,,,,,,,,,,,,,,,,,,,,,,,,,,,,,q,1,0.383908033371,None,0,1.0,hexagoncyan.gif,go,,,,,,,,,,,,,,,,,,,,,,,,,,,,,,,0.93,0.514108896255,0.000955820083618,0.383908033371,1,q,410.104640007,,,,,,,,,,,,,,,,,,,,,,,,,,,,,,,,,,,,,,,,,,,,,,,,,,,,,,,2015_Jul_08_1018,59.9261621461,LearningTask,1,72,
-200,a,-200,,,,,,,,,,,,,,,,,0,0,0,0,7,3,31,3,,,,,,,,,,,,,,,,,,,,,,,,,,,,,a,1,0.367614984512,None,0,4.0,invertedtrianglegray.gif,go,,,,,,,,,,,,,,,,,,,,,,,,,,,,,,,3.92,0.514384031296,0.000900030136108,0.367614984512,1,a,413.107894897,,,,,,,,,,,,,,,,,,,,,,,,,,,,,,,,,,,,,,,,,,,,,,,,,,,,,,,2015_Jul_08_1018,59.9261621461,LearningTask,1,72,
200,s,-200,,,,,,,,,,,,,,,,,0,0,0,0,8,0,32,2,,,,,,,,,,,,,,,,,,,,,,,,,,,,,s,1,0.351029157639,None,0,2.0,squarewhite.gif,go,,,,,,,,,,,,,,,,,,,,,,,,,,,,,,,2.11,0.513872861862,0.000929832458496,0.351029157639,1,s,416.111223936,,,,,,,,,,,,,,,,,,,,,,,,,,,,,,,,,,,,,,,,,,,,,,,,,,,,,,,2015_Jul_08_1018,59.9261621461,LearningTask,1,72,
200,s,-200,,,,,,,,,,,,,,,,,0,0,0,0,8,1,33,2,,,,,,,,,,,,,,,,,,,,,,,,,,,,,s,1,0.434617996216,None,0,4.0,diamondgreen.gif,stop,,,,,,,,,,,,,,,,,,,,,,,,,,,,,,,4.09,0.514278888702,0.000933885574341,0.434617996216,1,s,419.114606857,,,,,,,,,,,,,,,,,,,,,,,,,,,,,,,,,,,,,,,,,,,,,,,,,,,,,,,2015_Jul_08_1018,59.9261621461,LearningTask,1,72,
200,w,200,,,,,,,,,,,,,,,,,0,0,0,0,8,2,34,0,,,,,,,,,,,,,,,,,,,,,,,,,,,,,w,1,0.384323120117,None,0,2.0,crossorange.gif,stop,,,,,,,,,,,,,,,,,,,,,,,,,,,,,,,2.09,0.514276981354,0.000975847244263,0.384323120117,1,w,422.118396044,,,,,,,,,,,,,,,,,,,,,,,,,,,,,,,,,,,,,,,,,,,,,,,,,,,,,,,2015_Jul_08_1018,59.9261621461,LearningTask,1,72,
-200,q,200,,,,,,,,,,,,,,,,,0,0,0,0,8,3,35,1,,,,,,,,,,,,,,,,,,,,,,,,,,,,,q,1,0.300997018814,None,0,0.5,circleblue.gif,go,,,,,,,,,,,,,,,,,,,,,,,,,,,,,,,0.48,0.513994932175,0.000916957855225,0.300997018814,1,q,425.121417999,,,,,,,,,,,,,,,,,,,,,,,,,,,,,,,,,,,,,,,,,,,,,,,,,,,,,,,2015_Jul_08_1018,59.9261621461,LearningTask,1,72,
200,w,200,,,,,,,,,,,,,,,,,0,0,0,0,9,0,36,0,,,,,,,,,,,,,,,,,,,,,,,,,,,,,w,1,0.300926923752,None,0,2.0,squarewhite.gif,go,,,,,,,,,,,,,,,,,,,,,,,,,,,,,,,1.79,0.514131069183,0.000890016555786,0.300926923752,1,w,428.124707937,,,,,,,,,,,,,,,,,,,,,,,,,,,,,,,,,,,,,,,,,,,,,,,,,,,,,,,2015_Jul_08_1018,59.9261621461,LearningTask,1,72,
-200,a,-200,,,,,,,,,,,,,,,,,0,0,0,0,9,1,37,3,,,,,,,,,,,,,,,,,,,,,,,,,,,,,a,1,0.400636196136,None,0,1.0,hexagoncyan.gif,go,,,,,,,,,,,,,,,,,,,,,,,,,,,,,,,0,0.514353990555,0.000977039337158,0.400636196136,1,a,431.128088951,,,,,,,,,,,,,,,,,,,,,,,,,,,,,,,,,,,,,,,,,,,,,,,,,,,,,,,2015_Jul_08_1018,59.9261621461,LearningTask,1,72,
-200,a,-200,,,,,,,,,,,,,,,,,0,0,0,0,9,2,38,3,,,,,,,,,,,,,,,,,,,,,,,,,,,,,a,1,0.301017045975,None,0,2.0,crossorange.gif,stop,,,,,,,,,,,,,,,,,,,,,,,,,,,,,,,2.15,0.514236927032,0.000902891159058,0.301017045975,1,a,434.131403923,,,,,,,,,,,,,,,,,,,,,,,,,,,,,,,,,,,,,,,,,,,,,,,,,,,,,,,2015_Jul_08_1018,59.9261621461,LearningTask,1,72,
200,s,-200,,,,,,,,,,,,,,,,,0,0,0,0,9,3,39,2,,,,,,,,,,,,,,,,,,,,,,,,,,,,,s,1,0.367533922195,None,0,4.0,invertedtrianglegray.gif,go,,,,,,,,,,,,,,,,,,,,,,,,,,,,,,,4.11,0.514477968216,0.00109910964966,0.367533922195,1,s,437.135355949,,,,,,,,,,,,,,,,,,,,,,,,,,,,,,,,,,,,,,,,,,,,,,,,,,,,,,,2015_Jul_08_1018,59.9261621461,LearningTask,1,72,
-200,q,200,,,,,,,,,,,,,,,,,0,0,0,0,10,0,40,1,,,,,,,,,,,,,,,,,,,,,,,,,,,,,q,1,0.30081987381,None,0,4.0,invertedtrianglegray.gif,go,,,,,,,,,,,,,,,,,,,,,,,,,,,,,,,0,0.513622999191,0.000931978225708,0.30081987381,1,q,440.138033867,,,,,,,,,,,,,,,,,,,,,,,,,,,,,,,,,,,,,,,,,,,,,,,,,,,,,,,2015_Jul_08_1018,59.9261621461,LearningTask,1,72,
200,s,-200,,,,,,,,,,,,,,,,,0,0,0,0,10,1,41,2,,,,,,,,,,,,,,,,,,,,,,,,,,,,,s,1,0.384427070618,None,0,1.0,hexagoncyan.gif,go,,,,,,,,,,,,,,,,,,,,,,,,,,,,,,,0,0.514456987381,0.000910043716431,0.384427070618,1,s,443.141563892,,,,,,,,,,,,,,,,,,,,,,,,,,,,,,,,,,,,,,,,,,,,,,,,,,,,,,,2015_Jul_08_1018,59.9261621461,LearningTask,1,72,
-200,a,-200,,,,,,,,,,,,,,,,,0,0,0,0,10,2,42,3,,,,,,,,,,,,,,,,,,,,,,,,,,,,,a,1,0.367381095886,None,0,1.0,hexagoncyan.gif,go,,,,,,,,,,,,,,,,,,,,,,,,,,,,,,,0.82,0.514075994492,0.000977039337158,0.367381095886,1,a,446.144793987,,,,,,,,,,,,,,,,,,,,,,,,,,,,,,,,,,,,,,,,,,,,,,,,,,,,,,,2015_Jul_08_1018,59.9261621461,LearningTask,1,72,
200,s,-200,,,,,,,,,,,,,,,,,0,0,0,0,10,3,43,2,,,,,,,,,,,,,,,,,,,,,,,,,,,,,s,1,0.23393702507,None,0,1.0,trianglemagenta.gif,stop,,,,,,,,,,,,,,,,,,,,,,,,,,,,,,,0,0.514023065567,0.000961065292358,0.350754022598,0,w,449.147989035,1.1,0.515650033951,0.0010039806366,0.23393702507,1,s,452.151995897,,,,,,,,,,,,,,,,,,,,,,,,,,,,,,,,,,,,,,,,,,,,,,,,2015_Jul_08_1018,59.9261621461,LearningTask,1,72,
200,w,200,,,,,,,,,,,,,,,,,0,0,0,0,11,0,44,0,,,,,,,,,,,,,,,,,,,,,,,,,,,,,w,1,0.350322961807,None,0,2.0,crossorange.gif,stop,,,,,,,,,,,,,,,,,,,,,,,,,,,,,,,1.94,0.513761997223,0.000900983810425,0.350322961807,1,w,455.154881001,,,,,,,,,,,,,,,,,,,,,,,,,,,,,,,,,,,,,,,,,,,,,,,,,,,,,,,2015_Jul_08_1018,59.9261621461,LearningTask,1,72,
200,s,-200,,,,,,,,,,,,,,,,,0,0,0,0,11,1,45,2,,,,,,,,,,,,,,,,,,,,,,,,,,,,,s,1,0.367280960083,None,0,4.0,invertedtrianglegray.gif,go,,,,,,,,,,,,,,,,,,,,,,,,,,,,,,,4.01,0.514364004135,0.000938892364502,0.367280960083,1,s,458.158517838,,,,,,,,,,,,,,,,,,,,,,,,,,,,,,,,,,,,,,,,,,,,,,,,,,,,,,,2015_Jul_08_1018,59.9261621461,LearningTask,1,72,
200,s,-200,,,,,,,,,,,,,,,,,0,0,0,0,11,2,46,2,,,,,,,,,,,,,,,,,,,,,,,,,,,,,s,1,0.350565910339,None,0,0.5,lineyellow.gif,stop,,,,,,,,,,,,,,,,,,,,,,,,,,,,,,,0.72,0.514122009277,0.00091290473938,0.350565910339,1,s,461.161697865,,,,,,,,,,,,,,,,,,,,,,,,,,,,,,,,,,,,,,,,,,,,,,,,,,,,,,,2015_Jul_08_1018,59.9261621461,LearningTask,1,72,
-200,a,-200,,,,,,,,,,,,,,,,,0,0,0,0,11,3,47,3,,,,,,,,,,,,,,,,,,,,,,,,,,,,,a,1,0.351024150848,None,0,0.5,lineyellow.gif,stop,,,,,,,,,,,,,,,,,,,,,,,,,,,,,,,0.74,0.513814926147,0.000925064086914,0.351024150848,1,a,464.164913893,,,,,,,,,,,,,,,,,,,,,,,,,,,,,,,,,,,,,,,,,,,,,,,,,,,,,,,2015_Jul_08_1018,59.9261621461,LearningTask,1,72,
200,s,-200,,,,,,,,,,,,,,,,,0,0,0,0,12,0,48,2,,,,,,,,,,,,,,,,,,,,,,,,,,,,,s,1,0.350926876068,None,0,0.5,circleblue.gif,go,,,,,,,,,,,,,,,,,,,,,,,,,,,,,,,0.65,0.514085054398,0.00105595588684,0.350926876068,1,s,467.168081045,,,,,,,,,,,,,,,,,,,,,,,,,,,,,,,,,,,,,,,,,,,,,,,,,,,,,,,2015_Jul_08_1018,59.9261621461,LearningTask,1,72,
200,w,200,,,,,,,,,,,,,,,,,0,0,0,0,12,1,49,0,,,,,,,,,,,,,,,,,,,,,,,,,,,,,w,1,0.317404031754,None,0,1.0,trianglemagenta.gif,stop,,,,,,,,,,,,,,,,,,,,,,,,,,,,,,,0.88,0.514413833618,0.000911951065063,0.317404031754,1,w,470.172211885,,,,,,,,,,,,,,,,,,,,,,,,,,,,,,,,,,,,,,,,,,,,,,,,,,,,,,,2015_Jul_08_1018,59.9261621461,LearningTask,1,72,
-200,q,200,,,,,,,,,,,,,,,,,0,0,0,0,12,2,50,1,,,,,,,,,,,,,,,,,,,,,,,,,,,,,q,1,0.33448600769,None,0,4.0,diamondgreen.gif,stop,,,,,,,,,,,,,,,,,,,,,,,,,,,,,,,0,0.513468027115,0.000935077667236,0.33448600769,1,q,473.17493701,,,,,,,,,,,,,,,,,,,,,,,,,,,,,,,,,,,,,,,,,,,,,,,,,,,,,,,2015_Jul_08_1018,59.9261621461,LearningTask,1,72,
-200,q,200,,,,,,,,,,,,,,,,,0,0,0,0,12,3,51,1,,,,,,,,,,,,,,,,,,,,,,,,,,,,,q,1,0.400785923004,None,0,4.0,invertedtrianglegray.gif,go,,,,,,,,,,,,,,,,,,,,,,,,,,,,,,,4.15,0.514427185059,0.000916004180908,0.400785923004,1,q,476.178169966,,,,,,,,,,,,,,,,,,,,,,,,,,,,,,,,,,,,,,,,,,,,,,,,,,,,,,,2015_Jul_08_1018,59.9261621461,LearningTask,1,72,
200,s,-200,,,,,,,,,,,,,,,,,0,0,0,0,13,0,52,2,,,,,,,,,,,,,,,,,,,,,,,,,,,,,s,1,0.350937843323,None,0,2.0,crossorange.gif,stop,,,,,,,,,,,,,,,,,,,,,,,,,,,,,,,2.07,0.514386177063,0.000940084457397,0.350937843323,1,s,479.181915045,,,,,,,,,,,,,,,,,,,,,,,,,,,,,,,,,,,,,,,,,,,,,,,,,,,,,,,2015_Jul_08_1018,59.9261621461,LearningTask,1,72,
-200,a,-200,,,,,,,,,,,,,,,,,0,0,0,0,13,1,53,3,,,,,,,,,,,,,,,,,,,,,,,,,,,,,a,1,0.400763988495,None,0,0.5,lineyellow.gif,stop,,,,,,,,,,,,,,,,,,,,,,,,,,,,,,,0.4,0.513989925385,0.000910997390747,0.400763988495,1,a,482.184914827,,,,,,,,,,,,,,,,,,,,,,,,,,,,,,,,,,,,,,,,,,,,,,,,,,,,,,,2015_Jul_08_1018,59.9261621461,LearningTask,1,72,
200,w,200,,,,,,,,,,,,,,,,,0,0,0,0,13,2,54,0,,,,,,,,,,,,,,,,,,,,,,,,,,,,,w,1,0.334087133408,None,0,1.0,hexagoncyan.gif,go,,,,,,,,,,,,,,,,,,,,,,,,,,,,,,,1.16,0.514398813248,0.000959873199463,0.334087133408,1,w,485.188295841,,,,,,,,,,,,,,,,,,,,,,,,,,,,,,,,,,,,,,,,,,,,,,,,,,,,,,,2015_Jul_08_1018,59.9261621461,LearningTask,1,72,
-200,a,-200,,,,,,,,,,,,,,,,,0,0,0,0,13,3,55,3,,,,,,,,,,,,,,,,,,,,,,,,,,,,,a,1,0.117760896683,None,0,2.0,crossorange.gif,stop,,,,,,,,,,,,,,,,,,,,,,,,,,,,,,,0,0.514580965042,0.000905990600586,0.367500066757,0,q,488.191813946,2.11,0.515601158142,0.000982999801636,0.117760896683,1,a,491.195137978,,,,,,,,,,,,,,,,,,,,,,,,,,,,,,,,,,,,,,,,,,,,,,,,2015_Jul_08_1018,59.9261621461,LearningTask,1,72,
200,s,-200,,,,,,,,,,,,,,,,,0,0,0,0,14,0,56,2,,,,,,,,,,,,,,,,,,,,,,,,,,,,,s,1,0.334216117859,None,0,0.5,circleblue.gif,go,,,,,,,,,,,,,,,,,,,,,,,,,,,,,,,0.68,0.514059782028,0.000976800918579,0.334216117859,1,s,494.198465824,,,,,,,,,,,,,,,,,,,,,,,,,,,,,,,,,,,,,,,,,,,,,,,,,,,,,,,2015_Jul_08_1018,59.9261621461,LearningTask,1,72,
200,s,-200,,,,,,,,,,,,,,,,,0,0,0,0,14,1,57,2,,,,,,,,,,,,,,,,,,,,,,,,,,,,,s,1,0.334192037582,None,0,0.5,lineyellow.gif,stop,,,,,,,,,,,,,,,,,,,,,,,,,,,,,,,0.73,0.514266014099,0.000899076461792,0.334192037582,1,s,497.201705933,,,,,,,,,,,,,,,,,,,,,,,,,,,,,,,,,,,,,,,,,,,,,,,,,,,,,,,2015_Jul_08_1018,59.9261621461,LearningTask,1,72,
-200,a,-200,,,,,,,,,,,,,,,,,0,0,0,0,14,2,58,3,,,,,,,,,,,,,,,,,,,,,,,,,,,,,a,1,0.384184837341,None,0,4.0,diamondgreen.gif,stop,,,,,,,,,,,,,,,,,,,,,,,,,,,,,,,0,0.514359951019,0.00090503692627,0.384184837341,1,a,500.205811977,,,,,,,,,,,,,,,,,,,,,,,,,,,,,,,,,,,,,,,,,,,,,,,,,,,,,,,2015_Jul_08_1018,59.9261621461,LearningTask,1,72,
-200,a,-200,,,,,,,,,,,,,,,,,0,0,0,0,14,3,59,3,,,,,,,,,,,,,,,,,,,,,,,,,,,,,a,1,0.301342010498,None,0,2.0,squarewhite.gif,go,,,,,,,,,,,,,,,,,,,,,,,,,,,,,,,2.13,0.51296710968,0.000936985015869,0.301342010498,1,a,503.208668947,,,,,,,,,,,,,,,,,,,,,,,,,,,,,,,,,,,,,,,,,,,,,,,,,,,,,,,2015_Jul_08_1018,59.9261621461,LearningTask,1,72,
-200,q,200,,,,,,,,,,,,,,,,,0,0,0,0,15,0,60,1,,,,,,,,,,,,,,,,,,,,,,,,,,,,,q,1,0.250870943069,None,0,2.0,crossorange.gif,stop,,,,,,,,,,,,,,,,,,,,,,,,,,,,,,,1.96,0.514126062393,0.00094199180603,0.250870943069,1,q,506.211806059,,,,,,,,,,,,,,,,,,,,,,,,,,,,,,,,,,,,,,,,,,,,,,,,,,,,,,,2015_Jul_08_1018,59.9261621461,LearningTask,1,72,
-200,q,200,,,,,,,,,,,,,,,,,0,0,0,0,15,1,61,1,,,,,,,,,,,,,,,,,,,,,,,,,,,,,q,1,0.350521087646,None,0,0.5,circleblue.gif,go,,,,,,,,,,,,,,,,,,,,,,,,,,,,,,,0.35,0.514509916306,0.000923871994019,0.350521087646,1,q,509.215227842,,,,,,,,,,,,,,,,,,,,,,,,,,,,,,,,,,,,,,,,,,,,,,,,,,,,,,,2015_Jul_08_1018,59.9261621461,LearningTask,1,72,
200,w,200,,,,,,,,,,,,,,,,,0,0,0,0,15,2,62,0,,,,,,,,,,,,,,,,,,,,,,,,,,,,,w,1,0.300750017166,None,0,4.0,invertedtrianglegray.gif,go,,,,,,,,,,,,,,,,,,,,,,,,,,,,,,,4.2,0.514069795609,0.000894784927368,0.300750017166,1,w,512.218752861,,,,,,,,,,,,,,,,,,,,,,,,,,,,,,,,,,,,,,,,,,,,,,,,,,,,,,,2015_Jul_08_1018,59.9261621461,LearningTask,1,72,
-200,a,-200,,,,,,,,,,,,,,,,,0,0,0,0,15,3,63,3,,,,,,,,,,,,,,,,,,,,,,,,,,,,,a,1,0.385080814362,None,0,4.0,diamondgreen.gif,stop,,,,,,,,,,,,,,,,,,,,,,,,,,,,,,,3.96,0.513846158981,0.00090503692627,0.385080814362,1,a,515.221765995,,,,,,,,,,,,,,,,,,,,,,,,,,,,,,,,,,,,,,,,,,,,,,,,,,,,,,,2015_Jul_08_1018,59.9261621461,LearningTask,1,72,
200,w,200,,,,,,,,,,,,,,,,,0,0,0,0,16,0,64,0,,,,,,,,,,,,,,,,,,,,,,,,,,,,,w,1,0.351000070572,None,0,1.0,trianglemagenta.gif,stop,,,,,,,,,,,,,,,,,,,,,,,,,,,,,,,0.97,0.51443195343,0.000898838043213,0.351000070572,1,w,518.225630999,,,,,,,,,,,,,,,,,,,,,,,,,,,,,,,,,,,,,,,,,,,,,,,,,,,,,,,2015_Jul_08_1018,59.9261621461,LearningTask,1,72,
-200,a,-200,,,,,,,,,,,,,,,,,0,0,0,0,16,1,65,3,,,,,,,,,,,,,,,,,,,,,,,,,,,,,a,1,0.383907079697,None,0,0.5,lineyellow.gif,stop,,,,,,,,,,,,,,,,,,,,,,,,,,,,,,,0.32,0.514095067978,0.000916957855225,0.383907079697,1,a,521.228610039,,,,,,,,,,,,,,,,,,,,,,,,,,,,,,,,,,,,,,,,,,,,,,,,,,,,,,,2015_Jul_08_1018,59.9261621461,LearningTask,1,72,
200,w,200,,,,,,,,,,,,,,,,,0,0,0,0,16,2,66,0,,,,,,,,,,,,,,,,,,,,,,,,,,,,,w,1,0.251145839691,None,0,0.5,lineyellow.gif,stop,,,,,,,,,,,,,,,,,,,,,,,,,,,,,,,0,0.514453887939,0.000921964645386,0.117000102997,0,q,524.231947899,0.7,0.515406847,0.0010039806366,0.251145839691,1,w,527.235908985,,,,,,,,,,,,,,,,,,,,,,,,,,,,,,,,,,,,,,,,,,,,,,,,2015_Jul_08_1018,59.9261621461,LearningTask,1,72,
-200,a,-200,,,,,,,,,,,,,,,,,0,0,0,0,16,3,67,3,,,,,,,,,,,,,,,,,,,,,,,,,,,,,a,1,0.31712603569,None,0,2.0,crossorange.gif,stop,,,,,,,,,,,,,,,,,,,,,,,,,,,,,,,1.93,0.514461994171,0.000893115997314,0.31712603569,1,a,530.238689899,,,,,,,,,,,,,,,,,,,,,,,,,,,,,,,,,,,,,,,,,,,,,,,,,,,,,,,2015_Jul_08_1018,59.9261621461,LearningTask,1,72,
200,s,-200,,,,,,,,,,,,,,,,,0,0,0,0,17,0,68,2,,,,,,,,,,,,,,,,,,,,,,,,,,,,,s,1,0.317461967468,None,0,0.5,circleblue.gif,go,,,,,,,,,,,,,,,,,,,,,,,,,,,,,,,0.27,0.514271020889,0.000942945480347,0.317461967468,1,s,533.242035866,,,,,,,,,,,,,,,,,,,,,,,,,,,,,,,,,,,,,,,,,,,,,,,,,,,,,,,2015_Jul_08_1018,59.9261621461,LearningTask,1,72,
-200,q,200,,,,,,,,,,,,,,,,,0,0,0,0,17,1,69,1,,,,,,,,,,,,,,,,,,,,,,,,,,,,,q,1,0.333843946457,None,0,0.5,lineyellow.gif,stop,,,,,,,,,,,,,,,,,,,,,,,,,,,,,,,0.61,0.514625072479,0.000957012176514,0.333843946457,1,q,536.245713949,,,,,,,,,,,,,,,,,,,,,,,,,,,,,,,,,,,,,,,,,,,,,,,,,,,,,,,2015_Jul_08_1018,59.9261621461,LearningTask,1,72,
-200,a,-200,,,,,,,,,,,,,,,,,0,0,0,0,17,2,70,3,,,,,,,,,,,,,,,,,,,,,,,,,,,,,a,1,0.317034959793,None,0,4.0,invertedtrianglegray.gif,go,,,,,,,,,,,,,,,,,,,,,,,,,,,,,,,3.79,0.514205932617,0.000941038131714,0.317034959793,1,a,539.248899937,,,,,,,,,,,,,,,,,,,,,,,,,,,,,,,,,,,,,,,,,,,,,,,,,,,,,,,2015_Jul_08_1018,59.9261621461,LearningTask,1,72,
200,w,200,,,,,,,,,,,,,,,,,0,0,0,0,17,3,71,0,,,,,,,,,,,,,,,,,,,,,,,,,,,,,w,1,0.317427873611,None,0,1.0,trianglemagenta.gif,stop,,,,,,,,,,,,,,,,,,,,,,,,,,,,,,,0,0.514037132263,0.00105714797974,0.317427873611,1,w,542.252099037,,,,,,,,,,,,,,,,,,,,,,,,,,,,,,,,,,,,,,,,,,,,,,,,,,,,,,,2015_Jul_08_1018,59.9261621461,LearningTask,1,72,
-200,a,-200,,,,,,,,,,,,,,,,,0,0,0,0,18,0,72,3,,,,,,,,,,,,,,,,,,,,,,,,,,,,,a,1,0.367152929306,None,0,2.0,crossorange.gif,stop,,,,,,,,,,,,,,,,,,,,,,,,,,,,,,,1.88,0.514300107956,0.000952959060669,0.367152929306,1,a,545.255297899,,,,,,,,,,,,,,,,,,,,,,,,,,,,,,,,,,,,,,,,,,,,,,,,,,,,,,,2015_Jul_08_1018,59.9261621461,LearningTask,1,72,
200,s,-200,,,,,,,,,,,,,,,,,0,0,0,0,18,1,73,2,,,,,,,,,,,,,,,,,,,,,,,,,,,,,s,1,0.334105014801,None,0,2.0,squarewhite.gif,go,,,,,,,,,,,,,,,,,,,,,,,,,,,,,,,0,0.514409065247,0.00117301940918,0.334105014801,1,s,548.258798838,,,,,,,,,,,,,,,,,,,,,,,,,,,,,,,,,,,,,,,,,,,,,,,,,,,,,,,2015_Jul_08_1018,59.9261621461,LearningTask,1,72,
200,w,200,,,,,,,,,,,,,,,,,0,0,0,0,18,2,74,0,,,,,,,,,,,,,,,,,,,,,,,,,,,,,w,1,0.350893974304,None,0,0.5,circleblue.gif,go,,,,,,,,,,,,,,,,,,,,,,,,,,,,,,,0.48,0.514032840729,0.000936031341553,0.350893974304,1,w,551.262037039,,,,,,,,,,,,,,,,,,,,,,,,,,,,,,,,,,,,,,,,,,,,,,,,,,,,,,,2015_Jul_08_1018,59.9261621461,LearningTask,1,72,
200,w,200,,,,,,,,,,,,,,,,,0,0,0,0,18,3,75,0,,,,,,,,,,,,,,,,,,,,,,,,,,,,,w,1,0.36737203598,None,0,0.5,circleblue.gif,go,,,,,,,,,,,,,,,,,,,,,,,,,,,,,,,0.57,0.514622926712,0.00100183486938,0.36737203598,1,w,554.265888929,,,,,,,,,,,,,,,,,,,,,,,,,,,,,,,,,,,,,,,,,,,,,,,,,,,,,,,2015_Jul_08_1018,59.9261621461,LearningTask,1,72,
-200,a,-200,,,,,,,,,,,,,,,,,0,0,0,0,19,0,76,3,,,,,,,,,,,,,,,,,,,,,,,,,,,,,a,1,0.084300994873,None,0,1.0,hexagoncyan.gif,go,,,,,,,,,,,,,,,,,,,,,,,,,,,,,,,0,0.514258146286,0.000913143157959,0.117209911346,0,q,557.269012928,1.05,0.515410900116,0.00102591514587,0.084300994873,1,a,560.272251844,,,,,,,,,,,,,,,,,,,,,,,,,,,,,,,,,,,,,,,,,,,,,,,,2015_Jul_08_1018,59.9261621461,LearningTask,1,72,
-200,q,200,,,,,,,,,,,,,,,,,0,0,0,0,19,1,77,1,,,,,,,,,,,,,,,,,,,,,,,,,,,,,q,1,0.334591150284,None,0,0.5,circleblue.gif,go,,,,,,,,,,,,,,,,,,,,,,,,,,,,,,,0.48,0.51395201683,0.000940084457397,0.334591150284,1,q,563.275807858,,,,,,,,,,,,,,,,,,,,,,,,,,,,,,,,,,,,,,,,,,,,,,,,,,,,,,,2015_Jul_08_1018,59.9261621461,LearningTask,1,72,
200,w,200,,,,,,,,,,,,,,,,,0,0,0,0,19,2,78,0,,,,,,,,,,,,,,,,,,,,,,,,,,,,,w,1,0.367906093597,None,0,2.0,crossorange.gif,stop,,,,,,,,,,,,,,,,,,,,,,,,,,,,,,,0,0.514003992081,0.000910997390747,0.367906093597,1,w,566.279402971,,,,,,,,,,,,,,,,,,,,,,,,,,,,,,,,,,,,,,,,,,,,,,,,,,,,,,,2015_Jul_08_1018,59.9261621461,LearningTask,1,72,
200,s,-200,,,,,,,,,,,,,,,,,0,0,0,0,19,3,79,2,,,,,,,,,,,,,,,,,,,,,,,,,,,,,s,1,0.234081983566,None,0,1.0,hexagoncyan.gif,go,,,,,,,,,,,,,,,,,,,,,,,,,,,,,,,0.9,0.513705015182,0.000954151153564,0.234081983566,1,s,569.282228947,,,,,,,,,,,,,,,,,,,,,,,,,,,,,,,,,,,,,,,,,,,,,,,,,,,,,,,2015_Jul_08_1018,59.9261621461,LearningTask,1,72,
-200,q,200,,,,,,,,,,,,,,,,,0,0,0,0,20,0,80,1,,,,,,,,,,,,,,,,,,,,,,,,,,,,,q,1,0.367686033249,None,0,4.0,diamondgreen.gif,stop,,,,,,,,,,,,,,,,,,,,,,,,,,,,,,,3.79,0.514364004135,0.000894069671631,0.367686033249,1,q,572.285506964,,,,,,,,,,,,,,,,,,,,,,,,,,,,,,,,,,,,,,,,,,,,,,,,,,,,,,,2015_Jul_08_1018,59.9261621461,LearningTask,1,72,
200,w,200,,,,,,,,,,,,,,,,,0,0,0,0,20,1,81,0,,,,,,,,,,,,,,,,,,,,,,,,,,,,,w,1,0.334748983383,None,0,2.0,squarewhite.gif,go,,,,,,,,,,,,,,,,,,,,,,,,,,,,,,,2.16,0.514410018921,0.000917911529541,0.334748983383,1,w,575.289134979,,,,,,,,,,,,,,,,,,,,,,,,,,,,,,,,,,,,,,,,,,,,,,,,,,,,,,,2015_Jul_08_1018,59.9261621461,LearningTask,1,72,
-200,a,-200,,,,,,,,,,,,,,,,,0,0,0,0,20,2,82,3,,,,,,,,,,,,,,,,,,,,,,,,,,,,,a,1,0.30090713501,None,0,2.0,crossorange.gif,stop,,,,,,,,,,,,,,,,,,,,,,,,,,,,,,,2.05,0.514178991318,0.000900030136108,0.30090713501,1,a,578.292392015,,,,,,,,,,,,,,,,,,,,,,,,,,,,,,,,,,,,,,,,,,,,,,,,,,,,,,,2015_Jul_08_1018,59.9261621461,LearningTask,1,72,
-200,a,-200,,,,,,,,,,,,,,,,,0,0,0,0,20,3,83,3,,,,,,,,,,,,,,,,,,,,,,,,,,,,,a,1,0.367804050446,None,0,1.0,trianglemagenta.gif,stop,,,,,,,,,,,,,,,,,,,,,,,,,,,,,,,1.02,0.514233827591,0.000946998596191,0.367804050446,1,a,581.295547962,,,,,,,,,,,,,,,,,,,,,,,,,,,,,,,,,,,,,,,,,,,,,,,,,,,,,,,2015_Jul_08_1018,59.9261621461,LearningTask,1,72,
200,w,200,,,,,,,,,,,,,,,,,0,0,0,0,21,0,84,0,,,,,,,,,,,,,,,,,,,,,,,,,,,,,w,1,0.333945035934,None,0,2.0,crossorange.gif,stop,,,,,,,,,,,,,,,,,,,,,,,,,,,,,,,1.79,0.514623880386,0.000903844833374,0.333945035934,1,w,584.299193859,,,,,,,,,,,,,,,,,,,,,,,,,,,,,,,,,,,,,,,,,,,,,,,,,,,,,,,2015_Jul_08_1018,59.9261621461,LearningTask,1,72,
200,w,200,,,,,,,,,,,,,,,,,0,0,0,0,21,1,85,0,,,,,,,,,,,,,,,,,,,,,,,,,,,,,w,1,0.367980003357,None,0,4.0,invertedtrianglegray.gif,go,,,,,,,,,,,,,,,,,,,,,,,,,,,,,,,3.86,0.513959884644,0.000906944274902,0.367980003357,1,w,587.302512884,,,,,,,,,,,,,,,,,,,,,,,,,,,,,,,,,,,,,,,,,,,,,,,,,,,,,,,2015_Jul_08_1018,59.9261621461,LearningTask,1,72,
200,w,200,,,,,,,,,,,,,,,,,0,0,0,0,21,2,86,0,,,,,,,,,,,,,,,,,,,,,,,,,,,,,w,1,0.38422703743,None,0,0.5,lineyellow.gif,stop,,,,,,,,,,,,,,,,,,,,,,,,,,,,,,,0.26,0.51393699646,0.00117897987366,0.38422703743,1,w,590.305822849,,,,,,,,,,,,,,,,,,,,,,,,,,,,,,,,,,,,,,,,,,,,,,,,,,,,,,,2015_Jul_08_1018,59.9261621461,LearningTask,1,72,
200,w,200,,,,,,,,,,,,,,,,,0,0,0,0,21,3,87,0,,,,,,,,,,,,,,,,,,,,,,,,,,,,,w,1,0.351258039474,None,0,2.0,crossorange.gif,stop,,,,,,,,,,,,,,,,,,,,,,,,,,,,,,,2.15,0.514321088791,0.00090503692627,0.351258039474,1,w,593.309068918,,,,,,,,,,,,,,,,,,,,,,,,,,,,,,,,,,,,,,,,,,,,,,,,,,,,,,,2015_Jul_08_1018,59.9261621461,LearningTask,1,72,
-200,q,200,,,,,,,,,,,,,,,,,0,0,0,0,22,0,88,1,,,,,,,,,,,,,,,,,,,,,,,,,,,,,q,1,0.317145109177,None,0,2.0,squarewhite.gif,go,,,,,,,,,,,,,,,,,,,,,,,,,,,,,,,1.85,0.514582872391,0.000921964645386,0.317145109177,1,q,596.312422991,,,,,,,,,,,,,,,,,,,,,,,,,,,,,,,,,,,,,,,,,,,,,,,,,,,,,,,2015_Jul_08_1018,59.9261621461,LearningTask,1,72,
-200,q,200,,,,,,,,,,,,,,,,,0,0,0,0,22,1,89,1,,,,,,,,,,,,,,,,,,,,,,,,,,,,,q,1,0.367444038391,None,0,4.0,invertedtrianglegray.gif,go,,,,,,,,,,,,,,,,,,,,,,,,,,,,,,,4.04,0.514213085175,0.000948190689087,0.367444038391,1,q,599.315904856,,,,,,,,,,,,,,,,,,,,,,,,,,,,,,,,,,,,,,,,,,,,,,,,,,,,,,,2015_Jul_08_1018,59.9261621461,LearningTask,1,72,
200,s,-200,,,,,,,,,,,,,,,,,0,0,0,0,22,2,90,2,,,,,,,,,,,,,,,,,,,,,,,,,,,,,s,1,0.284044027328,None,0,1.0,trianglemagenta.gif,stop,,,,,,,,,,,,,,,,,,,,,,,,,,,,,,,1.16,0.514060974121,0.000938892364502,0.284044027328,1,s,602.319236994,,,,,,,,,,,,,,,,,,,,,,,,,,,,,,,,,,,,,,,,,,,,,,,,,,,,,,,2015_Jul_08_1018,59.9261621461,LearningTask,1,72,
-200,a,-200,,,,,,,,,,,,,,,,,0,0,0,0,22,3,91,3,,,,,,,,,,,,,,,,,,,,,,,,,,,,,a,1,0.40106010437,None,0,2.0,squarewhite.gif,go,,,,,,,,,,,,,,,,,,,,,,,,,,,,,,,2.09,0.514424085617,0.000904083251953,0.40106010437,1,a,605.322729826,,,,,,,,,,,,,,,,,,,,,,,,,,,,,,,,,,,,,,,,,,,,,,,,,,,,,,,2015_Jul_08_1018,59.9261621461,LearningTask,1,72,
200,s,-200,,,,,,,,,,,,,,,,,0,0,0,0,23,0,92,2,,,,,,,,,,,,,,,,,,,,,,,,,,,,,s,1,0.334404945374,None,0,4.0,diamondgreen.gif,stop,,,,,,,,,,,,,,,,,,,,,,,,,,,,,,,3.97,0.513808012009,0.000936031341553,0.334404945374,1,s,608.325803995,,,,,,,,,,,,,,,,,,,,,,,,,,,,,,,,,,,,,,,,,,,,,,,,,,,,,,,2015_Jul_08_1018,59.9261621461,LearningTask,1,72,
200,s,-200,,,,,,,,,,,,,,,,,0,0,0,0,23,1,93,2,,,,,,,,,,,,,,,,,,,,,,,,,,,,,s,1,0.868046045303,None,0,0.5,circleblue.gif,go,,,,,,,,,,,,,,,,,,,,,,,,,,,,,,,0.59,0.514096975327,0.000969886779785,0.868046045303,1,s,611.329166889,,,,,,,,,,,,,,,,,,,,,,,,,,,,,,,,,,,,,,,,,,,,,,,,,,,,,,,2015_Jul_08_1018,59.9261621461,LearningTask,1,72,
-200,a,-200,,,,,,,,,,,,,,,,,0,0,0,0,23,2,94,3,,,,,,,,,,,,,,,,,,,,,,,,,,,,,a,1,0.384734869003,None,0,2.0,crossorange.gif,stop,,,,,,,,,,,,,,,,,,,,,,,,,,,,,,,2.07,0.514276981354,0.000907182693481,0.384734869003,1,a,614.333246946,,,,,,,,,,,,,,,,,,,,,,,,,,,,,,,,,,,,,,,,,,,,,,,,,,,,,,,2015_Jul_08_1018,59.9261621461,LearningTask,1,72,
200,s,-200,,,,,,,,,,,,,,,,,0,0,0,0,23,3,95,2,,,,,,,,,,,,,,,,,,,,,,,,,,,,,s,1,0.334380865097,None,0,4.0,diamondgreen.gif,stop,,,,,,,,,,,,,,,,,,,,,,,,,,,,,,,3.83,0.513205051422,0.000915050506592,0.334380865097,1,s,617.336272955,,,,,,,,,,,,,,,,,,,,,,,,,,,,,,,,,,,,,,,,,,,,,,,,,,,,,,,2015_Jul_08_1018,59.9261621461,LearningTask,1,72,
200,s,-200,,,,,,,,,,,,,,,,,0,0,0,0,24,0,96,2,,,,,,,,,,,,,,,,,,,,,,,,,,,,,s,1,0.333706855774,None,0,2.0,crossorange.gif,stop,,,,,,,,,,,,,,,,,,,,,,,,,,,,,,,2.23,0.514382839203,0.000900030136108,0.333706855774,1,s,620.339326859,,,,,,,,,,,,,,,,,,,,,,,,,,,,,,,,,,,,,,,,,,,,,,,,,,,,,,,2015_Jul_08_1018,59.9261621461,LearningTask,1,72,
-200,q,200,,,,,,,,,,,,,,,,,0,0,0,0,24,1,97,1,,,,,,,,,,,,,,,,,,,,,,,,,,,,,q,1,0.317307949066,None,0,1.0,hexagoncyan.gif,go,,,,,,,,,,,,,,,,,,,,,,,,,,,,,,,0.93,0.514503002167,0.00090503692627,0.317307949066,1,q,623.342850924,,,,,,,,,,,,,,,,,,,,,,,,,,,,,,,,,,,,,,,,,,,,,,,,,,,,,,,2015_Jul_08_1018,59.9261621461,LearningTask,1,72,
200,w,200,,,,,,,,,,,,,,,,,0,0,0,0,24,2,98,0,,,,,,,,,,,,,,,,,,,,,,,,,,,,,w,1,0.384438991547,None,0,0.5,circleblue.gif,go,,,,,,,,,,,,,,,,,,,,,,,,,,,,,,,0,0.514034032822,0.000942945480347,0.384438991547,1,w,626.345999956,,,,,,,,,,,,,,,,,,,,,,,,,,,,,,,,,,,,,,,,,,,,,,,,,,,,,,,2015_Jul_08_1018,59.9261621461,LearningTask,1,72,
-200,q,200,,,,,,,,,,,,,,,,,0,0,0,0,24,3,99,1,,,,,,,,,,,,,,,,,,,,,,,,,,,,,q,1,0.367578983307,None,0,2.0,squarewhite.gif,go,,,,,,,,,,,,,,,,,,,,,,,,,,,,,,,2.24,0.514215946198,0.0010449886322,0.367578983307,1,q,629.349171877,,,,,,,,,,,,,,,,,,,,,,,,,,,,,,,,,,,,,,,,,,,,,,,,,,,,,,,2015_Jul_08_1018,59.9261621461,LearningTask,1,72,
,,,,,,,,,,,,,,,,,,,0,0,0,0,,,,,,,,,,,,,,,,,,,,,,,,,,,,,,,,,,,,,,,,,,,,,,,,,,,,,,,,,,,,,,,,,,,,,,,,,,,,,,,,,,,,,9,17.3390898705,,,,,,,,,,,,,,,,,,,,,,,,,,,,,,,,,,,,,,,,,,,,,,2015_Jul_08_1018,59.9261621461,LearningTask,1,72,
200,s,-200,,,,,,,,,,,,,,,,,1,0,1,0,0,0,0,2,,,,,,,,,,,,,,,,,,,,,,,,,,,,,s,1,0.400661945343,None,0,1.0,trianglemagenta.gif,stop,,,,,,,,,,,,,,,,,,,,,,,,,,,,,,,0.78,0.510452985764,0.000913143157959,0.400661945343,1,s,650.156659842,,,,,,,,,,,,,,,,,,,,,,,,,,,,,,,,,,,,,,,,,,,,,,,,,,,,,,,2015_Jul_08_1018,59.9261621461,LearningTask,1,72,
-200,a,-200,,,,,,,,,,,,,,,,,1,0,1,0,0,1,1,3,,,,,,,,,,,,,,,,,,,,,,,,,,,,,a,1,0.400761127472,None,0,4.0,invertedtrianglegray.gif,go,,,,,,,,,,,,,,,,,,,,,,,,,,,,,,,3.93,0.513548851013,0.000917911529541,0.400761127472,1,a,653.159298897,,,,,,,,,,,,,,,,,,,,,,,,,,,,,,,,,,,,,,,,,,,,,,,,,,,,,,,2015_Jul_08_1018,59.9261621461,LearningTask,1,72,
-200,q,200,,,,,,,,,,,,,,,,,1,0,1,0,0,2,2,1,,,,,,,,,,,,,,,,,,,,,,,,,,,,,q,1,0.367681026459,None,0,2.0,crossorange.gif,stop,,,,,,,,,,,,,,,,,,,,,,,,,,,,,,,1.89,0.51435303688,0.000909805297852,0.367681026459,1,q,656.162817955,,,,,,,,,,,,,,,,,,,,,,,,,,,,,,,,,,,,,,,,,,,,,,,,,,,,,,,2015_Jul_08_1018,59.9261621461,LearningTask,1,72,
-200,a,-200,,,,,,,,,,,,,,,,,1,0,1,0,0,3,3,3,,,,,,,,,,,,,,,,,,,,,,,,,,,,,a,1,0.350972175598,None,0,4.0,invertedtrianglegray.gif,go,,,,,,,,,,,,,,,,,,,,,,,,,,,,,,,4.16,0.514050960541,0.000938892364502,0.350972175598,1,a,659.166102886,,,,,,,,,,,,,,,,,,,,,,,,,,,,,,,,,,,,,,,,,,,,,,,,,,,,,,,2015_Jul_08_1018,59.9261621461,LearningTask,1,72,
-200,q,200,,,,,,,,,,,,,,,,,1,0,1,0,1,0,4,1,,,,,,,,,,,,,,,,,,,,,,,,,,,,,q,1,0.284203052521,None,0,0.5,lineyellow.gif,stop,,,,,,,,,,,,,,,,,,,,,,,,,,,,,,,0.27,0.513755083084,0.000976085662842,0.284203052521,1,q,662.169260979,,,,,,,,,,,,,,,,,,,,,,,,,,,,,,,,,,,,,,,,,,,,,,,,,,,,,,,2015_Jul_08_1018,59.9261621461,LearningTask,1,72,
200,s,-200,,,,,,,,,,,,,,,,,1,0,1,0,1,1,5,2,,,,,,,,,,,,,,,,,,,,,,,,,,,,,s,1,0.334136962891,None,0,0.5,lineyellow.gif,stop,,,,,,,,,,,,,,,,,,,,,,,,,,,,,,,0.61,0.514706850052,0.000901937484741,0.334136962891,1,s,665.172647953,,,,,,,,,,,,,,,,,,,,,,,,,,,,,,,,,,,,,,,,,,,,,,,,,,,,,,,2015_Jul_08_1018,59.9261621461,LearningTask,1,72,
-200,q,200,,,,,,,,,,,,,,,,,1,0,1,0,1,2,6,1,,,,,,,,,,,,,,,,,,,,,,,,,,,,,q,1,0.300467014313,None,0,4.0,diamondgreen.gif,stop,,,,,,,,,,,,,,,,,,,,,,,,,,,,,,,0,0.514756917953,0.000905990600586,0.300467014313,1,q,668.176273823,,,,,,,,,,,,,,,,,,,,,,,,,,,,,,,,,,,,,,,,,,,,,,,,,,,,,,,2015_Jul_08_1018,59.9261621461,LearningTask,1,72,
200,w,200,,,,,,,,,,,,,,,,,1,0,1,0,1,3,7,0,,,,,,,,,,,,,,,,,,,,,,,,,,,,,w,1,0.317868947983,None,0,4.0,diamondgreen.gif,stop,,,,,,,,,,,,,,,,,,,,,,,,,,,,,,,0,0.514281988144,0.000916004180908,0.317868947983,1,w,671.179349899,,,,,,,,,,,,,,,,,,,,,,,,,,,,,,,,,,,,,,,,,,,,,,,,,,,,,,,2015_Jul_08_1018,59.9261621461,LearningTask,1,72,
200,w,200,,,,,,,,,,,,,,,,,1,0,1,0,2,0,8,0,,,,,,,,,,,,,,,,,,,,,,,,,,,,,w,1,0.366800069809,None,0,1.0,hexagoncyan.gif,go,,,,,,,,,,,,,,,,,,,,,,,,,,,,,,,1.15,0.514760971069,0.000903129577637,0.366800069809,1,w,674.182684898,,,,,,,,,,,,,,,,,,,,,,,,,,,,,,,,,,,,,,,,,,,,,,,,,,,,,,,2015_Jul_08_1018,59.9261621461,LearningTask,1,72,
200,w,200,,,,,,,,,,,,,,,,,1,0,1,0,2,1,9,0,,,,,,,,,,,,,,,,,,,,,,,,,,,,,w,1,0.351027965546,None,0,1.0,hexagoncyan.gif,go,,,,,,,,,,,,,,,,,,,,,,,,,,,,,,,1.02,0.514302968979,0.000900030136108,0.351027965546,1,w,677.186192036,,,,,,,,,,,,,,,,,,,,,,,,,,,,,,,,,,,,,,,,,,,,,,,,,,,,,,,2015_Jul_08_1018,59.9261621461,LearningTask,1,72,
200,w,200,,,,,,,,,,,,,,,,,1,0,1,0,2,2,10,0,,,,,,,,,,,,,,,,,,,,,,,,,,,,,w,1,0.350215196609,None,0,4.0,invertedtrianglegray.gif,go,,,,,,,,,,,,,,,,,,,,,,,,,,,,,,,4.14,0.514247894287,0.000897884368896,0.350215196609,1,w,680.189339876,,,,,,,,,,,,,,,,,,,,,,,,,,,,,,,,,,,,,,,,,,,,,,,,,,,,,,,2015_Jul_08_1018,59.9261621461,LearningTask,1,72,
-200,a,-200,,,,,,,,,,,,,,,,,1,0,1,0,2,3,11,3,,,,,,,,,,,,,,,,,,,,,,,,,,,,,a,1,0.334026098251,None,0,4.0,invertedtrianglegray.gif,go,,,,,,,,,,,,,,,,,,,,,,,,,,,,,,,4.11,0.514549016953,0.00113201141357,0.334026098251,1,a,683.193166018,,,,,,,,,,,,,,,,,,,,,,,,,,,,,,,,,,,,,,,,,,,,,,,,,,,,,,,2015_Jul_08_1018,59.9261621461,LearningTask,1,72,
200,s,-200,,,,,,,,,,,,,,,,,1,0,1,0,3,0,12,2,,,,,,,,,,,,,,,,,,,,,,,,,,,,,s,1,0.350644826889,None,0,4.0,invertedtrianglegray.gif,go,,,,,,,,,,,,,,,,,,,,,,,,,,,,,,,4.16,0.514240980148,0.000911951065063,0.350644826889,1,s,686.196228027,,,,,,,,,,,,,,,,,,,,,,,,,,,,,,,,,,,,,,,,,,,,,,,,,,,,,,,2015_Jul_08_1018,59.9261621461,LearningTask,1,72,
-200,a,-200,,,,,,,,,,,,,,,,,1,0,1,0,3,1,13,3,,,,,,,,,,,,,,,,,,,,,,,,,,,,,a,1,0.401278018951,None,0,1.0,trianglemagenta.gif,stop,,,,,,,,,,,,,,,,,,,,,,,,,,,,,,,1.02,0.514371156693,0.000896215438843,0.401278018951,1,a,689.199395895,,,,,,,,,,,,,,,,,,,,,,,,,,,,,,,,,,,,,,,,,,,,,,,,,,,,,,,2015_Jul_08_1018,59.9261621461,LearningTask,1,72,
-200,a,-200,,,,,,,,,,,,,,,,,1,0,1,0,3,2,14,3,,,,,,,,,,,,,,,,,,,,,,,,,,,,,a,1,0.417890787125,None,0,1.0,trianglemagenta.gif,stop,,,,,,,,,,,,,,,,,,,,,,,,,,,,,,,0.94,0.514172792435,0.00100183486938,0.417890787125,1,a,692.20278883,,,,,,,,,,,,,,,,,,,,,,,,,,,,,,,,,,,,,,,,,,,,,,,,,,,,,,,2015_Jul_08_1018,59.9261621461,LearningTask,1,72,
-200,a,-200,,,,,,,,,,,,,,,,,1,0,1,0,3,3,15,3,,,,,,,,,,,,,,,,,,,,,,,,,,,,,a,1,0.283923149109,None,0,1.0,hexagoncyan.gif,go,,,,,,,,,,,,,,,,,,,,,,,,,,,,,,,0,0.514715909958,0.000886917114258,0.283923149109,1,a,695.206352949,,,,,,,,,,,,,,,,,,,,,,,,,,,,,,,,,,,,,,,,,,,,,,,,,,,,,,,2015_Jul_08_1018,59.9261621461,LearningTask,1,72,
200,s,-200,,,,,,,,,,,,,,,,,1,0,1,0,4,0,16,2,,,,,,,,,,,,,,,,,,,,,,,,,,,,,s,1,0.351092815399,None,0,0.5,lineyellow.gif,stop,,,,,,,,,,,,,,,,,,,,,,,,,,,,,,,0.3,0.514128923416,0.00088095664978,0.351092815399,1,s,698.209617853,,,,,,,,,,,,,,,,,,,,,,,,,,,,,,,,,,,,,,,,,,,,,,,,,,,,,,,2015_Jul_08_1018,59.9261621461,LearningTask,1,72,
200,w,200,,,,,,,,,,,,,,,,,1,0,1,0,4,1,17,0,,,,,,,,,,,,,,,,,,,,,,,,,,,,,w,1,0.317198991776,None,0,1.0,trianglemagenta.gif,stop,,,,,,,,,,,,,,,,,,,,,,,,,,,,,,,0.89,0.514137983322,0.00095796585083,0.317198991776,1,w,701.21312499,,,,,,,,,,,,,,,,,,,,,,,,,,,,,,,,,,,,,,,,,,,,,,,,,,,,,,,2015_Jul_08_1018,59.9261621461,LearningTask,1,72,
-200,a,-200,,,,,,,,,,,,,,,,,1,0,1,0,4,2,18,3,,,,,,,,,,,,,,,,,,,,,,,,,,,,,a,1,0.350921869278,None,0,4.0,diamondgreen.gif,stop,,,,,,,,,,,,,,,,,,,,,,,,,,,,,,,4.15,0.513924837112,0.000931978225708,0.350921869278,1,a,704.216274023,,,,,,,,,,,,,,,,,,,,,,,,,,,,,,,,,,,,,,,,,,,,,,,,,,,,,,,2015_Jul_08_1018,59.9261621461,LearningTask,1,72,
200,w,200,,,,,,,,,,,,,,,,,1,0,1,0,4,3,19,0,,,,,,,,,,,,,,,,,,,,,,,,,,,,,w,1,0.267230987549,None,0,1.0,trianglemagenta.gif,stop,,,,,,,,,,,,,,,,,,,,,,,,,,,,,,,0.77,0.514415979385,0.000886917114258,0.267230987549,1,w,707.21993804,,,,,,,,,,,,,,,,,,,,,,,,,,,,,,,,,,,,,,,,,,,,,,,,,,,,,,,2015_Jul_08_1018,59.9261621461,LearningTask,1,72,
200,s,-200,,,,,,,,,,,,,,,,,1,0,1,0,5,0,20,2,,,,,,,,,,,,,,,,,,,,,,,,,,,,,s,1,0.284391880035,None,0,1.0,hexagoncyan.gif,go,,,,,,,,,,,,,,,,,,,,,,,,,,,,,,,1.23,0.513771057129,0.000899076461792,0.284391880035,1,s,710.223073006,,,,,,,,,,,,,,,,,,,,,,,,,,,,,,,,,,,,,,,,,,,,,,,,,,,,,,,2015_Jul_08_1018,59.9261621461,LearningTask,1,72,
-200,q,200,,,,,,,,,,,,,,,,,1,0,1,0,5,1,21,1,,,,,,,,,,,,,,,,,,,,,,,,,,,,,q,1,0.267619132996,None,0,1.0,trianglemagenta.gif,stop,,,,,,,,,,,,,,,,,,,,,,,,,,,,,,,1.1,0.514148950577,0.000882863998413,0.267619132996,1,q,713.226512909,,,,,,,,,,,,,,,,,,,,,,,,,,,,,,,,,,,,,,,,,,,,,,,,,,,,,,,2015_Jul_08_1018,59.9261621461,LearningTask,1,72,
200,w,200,,,,,,,,,,,,,,,,,1,0,1,0,5,2,22,0,,,,,,,,,,,,,,,,,,,,,,,,,,,,,w,1,0.350865125656,None,0,4.0,diamondgreen.gif,stop,,,,,,,,,,,,,,,,,,,,,,,,,,,,,,,3.96,0.51443195343,0.000886917114258,0.350865125656,1,w,716.23029685,,,,,,,,,,,,,,,,,,,,,,,,,,,,,,,,,,,,,,,,,,,,,,,,,,,,,,,2015_Jul_08_1018,59.9261621461,LearningTask,1,72,
-200,a,-200,,,,,,,,,,,,,,,,,1,0,1,0,5,3,23,3,,,,,,,,,,,,,,,,,,,,,,,,,,,,,a,1,0.334249019623,None,0,4.0,invertedtrianglegray.gif,go,,,,,,,,,,,,,,,,,,,,,,,,,,,,,,,3.99,0.513689994812,0.00112199783325,0.334249019623,1,a,719.232847929,,,,,,,,,,,,,,,,,,,,,,,,,,,,,,,,,,,,,,,,,,,,,,,,,,,,,,,2015_Jul_08_1018,59.9261621461,LearningTask,1,72,
200,s,-200,,,,,,,,,,,,,,,,,1,0,1,0,6,0,24,2,,,,,,,,,,,,,,,,,,,,,,,,,,,,,s,1,0.317462921143,None,0,2.0,squarewhite.gif,go,,,,,,,,,,,,,,,,,,,,,,,,,,,,,,,0,0.514614105225,0.000879049301147,0.317462921143,1,s,722.236320019,,,,,,,,,,,,,,,,,,,,,,,,,,,,,,,,,,,,,,,,,,,,,,,,,,,,,,,2015_Jul_08_1018,59.9261621461,LearningTask,1,72,
200,s,-200,,,,,,,,,,,,,,,,,1,0,1,0,6,1,25,2,,,,,,,,,,,,,,,,,,,,,,,,,,,,,s,1,0.65109705925,None,0,0.5,circleblue.gif,go,,,,,,,,,,,,,,,,,,,,,,,,,,,,,,,0,0.514164924622,0.000899076461792,0.234300851822,0,q,725.239826918,0.59,0.515443086624,0.000963926315308,0.65109705925,1,s,728.243532896,,,,,,,,,,,,,,,,,,,,,,,,,,,,,,,,,,,,,,,,,,,,,,,,2015_Jul_08_1018,59.9261621461,LearningTask,1,72,
-200,q,200,,,,,,,,,,,,,,,,,1,0,1,0,6,2,26,1,,,,,,,,,,,,,,,,,,,,,,,,,,,,,q,1,0.384325027466,None,0,2.0,crossorange.gif,stop,,,,,,,,,,,,,,,,,,,,,,,,,,,,,,,0,0.513669967651,0.00094199180603,0.384325027466,1,q,731.246722937,,,,,,,,,,,,,,,,,,,,,,,,,,,,,,,,,,,,,,,,,,,,,,,,,,,,,,,2015_Jul_08_1018,59.9261621461,LearningTask,1,72,
-200,q,200,,,,,,,,,,,,,,,,,1,0,1,0,6,3,27,1,,,,,,,,,,,,,,,,,,,,,,,,,,,,,q,1,0.201014041901,None,0,0.5,lineyellow.gif,stop,,,,,,,,,,,,,,,,,,,,,,,,,,,,,,,0,0.51437997818,0.000892162322998,0.233840942383,0,a,734.249917984,0,0.515214204788,0.000949144363403,0.201014041901,1,q,737.253207922,,,,,,,,,,,,,,,,,,,,,,,,,,,,,,,,,,,,,,,,,,,,,,,,2015_Jul_08_1018,59.9261621461,LearningTask,1,72,
200,s,-200,,,,,,,,,,,,,,,,,1,0,1,0,7,0,28,2,,,,,,,,,,,,,,,,,,,,,,,,,,,,,s,1,0.300933837891,None,0,1.0,trianglemagenta.gif,stop,,,,,,,,,,,,,,,,,,,,,,,,,,,,,,,1.16,0.513942956924,0.0010781288147,0.300933837891,1,s,740.256469965,,,,,,,,,,,,,,,,,,,,,,,,,,,,,,,,,,,,,,,,,,,,,,,,,,,,,,,2015_Jul_08_1018,59.9261621461,LearningTask,1,72,
200,w,200,,,,,,,,,,,,,,,,,1,0,1,0,7,1,29,0,,,,,,,,,,,,,,,,,,,,,,,,,,,,,w,1,0.317749977112,None,0,0.5,circleblue.gif,go,,,,,,,,,,,,,,,,,,,,,,,,,,,,,,,0.57,0.514302015305,0.000884056091309,0.317749977112,1,w,743.260082006,,,,,,,,,,,,,,,,,,,,,,,,,,,,,,,,,,,,,,,,,,,,,,,,,,,,,,,2015_Jul_08_1018,59.9261621461,LearningTask,1,72,
-200,q,200,,,,,,,,,,,,,,,,,1,0,1,0,7,2,30,1,,,,,,,,,,,,,,,,,,,,,,,,,,,,,q,1,0.334254980087,None,0,0.5,lineyellow.gif,stop,,,,,,,,,,,,,,,,,,,,,,,,,,,,,,,0.47,0.51406788826,0.000880002975464,0.334254980087,1,q,746.263773918,,,,,,,,,,,,,,,,,,,,,,,,,,,,,,,,,,,,,,,,,,,,,,,,,,,,,,,2015_Jul_08_1018,59.9261621461,LearningTask,1,72,
200,w,200,,,,,,,,,,,,,,,,,1,0,1,0,7,3,31,0,,,,,,,,,,,,,,,,,,,,,,,,,,,,,w,1,0.317788124084,None,0,4.0,diamondgreen.gif,stop,,,,,,,,,,,,,,,,,,,,,,,,,,,,,,,0,0.513155937195,0.000939846038818,0.317788124084,1,w,749.266814947,,,,,,,,,,,,,,,,,,,,,,,,,,,,,,,,,,,,,,,,,,,,,,,,,,,,,,,2015_Jul_08_1018,59.9261621461,LearningTask,1,72,
200,s,-200,,,,,,,,,,,,,,,,,1,0,1,0,8,0,32,2,,,,,,,,,,,,,,,,,,,,,,,,,,,,,s,1,0.300816059113,None,0,0.5,circleblue.gif,go,,,,,,,,,,,,,,,,,,,,,,,,,,,,,,,0.47,0.513898134232,0.000885963439941,0.300816059113,1,s,752.269904852,,,,,,,,,,,,,,,,,,,,,,,,,,,,,,,,,,,,,,,,,,,,,,,,,,,,,,,2015_Jul_08_1018,59.9261621461,LearningTask,1,72,
200,s,-200,,,,,,,,,,,,,,,,,1,0,1,0,8,1,33,2,,,,,,,,,,,,,,,,,,,,,,,,,,,,,s,1,0.317879915237,None,0,4.0,invertedtrianglegray.gif,go,,,,,,,,,,,,,,,,,,,,,,,,,,,,,,,4.01,0.514293909073,0.000885009765625,0.317879915237,1,s,755.27341485,,,,,,,,,,,,,,,,,,,,,,,,,,,,,,,,,,,,,,,,,,,,,,,,,,,,,,,2015_Jul_08_1018,59.9261621461,LearningTask,1,72,
-200,q,200,,,,,,,,,,,,,,,,,1,0,1,0,8,2,34,1,,,,,,,,,,,,,,,,,,,,,,,,,,,,,q,1,0.317352056503,None,0,0.5,lineyellow.gif,stop,,,,,,,,,,,,,,,,,,,,,,,,,,,,,,,0.43,0.513648033142,0.000929117202759,0.317352056503,1,q,758.276762009,,,,,,,,,,,,,,,,,,,,,,,,,,,,,,,,,,,,,,,,,,,,,,,,,,,,,,,2015_Jul_08_1018,59.9261621461,LearningTask,1,72,
-200,a,-200,,,,,,,,,,,,,,,,,1,0,1,0,8,3,35,3,,,,,,,,,,,,,,,,,,,,,,,,,,,,,a,1,0.267065048218,None,0,4.0,invertedtrianglegray.gif,go,,,,,,,,,,,,,,,,,,,,,,,,,,,,,,,4.07,0.514430046082,0.00088906288147,0.267065048218,1,a,761.280122042,,,,,,,,,,,,,,,,,,,,,,,,,,,,,,,,,,,,,,,,,,,,,,,,,,,,,,,2015_Jul_08_1018,59.9261621461,LearningTask,1,72,
200,w,200,,,,,,,,,,,,,,,,,1,0,1,0,9,0,36,0,,,,,,,,,,,,,,,,,,,,,,,,,,,,,w,1,0.300604820251,None,0,2.0,squarewhite.gif,go,,,,,,,,,,,,,,,,,,,,,,,,,,,,,,,0,0.514163970947,0.000939130783081,0.300604820251,1,w,764.283881903,,,,,,,,,,,,,,,,,,,,,,,,,,,,,,,,,,,,,,,,,,,,,,,,,,,,,,,2015_Jul_08_1018,59.9261621461,LearningTask,1,72,
200,w,200,,,,,,,,,,,,,,,,,1,0,1,0,9,1,37,0,,,,,,,,,,,,,,,,,,,,,,,,,,,,,w,1,0.350656986237,None,0,4.0,diamondgreen.gif,stop,,,,,,,,,,,,,,,,,,,,,,,,,,,,,,,4.23,0.513824939728,0.000883102416992,0.350656986237,1,w,767.286638021,,,,,,,,,,,,,,,,,,,,,,,,,,,,,,,,,,,,,,,,,,,,,,,,,,,,,,,2015_Jul_08_1018,59.9261621461,LearningTask,1,72,
200,w,200,,,,,,,,,,,,,,,,,1,0,1,0,9,2,38,0,,,,,,,,,,,,,,,,,,,,,,,,,,,,,w,1,0.4676258564,None,0,4.0,diamondgreen.gif,stop,,,,,,,,,,,,,,,,,,,,,,,,,,,,,,,3.86,0.514354944229,0.000879049301147,0.4676258564,1,w,770.290038824,,,,,,,,,,,,,,,,,,,,,,,,,,,,,,,,,,,,,,,,,,,,,,,,,,,,,,,2015_Jul_08_1018,59.9261621461,LearningTask,1,72,
200,s,-200,,,,,,,,,,,,,,,,,1,0,1,0,9,3,39,2,,,,,,,,,,,,,,,,,,,,,,,,,,,,,s,1,0.350695133209,None,0,2.0,crossorange.gif,stop,,,,,,,,,,,,,,,,,,,,,,,,,,,,,,,2.19,0.514275074005,0.000890016555786,0.350695133209,1,s,773.293319941,,,,,,,,,,,,,,,,,,,,,,,,,,,,,,,,,,,,,,,,,,,,,,,,,,,,,,,2015_Jul_08_1018,59.9261621461,LearningTask,1,72,
-200,a,-200,,,,,,,,,,,,,,,,,1,0,1,0,10,0,40,3,,,,,,,,,,,,,,,,,,,,,,,,,,,,,a,1,0.334086179733,None,0,0.5,lineyellow.gif,stop,,,,,,,,,,,,,,,,,,,,,,,,,,,,,,,0.54,0.514368057251,0.000888109207153,0.334086179733,1,a,776.297086,,,,,,,,,,,,,,,,,,,,,,,,,,,,,,,,,,,,,,,,,,,,,,,,,,,,,,,2015_Jul_08_1018,59.9261621461,LearningTask,1,72,
-200,a,-200,,,,,,,,,,,,,,,,,1,0,1,0,10,1,41,3,,,,,,,,,,,,,,,,,,,,,,,,,,,,,a,1,0.300831079483,None,0,1.0,trianglemagenta.gif,stop,,,,,,,,,,,,,,,,,,,,,,,,,,,,,,,1.0,0.513591051102,0.00100111961365,0.300831079483,1,a,779.300478935,,,,,,,,,,,,,,,,,,,,,,,,,,,,,,,,,,,,,,,,,,,,,,,,,,,,,,,2015_Jul_08_1018,59.9261621461,LearningTask,1,72,
200,s,-200,,,,,,,,,,,,,,,,,1,0,1,0,10,2,42,2,,,,,,,,,,,,,,,,,,,,,,,,,,,,,s,1,0.333765983582,None,0,2.0,crossorange.gif,stop,,,,,,,,,,,,,,,,,,,,,,,,,,,,,,,1.85,0.514273881912,0.000894069671631,0.333765983582,1,s,782.303607941,,,,,,,,,,,,,,,,,,,,,,,,,,,,,,,,,,,,,,,,,,,,,,,,,,,,,,,2015_Jul_08_1018,59.9261621461,LearningTask,1,72,
-200,q,200,,,,,,,,,,,,,,,,,1,0,1,0,10,3,43,1,,,,,,,,,,,,,,,,,,,,,,,,,,,,,q,1,0.301163911819,None,0,2.0,crossorange.gif,stop,,,,,,,,,,,,,,,,,,,,,,,,,,,,,,,1.86,0.514209032059,0.000882863998413,0.301163911819,1,q,785.306741953,,,,,,,,,,,,,,,,,,,,,,,,,,,,,,,,,,,,,,,,,,,,,,,,,,,,,,,2015_Jul_08_1018,59.9261621461,LearningTask,1,72,
-200,q,200,,,,,,,,,,,,,,,,,1,0,1,0,11,0,44,1,,,,,,,,,,,,,,,,,,,,,,,,,,,,,q,1,0.384748935699,None,0,0.5,circleblue.gif,go,,,,,,,,,,,,,,,,,,,,,,,,,,,,,,,0.66,0.514106035233,0.00105595588684,0.384748935699,1,q,788.310351849,,,,,,,,,,,,,,,,,,,,,,,,,,,,,,,,,,,,,,,,,,,,,,,,,,,,,,,2015_Jul_08_1018,59.9261621461,LearningTask,1,72,
200,s,-200,,,,,,,,,,,,,,,,,1,0,1,0,11,1,45,2,,,,,,,,,,,,,,,,,,,,,,,,,,,,,s,1,0.334195137024,None,0,1.0,hexagoncyan.gif,go,,,,,,,,,,,,,,,,,,,,,,,,,,,,,,,0,0.514183044434,0.000923871994019,0.334195137024,1,s,791.31347394,,,,,,,,,,,,,,,,,,,,,,,,,,,,,,,,,,,,,,,,,,,,,,,,,,,,,,,2015_Jul_08_1018,59.9261621461,LearningTask,1,72,
-200,q,200,,,,,,,,,,,,,,,,,1,0,1,0,11,2,46,1,,,,,,,,,,,,,,,,,,,,,,,,,,,,,q,1,0.367574930191,None,0,0.5,lineyellow.gif,stop,,,,,,,,,,,,,,,,,,,,,,,,,,,,,,,0.28,0.514430999756,0.000972032546997,0.367574930191,1,q,794.317186832,,,,,,,,,,,,,,,,,,,,,,,,,,,,,,,,,,,,,,,,,,,,,,,,,,,,,,,2015_Jul_08_1018,59.9261621461,LearningTask,1,72,
-200,a,-200,,,,,,,,,,,,,,,,,1,0,1,0,11,3,47,3,,,,,,,,,,,,,,,,,,,,,,,,,,,,,a,1,0.417812824249,None,0,2.0,squarewhite.gif,go,,,,,,,,,,,,,,,,,,,,,,,,,,,,,,,0,0.513386011124,0.00092601776123,0.417812824249,1,a,797.320374966,,,,,,,,,,,,,,,,,,,,,,,,,,,,,,,,,,,,,,,,,,,,,,,,,,,,,,,2015_Jul_08_1018,59.9261621461,LearningTask,1,72,
200,s,-200,,,,,,,,,,,,,,,,,1,0,1,0,12,0,48,2,,,,,,,,,,,,,,,,,,,,,,,,,,,,,s,1,0.317331075668,None,0,2.0,squarewhite.gif,go,,,,,,,,,,,,,,,,,,,,,,,,,,,,,,,2.07,0.514132976532,0.000895023345947,0.317331075668,1,s,800.323461056,,,,,,,,,,,,,,,,,,,,,,,,,,,,,,,,,,,,,,,,,,,,,,,,,,,,,,,2015_Jul_08_1018,59.9261621461,LearningTask,1,72,
-200,q,200,,,,,,,,,,,,,,,,,1,0,1,0,12,1,49,1,,,,,,,,,,,,,,,,,,,,,,,,,,,,,q,1,0.400892972946,None,0,4.0,invertedtrianglegray.gif,go,,,,,,,,,,,,,,,,,,,,,,,,,,,,,,,3.84,0.514462947845,0.000893115997314,0.400892972946,1,q,803.327129841,,,,,,,,,,,,,,,,,,,,,,,,,,,,,,,,,,,,,,,,,,,,,,,,,,,,,,,2015_Jul_08_1018,59.9261621461,LearningTask,1,72,
200,s,-200,,,,,,,,,,,,,,,,,1,0,1,0,12,2,50,2,,,,,,,,,,,,,,,,,,,,,,,,,,,,,s,1,0.301330804825,None,0,0.5,lineyellow.gif,stop,,,,,,,,,,,,,,,,,,,,,,,,,,,,,,,0,0.513366937637,0.000957012176514,0.301330804825,1,s,806.330443859,,,,,,,,,,,,,,,,,,,,,,,,,,,,,,,,,,,,,,,,,,,,,,,,,,,,,,,2015_Jul_08_1018,59.9261621461,LearningTask,1,72,
200,w,200,,,,,,,,,,,,,,,,,1,0,1,0,12,3,51,0,,,,,,,,,,,,,,,,,,,,,,,,,,,,,w,1,0.317505121231,None,0,1.0,hexagoncyan.gif,go,,,,,,,,,,,,,,,,,,,,,,,,,,,,,,,0.78,0.514126062393,0.000928163528442,0.317505121231,1,w,809.334133863,,,,,,,,,,,,,,,,,,,,,,,,,,,,,,,,,,,,,,,,,,,,,,,,,,,,,,,2015_Jul_08_1018,59.9261621461,LearningTask,1,72,
-200,q,200,,,,,,,,,,,,,,,,,1,0,1,0,13,0,52,1,,,,,,,,,,,,,,,,,,,,,,,,,,,,,q,1,0.284348964691,None,0,0.5,lineyellow.gif,stop,,,,,,,,,,,,,,,,,,,,,,,,,,,,,,,0.56,0.513655900955,0.000878810882568,0.284348964691,1,q,812.33740592,,,,,,,,,,,,,,,,,,,,,,,,,,,,,,,,,,,,,,,,,,,,,,,,,,,,,,,2015_Jul_08_1018,59.9261621461,LearningTask,1,72,
-200,a,-200,,,,,,,,,,,,,,,,,1,0,1,0,13,1,53,3,,,,,,,,,,,,,,,,,,,,,,,,,,,,,a,1,0.183953046799,None,0,2.0,squarewhite.gif,go,,,,,,,,,,,,,,,,,,,,,,,,,,,,,,,0,0.514185905457,0.000884056091309,0.250456094742,0,q,815.340447903,2.08,0.515408992767,0.000941038131714,0.183953046799,1,a,818.343683004,,,,,,,,,,,,,,,,,,,,,,,,,,,,,,,,,,,,,,,,,,,,,,,,2015_Jul_08_1018,59.9261621461,LearningTask,1,72,
200,w,200,,,,,,,,,,,,,,,,,1,0,1,0,13,2,54,0,,,,,,,,,,,,,,,,,,,,,,,,,,,,,w,1,0.318160057068,None,0,4.0,diamondgreen.gif,stop,,,,,,,,,,,,,,,,,,,,,,,,,,,,,,,4.05,0.514069080353,0.000914096832275,0.318160057068,1,w,821.347269058,,,,,,,,,,,,,,,,,,,,,,,,,,,,,,,,,,,,,,,,,,,,,,,,,,,,,,,2015_Jul_08_1018,59.9261621461,LearningTask,1,72,
-200,q,200,,,,,,,,,,,,,,,,,1,0,1,0,13,3,55,1,,,,,,,,,,,,,,,,,,,,,,,,,,,,,q,1,0.350703001022,None,0,1.0,hexagoncyan.gif,go,,,,,,,,,,,,,,,,,,,,,,,,,,,,,,,1.09,0.514019012451,0.00088906288147,0.350703001022,1,q,824.350491047,,,,,,,,,,,,,,,,,,,,,,,,,,,,,,,,,,,,,,,,,,,,,,,,,,,,,,,2015_Jul_08_1018,59.9261621461,LearningTask,1,72,
-200,a,-200,,,,,,,,,,,,,,,,,1,0,1,0,14,0,56,3,,,,,,,,,,,,,,,,,,,,,,,,,,,,,a,1,0.117594003677,None,0,1.0,hexagoncyan.gif,go,,,,,,,,,,,,,,,,,,,,,,,,,,,,,,,0,0.514493942261,0.00098705291748,0.217082977295,0,s,827.354114056,1.23,0.515064954758,0.000956058502197,0.117594003677,1,a,830.357278824,,,,,,,,,,,,,,,,,,,,,,,,,,,,,,,,,,,,,,,,,,,,,,,,2015_Jul_08_1018,59.9261621461,LearningTask,1,72,
200,w,200,,,,,,,,,,,,,,,,,1,0,1,0,14,1,57,0,,,,,,,,,,,,,,,,,,,,,,,,,,,,,w,1,0.367928981781,None,0,4.0,invertedtrianglegray.gif,go,,,,,,,,,,,,,,,,,,,,,,,,,,,,,,,0,0.514194011688,0.00088095664978,0.367928981781,1,w,833.360448837,,,,,,,,,,,,,,,,,,,,,,,,,,,,,,,,,,,,,,,,,,,,,,,,,,,,,,,2015_Jul_08_1018,59.9261621461,LearningTask,1,72,
200,s,-200,,,,,,,,,,,,,,,,,1,0,1,0,14,2,58,2,,,,,,,,,,,,,,,,,,,,,,,,,,,,,s,1,0.301076889038,None,0,2.0,crossorange.gif,stop,,,,,,,,,,,,,,,,,,,,,,,,,,,,,,,2.01,0.514132022858,0.00103902816772,0.301076889038,1,s,836.363672018,,,,,,,,,,,,,,,,,,,,,,,,,,,,,,,,,,,,,,,,,,,,,,,,,,,,,,,2015_Jul_08_1018,59.9261621461,LearningTask,1,72,
-200,a,-200,,,,,,,,,,,,,,,,,1,0,1,0,14,3,59,3,,,,,,,,,,,,,,,,,,,,,,,,,,,,,a,1,0.268060922623,None,0,1.0,hexagoncyan.gif,go,,,,,,,,,,,,,,,,,,,,,,,,,,,,,,,1.05,0.514398097992,0.000893115997314,0.268060922623,1,a,839.367293835,,,,,,,,,,,,,,,,,,,,,,,,,,,,,,,,,,,,,,,,,,,,,,,,,,,,,,,2015_Jul_08_1018,59.9261621461,LearningTask,1,72,
200,w,200,,,,,,,,,,,,,,,,,1,0,1,0,15,0,60,0,,,,,,,,,,,,,,,,,,,,,,,,,,,,,w,1,0.367702007294,None,0,1.0,trianglemagenta.gif,stop,,,,,,,,,,,,,,,,,,,,,,,,,,,,,,,0.84,0.514028787613,0.000908851623535,0.367702007294,1,w,842.37055397,,,,,,,,,,,,,,,,,,,,,,,,,,,,,,,,,,,,,,,,,,,,,,,,,,,,,,,2015_Jul_08_1018,59.9261621461,LearningTask,1,72,
-200,a,-200,,,,,,,,,,,,,,,,,1,0,1,0,15,1,61,3,,,,,,,,,,,,,,,,,,,,,,,,,,,,,a,1,0.417233943939,None,0,2.0,squarewhite.gif,go,,,,,,,,,,,,,,,,,,,,,,,,,,,,,,,1.97,0.514209985733,0.000910997390747,0.417233943939,1,a,845.374022961,,,,,,,,,,,,,,,,,,,,,,,,,,,,,,,,,,,,,,,,,,,,,,,,,,,,,,,2015_Jul_08_1018,59.9261621461,LearningTask,1,72,
-200,q,200,,,,,,,,,,,,,,,,,1,0,1,0,15,2,62,1,,,,,,,,,,,,,,,,,,,,,,,,,,,,,q,1,0.334401845932,None,0,0.5,lineyellow.gif,stop,,,,,,,,,,,,,,,,,,,,,,,,,,,,,,,0.61,0.514372825623,0.000886917114258,0.334401845932,1,q,848.377457857,,,,,,,,,,,,,,,,,,,,,,,,,,,,,,,,,,,,,,,,,,,,,,,,,,,,,,,2015_Jul_08_1018,59.9261621461,LearningTask,1,72,
200,s,-200,,,,,,,,,,,,,,,,,1,0,1,0,15,3,63,2,,,,,,,,,,,,,,,,,,,,,,,,,,,,,s,1,0.317396879196,None,0,0.5,circleblue.gif,go,,,,,,,,,,,,,,,,,,,,,,,,,,,,,,,0.69,0.514108181,0.000930070877075,0.317396879196,1,s,851.380821943,,,,,,,,,,,,,,,,,,,,,,,,,,,,,,,,,,,,,,,,,,,,,,,,,,,,,,,2015_Jul_08_1018,59.9261621461,LearningTask,1,72,
200,w,200,,,,,,,,,,,,,,,,,1,0,1,0,16,0,64,0,,,,,,,,,,,,,,,,,,,,,,,,,,,,,w,1,0.367563962936,None,0,0.5,lineyellow.gif,stop,,,,,,,,,,,,,,,,,,,,,,,,,,,,,,,0.41,0.513675928116,0.000942945480347,0.367563962936,1,w,854.384074926,,,,,,,,,,,,,,,,,,,,,,,,,,,,,,,,,,,,,,,,,,,,,,,,,,,,,,,2015_Jul_08_1018,59.9261621461,LearningTask,1,72,
200,s,-200,,,,,,,,,,,,,,,,,1,0,1,0,16,1,65,2,,,,,,,,,,,,,,,,,,,,,,,,,,,,,s,1,0.300919055939,None,0,1.0,hexagoncyan.gif,go,,,,,,,,,,,,,,,,,,,,,,,,,,,,,,,0.93,0.514225006104,0.000886917114258,0.300919055939,1,s,857.387336969,,,,,,,,,,,,,,,,,,,,,,,,,,,,,,,,,,,,,,,,,,,,,,,,,,,,,,,2015_Jul_08_1018,59.9261621461,LearningTask,1,72,
200,s,-200,,,,,,,,,,,,,,,,,1,0,1,0,16,2,66,2,,,,,,,,,,,,,,,,,,,,,,,,,,,,,s,1,0.301151990891,None,0,1.0,hexagoncyan.gif,go,,,,,,,,,,,,,,,,,,,,,,,,,,,,,,,0.77,0.514039039612,0.000892877578735,0.301151990891,1,s,860.391370058,,,,,,,,,,,,,,,,,,,,,,,,,,,,,,,,,,,,,,,,,,,,,,,,,,,,,,,2015_Jul_08_1018,59.9261621461,LearningTask,1,72,
-200,q,200,,,,,,,,,,,,,,,,,1,0,1,0,16,3,67,1,,,,,,,,,,,,,,,,,,,,,,,,,,,,,q,1,0.134582042694,None,0,2.0,squarewhite.gif,go,,,,,,,,,,,,,,,,,,,,,,,,,,,,,,,0,0.513514041901,0.000884056091309,0.25067281723,0,a,863.393959999,1.89,0.515535116196,0.000937938690186,0.134582042694,1,q,866.397276878,,,,,,,,,,,,,,,,,,,,,,,,,,,,,,,,,,,,,,,,,,,,,,,,2015_Jul_08_1018,59.9261621461,LearningTask,1,72,
200,w,200,,,,,,,,,,,,,,,,,1,0,1,0,17,0,68,0,,,,,,,,,,,,,,,,,,,,,,,,,,,,,w,1,0.317482948303,None,0,0.5,circleblue.gif,go,,,,,,,,,,,,,,,,,,,,,,,,,,,,,,,0.65,0.514389038086,0.000906944274902,0.317482948303,1,w,869.401104927,,,,,,,,,,,,,,,,,,,,,,,,,,,,,,,,,,,,,,,,,,,,,,,,,,,,,,,2015_Jul_08_1018,59.9261621461,LearningTask,1,72,
-200,q,200,,,,,,,,,,,,,,,,,1,0,1,0,17,1,69,1,,,,,,,,,,,,,,,,,,,,,,,,,,,,,q,1,0.350800991058,None,0,4.0,diamondgreen.gif,stop,,,,,,,,,,,,,,,,,,,,,,,,,,,,,,,4.25,0.514008045197,0.000894069671631,0.350800991058,1,q,872.404047966,,,,,,,,,,,,,,,,,,,,,,,,,,,,,,,,,,,,,,,,,,,,,,,,,,,,,,,2015_Jul_08_1018,59.9261621461,LearningTask,1,72,
-200,a,-200,,,,,,,,,,,,,,,,,1,0,1,0,17,2,70,3,,,,,,,,,,,,,,,,,,,,,,,,,,,,,a,1,0.333695888519,None,0,2.0,squarewhite.gif,go,,,,,,,,,,,,,,,,,,,,,,,,,,,,,,,0,0.514676809311,0.00115990638733,0.333695888519,1,a,875.407778025,,,,,,,,,,,,,,,,,,,,,,,,,,,,,,,,,,,,,,,,,,,,,,,,,,,,,,,2015_Jul_08_1018,59.9261621461,LearningTask,1,72,
200,w,200,,,,,,,,,,,,,,,,,1,0,1,0,17,3,71,0,,,,,,,,,,,,,,,,,,,,,,,,,,,,,w,1,0.38454079628,None,0,1.0,trianglemagenta.gif,stop,,,,,,,,,,,,,,,,,,,,,,,,,,,,,,,0.86,0.513767957687,0.000882148742676,0.38454079628,1,w,878.410939932,,,,,,,,,,,,,,,,,,,,,,,,,,,,,,,,,,,,,,,,,,,,,,,,,,,,,,,2015_Jul_08_1018,59.9261621461,LearningTask,1,72,
-200,a,-200,,,,,,,,,,,,,,,,,1,0,1,0,18,0,72,3,,,,,,,,,,,,,,,,,,,,,,,,,,,,,a,1,0.367877006531,None,0,2.0,crossorange.gif,stop,,,,,,,,,,,,,,,,,,,,,,,,,,,,,,,1.91,0.514200925827,0.000887870788574,0.367877006531,1,a,881.414175034,,,,,,,,,,,,,,,,,,,,,,,,,,,,,,,,,,,,,,,,,,,,,,,,,,,,,,,2015_Jul_08_1018,59.9261621461,LearningTask,1,72,
200,s,-200,,,,,,,,,,,,,,,,,1,0,1,0,18,1,73,2,,,,,,,,,,,,,,,,,,,,,,,,,,,,,s,1,0.351337909698,None,0,1.0,hexagoncyan.gif,go,,,,,,,,,,,,,,,,,,,,,,,,,,,,,,,1.13,0.513862848282,0.00112199783325,0.351337909698,1,s,884.417382956,,,,,,,,,,,,,,,,,,,,,,,,,,,,,,,,,,,,,,,,,,,,,,,,,,,,,,,2015_Jul_08_1018,59.9261621461,LearningTask,1,72,
-200,a,-200,,,,,,,,,,,,,,,,,1,0,1,0,18,2,74,3,,,,,,,,,,,,,,,,,,,,,,,,,,,,,a,1,0.134252786636,None,0,2.0,crossorange.gif,stop,,,,,,,,,,,,,,,,,,,,,,,,,,,,,,,0,0.514573812485,0.000897884368896,0.33401799202,0,q,887.420925856,0,0.51544380188,0.000957012176514,0.134252786636,1,a,890.424547911,,,,,,,,,,,,,,,,,,,,,,,,,,,,,,,,,,,,,,,,,,,,,,,,2015_Jul_08_1018,59.9261621461,LearningTask,1,72,
-200,a,-200,,,,,,,,,,,,,,,,,1,0,1,0,18,3,75,3,,,,,,,,,,,,,,,,,,,,,,,,,,,,,a,1,0.367094993591,None,0,4.0,invertedtrianglegray.gif,go,,,,,,,,,,,,,,,,,,,,,,,,,,,,,,,4.12,0.514237880707,0.000954866409302,0.367094993591,1,a,893.427832842,,,,,,,,,,,,,,,,,,,,,,,,,,,,,,,,,,,,,,,,,,,,,,,,,,,,,,,2015_Jul_08_1018,59.9261621461,LearningTask,1,72,
-200,q,200,,,,,,,,,,,,,,,,,1,0,1,0,19,0,76,1,,,,,,,,,,,,,,,,,,,,,,,,,,,,,q,1,0.400771856308,None,0,1.0,hexagoncyan.gif,go,,,,,,,,,,,,,,,,,,,,,,,,,,,,,,,0.92,0.514141798019,0.000883817672729,0.400771856308,1,q,896.430922985,,,,,,,,,,,,,,,,,,,,,,,,,,,,,,,,,,,,,,,,,,,,,,,,,,,,,,,2015_Jul_08_1018,59.9261621461,LearningTask,1,72,
-200,a,-200,,,,,,,,,,,,,,,,,1,0,1,0,19,1,77,3,,,,,,,,,,,,,,,,,,,,,,,,,,,,,a,1,0.3348300457,None,0,2.0,crossorange.gif,stop,,,,,,,,,,,,,,,,,,,,,,,,,,,,,,,1.76,0.514284133911,0.000879049301147,0.3348300457,1,a,899.434491873,,,,,,,,,,,,,,,,,,,,,,,,,,,,,,,,,,,,,,,,,,,,,,,,,,,,,,,2015_Jul_08_1018,59.9261621461,LearningTask,1,72,
200,w,200,,,,,,,,,,,,,,,,,1,0,1,0,19,2,78,0,,,,,,,,,,,,,,,,,,,,,,,,,,,,,w,1,0.334143877029,None,0,1.0,hexagoncyan.gif,go,,,,,,,,,,,,,,,,,,,,,,,,,,,,,,,0.97,0.513633012772,0.000918865203857,0.334143877029,1,w,902.437577963,,,,,,,,,,,,,,,,,,,,,,,,,,,,,,,,,,,,,,,,,,,,,,,,,,,,,,,2015_Jul_08_1018,59.9261621461,LearningTask,1,72,
-200,q,200,,,,,,,,,,,,,,,,,1,0,1,0,19,3,79,1,,,,,,,,,,,,,,,,,,,,,,,,,,,,,q,1,0.350857019424,None,0,1.0,trianglemagenta.gif,stop,,,,,,,,,,,,,,,,,,,,,,,,,,,,,,,1.05,0.514294862747,0.000881910324097,0.350857019424,1,q,905.44133687,,,,,,,,,,,,,,,,,,,,,,,,,,,,,,,,,,,,,,,,,,,,,,,,,,,,,,,2015_Jul_08_1018,59.9261621461,LearningTask,1,72,
-200,a,-200,,,,,,,,,,,,,,,,,1,0,1,0,20,0,80,3,,,,,,,,,,,,,,,,,,,,,,,,,,,,,a,1,0.334626913071,None,0,2.0,squarewhite.gif,go,,,,,,,,,,,,,,,,,,,,,,,,,,,,,,,2.15,0.513607025146,0.000961065292358,0.334626913071,1,a,908.444795847,,,,,,,,,,,,,,,,,,,,,,,,,,,,,,,,,,,,,,,,,,,,,,,,,,,,,,,2015_Jul_08_1018,59.9261621461,LearningTask,1,72,
200,w,200,,,,,,,,,,,,,,,,,1,0,1,0,20,1,81,0,,,,,,,,,,,,,,,,,,,,,,,,,,,,,w,1,0.367426872253,None,0,2.0,squarewhite.gif,go,,,,,,,,,,,,,,,,,,,,,,,,,,,,,,,2.04,0.513884067535,0.000880002975464,0.367426872253,1,w,911.44773984,,,,,,,,,,,,,,,,,,,,,,,,,,,,,,,,,,,,,,,,,,,,,,,,,,,,,,,2015_Jul_08_1018,59.9261621461,LearningTask,1,72,
200,s,-200,,,,,,,,,,,,,,,,,1,0,1,0,20,2,82,2,,,,,,,,,,,,,,,,,,,,,,,,,,,,,s,1,0.333935976028,None,0,2.0,squarewhite.gif,go,,,,,,,,,,,,,,,,,,,,,,,,,,,,,,,1.82,0.514359951019,0.000872850418091,0.333935976028,1,s,914.451040983,,,,,,,,,,,,,,,,,,,,,,,,,,,,,,,,,,,,,,,,,,,,,,,,,,,,,,,2015_Jul_08_1018,59.9261621461,LearningTask,1,72,
-200,a,-200,,,,,,,,,,,,,,,,,1,0,1,0,20,3,83,3,,,,,,,,,,,,,,,,,,,,,,,,,,,,,a,1,0.484014034271,None,0,1.0,hexagoncyan.gif,go,,,,,,,,,,,,,,,,,,,,,,,,,,,,,,,0,0.514086961746,0.000931024551392,0.484014034271,1,a,917.454874992,,,,,,,,,,,,,,,,,,,,,,,,,,,,,,,,,,,,,,,,,,,,,,,,,,,,,,,2015_Jul_08_1018,59.9261621461,LearningTask,1,72,
200,w,200,,,,,,,,,,,,,,,,,1,0,1,0,21,0,84,0,,,,,,,,,,,,,,,,,,,,,,,,,,,,,w,1,0.284264087677,None,0,4.0,invertedtrianglegray.gif,go,,,,,,,,,,,,,,,,,,,,,,,,,,,,,,,4.15,0.513673067093,0.000882148742676,0.284264087677,1,w,920.457766056,,,,,,,,,,,,,,,,,,,,,,,,,,,,,,,,,,,,,,,,,,,,,,,,,,,,,,,2015_Jul_08_1018,59.9261621461,LearningTask,1,72,
-200,q,200,,,,,,,,,,,,,,,,,1,0,1,0,21,1,85,1,,,,,,,,,,,,,,,,,,,,,,,,,,,,,q,1,0.384412050247,None,0,1.0,trianglemagenta.gif,stop,,,,,,,,,,,,,,,,,,,,,,,,,,,,,,,1.24,0.514246940613,0.00108313560486,0.384412050247,1,q,923.461607933,,,,,,,,,,,,,,,,,,,,,,,,,,,,,,,,,,,,,,,,,,,,,,,,,,,,,,,2015_Jul_08_1018,59.9261621461,LearningTask,1,72,
200,s,-200,,,,,,,,,,,,,,,,,1,0,1,0,21,2,86,2,,,,,,,,,,,,,,,,,,,,,,,,,,,,,s,1,0.316833019257,None,0,4.0,diamondgreen.gif,stop,,,,,,,,,,,,,,,,,,,,,,,,,,,,,,,0,0.514055013657,0.000903844833374,0.316833019257,1,s,926.464776039,,,,,,,,,,,,,,,,,,,,,,,,,,,,,,,,,,,,,,,,,,,,,,,,,,,,,,,2015_Jul_08_1018,59.9261621461,LearningTask,1,72,
200,w,200,,,,,,,,,,,,,,,,,1,0,1,0,21,3,87,0,,,,,,,,,,,,,,,,,,,,,,,,,,,,,w,1,0.334406852722,None,0,2.0,squarewhite.gif,go,,,,,,,,,,,,,,,,,,,,,,,,,,,,,,,1.96,0.513715028763,0.000874996185303,0.334406852722,1,w,929.467811823,,,,,,,,,,,,,,,,,,,,,,,,,,,,,,,,,,,,,,,,,,,,,,,,,,,,,,,2015_Jul_08_1018,59.9261621461,LearningTask,1,72,
-200,a,-200,,,,,,,,,,,,,,,,,1,0,1,0,22,0,88,3,,,,,,,,,,,,,,,,,,,,,,,,,,,,,a,1,0.250981092453,None,0,2.0,squarewhite.gif,go,,,,,,,,,,,,,,,,,,,,,,,,,,,,,,,2.13,0.514046907425,0.00105285644531,0.250981092453,1,a,932.471073866,,,,,,,,,,,,,,,,,,,,,,,,,,,,,,,,,,,,,,,,,,,,,,,,,,,,,,,2015_Jul_08_1018,59.9261621461,LearningTask,1,72,
200,s,-200,,,,,,,,,,,,,,,,,1,0,1,0,22,1,89,2,,,,,,,,,,,,,,,,,,,,,,,,,,,,,s,1,0.317834854126,None,0,2.0,crossorange.gif,stop,,,,,,,,,,,,,,,,,,,,,,,,,,,,,,,1.94,0.514129161835,0.000885009765625,0.317834854126,1,s,935.474769831,,,,,,,,,,,,,,,,,,,,,,,,,,,,,,,,,,,,,,,,,,,,,,,,,,,,,,,2015_Jul_08_1018,59.9261621461,LearningTask,1,72,
200,w,200,,,,,,,,,,,,,,,,,1,0,1,0,22,2,90,0,,,,,,,,,,,,,,,,,,,,,,,,,,,,,w,1,0.334192037582,None,0,1.0,hexagoncyan.gif,go,,,,,,,,,,,,,,,,,,,,,,,,,,,,,,,0.94,0.513993024826,0.00102305412292,0.334192037582,1,w,938.477808952,,,,,,,,,,,,,,,,,,,,,,,,,,,,,,,,,,,,,,,,,,,,,,,,,,,,,,,2015_Jul_08_1018,59.9261621461,LearningTask,1,72,
-200,a,-200,,,,,,,,,,,,,,,,,1,0,1,0,22,3,91,3,,,,,,,,,,,,,,,,,,,,,,,,,,,,,a,1,0.418062925339,None,0,0.5,circleblue.gif,go,,,,,,,,,,,,,,,,,,,,,,,,,,,,,,,0.74,0.514024019241,0.000957012176514,0.418062925339,1,a,941.481470823,,,,,,,,,,,,,,,,,,,,,,,,,,,,,,,,,,,,,,,,,,,,,,,,,,,,,,,2015_Jul_08_1018,59.9261621461,LearningTask,1,72,
-200,q,200,,,,,,,,,,,,,,,,,1,0,1,0,23,0,92,1,,,,,,,,,,,,,,,,,,,,,,,,,,,,,q,1,0.317477941513,None,0,4.0,invertedtrianglegray.gif,go,,,,,,,,,,,,,,,,,,,,,,,,,,,,,,,3.93,0.514115095139,0.000887155532837,0.317477941513,1,q,944.484583855,,,,,,,,,,,,,,,,,,,,,,,,,,,,,,,,,,,,,,,,,,,,,,,,,,,,,,,2015_Jul_08_1018,59.9261621461,LearningTask,1,72,
200,s,-200,,,,,,,,,,,,,,,,,1,0,1,0,23,1,93,2,,,,,,,,,,,,,,,,,,,,,,,,,,,,,s,1,0.26735496521,None,0,0.5,circleblue.gif,go,,,,,,,,,,,,,,,,,,,,,,,,,,,,,,,0.34,0.514389038086,0.000904083251953,0.26735496521,1,s,947.488011837,,,,,,,,,,,,,,,,,,,,,,,,,,,,,,,,,,,,,,,,,,,,,,,,,,,,,,,2015_Jul_08_1018,59.9261621461,LearningTask,1,72,
-200,q,200,,,,,,,,,,,,,,,,,1,0,1,0,23,2,94,1,,,,,,,,,,,,,,,,,,,,,,,,,,,,,q,1,0.367396116257,None,0,2.0,squarewhite.gif,go,,,,,,,,,,,,,,,,,,,,,,,,,,,,,,,0,0.514068841934,0.000922918319702,0.234345197678,0,a,950.49119091,0,0.515539884567,0.000952005386353,[],0,None,953.495017052,,,2.11,0.514988899231,0.000940799713135,0.367396116257,1,q,956.498864889,,,,,,,,,,,,,,,,,,,,,,,,,,,,,,,,,,,,,,,2015_Jul_08_1018,59.9261621461,LearningTask,1,72,
200,s,-200,,,,,,,,,,,,,,,,,1,0,1,0,23,3,95,2,,,,,,,,,,,,,,,,,,,,,,,,,,,,,s,1,0.350718021393,None,0,0.5,lineyellow.gif,stop,,,,,,,,,,,,,,,,,,,,,,,,,,,,,,,0,0.513294935226,0.000900030136108,0.350718021393,1,s,959.501153946,,,,,,,,,,,,,,,,,,,,,,,,,,,,,,,,,,,,,,,,,,,,,,,,,,,,,,,2015_Jul_08_1018,59.9261621461,LearningTask,1,72,
-200,q,200,,,,,,,,,,,,,,,,,1,0,1,0,24,0,96,1,,,,,,,,,,,,,,,,,,,,,,,,,,,,,q,1,0.234169006348,None,0,2.0,squarewhite.gif,go,,,,,,,,,,,,,,,,,,,,,,,,,,,,,,,2.2,0.514672994614,0.000903129577637,0.234169006348,1,q,962.504621983,,,,,,,,,,,,,,,,,,,,,,,,,,,,,,,,,,,,,,,,,,,,,,,,,,,,,,,2015_Jul_08_1018,59.9261621461,LearningTask,1,72,
-200,q,200,,,,,,,,,,,,,,,,,1,0,1,0,24,1,97,1,,,,,,,,,,,,,,,,,,,,,,,,,,,,,q,1,0.100260019302,None,0,4.0,diamondgreen.gif,stop,,,,,,,,,,,,,,,,,,,,,,,,,,,,,,,0,0.514600992203,0.000881910324097,0.367783069611,0,a,965.5082829,4.03,0.515413045883,0.000965118408203,0.100260019302,1,q,968.511340857,,,,,,,,,,,,,,,,,,,,,,,,,,,,,,,,,,,,,,,,,,,,,,,,2015_Jul_08_1018,59.9261621461,LearningTask,1,72,
200,w,200,,,,,,,,,,,,,,,,,1,0,1,0,24,2,98,0,,,,,,,,,,,,,,,,,,,,,,,,,,,,,w,1,0.333974123001,None,0,0.5,circleblue.gif,go,,,,,,,,,,,,,,,,,,,,,,,,,,,,,,,0,0.514409065247,0.00104713439941,0.333974123001,1,w,971.514431,,,,,,,,,,,,,,,,,,,,,,,,,,,,,,,,,,,,,,,,,,,,,,,,,,,,,,,2015_Jul_08_1018,59.9261621461,LearningTask,1,72,
-200,q,200,,,,,,,,,,,,,,,,,1,0,1,0,24,3,99,1,,,,,,,,,,,,,,,,,,,,,,,,,,,,,q,1,0.367819070816,None,0,1.0,hexagoncyan.gif,go,,,,,,,,,,,,,,,,,,,,,,,,,,,,,,,0.83,0.514383077621,0.000890970230103,0.367819070816,1,q,974.518237829,,,,,,,,,,,,,,,,,,,,,,,,,,,,,,,,,,,,,,,,,,,,,,,,,,,,,,,2015_Jul_08_1018,59.9261621461,LearningTask,1,72,
,,,,,,,,,,,,,,,,,,,1,0,1,0,,,,,,,,,,,,,,,,,,,,,,,,,,,,,,,,,,,,,,,,,,,,,,,,,,,,,,,,,,,,,,,,,,,,,,,,,,,,,,,,,,,,,9,45.3472049236,,,,,,,,,,,,,,,,,,,,,,,,,,,,,,,,,,,,,,,,,,,,,,2015_Jul_08_1018,59.9261621461,LearningTask,1,72,
-200,a,-200,,,,,,,,,,,,,,,,,2,0,2,0,0,0,0,3,,,,,,,,,,,,,,,,,,,,,,,,,,,,,a,1,0.383826971054,None,0,4.0,invertedtrianglegray.gif,go,,,,,,,,,,,,,,,,,,,,,,,,,,,,,,,4.05,0.509968996048,0.00094199180603,0.383826971054,1,a,1023.6901989,,,,,,,,,,,,,,,,,,,,,,,,,,,,,,,,,,,,,,,,,,,,,,,,,,,,,,,2015_Jul_08_1018,59.9261621461,LearningTask,1,72,
200,s,-200,,,,,,,,,,,,,,,,,2,0,2,0,0,1,1,2,,,,,,,,,,,,,,,,,,,,,,,,,,,,,s,1,0.300673961639,None,0,4.0,invertedtrianglegray.gif,go,,,,,,,,,,,,,,,,,,,,,,,,,,,,,,,3.89,0.513695955276,0.000885963439941,0.300673961639,1,s,1026.693326,,,,,,,,,,,,,,,,,,,,,,,,,,,,,,,,,,,,,,,,,,,,,,,,,,,,,,,2015_Jul_08_1018,59.9261621461,LearningTask,1,72,
-200,a,-200,,,,,,,,,,,,,,,,,2,0,2,0,0,2,2,3,,,,,,,,,,,,,,,,,,,,,,,,,,,,,a,1,0.300788164139,None,0,4.0,diamondgreen.gif,stop,,,,,,,,,,,,,,,,,,,,,,,,,,,,,,,4.04,0.513666152954,0.000878095626831,0.300788164139,1,a,1029.69636703,,,,,,,,,,,,,,,,,,,,,,,,,,,,,,,,,,,,,,,,,,,,,,,,,,,,,,,2015_Jul_08_1018,59.9261621461,LearningTask,1,72,
-200,a,-200,,,,,,,,,,,,,,,,,2,0,2,0,0,3,3,3,,,,,,,,,,,,,,,,,,,,,,,,,,,,,a,1,0.334010124207,None,0,0.5,lineyellow.gif,stop,,,,,,,,,,,,,,,,,,,,,,,,,,,,,,,0,0.514345884323,0.00088095664978,0.334010124207,1,a,1032.69983387,,,,,,,,,,,,,,,,,,,,,,,,,,,,,,,,,,,,,,,,,,,,,,,,,,,,,,,2015_Jul_08_1018,59.9261621461,LearningTask,1,72,
-200,a,-200,,,,,,,,,,,,,,,,,2,0,2,0,1,0,4,3,,,,,,,,,,,,,,,,,,,,,,,,,,,,,a,1,0.300709962845,None,0,2.0,crossorange.gif,stop,,,,,,,,,,,,,,,,,,,,,,,,,,,,,,,1.78,0.51416516304,0.000882148742676,0.300709962845,1,a,1035.70362782,,,,,,,,,,,,,,,,,,,,,,,,,,,,,,,,,,,,,,,,,,,,,,,,,,,,,,,2015_Jul_08_1018,59.9261621461,LearningTask,1,72,
-200,a,-200,,,,,,,,,,,,,,,,,2,0,2,0,1,1,5,3,,,,,,,,,,,,,,,,,,,,,,,,,,,,,a,1,0.317312955856,None,0,0.5,circleblue.gif,go,,,,,,,,,,,,,,,,,,,,,,,,,,,,,,,0.72,0.513804197311,0.000883102416992,0.317312955856,1,a,1038.70651484,,,,,,,,,,,,,,,,,,,,,,,,,,,,,,,,,,,,,,,,,,,,,,,,,,,,,,,2015_Jul_08_1018,59.9261621461,LearningTask,1,72,
-200,q,200,,,,,,,,,,,,,,,,,2,0,2,0,1,2,6,1,,,,,,,,,,,,,,,,,,,,,,,,,,,,,q,1,0.317529916763,None,0,0.5,circleblue.gif,go,,,,,,,,,,,,,,,,,,,,,,,,,,,,,,,0.45,0.514282941818,0.000932931900024,0.317529916763,1,q,1041.70958686,,,,,,,,,,,,,,,,,,,,,,,,,,,,,,,,,,,,,,,,,,,,,,,,,,,,,,,2015_Jul_08_1018,59.9261621461,LearningTask,1,72,
-200,q,200,,,,,,,,,,,,,,,,,2,0,2,0,1,3,7,1,,,,,,,,,,,,,,,,,,,,,,,,,,,,,q,1,0.31706905365,None,0,2.0,crossorange.gif,stop,,,,,,,,,,,,,,,,,,,,,,,,,,,,,,,2.13,0.514760971069,0.000897884368896,0.31706905365,1,q,1044.71330786,,,,,,,,,,,,,,,,,,,,,,,,,,,,,,,,,,,,,,,,,,,,,,,,,,,,,,,2015_Jul_08_1018,59.9261621461,LearningTask,1,72,
200,s,-200,,,,,,,,,,,,,,,,,2,0,2,0,2,0,8,2,,,,,,,,,,,,,,,,,,,,,,,,,,,,,s,1,0.317341089249,None,0,0.5,lineyellow.gif,stop,,,,,,,,,,,,,,,,,,,,,,,,,,,,,,,0.28,0.514388084412,0.00105810165405,0.317341089249,1,s,1047.71660995,,,,,,,,,,,,,,,,,,,,,,,,,,,,,,,,,,,,,,,,,,,,,,,,,,,,,,,2015_Jul_08_1018,59.9261621461,LearningTask,1,72,
200,w,200,,,,,,,,,,,,,,,,,2,0,2,0,2,1,9,0,,,,,,,,,,,,,,,,,,,,,,,,,,,,,w,1,0.467519044876,None,0,2.0,squarewhite.gif,go,,,,,,,,,,,,,,,,,,,,,,,,,,,,,,,1.97,0.51437997818,0.000996112823486,0.467519044876,1,w,1050.71965098,,,,,,,,,,,,,,,,,,,,,,,,,,,,,,,,,,,,,,,,,,,,,,,,,,,,,,,2015_Jul_08_1018,59.9261621461,LearningTask,1,72,
-200,q,200,,,,,,,,,,,,,,,,,2,0,2,0,2,2,10,1,,,,,,,,,,,,,,,,,,,,,,,,,,,,,q,1,0.351340055466,None,0,0.5,circleblue.gif,go,,,,,,,,,,,,,,,,,,,,,,,,,,,,,,,0.53,0.514611959457,0.000880002975464,0.351340055466,1,q,1053.72320795,,,,,,,,,,,,,,,,,,,,,,,,,,,,,,,,,,,,,,,,,,,,,,,,,,,,,,,2015_Jul_08_1018,59.9261621461,LearningTask,1,72,
-200,a,-200,,,,,,,,,,,,,,,,,2,0,2,0,2,3,11,3,,,,,,,,,,,,,,,,,,,,,,,,,,,,,a,1,0.267623901367,None,0,0.5,lineyellow.gif,stop,,,,,,,,,,,,,,,,,,,,,,,,,,,,,,,0.49,0.514444112778,0.000876903533936,0.267623901367,1,a,1056.72672701,,,,,,,,,,,,,,,,,,,,,,,,,,,,,,,,,,,,,,,,,,,,,,,,,,,,,,,2015_Jul_08_1018,59.9261621461,LearningTask,1,72,
200,s,-200,,,,,,,,,,,,,,,,,2,0,2,0,3,0,12,2,,,,,,,,,,,,,,,,,,,,,,,,,,,,,s,1,0.267598867416,None,0,2.0,crossorange.gif,stop,,,,,,,,,,,,,,,,,,,,,,,,,,,,,,,1.9,0.51348400116,0.000932931900024,0.267598867416,1,s,1059.73002195,,,,,,,,,,,,,,,,,,,,,,,,,,,,,,,,,,,,,,,,,,,,,,,,,,,,,,,2015_Jul_08_1018,59.9261621461,LearningTask,1,72,
-200,q,200,,,,,,,,,,,,,,,,,2,0,2,0,3,1,13,1,,,,,,,,,,,,,,,,,,,,,,,,,,,,,q,1,0.333834886551,None,0,2.0,crossorange.gif,stop,,,,,,,,,,,,,,,,,,,,,,,,,,,,,,,2.12,0.514446973801,0.000910997390747,0.333834886551,1,q,1062.733428,,,,,,,,,,,,,,,,,,,,,,,,,,,,,,,,,,,,,,,,,,,,,,,,,,,,,,,2015_Jul_08_1018,59.9261621461,LearningTask,1,72,
200,s,-200,,,,,,,,,,,,,,,,,2,0,2,0,3,2,14,2,,,,,,,,,,,,,,,,,,,,,,,,,,,,,s,1,0.317764043808,None,0,4.0,diamondgreen.gif,stop,,,,,,,,,,,,,,,,,,,,,,,,,,,,,,,4.04,0.513860940933,0.000901937484741,0.317764043808,1,s,1065.73657393,,,,,,,,,,,,,,,,,,,,,,,,,,,,,,,,,,,,,,,,,,,,,,,,,,,,,,,2015_Jul_08_1018,59.9261621461,LearningTask,1,72,
-200,a,-200,,,,,,,,,,,,,,,,,2,0,2,0,3,3,15,3,,,,,,,,,,,,,,,,,,,,,,,,,,,,,a,1,0.334068775177,None,0,0.5,circleblue.gif,go,,,,,,,,,,,,,,,,,,,,,,,,,,,,,,,0.52,0.514106035233,0.000922203063965,0.334068775177,1,a,1068.74012804,,,,,,,,,,,,,,,,,,,,,,,,,,,,,,,,,,,,,,,,,,,,,,,,,,,,,,,2015_Jul_08_1018,59.9261621461,LearningTask,1,72,
-200,a,-200,,,,,,,,,,,,,,,,,2,0,2,0,4,0,16,3,,,,,,,,,,,,,,,,,,,,,,,,,,,,,a,1,0.233515977859,None,0,1.0,hexagoncyan.gif,go,,,,,,,,,,,,,,,,,,,,,,,,,,,,,,,0,0.514452934265,0.000885963439941,0.317218065262,0,q,1071.74322391,0.81,0.515985965729,0.000942945480347,0.233515977859,1,a,1074.74738288,,,,,,,,,,,,,,,,,,,,,,,,,,,,,,,,,,,,,,,,,,,,,,,,2015_Jul_08_1018,59.9261621461,LearningTask,1,72,
-200,a,-200,,,,,,,,,,,,,,,,,2,0,2,0,4,1,17,3,,,,,,,,,,,,,,,,,,,,,,,,,,,,,a,1,0.233983039856,None,0,4.0,invertedtrianglegray.gif,go,,,,,,,,,,,,,,,,,,,,,,,,,,,,,,,0,0.513507843018,0.000895977020264,0.250998973846,0,q,1077.75012183,3.95,0.515357017517,0.000947952270508,0.233983039856,1,a,1080.75337505,,,,,,,,,,,,,,,,,,,,,,,,,,,,,,,,,,,,,,,,,,,,,,,,2015_Jul_08_1018,59.9261621461,LearningTask,1,72,
200,w,200,,,,,,,,,,,,,,,,,2,0,2,0,4,2,18,0,,,,,,,,,,,,,,,,,,,,,,,,,,,,,w,1,0.350857973099,None,0,1.0,hexagoncyan.gif,go,,,,,,,,,,,,,,,,,,,,,,,,,,,,,,,0,0.514277935028,0.000944852828979,0.350857973099,1,w,1083.75726485,,,,,,,,,,,,,,,,,,,,,,,,,,,,,,,,,,,,,,,,,,,,,,,,,,,,,,,2015_Jul_08_1018,59.9261621461,LearningTask,1,72,
200,w,200,,,,,,,,,,,,,,,,,2,0,2,0,4,3,19,0,,,,,,,,,,,,,,,,,,,,,,,,,,,,,w,1,0.33469581604,None,0,0.5,circleblue.gif,go,,,,,,,,,,,,,,,,,,,,,,,,,,,,,,,0,0.51347899437,0.000895977020264,0.33469581604,1,w,1086.76006889,,,,,,,,,,,,,,,,,,,,,,,,,,,,,,,,,,,,,,,,,,,,,,,,,,,,,,,2015_Jul_08_1018,59.9261621461,LearningTask,1,72,
200,s,-200,,,,,,,,,,,,,,,,,2,0,2,0,5,0,20,2,,,,,,,,,,,,,,,,,,,,,,,,,,,,,s,1,0.400746107101,None,0,0.5,lineyellow.gif,stop,,,,,,,,,,,,,,,,,,,,,,,,,,,,,,,0.71,0.514461040497,0.00088906288147,0.400746107101,1,s,1089.76329899,,,,,,,,,,,,,,,,,,,,,,,,,,,,,,,,,,,,,,,,,,,,,,,,,,,,,,,2015_Jul_08_1018,59.9261621461,LearningTask,1,72,
200,s,-200,,,,,,,,,,,,,,,,,2,0,2,0,5,1,21,2,,,,,,,,,,,,,,,,,,,,,,,,,,,,,s,1,0.334811925888,None,0,4.0,diamondgreen.gif,stop,,,,,,,,,,,,,,,,,,,,,,,,,,,,,,,3.98,0.514455080032,0.000897884368896,0.334811925888,1,s,1092.76692605,,,,,,,,,,,,,,,,,,,,,,,,,,,,,,,,,,,,,,,,,,,,,,,,,,,,,,,2015_Jul_08_1018,59.9261621461,LearningTask,1,72,
200,w,200,,,,,,,,,,,,,,,,,2,0,2,0,5,2,22,0,,,,,,,,,,,,,,,,,,,,,,,,,,,,,w,1,0.300474882126,None,0,1.0,trianglemagenta.gif,stop,,,,,,,,,,,,,,,,,,,,,,,,,,,,,,,0.91,0.514341115952,0.00091814994812,0.300474882126,1,w,1095.77023101,,,,,,,,,,,,,,,,,,,,,,,,,,,,,,,,,,,,,,,,,,,,,,,,,,,,,,,2015_Jul_08_1018,59.9261621461,LearningTask,1,72,
200,w,200,,,,,,,,,,,,,,,,,2,0,2,0,5,3,23,0,,,,,,,,,,,,,,,,,,,,,,,,,,,,,w,1,0.184501171112,None,0,0.5,lineyellow.gif,stop,,,,,,,,,,,,,,,,,,,,,,,,,,,,,,,0,0.514163017273,0.00122499465942,0.217559099197,0,q,1098.77372384,0.45,0.515109062195,0.000953197479248,0.184501171112,1,w,1101.77686405,,,,,,,,,,,,,,,,,,,,,,,,,,,,,,,,,,,,,,,,,,,,,,,,2015_Jul_08_1018,59.9261621461,LearningTask,1,72,
200,s,-200,,,,,,,,,,,,,,,,,2,0,2,0,6,0,24,2,,,,,,,,,,,,,,,,,,,,,,,,,,,,,s,1,0.350586891174,None,0,4.0,diamondgreen.gif,stop,,,,,,,,,,,,,,,,,,,,,,,,,,,,,,,3.77,0.514407157898,0.000928163528442,0.350586891174,1,s,1104.78024483,,,,,,,,,,,,,,,,,,,,,,,,,,,,,,,,,,,,,,,,,,,,,,,,,,,,,,,2015_Jul_08_1018,59.9261621461,LearningTask,1,72,
-200,q,200,,,,,,,,,,,,,,,,,2,0,2,0,6,1,25,1,,,,,,,,,,,,,,,,,,,,,,,,,,,,,q,1,0.334112882614,None,0,1.0,trianglemagenta.gif,stop,,,,,,,,,,,,,,,,,,,,,,,,,,,,,,,0,0.513911962509,0.000945806503296,0.334112882614,1,q,1107.78370905,,,,,,,,,,,,,,,,,,,,,,,,,,,,,,,,,,,,,,,,,,,,,,,,,,,,,,,2015_Jul_08_1018,59.9261621461,LearningTask,1,72,
-200,q,200,,,,,,,,,,,,,,,,,2,0,2,0,6,2,26,1,,,,,,,,,,,,,,,,,,,,,,,,,,,,,q,1,0.300505161285,None,0,4.0,invertedtrianglegray.gif,go,,,,,,,,,,,,,,,,,,,,,,,,,,,,,,,0,0.514585018158,0.000890016555786,0.300505161285,1,q,1110.78671098,,,,,,,,,,,,,,,,,,,,,,,,,,,,,,,,,,,,,,,,,,,,,,,,,,,,,,,2015_Jul_08_1018,59.9261621461,LearningTask,1,72,
200,s,-200,,,,,,,,,,,,,,,,,2,0,2,0,6,3,27,2,,,,,,,,,,,,,,,,,,,,,,,,,,,,,s,1,0.267309904099,None,0,2.0,squarewhite.gif,go,,,,,,,,,,,,,,,,,,,,,,,,,,,,,,,0,0.514706850052,0.000882863998413,0.167614936829,0,q,1113.79023886,0,0.515495061874,0.00097393989563,0.267309904099,1,s,1116.79356194,,,,,,,,,,,,,,,,,,,,,,,,,,,,,,,,,,,,,,,,,,,,,,,,2015_Jul_08_1018,59.9261621461,LearningTask,1,72,
200,w,200,,,,,,,,,,,,,,,,,2,0,2,0,7,0,28,0,,,,,,,,,,,,,,,,,,,,,,,,,,,,,w,1,0.334108114243,None,0,1.0,hexagoncyan.gif,go,,,,,,,,,,,,,,,,,,,,,,,,,,,,,,,0.92,0.514549016953,0.000885963439941,0.334108114243,1,w,1119.79700398,,,,,,,,,,,,,,,,,,,,,,,,,,,,,,,,,,,,,,,,,,,,,,,,,,,,,,,2015_Jul_08_1018,59.9261621461,LearningTask,1,72,
-200,q,200,,,,,,,,,,,,,,,,,2,0,2,0,7,1,29,1,,,,,,,,,,,,,,,,,,,,,,,,,,,,,q,1,0.100672006607,None,0,2.0,crossorange.gif,stop,,,,,,,,,,,,,,,,,,,,,,,,,,,,,,,0,0.514297962189,0.000891923904419,0.267534017563,0,a,1122.80049491,2.16,0.515336990356,0.000962972640991,0.100672006607,1,q,1125.80392098,,,,,,,,,,,,,,,,,,,,,,,,,,,,,,,,,,,,,,,,,,,,,,,,2015_Jul_08_1018,59.9261621461,LearningTask,1,72,
-200,a,-200,,,,,,,,,,,,,,,,,2,0,2,0,7,2,30,3,,,,,,,,,,,,,,,,,,,,,,,,,,,,,a,1,0.30048084259,None,0,0.5,lineyellow.gif,stop,,,,,,,,,,,,,,,,,,,,,,,,,,,,,,,0.37,0.51425409317,0.00088095664978,0.30048084259,1,a,1128.80705905,,,,,,,,,,,,,,,,,,,,,,,,,,,,,,,,,,,,,,,,,,,,,,,,,,,,,,,2015_Jul_08_1018,59.9261621461,LearningTask,1,72,
200,s,-200,,,,,,,,,,,,,,,,,2,0,2,0,7,3,31,2,,,,,,,,,,,,,,,,,,,,,,,,,,,,,s,1,0.150380134583,None,0,1.0,hexagoncyan.gif,go,,,,,,,,,,,,,,,,,,,,,,,,,,,,,,,0,0.514285802841,0.000878810882568,0.334235906601,0,w,1131.810781,1.07,0.515116930008,0.000962018966675,0.150380134583,1,s,1134.81380105,,,,,,,,,,,,,,,,,,,,,,,,,,,,,,,,,,,,,,,,,,,,,,,,2015_Jul_08_1018,59.9261621461,LearningTask,1,72,
200,s,-200,,,,,,,,,,,,,,,,,2,0,2,0,8,0,32,2,,,,,,,,,,,,,,,,,,,,,,,,,,,,,s,1,0.317224979401,None,0,1.0,hexagoncyan.gif,go,,,,,,,,,,,,,,,,,,,,,,,,,,,,,,,0.85,0.51429605484,0.000903129577637,0.317224979401,1,s,1137.817343,,,,,,,,,,,,,,,,,,,,,,,,,,,,,,,,,,,,,,,,,,,,,,,,,,,,,,,2015_Jul_08_1018,59.9261621461,LearningTask,1,72,
200,w,200,,,,,,,,,,,,,,,,,2,0,2,0,8,1,33,0,,,,,,,,,,,,,,,,,,,,,,,,,,,,,w,1,0.317268848419,None,0,2.0,squarewhite.gif,go,,,,,,,,,,,,,,,,,,,,,,,,,,,,,,,2.01,0.514380931854,0.000879049301147,0.317268848419,1,w,1140.82079887,,,,,,,,,,,,,,,,,,,,,,,,,,,,,,,,,,,,,,,,,,,,,,,,,,,,,,,2015_Jul_08_1018,59.9261621461,LearningTask,1,72,
200,w,200,,,,,,,,,,,,,,,,,2,0,2,0,8,2,34,0,,,,,,,,,,,,,,,,,,,,,,,,,,,,,w,1,0.301020145416,None,0,1.0,hexagoncyan.gif,go,,,,,,,,,,,,,,,,,,,,,,,,,,,,,,,0.88,0.514190912247,0.00116491317749,0.301020145416,1,w,1143.82395005,,,,,,,,,,,,,,,,,,,,,,,,,,,,,,,,,,,,,,,,,,,,,,,,,,,,,,,2015_Jul_08_1018,59.9261621461,LearningTask,1,72,
200,s,-200,,,,,,,,,,,,,,,,,2,0,2,0,8,3,35,2,,,,,,,,,,,,,,,,,,,,,,,,,,,,,s,1,0.350922107697,None,0,1.0,hexagoncyan.gif,go,,,,,,,,,,,,,,,,,,,,,,,,,,,,,,,0,0.514405012131,0.000996112823486,0.350922107697,1,s,1146.82726884,,,,,,,,,,,,,,,,,,,,,,,,,,,,,,,,,,,,,,,,,,,,,,,,,,,,,,,2015_Jul_08_1018,59.9261621461,LearningTask,1,72,
-200,q,200,,,,,,,,,,,,,,,,,2,0,2,0,9,0,36,1,,,,,,,,,,,,,,,,,,,,,,,,,,,,,q,1,0.200495004654,None,0,2.0,crossorange.gif,stop,,,,,,,,,,,,,,,,,,,,,,,,,,,,,,,0,0.514518022537,0.000899076461792,0.267322063446,0,a,1149.83062887,2.07,0.515572071075,0.000961065292358,0.200495004654,1,q,1152.83397603,,,,,,,,,,,,,,,,,,,,,,,,,,,,,,,,,,,,,,,,,,,,,,,,2015_Jul_08_1018,59.9261621461,LearningTask,1,72,
-200,a,-200,,,,,,,,,,,,,,,,,2,0,2,0,9,1,37,3,,,,,,,,,,,,,,,,,,,,,,,,,,,,,a,1,0.250692844391,None,0,2.0,squarewhite.gif,go,,,,,,,,,,,,,,,,,,,,,,,,,,,,,,,0,0.513921976089,0.000922203063965,0.250692844391,1,a,1155.83732891,,,,,,,,,,,,,,,,,,,,,,,,,,,,,,,,,,,,,,,,,,,,,,,,,,,,,,,2015_Jul_08_1018,59.9261621461,LearningTask,1,72,
-200,q,200,,,,,,,,,,,,,,,,,2,0,2,0,9,2,38,1,,,,,,,,,,,,,,,,,,,,,,,,,,,,,q,1,0.350526094437,None,0,0.5,lineyellow.gif,stop,,,,,,,,,,,,,,,,,,,,,,,,,,,,,,,0.33,0.514633178711,0.000892162322998,0.350526094437,1,q,1158.84095883,,,,,,,,,,,,,,,,,,,,,,,,,,,,,,,,,,,,,,,,,,,,,,,,,,,,,,,2015_Jul_08_1018,59.9261621461,LearningTask,1,72,
200,s,-200,,,,,,,,,,,,,,,,,2,0,2,0,9,3,39,2,,,,,,,,,,,,,,,,,,,,,,,,,,,,,s,1,0.150742053986,None,0,1.0,trianglemagenta.gif,stop,,,,,,,,,,,,,,,,,,,,,,,,,,,,,,,0,0.513710021973,0.000954866409302,0.250829935074,0,w,1161.84413791,0.76,0.515172958374,0.00098705291748,0.150742053986,1,s,1164.84734702,,,,,,,,,,,,,,,,,,,,,,,,,,,,,,,,,,,,,,,,,,,,,,,,2015_Jul_08_1018,59.9261621461,LearningTask,1,72,
200,s,-200,,,,,,,,,,,,,,,,,2,0,2,0,10,0,40,2,,,,,,,,,,,,,,,,,,,,,,,,,,,,,s,1,0.40108704567,None,0,2.0,crossorange.gif,stop,,,,,,,,,,,,,,,,,,,,,,,,,,,,,,,2.15,0.514275789261,0.000885009765625,0.40108704567,1,s,1167.85070801,,,,,,,,,,,,,,,,,,,,,,,,,,,,,,,,,,,,,,,,,,,,,,,,,,,,,,,2015_Jul_08_1018,59.9261621461,LearningTask,1,72,
-200,a,-200,,,,,,,,,,,,,,,,,2,0,2,0,10,1,41,3,,,,,,,,,,,,,,,,,,,,,,,,,,,,,a,1,0.351198911667,None,0,0.5,lineyellow.gif,stop,,,,,,,,,,,,,,,,,,,,,,,,,,,,,,,0.27,0.514294147491,0.000886917114258,0.351198911667,1,a,1170.85440397,,,,,,,,,,,,,,,,,,,,,,,,,,,,,,,,,,,,,,,,,,,,,,,,,,,,,,,2015_Jul_08_1018,59.9261621461,LearningTask,1,72,
200,s,-200,,,,,,,,,,,,,,,,,2,0,2,0,10,2,42,2,,,,,,,,,,,,,,,,,,,,,,,,,,,,,s,1,0.434057950974,None,0,4.0,invertedtrianglegray.gif,go,,,,,,,,,,,,,,,,,,,,,,,,,,,,,,,4.16,0.513788223267,0.000913143157959,0.434057950974,1,s,1173.85738301,,,,,,,,,,,,,,,,,,,,,,,,,,,,,,,,,,,,,,,,,,,,,,,,,,,,,,,2015_Jul_08_1018,59.9261621461,LearningTask,1,72,
200,w,200,,,,,,,,,,,,,,,,,2,0,2,0,10,3,43,0,,,,,,,,,,,,,,,,,,,,,,,,,,,,,w,1,0.334612846375,None,0,2.0,crossorange.gif,stop,,,,,,,,,,,,,,,,,,,,,,,,,,,,,,,1.92,0.51437497139,0.000882148742676,0.334612846375,1,w,1176.86084199,,,,,,,,,,,,,,,,,,,,,,,,,,,,,,,,,,,,,,,,,,,,,,,,,,,,,,,2015_Jul_08_1018,59.9261621461,LearningTask,1,72,
200,w,200,,,,,,,,,,,,,,,,,2,0,2,0,11,0,44,0,,,,,,,,,,,,,,,,,,,,,,,,,,,,,w,1,0.333832979202,None,0,2.0,squarewhite.gif,go,,,,,,,,,,,,,,,,,,,,,,,,,,,,,,,2.05,0.514383077621,0.000874996185303,0.333832979202,1,w,1179.86442685,,,,,,,,,,,,,,,,,,,,,,,,,,,,,,,,,,,,,,,,,,,,,,,,,,,,,,,2015_Jul_08_1018,59.9261621461,LearningTask,1,72,
200,s,-200,,,,,,,,,,,,,,,,,2,0,2,0,11,1,45,2,,,,,,,,,,,,,,,,,,,,,,,,,,,,,s,1,0.334244966507,None,0,4.0,diamondgreen.gif,stop,,,,,,,,,,,,,,,,,,,,,,,,,,,,,,,0,0.513887882233,0.000917911529541,0.334244966507,1,s,1182.86748004,,,,,,,,,,,,,,,,,,,,,,,,,,,,,,,,,,,,,,,,,,,,,,,,,,,,,,,2015_Jul_08_1018,59.9261621461,LearningTask,1,72,
-200,q,200,,,,,,,,,,,,,,,,,2,0,2,0,11,2,46,1,,,,,,,,,,,,,,,,,,,,,,,,,,,,,q,1,0.284027099609,None,0,0.5,lineyellow.gif,stop,,,,,,,,,,,,,,,,,,,,,,,,,,,,,,,0.59,0.514584064484,0.00287699699402,0.284027099609,1,q,1185.87067294,,,,,,,,,,,,,,,,,,,,,,,,,,,,,,,,,,,,,,,,,,,,,,,,,,,,,,,2015_Jul_08_1018,59.9261621461,LearningTask,1,72,
200,s,-200,,,,,,,,,,,,,,,,,2,0,2,0,11,3,47,2,,,,,,,,,,,,,,,,,,,,,,,,,,,,,s,1,0.283522844315,None,0,0.5,circleblue.gif,go,,,,,,,,,,,,,,,,,,,,,,,,,,,,,,,0.73,0.514971017838,0.000929832458496,0.283522844315,1,s,1188.87433195,,,,,,,,,,,,,,,,,,,,,,,,,,,,,,,,,,,,,,,,,,,,,,,,,,,,,,,2015_Jul_08_1018,59.9261621461,LearningTask,1,72,
200,w,200,,,,,,,,,,,,,,,,,2,0,2,0,12,0,48,0,,,,,,,,,,,,,,,,,,,,,,,,,,,,,w,1,0.283834934235,None,0,1.0,trianglemagenta.gif,stop,,,,,,,,,,,,,,,,,,,,,,,,,,,,,,,1.09,0.514623880386,0.000883817672729,0.283834934235,1,w,1191.87750196,,,,,,,,,,,,,,,,,,,,,,,,,,,,,,,,,,,,,,,,,,,,,,,,,,,,,,,2015_Jul_08_1018,59.9261621461,LearningTask,1,72,
-200,a,-200,,,,,,,,,,,,,,,,,2,0,2,0,12,1,49,3,,,,,,,,,,,,,,,,,,,,,,,,,,,,,a,1,0.2339220047,None,0,4.0,diamondgreen.gif,stop,,,,,,,,,,,,,,,,,,,,,,,,,,,,,,,4.13,0.514406919479,0.000982999801636,0.2339220047,1,a,1194.88126493,,,,,,,,,,,,,,,,,,,,,,,,,,,,,,,,,,,,,,,,,,,,,,,,,,,,,,,2015_Jul_08_1018,59.9261621461,LearningTask,1,72,
200,s,-200,,,,,,,,,,,,,,,,,2,0,2,0,12,2,50,2,,,,,,,,,,,,,,,,,,,,,,,,,,,,,s,1,0.351118087769,None,0,0.5,lineyellow.gif,stop,,,,,,,,,,,,,,,,,,,,,,,,,,,,,,,0.32,0.513952970505,0.000875949859619,0.351118087769,1,s,1197.88439798,,,,,,,,,,,,,,,,,,,,,,,,,,,,,,,,,,,,,,,,,,,,,,,,,,,,,,,2015_Jul_08_1018,59.9261621461,LearningTask,1,72,
200,s,-200,,,,,,,,,,,,,,,,,2,0,2,0,12,3,51,2,,,,,,,,,,,,,,,,,,,,,,,,,,,,,s,1,0.450709104538,None,0,4.0,invertedtrianglegray.gif,go,,,,,,,,,,,,,,,,,,,,,,,,,,,,,,,3.96,0.514361143112,0.000877141952515,0.450709104538,1,s,1200.88756394,,,,,,,,,,,,,,,,,,,,,,,,,,,,,,,,,,,,,,,,,,,,,,,,,,,,,,,2015_Jul_08_1018,59.9261621461,LearningTask,1,72,
-200,q,200,,,,,,,,,,,,,,,,,2,0,2,0,13,0,52,1,,,,,,,,,,,,,,,,,,,,,,,,,,,,,q,1,0.267582178116,None,0,0.5,lineyellow.gif,stop,,,,,,,,,,,,,,,,,,,,,,,,,,,,,,,0.36,0.513998031616,0.000945091247559,0.267582178116,1,q,1203.89101791,,,,,,,,,,,,,,,,,,,,,,,,,,,,,,,,,,,,,,,,,,,,,,,,,,,,,,,2015_Jul_08_1018,59.9261621461,LearningTask,1,72,
200,w,200,,,,,,,,,,,,,,,,,2,0,2,0,13,1,53,0,,,,,,,,,,,,,,,,,,,,,,,,,,,,,w,1,0.317364931107,None,0,4.0,diamondgreen.gif,stop,,,,,,,,,,,,,,,,,,,,,,,,,,,,,,,3.88,0.514312028885,0.000871896743774,0.317364931107,1,w,1206.89429402,,,,,,,,,,,,,,,,,,,,,,,,,,,,,,,,,,,,,,,,,,,,,,,,,,,,,,,2015_Jul_08_1018,59.9261621461,LearningTask,1,72,
200,w,200,,,,,,,,,,,,,,,,,2,0,2,0,13,2,54,0,,,,,,,,,,,,,,,,,,,,,,,,,,,,,w,1,0.217223882675,None,0,1.0,hexagoncyan.gif,go,,,,,,,,,,,,,,,,,,,,,,,,,,,,,,,0,0.514336824417,0.000885963439941,0.217427015305,0,s,1209.89760494,1.09,0.515716075897,0.00100994110107,0.217223882675,1,w,1212.90112591,,,,,,,,,,,,,,,,,,,,,,,,,,,,,,,,,,,,,,,,,,,,,,,,2015_Jul_08_1018,59.9261621461,LearningTask,1,72,
-200,a,-200,,,,,,,,,,,,,,,,,2,0,2,0,13,3,55,3,,,,,,,,,,,,,,,,,,,,,,,,,,,,,a,1,0.217776060104,None,0,1.0,hexagoncyan.gif,go,,,,,,,,,,,,,,,,,,,,,,,,,,,,,,,0.88,0.514172077179,0.000887870788574,0.217776060104,1,a,1215.90422702,,,,,,,,,,,,,,,,,,,,,,,,,,,,,,,,,,,,,,,,,,,,,,,,,,,,,,,2015_Jul_08_1018,59.9261621461,LearningTask,1,72,
-200,a,-200,,,,,,,,,,,,,,,,,2,0,2,0,14,0,56,3,,,,,,,,,,,,,,,,,,,,,,,,,,,,,a,1,0.10059094429,None,0,2.0,squarewhite.gif,go,,,,,,,,,,,,,,,,,,,,,,,,,,,,,,,0,0.514580011368,0.000881910324097,0.26770401001,0,s,1218.90800095,0,0.515250205994,0.000956058502197,0.10059094429,1,a,1221.91099191,,,,,,,,,,,,,,,,,,,,,,,,,,,,,,,,,,,,,,,,,,,,,,,,2015_Jul_08_1018,59.9261621461,LearningTask,1,72,
200,w,200,,,,,,,,,,,,,,,,,2,0,2,0,14,1,57,0,,,,,,,,,,,,,,,,,,,,,,,,,,,,,w,1,0.150514125824,None,0,4.0,diamondgreen.gif,stop,,,,,,,,,,,,,,,,,,,,,,,,,,,,,,,0,0.514349937439,0.000880002975464,0.217736005783,0,q,1224.91462588,3.79,0.515295982361,0.000985860824585,0.150514125824,1,w,1227.91809797,,,,,,,,,,,,,,,,,,,,,,,,,,,,,,,,,,,,,,,,,,,,,,,,2015_Jul_08_1018,59.9261621461,LearningTask,1,72,
-200,q,200,,,,,,,,,,,,,,,,,2,0,2,0,14,2,58,1,,,,,,,,,,,,,,,,,,,,,,,,,,,,,q,1,0.300160884857,None,0,1.0,trianglemagenta.gif,stop,,,,,,,,,,,,,,,,,,,,,,,,,,,,,,,0.97,0.514119148254,0.000887155532837,0.300160884857,1,q,1230.92107582,,,,,,,,,,,,,,,,,,,,,,,,,,,,,,,,,,,,,,,,,,,,,,,,,,,,,,,2015_Jul_08_1018,59.9261621461,LearningTask,1,72,
-200,a,-200,,,,,,,,,,,,,,,,,2,0,2,0,14,3,59,3,,,,,,,,,,,,,,,,,,,,,,,,,,,,,a,1,0.367644071579,None,0,0.5,lineyellow.gif,stop,,,,,,,,,,,,,,,,,,,,,,,,,,,,,,,0.53,0.514388084412,0.000885009765625,0.367644071579,1,a,1233.92453694,,,,,,,,,,,,,,,,,,,,,,,,,,,,,,,,,,,,,,,,,,,,,,,,,,,,,,,2015_Jul_08_1018,59.9261621461,LearningTask,1,72,
-200,q,200,,,,,,,,,,,,,,,,,2,0,2,0,15,0,60,1,,,,,,,,,,,,,,,,,,,,,,,,,,,,,q,1,0.333910942078,None,0,4.0,diamondgreen.gif,stop,,,,,,,,,,,,,,,,,,,,,,,,,,,,,,,0,0.514369010925,0.000888109207153,0.333910942078,1,q,1236.92805004,,,,,,,,,,,,,,,,,,,,,,,,,,,,,,,,,,,,,,,,,,,,,,,,,,,,,,,2015_Jul_08_1018,59.9261621461,LearningTask,1,72,
-200,a,-200,,,,,,,,,,,,,,,,,2,0,2,0,15,1,61,3,,,,,,,,,,,,,,,,,,,,,,,,,,,,,a,1,0.16711306572,None,0,2.0,squarewhite.gif,go,,,,,,,,,,,,,,,,,,,,,,,,,,,,,,,0,0.514081954956,0.000871896743774,0.301108121872,0,q,1239.93119097,2.01,0.515672922134,0.000972986221313,0.16711306572,1,a,1242.93441486,,,,,,,,,,,,,,,,,,,,,,,,,,,,,,,,,,,,,,,,,,,,,,,,2015_Jul_08_1018,59.9261621461,LearningTask,1,72,
-200,q,200,,,,,,,,,,,,,,,,,2,0,2,0,15,2,62,1,,,,,,,,,,,,,,,,,,,,,,,,,,,,,q,1,0.334328174591,None,0,4.0,diamondgreen.gif,stop,,,,,,,,,,,,,,,,,,,,,,,,,,,,,,,4.07,0.514433860779,0.000899791717529,0.334328174591,1,q,1245.9380939,,,,,,,,,,,,,,,,,,,,,,,,,,,,,,,,,,,,,,,,,,,,,,,,,,,,,,,2015_Jul_08_1018,59.9261621461,LearningTask,1,72,
-200,q,200,,,,,,,,,,,,,,,,,2,0,2,0,15,3,63,1,,,,,,,,,,,,,,,,,,,,,,,,,,,,,q,1,0.350893974304,None,0,0.5,lineyellow.gif,stop,,,,,,,,,,,,,,,,,,,,,,,,,,,,,,,0.47,0.514190912247,0.000874996185303,0.350893974304,1,q,1248.94120884,,,,,,,,,,,,,,,,,,,,,,,,,,,,,,,,,,,,,,,,,,,,,,,,,,,,,,,2015_Jul_08_1018,59.9261621461,LearningTask,1,72,
200,w,200,,,,,,,,,,,,,,,,,2,0,2,0,16,0,64,0,,,,,,,,,,,,,,,,,,,,,,,,,,,,,w,1,0.301094055176,None,0,2.0,squarewhite.gif,go,,,,,,,,,,,,,,,,,,,,,,,,,,,,,,,0,0.514091968536,0.00103783607483,0.301094055176,1,w,1251.94465804,,,,,,,,,,,,,,,,,,,,,,,,,,,,,,,,,,,,,,,,,,,,,,,,,,,,,,,2015_Jul_08_1018,59.9261621461,LearningTask,1,72,
-200,a,-200,,,,,,,,,,,,,,,,,2,0,2,0,16,1,65,3,,,,,,,,,,,,,,,,,,,,,,,,,,,,,a,1,0.300312995911,None,0,4.0,invertedtrianglegray.gif,go,,,,,,,,,,,,,,,,,,,,,,,,,,,,,,,3.75,0.514604091644,0.00088906288147,0.300312995911,1,a,1254.94812393,,,,,,,,,,,,,,,,,,,,,,,,,,,,,,,,,,,,,,,,,,,,,,,,,,,,,,,2015_Jul_08_1018,59.9261621461,LearningTask,1,72,
-200,q,200,,,,,,,,,,,,,,,,,2,0,2,0,16,2,66,1,,,,,,,,,,,,,,,,,,,,,,,,,,,,,q,1,0.316456794739,None,0,1.0,trianglemagenta.gif,stop,,,,,,,,,,,,,,,,,,,,,,,,,,,,,,,0.96,0.51456785202,0.00089693069458,0.316456794739,1,q,1257.95164585,,,,,,,,,,,,,,,,,,,,,,,,,,,,,,,,,,,,,,,,,,,,,,,,,,,,,,,2015_Jul_08_1018,59.9261621461,LearningTask,1,72,
200,w,200,,,,,,,,,,,,,,,,,2,0,2,0,16,3,67,0,,,,,,,,,,,,,,,,,,,,,,,,,,,,,w,1,0.334403038025,None,0,2.0,crossorange.gif,stop,,,,,,,,,,,,,,,,,,,,,,,,,,,,,,,2.16,0.513592004776,0.000894069671631,0.334403038025,1,w,1260.95470786,,,,,,,,,,,,,,,,,,,,,,,,,,,,,,,,,,,,,,,,,,,,,,,,,,,,,,,2015_Jul_08_1018,59.9261621461,LearningTask,1,72,
