xPos,corrAns,yPos,corrGoResp,yPosGoStim,xPosGoStim,pracTrials.thisRepN,pracTrials.thisTrialN,pracTrials.thisN,pracTrials.thisIndex,ReDoLoopPrac.thisRepN,ReDoLoopPrac.thisTrialN,ReDoLoopPrac.thisN,ReDoLoopPrac.thisIndex,ReDoLoopPrac.thisTrial,pracStopTrials.thisRepN,pracStopTrials.thisTrialN,pracStopTrials.thisN,pracStopTrials.thisIndex,Blocks.thisRepN,Blocks.thisTrialN,Blocks.thisN,Blocks.thisIndex,trials.thisRepN,trials.thisTrialN,trials.thisN,trials.thisIndex,ReDoLoopMain.thisRepN,ReDoLoopMain.thisTrialN,ReDoLoopMain.thisN,ReDoLoopMain.thisIndex,ReDoLoopMain.thisTrial,StopBlocks.thisRepN,StopBlocks.thisTrialN,StopBlocks.thisN,StopBlocks.thisIndex,StopTrials.thisRepN,StopTrials.thisTrialN,StopTrials.thisN,StopTrials.thisIndex,auctionBlocks.thisRepN,auctionBlocks.thisTrialN,auctionBlocks.thisN,auctionBlocks.thisIndex,auctionTrials.thisRepN,auctionTrials.thisTrialN,auctionTrials.thisN,auctionTrials.thisIndex,learningTrialList,learningPracTrialList,stopTrialList,stopPracTrialList,auctionTrialList,ok1.keys,ok1.rt,resp.keys,resp.corr,resp.rt,feedbackResp.keys,feedbackResp.corr,currentReward,currentStimulus,currentStimType,firstPracComputedRewardOutput,firstPracLearningStimOnset,firstPracLearningFixOnset,firstPracPresentationRT,firstPracPresentationAcc,firstPracPresentationResp,firstPracEndTrialTimeStamp,feedbackResp.rt,secondPracComputedRewardOutput,secondPracLearningStimOnset,secondPracLearningFixOnset,secondPracPresentationRT,secondPracPresentationAcc,secondPracPresentationResp,secondPracEndTrialTimeStamp,StartTrialTimeStamp,trialType,goStim,stimType,stopStimValue,goResp.keys,goResp.corr,goResp.rt,key_resp_9.keys,key_resp_9.corr,fixStopOnset,goStimOnset,stopSignalOnset,EndTrialTimeStamp,key_resp_3.keys,key_resp_3.rt,firstComputedRewardOutput,firstLearningStimOnset,firstLearningFixOnset,firstPresentationRT,firstPresentationAcc,firstPresentationResp,firstEndTrialTimeStamp,key_resp_7.keys,key_resp_7.rt,secondComputedRewardOutput,secondLearningStimOnset,secondLearningFixOnset,secondPresentationRT,secondPresentationAcc,secondPresentationResp,secondEndTrialTimeStamp,beginningSSD,EndingSSD,key_resp_9.rt,key_resp_4.keys,key_resp_4.rt,auctionResponse.keys,auctionStimDuration,auctionStim,auctionAmounts,auctionStimValue,auctionCondition,chosenAuctionAmount,auctionResponse.rt,key_resp_5.keys,key_resp_5.rt,shuffledRewardList,chosenReward1,chosenReward2,chosenReward3,chosenReward4,chosenReward5,key_resp_6.keys,key_resp_6.rt,date,frameRate,expName,session,participant,
,,,,,,,,,,,,,,,,,,,,,,,,,,,,,,,,,,,,,,,,,,,,,,,,[],[],[],[],[],9,44.419989109,,,,,,,,,,,,,,,,,,,,,,,,,,,,,,,,,,,,,,,,,,,,,,,,,,,,,,,,,,,,,,,,,,,,,,,,,,,,,,,2015_Jul_02_1229,59.9789502585,LearningTask,1,74,
-200,a,-200,,,,0,0,0,7,,,,,,,,,,,,,,,,,,,,,,,,,,,,,,,,,,,,,,,,,,,,,,a,1,0.935253143311,None,0,0.5,squaregray.gif,go,0.4,0.512989997864,0.015881061554,0.935253143311,1,a,103.582875013,,,,,,,,,,,,,,,,,,,,,,,,,,,,,,,,,,,,,,,,,,,,,,,,,,,,,,,,,,,,,,,,2015_Jul_02_1229,59.9789502585,LearningTask,1,74,
200,s,-200,,,,0,1,1,2,,,,,,,,,,,,,,,,,,,,,,,,,,,,,,,,,,,,,,,,,,,,,,s,1,0.767366170883,None,0,0.5,hexagonblue.gif,stop,0,0.514596939087,0.00170803070068,0.767366170883,1,s,106.58546114,,,,,,,,,,,,,,,,,,,,,,,,,,,,,,,,,,,,,,,,,,,,,,,,,,,,,,,,,,,,,,,,2015_Jul_02_1229,59.9789502585,LearningTask,1,74,
-200,q,200,,,,0,2,2,9,,,,,,,,,,,,,,,,,,,,,,,,,,,,,,,,,,,,,,,,,,,,,,q,1,0.467647075653,None,0,1.0,diamondgreen.gif,go,0,0.514998912811,0.0161828994751,[],0,None,109.589008093,0.8772149086,0,0.51607298851,0.000961065292358,0.467647075653,1,q,112.592567921,,,,,,,,,,,,,,,,,,,,,,,,,,,,,,,,,,,,,,,,,,,,,,,,,,,,,,,,2015_Jul_02_1229,59.9789502585,LearningTask,1,74,
-200,q,200,,,,0,3,3,1,,,,,,,,,,,,,,,,,,,,,,,,,,,,,,,,,,,,,,,,,,,,,,q,1,0.451174020767,None,0,4.0,crosswhite.gif,stop,4.06,0.514792203903,0.04283618927,0.451174020767,1,q,115.595485926,,,,,,,,,,,,,,,,,,,,,,,,,,,,,,,,,,,,,,,,,,,,,,,,,,,,,,,,,,,,,,,,2015_Jul_02_1229,59.9789502585,LearningTask,1,74,
200,w,200,,,,0,4,4,0,,,,,,,,,,,,,,,,,,,,,,,,,,,,,,,,,,,,,,,,,,,,,,w,1,0.518136024475,None,0,0.5,squaregray.gif,go,0.38,0.514992952347,0.000936031341553,0.518136024475,1,w,118.598935127,,,,,,,,,,,,,,,,,,,,,,,,,,,,,,,,,,,,,,,,,,,,,,,,,,,,,,,,,,,,,,,,2015_Jul_02_1229,59.9789502585,LearningTask,1,74,
200,w,200,,,,0,5,5,4,,,,,,,,,,,,,,,,,,,,,,,,,,,,,,,,,,,,,,,,,,,,,,w,1,0.484194993973,None,0,0.5,squaregray.gif,go,0.48,0.515406847,0.000916004180908,0.484194993973,1,w,121.602245092,,,,,,,,,,,,,,,,,,,,,,,,,,,,,,,,,,,,,,,,,,,,,,,,,,,,,,,,,,,,,,,,2015_Jul_02_1229,59.9789502585,LearningTask,1,74,
-200,a,-200,,,,0,6,6,3,,,,,,,,,,,,,,,,,,,,,,,,,,,,,,,,,,,,,,,,,,,,,,a,1,0.701154947281,None,0,4.0,crosswhite.gif,stop,3.81,0.51525592804,0.000945806503296,0.701154947281,1,a,124.605708122,,,,,,,,,,,,,,,,,,,,,,,,,,,,,,,,,,,,,,,,,,,,,,,,,,,,,,,,,,,,,,,,2015_Jul_02_1229,59.9789502585,LearningTask,1,74,
200,s,-200,,,,0,7,7,6,,,,,,,,,,,,,,,,,,,,,,,,,,,,,,,,,,,,,,,,,,,,,,s,1,0.884693145752,None,0,4.0,crosswhite.gif,stop,3.96,0.515113830566,0.000935792922974,0.884693145752,1,s,127.609069109,,,,,,,,,,,,,,,,,,,,,,,,,,,,,,,,,,,,,,,,,,,,,,,,,,,,,,,,,,,,,,,,2015_Jul_02_1229,59.9789502585,LearningTask,1,74,
200,w,200,,,,0,8,8,8,,,,,,,,,,,,,,,,,,,,,,,,,,,,,,,,,,,,,,,,,,,,,,w,1,0.384720802307,None,0,2.0,trianglemagenta.gif,go,0,0.514853954315,0.0284531116486,[],0,None,130.612364054,0.393671035767,2.05,0.515980958939,0.000977039337158,0.384720802307,1,w,133.615828037,,,,,,,,,,,,,,,,,,,,,,,,,,,,,,,,,,,,,,,,,,,,,,,,,,,,,,,,2015_Jul_02_1229,59.9789502585,LearningTask,1,74,
-200,q,200,,,,0,9,9,5,,,,,,,,,,,,,,,,,,,,,,,,,,,,,,,,,,,,,,,,,,,,,,q,1,0.351222038269,None,0,1.0,invertedtriangleorange.gif,stop,1.18,0.515102148056,0.043848991394,0.351222038269,1,q,136.619020939,,,,,,,,,,,,,,,,,,,,,,,,,,,,,,,,,,,,,,,,,,,,,,,,,,,,,,,,,,,,,,,,2015_Jul_02_1229,59.9789502585,LearningTask,1,74,
,,,m,0,200,,,,,,,,,,0,0,0,1,,,,,,,,,,,,,,,,,,,,,,,,,,,,,,,,,,,,,,,,,,,,,,,,,,,,,,,,,,,,194.306455135,stop,invertedtriangleorange.gif,stop,1.0,m,1,0.484786987305,None,0,0.00141596794128,0.509099960327,0.759494066238,197.303501129,,,,,,,,,,,,,,,,,,,,,,,,,,,,,,,,,,,,,,,,,,2015_Jul_02_1229,59.9789502585,LearningTask,1,74,
,,,z,0,-200,,,,,,,,,,0,1,1,0,,,,,,,,,,,,,,,,,,,,,,,,,,,,,,,,,,,,,,,,,,,,,,,,,,,,,,,,,,,,197.303890944,stop,circlecyan.gif,stop,2.0,None,0,,None,0,0.0130701065063,0.515599012375,0.766169071198,200.306779146,,,,,,,,,,,,,,,,,,,,,,,,,,,,,,,,,,,,,,,,,,2015_Jul_02_1229,59.9789502585,LearningTask,1,74,
,,,m,0,200,,,,,,,,,,1,0,2,1,,,,,,,,,,,,,,,,,,,,,,,,,,,,,,,,,,,,,,,,,,,,,,,,,,,,,,,,,,,,200.307140112,go,squaregray.gif,go,0.5,m,1,0.78427696228,None,0,0.000981092453003,0.515867948532,,203.310229063,,,,,,,,,,,,,,,,,,,,,,,,,,,,,,,,,,,,,,,,,,2015_Jul_02_1229,59.9789502585,LearningTask,1,74,
,,,z,0,-200,,,,,,,,,,1,1,3,0,,,,,,,,,,,,,,,,,,,,,,,,,,,,,,,,,,,,,,,,,,,,,,,,,,,,,,,,,,,,203.310639143,stop,hexagonblue.gif,stop,0.5,None,0,,None,0,0.00104188919067,0.515486001968,0.765762805939,206.313339949,,,,,,,,,,,,,,,,,,,,,,,,,,,,,,,,,,,,,,,,,,2015_Jul_02_1229,59.9789502585,LearningTask,1,74,
,,,z,0,-200,,,,,,,,,,2,0,4,0,,,,,,,,,,,,,,,,,,,,,,,,,,,,,,,,,,,,,,,,,,,,,,,,,,,,,,,,,,,,206.313704014,stop,crosswhite.gif,stop,4.0,None,0,,None,0,0.000948905944824,0.515828847885,0.766214847565,209.316684008,,,,,,,,,,,,,,,,,,,,,,,,,,,,,,,,,,,,,,,,,,2015_Jul_02_1229,59.9789502585,LearningTask,1,74,
,,,z,0,-200,,,,,,,,,,2,1,5,0,,,,,,,,,,,,,,,,,,,,,,,,,,,,,,,,,,,,,,,,,,,,,,,,,,,,,,,,,,,,209.31715107,stop,invertedtriangleorange.gif,stop,1.0,None,0,,None,0,0.00104093551636,0.515687942505,0.765951871872,212.320101023,,,,,,,,,,,,,,,,,,,,,,,,,,,,,,,,,,,,,,,,,,2015_Jul_02_1229,59.9789502585,LearningTask,1,74,
,,,m,0,200,,,,,,,,,,3,0,6,1,,,,,,,,,,,,,,,,,,,,,,,,,,,,,,,,,,,,,,,,,,,,,,,,,,,,,,,,,,,,212.320469141,go,lineyellow.gif,go,4.0,m,1,0.634696006775,None,0,0.0451149940491,0.515582084656,,215.323352098,,,,,,,,,,,,,,,,,,,,,,,,,,,,,,,,,,,,,,,,,,2015_Jul_02_1229,59.9789502585,LearningTask,1,74,
,,,z,0,-200,,,,,,,,,,3,1,7,0,,,,,,,,,,,,,,,,,,,,,,,,,,,,,,,,,,,,,,,,,,,,,,,,,,,,,,,,,,,,215.323714972,go,lineyellow.gif,go,4.0,z,1,0.717996835709,None,0,0.000998973846436,0.515952110291,,218.326828003,,,,,,,,,,,,,,,,,,,,,,,,,,,,,,,,,,,,,,,,,,2015_Jul_02_1229,59.9789502585,LearningTask,1,74,
,,,m,0,200,,,,,,,,,,4,0,8,1,,,,,,,,,,,,,,,,,,,,,,,,,,,,,,,,,,,,,,,,,,,,,,,,,,,,,,,,,,,,218.327206135,stop,crosswhite.gif,stop,4.0,None,0,,None,0,0.00097393989563,0.515893936157,0.765693902969,221.330223083,,,,,,,,,,,,,,,,,,,,,,,,,,,,,,,,,,,,,,,,,,2015_Jul_02_1229,59.9789502585,LearningTask,1,74,
,,,m,0,200,,,,,,,,,,4,1,9,1,,,,,,,,,,,,,,,,,,,,,,,,,,,,,,,,,,,,,,,,,,,,,,,,,,,,,,,,,,,,221.330615044,go,trianglemagenta.gif,go,2.0,m,1,0.801295995712,None,0,0.000952959060669,0.515582799911,,224.333413124,,,,,,,,,,,,,,,,,,,,,,,,,,,,,,,,,,,,,,,,,,2015_Jul_02_1229,59.9789502585,LearningTask,1,74,
,,,,,,,,,,,,,,,,,,,,,,,,,,,,,,,,,,,,,,,,,,,,,,,,,,,,,,,,,,,,,,,,,,,,,,,,,,,,,,,,,,,,,,,,,,,,9,60.1929051876,,,,,,,,,,,,,,,,,,,,,,,,,,,,,,,,,,,,,,,,2015_Jul_02_1229,59.9789502585,LearningTask,1,74,
,,,,,,,,,,,,,,,,,,,,,,,,,,,,,,,,,,,,,,,,,,,,,,,,,,,,,9,10.3782010078,,,,,,,,,,,,,,,,,,,,,,,,,,,,,,,,,,,,,,,,,,,,,,,,,,,,,,,,,,,,,,,,,,,,,,,,,,,,,,,2015_Jul_02_1229,59.9789502585,LearningTask,1,74,
200,w,200,,,,,,,,,,,,,,,,,0,0,0,0,0,0,0,0,,,,,,,,,,,,,,,,,,,,,,,,,,,,,w,1,0.48465681076,None,0,2.0,circlecyan.gif,stop,,,,,,,,,,,,,,,,,,,,,,,,,,,,,,,,2.05,0.511831998825,0.000921010971069,0.48465681076,1,w,298.117288113,,,,,,,,,,,,,,,,,,,,,,,,,,,,,,,,,2015_Jul_02_1229,59.9789502585,LearningTask,1,74,
-200,q,200,,,,,,,,,,,,,,,,,0,0,0,0,0,1,1,1,,,,,,,,,,,,,,,,,,,,,,,,,,,,,q,1,0.417484998703,None,0,4.0,crosswhite.gif,stop,,,,,,,,,,,,,,,,,,,,,,,,,,,,,,,,3.76,0.513401985168,0.00090479850769,0.417484998703,1,q,301.119935036,,,,,,,,,,,,,,,,,,,,,,,,,,,,,,,,,2015_Jul_02_1229,59.9789502585,LearningTask,1,74,
200,w,200,,,,,,,,,,,,,,,,,0,0,0,0,0,2,2,0,,,,,,,,,,,,,,,,,,,,,,,,,,,,,w,1,0.484427928925,None,0,4.0,lineyellow.gif,go,,,,,,,,,,,,,,,,,,,,,,,,,,,,,,,,3.85,0.514382839203,0.000899791717529,0.484427928925,1,w,304.123213053,,,,,,,,,,,,,,,,,,,,,,,,,,,,,,,,,2015_Jul_02_1229,59.9789502585,LearningTask,1,74,
200,s,-200,,,,,,,,,,,,,,,,,0,0,0,0,0,3,3,2,,,,,,,,,,,,,,,,,,,,,,,,,,,,,s,1,0.484143972397,None,0,2.0,trianglemagenta.gif,go,,,,,,,,,,,,,,,,,,,,,,,,,,,,,,,,1.78,0.51466012001,0.00100517272949,0.484143972397,1,s,307.12716198,,,,,,,,,,,,,,,,,,,,,,,,,,,,,,,,,2015_Jul_02_1229,59.9789502585,LearningTask,1,74,
-200,a,-200,,,,,,,,,,,,,,,,,0,0,0,0,1,0,4,3,,,,,,,,,,,,,,,,,,,,,,,,,,,,,a,1,0.38418006897,None,0,1.0,diamondgreen.gif,go,,,,,,,,,,,,,,,,,,,,,,,,,,,,,,,,0.99,0.513772964478,0.000906944274902,0.38418006897,1,a,310.129835129,,,,,,,,,,,,,,,,,,,,,,,,,,,,,,,,,2015_Jul_02_1229,59.9789502585,LearningTask,1,74,
200,w,200,,,,,,,,,,,,,,,,,0,0,0,0,1,1,5,0,,,,,,,,,,,,,,,,,,,,,,,,,,,,,w,1,0.367671012878,None,0,4.0,lineyellow.gif,go,,,,,,,,,,,,,,,,,,,,,,,,,,,,,,,,3.77,0.514540910721,0.000895023345947,0.367671012878,1,w,313.133219957,,,,,,,,,,,,,,,,,,,,,,,,,,,,,,,,,2015_Jul_02_1229,59.9789502585,LearningTask,1,74,
200,s,-200,,,,,,,,,,,,,,,,,0,0,0,0,1,2,6,2,,,,,,,,,,,,,,,,,,,,,,,,,,,,,s,1,0.317481040955,None,0,2.0,circlecyan.gif,stop,,,,,,,,,,,,,,,,,,,,,,,,,,,,,,,,1.89,0.514409065247,0.00096607208252,0.317481040955,1,s,316.136878014,,,,,,,,,,,,,,,,,,,,,,,,,,,,,,,,,2015_Jul_02_1229,59.9789502585,LearningTask,1,74,
200,s,-200,,,,,,,,,,,,,,,,,0,0,0,0,1,3,7,2,,,,,,,,,,,,,,,,,,,,,,,,,,,,,s,1,0.367738008499,None,0,2.0,trianglemagenta.gif,go,,,,,,,,,,,,,,,,,,,,,,,,,,,,,,,,2.17,0.514097929001,0.000926971435547,0.367738008499,1,s,319.140228987,,,,,,,,,,,,,,,,,,,,,,,,,,,,,,,,,2015_Jul_02_1229,59.9789502585,LearningTask,1,74,
-200,a,-200,,,,,,,,,,,,,,,,,0,0,0,0,2,0,8,3,,,,,,,,,,,,,,,,,,,,,,,,,,,,,a,1,0.450567960739,None,0,0.5,hexagonblue.gif,stop,,,,,,,,,,,,,,,,,,,,,,,,,,,,,,,,0.39,0.514415979385,0.0012378692627,0.450567960739,1,a,322.143216133,,,,,,,,,,,,,,,,,,,,,,,,,,,,,,,,,2015_Jul_02_1229,59.9789502585,LearningTask,1,74,
200,s,-200,,,,,,,,,,,,,,,,,0,0,0,0,2,1,9,2,,,,,,,,,,,,,,,,,,,,,,,,,,,,,s,1,0.400444984436,None,0,0.5,squaregray.gif,go,,,,,,,,,,,,,,,,,,,,,,,,,,,,,,,,0.65,0.514561891556,0.000893831253052,0.400444984436,1,s,325.146733999,,,,,,,,,,,,,,,,,,,,,,,,,,,,,,,,,2015_Jul_02_1229,59.9789502585,LearningTask,1,74,
200,w,200,,,,,,,,,,,,,,,,,0,0,0,0,2,2,10,0,,,,,,,,,,,,,,,,,,,,,,,,,,,,,w,1,0.368147850037,None,0,1.0,diamondgreen.gif,go,,,,,,,,,,,,,,,,,,,,,,,,,,,,,,,,0,0.514276981354,0.000925779342651,0.368147850037,1,w,328.15009594,,,,,,,,,,,,,,,,,,,,,,,,,,,,,,,,,2015_Jul_02_1229,59.9789502585,LearningTask,1,74,
200,s,-200,,,,,,,,,,,,,,,,,0,0,0,0,2,3,11,2,,,,,,,,,,,,,,,,,,,,,,,,,,,,,s,1,0.384490966797,None,0,1.0,diamondgreen.gif,go,,,,,,,,,,,,,,,,,,,,,,,,,,,,,,,,1.01,0.51430106163,0.00116419792175,0.384490966797,1,s,331.153660059,,,,,,,,,,,,,,,,,,,,,,,,,,,,,,,,,2015_Jul_02_1229,59.9789502585,LearningTask,1,74,
200,s,-200,,,,,,,,,,,,,,,,,0,0,0,0,3,0,12,2,,,,,,,,,,,,,,,,,,,,,,,,,,,,,s,1,0.367513179779,None,0,4.0,crosswhite.gif,stop,,,,,,,,,,,,,,,,,,,,,,,,,,,,,,,,4.02,0.514243841171,0.00089693069458,0.367513179779,1,s,334.156713963,,,,,,,,,,,,,,,,,,,,,,,,,,,,,,,,,2015_Jul_02_1229,59.9789502585,LearningTask,1,74,
-200,q,200,,,,,,,,,,,,,,,,,0,0,0,0,3,1,13,1,,,,,,,,,,,,,,,,,,,,,,,,,,,,,q,1,0.468127012253,None,0,4.0,lineyellow.gif,go,,,,,,,,,,,,,,,,,,,,,,,,,,,,,,,,3.97,0.514355182648,0.000921010971069,0.468127012253,1,q,337.160462141,,,,,,,,,,,,,,,,,,,,,,,,,,,,,,,,,2015_Jul_02_1229,59.9789502585,LearningTask,1,74,
-200,a,-200,,,,,,,,,,,,,,,,,0,0,0,0,3,2,14,3,,,,,,,,,,,,,,,,,,,,,,,,,,,,,a,1,0.43487405777,None,0,2.0,trianglemagenta.gif,go,,,,,,,,,,,,,,,,,,,,,,,,,,,,,,,,1.84,0.513578891754,0.000923871994019,0.43487405777,1,a,340.163576126,,,,,,,,,,,,,,,,,,,,,,,,,,,,,,,,,2015_Jul_02_1229,59.9789502585,LearningTask,1,74,
-200,q,200,,,,,,,,,,,,,,,,,0,0,0,0,3,3,15,1,,,,,,,,,,,,,,,,,,,,,,,,,,,,,q,1,0.4175760746,None,0,4.0,crosswhite.gif,stop,,,,,,,,,,,,,,,,,,,,,,,,,,,,,,,,4.18,0.514270067215,0.000899076461792,0.4175760746,1,q,343.166804075,,,,,,,,,,,,,,,,,,,,,,,,,,,,,,,,,2015_Jul_02_1229,59.9789502585,LearningTask,1,74,
-200,q,200,,,,,,,,,,,,,,,,,0,0,0,0,4,0,16,1,,,,,,,,,,,,,,,,,,,,,,,,,,,,,q,1,0.400892972946,None,0,4.0,lineyellow.gif,go,,,,,,,,,,,,,,,,,,,,,,,,,,,,,,,,0,0.514445066452,0.000901937484741,0.400892972946,1,q,346.17018795,,,,,,,,,,,,,,,,,,,,,,,,,,,,,,,,,2015_Jul_02_1229,59.9789502585,LearningTask,1,74,
200,w,200,,,,,,,,,,,,,,,,,0,0,0,0,4,1,17,0,,,,,,,,,,,,,,,,,,,,,,,,,,,,,w,1,0.384371042252,None,0,0.5,squaregray.gif,go,,,,,,,,,,,,,,,,,,,,,,,,,,,,,,,,0.62,0.514271974564,0.000941038131714,0.384371042252,1,w,349.173664093,,,,,,,,,,,,,,,,,,,,,,,,,,,,,,,,,2015_Jul_02_1229,59.9789502585,LearningTask,1,74,
-200,a,-200,,,,,,,,,,,,,,,,,0,0,0,0,4,2,18,3,,,,,,,,,,,,,,,,,,,,,,,,,,,,,a,1,0.483726024628,None,0,0.5,squaregray.gif,go,,,,,,,,,,,,,,,,,,,,,,,,,,,,,,,,0.38,0.514512062073,0.00112915039062,0.483726024628,1,a,352.176732063,,,,,,,,,,,,,,,,,,,,,,,,,,,,,,,,,2015_Jul_02_1229,59.9789502585,LearningTask,1,74,
-200,q,200,,,,,,,,,,,,,,,,,0,0,0,0,4,3,19,1,,,,,,,,,,,,,,,,,,,,,,,,,,,,,q,1,0.368007183075,None,0,0.5,squaregray.gif,go,,,,,,,,,,,,,,,,,,,,,,,,,,,,,,,,0.45,0.514503002167,0.000939130783081,0.368007183075,1,q,355.180952072,,,,,,,,,,,,,,,,,,,,,,,,,,,,,,,,,2015_Jul_02_1229,59.9789502585,LearningTask,1,74,
200,s,-200,,,,,,,,,,,,,,,,,0,0,0,0,5,0,20,2,,,,,,,,,,,,,,,,,,,,,,,,,,,,,s,1,0.384682893753,None,0,4.0,crosswhite.gif,stop,,,,,,,,,,,,,,,,,,,,,,,,,,,,,,,,4.01,0.513417005539,0.000913858413696,0.384682893753,1,s,358.183578014,,,,,,,,,,,,,,,,,,,,,,,,,,,,,,,,,2015_Jul_02_1229,59.9789502585,LearningTask,1,74,
-200,a,-200,,,,,,,,,,,,,,,,,0,0,0,0,5,1,21,3,,,,,,,,,,,,,,,,,,,,,,,,,,,,,a,1,0.434094905853,None,0,0.5,hexagonblue.gif,stop,,,,,,,,,,,,,,,,,,,,,,,,,,,,,,,,0.46,0.514430999756,0.00108194351196,0.434094905853,1,a,361.186906099,,,,,,,,,,,,,,,,,,,,,,,,,,,,,,,,,2015_Jul_02_1229,59.9789502585,LearningTask,1,74,
200,w,200,,,,,,,,,,,,,,,,,0,0,0,0,5,2,22,0,,,,,,,,,,,,,,,,,,,,,,,,,,,,,w,1,0.400916814804,None,0,0.5,hexagonblue.gif,stop,,,,,,,,,,,,,,,,,,,,,,,,,,,,,,,,0,0.514331102371,0.000958919525146,0.400916814804,1,w,364.190546036,,,,,,,,,,,,,,,,,,,,,,,,,,,,,,,,,2015_Jul_02_1229,59.9789502585,LearningTask,1,74,
200,s,-200,,,,,,,,,,,,,,,,,0,0,0,0,5,3,23,2,,,,,,,,,,,,,,,,,,,,,,,,,,,,,s,1,0.418122053146,None,0,2.0,trianglemagenta.gif,go,,,,,,,,,,,,,,,,,,,,,,,,,,,,,,,,1.96,0.514011144638,0.000890970230103,0.418122053146,1,s,367.193871975,,,,,,,,,,,,,,,,,,,,,,,,,,,,,,,,,2015_Jul_02_1229,59.9789502585,LearningTask,1,74,
-200,q,200,,,,,,,,,,,,,,,,,0,0,0,0,6,0,24,1,,,,,,,,,,,,,,,,,,,,,,,,,,,,,q,1,0.384083986282,None,0,1.0,diamondgreen.gif,go,,,,,,,,,,,,,,,,,,,,,,,,,,,,,,,,0,0.514143943787,0.000920057296753,0.384083986282,1,q,370.196903944,,,,,,,,,,,,,,,,,,,,,,,,,,,,,,,,,2015_Jul_02_1229,59.9789502585,LearningTask,1,74,
200,s,-200,,,,,,,,,,,,,,,,,0,0,0,0,6,1,25,2,,,,,,,,,,,,,,,,,,,,,,,,,,,,,s,1,0.550596952438,None,0,0.5,squaregray.gif,go,,,,,,,,,,,,,,,,,,,,,,,,,,,,,,,,0.57,0.514717102051,0.000895023345947,0.550596952438,1,s,373.200377941,,,,,,,,,,,,,,,,,,,,,,,,,,,,,,,,,2015_Jul_02_1229,59.9789502585,LearningTask,1,74,
-200,q,200,,,,,,,,,,,,,,,,,0,0,0,0,6,2,26,1,,,,,,,,,,,,,,,,,,,,,,,,,,,,,q,1,0.451371908188,None,0,0.5,hexagonblue.gif,stop,,,,,,,,,,,,,,,,,,,,,,,,,,,,,,,,0.62,0.514315128326,0.000898122787476,0.451371908188,1,q,376.203825951,,,,,,,,,,,,,,,,,,,,,,,,,,,,,,,,,2015_Jul_02_1229,59.9789502585,LearningTask,1,74,
200,w,200,,,,,,,,,,,,,,,,,0,0,0,0,6,3,27,0,,,,,,,,,,,,,,,,,,,,,,,,,,,,,w,1,0.417814016342,None,0,1.0,diamondgreen.gif,go,,,,,,,,,,,,,,,,,,,,,,,,,,,,,,,,0.82,0.514112949371,0.00118803977966,0.417814016342,1,w,379.207304955,,,,,,,,,,,,,,,,,,,,,,,,,,,,,,,,,2015_Jul_02_1229,59.9789502585,LearningTask,1,74,
-200,a,-200,,,,,,,,,,,,,,,,,0,0,0,0,7,0,28,3,,,,,,,,,,,,,,,,,,,,,,,,,,,,,a,1,0.601186990738,None,0,4.0,lineyellow.gif,go,,,,,,,,,,,,,,,,,,,,,,,,,,,,,,,,4.21,0.513747930527,0.00103497505188,0.601186990738,1,a,382.210390091,,,,,,,,,,,,,,,,,,,,,,,,,,,,,,,,,2015_Jul_02_1229,59.9789502585,LearningTask,1,74,
-200,a,-200,,,,,,,,,,,,,,,,,0,0,0,0,7,1,29,3,,,,,,,,,,,,,,,,,,,,,,,,,,,,,a,1,0.601711034775,None,0,2.0,circlecyan.gif,stop,,,,,,,,,,,,,,,,,,,,,,,,,,,,,,,,2.06,0.514314174652,0.000921010971069,0.601711034775,1,a,385.21371007,,,,,,,,,,,,,,,,,,,,,,,,,,,,,,,,,2015_Jul_02_1229,59.9789502585,LearningTask,1,74,
-200,a,-200,,,,,,,,,,,,,,,,,0,0,0,0,7,2,30,3,,,,,,,,,,,,,,,,,,,,,,,,,,,,,a,1,0.534624099731,None,0,0.5,squaregray.gif,go,,,,,,,,,,,,,,,,,,,,,,,,,,,,,,,,0.56,0.514091014862,0.00120401382446,0.534624099731,1,a,388.217176914,,,,,,,,,,,,,,,,,,,,,,,,,,,,,,,,,2015_Jul_02_1229,59.9789502585,LearningTask,1,74,
-200,q,200,,,,,,,,,,,,,,,,,0,0,0,0,7,3,31,1,,,,,,,,,,,,,,,,,,,,,,,,,,,,,q,1,0.367390155792,None,0,0.5,squaregray.gif,go,,,,,,,,,,,,,,,,,,,,,,,,,,,,,,,,0.71,0.514337778091,0.000887870788574,0.367390155792,1,q,391.220359087,,,,,,,,,,,,,,,,,,,,,,,,,,,,,,,,,2015_Jul_02_1229,59.9789502585,LearningTask,1,74,
-200,a,-200,,,,,,,,,,,,,,,,,0,0,0,0,8,0,32,3,,,,,,,,,,,,,,,,,,,,,,,,,,,,,a,1,0.434253931046,None,0,0.5,hexagonblue.gif,stop,,,,,,,,,,,,,,,,,,,,,,,,,,,,,,,,0.43,0.514527082443,0.000976085662842,0.434253931046,1,a,394.223799944,,,,,,,,,,,,,,,,,,,,,,,,,,,,,,,,,2015_Jul_02_1229,59.9789502585,LearningTask,1,74,
-200,q,200,,,,,,,,,,,,,,,,,0,0,0,0,8,1,33,1,,,,,,,,,,,,,,,,,,,,,,,,,,,,,q,1,0.45046710968,None,0,0.5,hexagonblue.gif,stop,,,,,,,,,,,,,,,,,,,,,,,,,,,,,,,,0.72,0.514420032501,0.000945091247559,0.45046710968,1,q,397.227180958,,,,,,,,,,,,,,,,,,,,,,,,,,,,,,,,,2015_Jul_02_1229,59.9789502585,LearningTask,1,74,
-200,a,-200,,,,,,,,,,,,,,,,,0,0,0,0,8,2,34,3,,,,,,,,,,,,,,,,,,,,,,,,,,,,,a,1,0.451152801514,None,0,1.0,invertedtriangleorange.gif,stop,,,,,,,,,,,,,,,,,,,,,,,,,,,,,,,,0.99,0.514370918274,0.000893115997314,0.451152801514,1,a,400.230484962,,,,,,,,,,,,,,,,,,,,,,,,,,,,,,,,,2015_Jul_02_1229,59.9789502585,LearningTask,1,74,
-200,q,200,,,,,,,,,,,,,,,,,0,0,0,0,8,3,35,1,,,,,,,,,,,,,,,,,,,,,,,,,,,,,q,1,0.534384012222,None,0,2.0,trianglemagenta.gif,go,,,,,,,,,,,,,,,,,,,,,,,,,,,,,,,,2.18,0.51429104805,0.000930070877075,0.534384012222,1,q,403.235074043,,,,,,,,,,,,,,,,,,,,,,,,,,,,,,,,,2015_Jul_02_1229,59.9789502585,LearningTask,1,74,
200,w,200,,,,,,,,,,,,,,,,,0,0,0,0,9,0,36,0,,,,,,,,,,,,,,,,,,,,,,,,,,,,,w,1,0.534747123718,None,0,2.0,trianglemagenta.gif,go,,,,,,,,,,,,,,,,,,,,,,,,,,,,,,,,2.08,0.512670993805,0.000902891159058,0.534747123718,1,w,406.23746109,,,,,,,,,,,,,,,,,,,,,,,,,,,,,,,,,2015_Jul_02_1229,59.9789502585,LearningTask,1,74,
200,w,200,,,,,,,,,,,,,,,,,0,0,0,0,9,1,37,0,,,,,,,,,,,,,,,,,,,,,,,,,,,,,w,1,0.5172560215,None,0,1.0,invertedtriangleorange.gif,stop,,,,,,,,,,,,,,,,,,,,,,,,,,,,,,,,1.06,0.514103889465,0.000893831253052,0.5172560215,1,w,409.24061799,,,,,,,,,,,,,,,,,,,,,,,,,,,,,,,,,2015_Jul_02_1229,59.9789502585,LearningTask,1,74,
200,w,200,,,,,,,,,,,,,,,,,0,0,0,0,9,2,38,0,,,,,,,,,,,,,,,,,,,,,,,,,,,,,w,1,0.400784015656,None,0,2.0,trianglemagenta.gif,go,,,,,,,,,,,,,,,,,,,,,,,,,,,,,,,,2.08,0.514271020889,0.000945091247559,0.400784015656,1,w,412.244096041,,,,,,,,,,,,,,,,,,,,,,,,,,,,,,,,,2015_Jul_02_1229,59.9789502585,LearningTask,1,74,
-200,a,-200,,,,,,,,,,,,,,,,,0,0,0,0,9,3,39,3,,,,,,,,,,,,,,,,,,,,,,,,,,,,,a,1,0.550981044769,None,0,1.0,diamondgreen.gif,go,,,,,,,,,,,,,,,,,,,,,,,,,,,,,,,,0.95,0.514271020889,0.000918865203857,0.550981044769,1,a,415.24724102,,,,,,,,,,,,,,,,,,,,,,,,,,,,,,,,,2015_Jul_02_1229,59.9789502585,LearningTask,1,74,
200,s,-200,,,,,,,,,,,,,,,,,0,0,0,0,10,0,40,2,,,,,,,,,,,,,,,,,,,,,,,,,,,,,s,1,0.417518854141,None,0,1.0,diamondgreen.gif,go,,,,,,,,,,,,,,,,,,,,,,,,,,,,,,,,0,0.514366149902,0.000888109207153,0.417518854141,1,s,418.250599146,,,,,,,,,,,,,,,,,,,,,,,,,,,,,,,,,2015_Jul_02_1229,59.9789502585,LearningTask,1,74,
-200,a,-200,,,,,,,,,,,,,,,,,0,0,0,0,10,1,41,3,,,,,,,,,,,,,,,,,,,,,,,,,,,,,a,1,0.433707952499,None,0,2.0,circlecyan.gif,stop,,,,,,,,,,,,,,,,,,,,,,,,,,,,,,,,1.85,0.514717102051,0.000895023345947,0.433707952499,1,a,421.254081011,,,,,,,,,,,,,,,,,,,,,,,,,,,,,,,,,2015_Jul_02_1229,59.9789502585,LearningTask,1,74,
200,w,200,,,,,,,,,,,,,,,,,0,0,0,0,10,2,42,0,,,,,,,,,,,,,,,,,,,,,,,,,,,,,w,1,0.417784929276,None,0,2.0,trianglemagenta.gif,go,,,,,,,,,,,,,,,,,,,,,,,,,,,,,,,,0,0.514027118683,0.000900030136108,0.417784929276,1,w,424.257332087,,,,,,,,,,,,,,,,,,,,,,,,,,,,,,,,,2015_Jul_02_1229,59.9789502585,LearningTask,1,74,
200,w,200,,,,,,,,,,,,,,,,,0,0,0,0,10,3,43,0,,,,,,,,,,,,,,,,,,,,,,,,,,,,,w,1,0.434259176254,None,0,2.0,circlecyan.gif,stop,,,,,,,,,,,,,,,,,,,,,,,,,,,,,,,,2.08,0.514317035675,0.00109314918518,0.434259176254,1,w,427.261078119,,,,,,,,,,,,,,,,,,,,,,,,,,,,,,,,,2015_Jul_02_1229,59.9789502585,LearningTask,1,74,
-200,a,-200,,,,,,,,,,,,,,,,,0,0,0,0,11,0,44,3,,,,,,,,,,,,,,,,,,,,,,,,,,,,,a,1,0.450818777084,None,0,1.0,invertedtriangleorange.gif,stop,,,,,,,,,,,,,,,,,,,,,,,,,,,,,,,,1.06,0.513972997665,0.000921964645386,0.450818777084,1,a,430.26436305,,,,,,,,,,,,,,,,,,,,,,,,,,,,,,,,,2015_Jul_02_1229,59.9789502585,LearningTask,1,74,
-200,a,-200,,,,,,,,,,,,,,,,,0,0,0,0,11,1,45,3,,,,,,,,,,,,,,,,,,,,,,,,,,,,,a,1,0.501070976257,None,0,1.0,invertedtriangleorange.gif,stop,,,,,,,,,,,,,,,,,,,,,,,,,,,,,,,,0.98,0.513957023621,0.000927925109863,0.501070976257,1,a,433.267591,,,,,,,,,,,,,,,,,,,,,,,,,,,,,,,,,2015_Jul_02_1229,59.9789502585,LearningTask,1,74,
-200,q,200,,,,,,,,,,,,,,,,,0,0,0,0,11,2,46,1,,,,,,,,,,,,,,,,,,,,,,,,,,,,,q,1,0.451501131058,None,0,0.5,hexagonblue.gif,stop,,,,,,,,,,,,,,,,,,,,,,,,,,,,,,,,0.3,0.513933897018,0.000977039337158,0.451501131058,1,q,436.270998001,,,,,,,,,,,,,,,,,,,,,,,,,,,,,,,,,2015_Jul_02_1229,59.9789502585,LearningTask,1,74,
200,s,-200,,,,,,,,,,,,,,,,,0,0,0,0,11,3,47,2,,,,,,,,,,,,,,,,,,,,,,,,,,,,,s,1,0.518121004105,None,0,0.5,hexagonblue.gif,stop,,,,,,,,,,,,,,,,,,,,,,,,,,,,,,,,0.4,0.514133930206,0.000903129577637,0.518121004105,1,s,439.274058104,,,,,,,,,,,,,,,,,,,,,,,,,,,,,,,,,2015_Jul_02_1229,59.9789502585,LearningTask,1,74,
-200,a,-200,,,,,,,,,,,,,,,,,0,0,0,0,12,0,48,3,,,,,,,,,,,,,,,,,,,,,,,,,,,,,a,1,0.501332998276,None,0,4.0,crosswhite.gif,stop,,,,,,,,,,,,,,,,,,,,,,,,,,,,,,,,0,0.514410972595,0.000878810882568,0.501332998276,1,a,442.277629137,,,,,,,,,,,,,,,,,,,,,,,,,,,,,,,,,2015_Jul_02_1229,59.9789502585,LearningTask,1,74,
200,s,-200,,,,,,,,,,,,,,,,,0,0,0,0,12,1,49,2,,,,,,,,,,,,,,,,,,,,,,,,,,,,,s,1,0.383994102478,None,0,0.5,squaregray.gif,go,,,,,,,,,,,,,,,,,,,,,,,,,,,,,,,,0.53,0.513874053955,0.000926971435547,0.383994102478,1,s,445.280868053,,,,,,,,,,,,,,,,,,,,,,,,,,,,,,,,,2015_Jul_02_1229,59.9789502585,LearningTask,1,74,
200,s,-200,,,,,,,,,,,,,,,,,0,0,0,0,12,2,50,2,,,,,,,,,,,,,,,,,,,,,,,,,,,,,s,1,0.400490999222,None,0,1.0,invertedtriangleorange.gif,stop,,,,,,,,,,,,,,,,,,,,,,,,,,,,,,,,0.95,0.5142390728,0.000936031341553,0.400490999222,1,s,448.284337044,,,,,,,,,,,,,,,,,,,,,,,,,,,,,,,,,2015_Jul_02_1229,59.9789502585,LearningTask,1,74,
200,w,200,,,,,,,,,,,,,,,,,0,0,0,0,12,3,51,0,,,,,,,,,,,,,,,,,,,,,,,,,,,,,w,1,0.467528104782,None,0,1.0,invertedtriangleorange.gif,stop,,,,,,,,,,,,,,,,,,,,,,,,,,,,,,,,0.99,0.51345205307,0.000970125198364,0.467528104782,1,w,451.288439035,,,,,,,,,,,,,,,,,,,,,,,,,,,,,,,,,2015_Jul_02_1229,59.9789502585,LearningTask,1,74,
200,s,-200,,,,,,,,,,,,,,,,,0,0,0,0,13,0,52,2,,,,,,,,,,,,,,,,,,,,,,,,,,,,,s,1,0.46777510643,None,0,0.5,squaregray.gif,go,,,,,,,,,,,,,,,,,,,,,,,,,,,,,,,,0.39,0.513286113739,0.00130701065063,0.46777510643,1,s,454.291052103,,,,,,,,,,,,,,,,,,,,,,,,,,,,,,,,,2015_Jul_02_1229,59.9789502585,LearningTask,1,74,
200,s,-200,,,,,,,,,,,,,,,,,0,0,0,0,13,1,53,2,,,,,,,,,,,,,,,,,,,,,,,,,,,,,s,1,0.401148080826,None,0,4.0,lineyellow.gif,go,,,,,,,,,,,,,,,,,,,,,,,,,,,,,,,,3.96,0.513659000397,0.0013370513916,0.401148080826,1,s,457.294186115,,,,,,,,,,,,,,,,,,,,,,,,,,,,,,,,,2015_Jul_02_1229,59.9789502585,LearningTask,1,74,
-200,q,200,,,,,,,,,,,,,,,,,0,0,0,0,13,2,54,1,,,,,,,,,,,,,,,,,,,,,,,,,,,,,q,1,0.468072891235,None,0,4.0,lineyellow.gif,go,,,,,,,,,,,,,,,,,,,,,,,,,,,,,,,,4.13,0.514310836792,0.000943899154663,0.468072891235,1,q,460.29826808,,,,,,,,,,,,,,,,,,,,,,,,,,,,,,,,,2015_Jul_02_1229,59.9789502585,LearningTask,1,74,
200,w,200,,,,,,,,,,,,,,,,,0,0,0,0,13,3,55,0,,,,,,,,,,,,,,,,,,,,,,,,,,,,,w,1,0.718147039413,None,0,1.0,invertedtriangleorange.gif,stop,,,,,,,,,,,,,,,,,,,,,,,,,,,,,,,,1.09,0.513340950012,0.000910043716431,0.718147039413,1,w,463.301361084,,,,,,,,,,,,,,,,,,,,,,,,,,,,,,,,,2015_Jul_02_1229,59.9789502585,LearningTask,1,74,
200,w,200,,,,,,,,,,,,,,,,,0,0,0,0,14,0,56,0,,,,,,,,,,,,,,,,,,,,,,,,,,,,,w,1,0.551002025604,None,0,4.0,crosswhite.gif,stop,,,,,,,,,,,,,,,,,,,,,,,,,,,,,,,,3.83,0.513898134232,0.00138401985168,0.551002025604,1,w,466.304310083,,,,,,,,,,,,,,,,,,,,,,,,,,,,,,,,,2015_Jul_02_1229,59.9789502585,LearningTask,1,74,
-200,a,-200,,,,,,,,,,,,,,,,,0,0,0,0,14,1,57,3,,,,,,,,,,,,,,,,,,,,,,,,,,,,,a,1,0.484237909317,None,0,0.5,squaregray.gif,go,,,,,,,,,,,,,,,,,,,,,,,,,,,,,,,,0,0.514253139496,0.000891208648682,0.484237909317,1,a,469.307714939,,,,,,,,,,,,,,,,,,,,,,,,,,,,,,,,,2015_Jul_02_1229,59.9789502585,LearningTask,1,74,
200,w,200,,,,,,,,,,,,,,,,,0,0,0,0,14,2,58,0,,,,,,,,,,,,,,,,,,,,,,,,,,,,,w,1,0.484612941742,None,0,4.0,lineyellow.gif,go,,,,,,,,,,,,,,,,,,,,,,,,,,,,,,,,3.95,0.514282226562,0.000925064086914,0.484612941742,1,w,472.311003923,,,,,,,,,,,,,,,,,,,,,,,,,,,,,,,,,2015_Jul_02_1229,59.9789502585,LearningTask,1,74,
-200,a,-200,,,,,,,,,,,,,,,,,0,0,0,0,14,3,59,3,,,,,,,,,,,,,,,,,,,,,,,,,,,,,a,1,0.484148025513,None,0,2.0,circlecyan.gif,stop,,,,,,,,,,,,,,,,,,,,,,,,,,,,,,,,2.13,0.514422893524,0.00146198272705,0.484148025513,1,a,475.314502954,,,,,,,,,,,,,,,,,,,,,,,,,,,,,,,,,2015_Jul_02_1229,59.9789502585,LearningTask,1,74,
200,s,-200,,,,,,,,,,,,,,,,,0,0,0,0,15,0,60,2,,,,,,,,,,,,,,,,,,,,,,,,,,,,,s,1,0.584386825562,None,0,4.0,crosswhite.gif,stop,,,,,,,,,,,,,,,,,,,,,,,,,,,,,,,,0,0.51416516304,0.00102210044861,0.584386825562,1,s,478.317594051,,,,,,,,,,,,,,,,,,,,,,,,,,,,,,,,,2015_Jul_02_1229,59.9789502585,LearningTask,1,74,
-200,q,200,,,,,,,,,,,,,,,,,0,0,0,0,15,1,61,1,,,,,,,,,,,,,,,,,,,,,,,,,,,,,q,1,0.58460521698,None,0,0.5,squaregray.gif,go,,,,,,,,,,,,,,,,,,,,,,,,,,,,,,,,0.72,0.514370918274,0.000917911529541,0.58460521698,1,q,481.320740938,,,,,,,,,,,,,,,,,,,,,,,,,,,,,,,,,2015_Jul_02_1229,59.9789502585,LearningTask,1,74,
-200,q,200,,,,,,,,,,,,,,,,,0,0,0,0,15,2,62,1,,,,,,,,,,,,,,,,,,,,,,,,,,,,,q,1,0.384509086609,None,0,1.0,invertedtriangleorange.gif,stop,,,,,,,,,,,,,,,,,,,,,,,,,,,,,,,,0.85,0.514256954193,0.0012149810791,0.384509086609,1,q,484.324579954,,,,,,,,,,,,,,,,,,,,,,,,,,,,,,,,,2015_Jul_02_1229,59.9789502585,LearningTask,1,74,
200,s,-200,,,,,,,,,,,,,,,,,0,0,0,0,15,3,63,2,,,,,,,,,,,,,,,,,,,,,,,,,,,,,s,1,0.551239013672,None,0,1.0,diamondgreen.gif,go,,,,,,,,,,,,,,,,,,,,,,,,,,,,,,,,0.97,0.514113903046,0.00129580497742,0.551239013672,1,s,487.328016043,,,,,,,,,,,,,,,,,,,,,,,,,,,,,,,,,2015_Jul_02_1229,59.9789502585,LearningTask,1,74,
200,s,-200,,,,,,,,,,,,,,,,,0,0,0,0,16,0,64,2,,,,,,,,,,,,,,,,,,,,,,,,,,,,,s,1,0.418089151382,None,0,4.0,lineyellow.gif,go,,,,,,,,,,,,,,,,,,,,,,,,,,,,,,,,3.82,0.51401591301,0.000957012176514,0.418089151382,1,s,490.331112146,,,,,,,,,,,,,,,,,,,,,,,,,,,,,,,,,2015_Jul_02_1229,59.9789502585,LearningTask,1,74,
200,w,200,,,,,,,,,,,,,,,,,0,0,0,0,16,1,65,0,,,,,,,,,,,,,,,,,,,,,,,,,,,,,w,1,0.450903892517,None,0,2.0,trianglemagenta.gif,go,,,,,,,,,,,,,,,,,,,,,,,,,,,,,,,,1.86,0.51415514946,0.00133800506592,0.450903892517,1,w,493.334800005,,,,,,,,,,,,,,,,,,,,,,,,,,,,,,,,,2015_Jul_02_1229,59.9789502585,LearningTask,1,74,
-200,q,200,,,,,,,,,,,,,,,,,0,0,0,0,16,2,66,1,,,,,,,,,,,,,,,,,,,,,,,,,,,,,q,1,0.433909893036,None,0,4.0,lineyellow.gif,go,,,,,,,,,,,,,,,,,,,,,,,,,,,,,,,,4.0,0.514353990555,0.000897884368896,0.433909893036,1,q,496.338009119,,,,,,,,,,,,,,,,,,,,,,,,,,,,,,,,,2015_Jul_02_1229,59.9789502585,LearningTask,1,74,
200,w,200,,,,,,,,,,,,,,,,,0,0,0,0,16,3,67,0,,,,,,,,,,,,,,,,,,,,,,,,,,,,,w,1,0.48403096199,None,0,4.0,crosswhite.gif,stop,,,,,,,,,,,,,,,,,,,,,,,,,,,,,,,,3.83,0.514224052429,0.000969886779785,0.48403096199,1,w,499.341895103,,,,,,,,,,,,,,,,,,,,,,,,,,,,,,,,,2015_Jul_02_1229,59.9789502585,LearningTask,1,74,
-200,q,200,,,,,,,,,,,,,,,,,0,0,0,0,17,0,68,1,,,,,,,,,,,,,,,,,,,,,,,,,,,,,q,1,0.501348018646,None,0,1.0,invertedtriangleorange.gif,stop,,,,,,,,,,,,,,,,,,,,,,,,,,,,,,,,0,0.513549804688,0.000916004180908,0.501348018646,1,q,502.344598055,,,,,,,,,,,,,,,,,,,,,,,,,,,,,,,,,2015_Jul_02_1229,59.9789502585,LearningTask,1,74,
-200,a,-200,,,,,,,,,,,,,,,,,0,0,0,0,17,1,69,3,,,,,,,,,,,,,,,,,,,,,,,,,,,,,a,1,0.484390974045,None,0,2.0,trianglemagenta.gif,go,,,,,,,,,,,,,,,,,,,,,,,,,,,,,,,,2.04,0.51420378685,0.000893831253052,0.484390974045,1,a,505.347885132,,,,,,,,,,,,,,,,,,,,,,,,,,,,,,,,,2015_Jul_02_1229,59.9789502585,LearningTask,1,74,
200,s,-200,,,,,,,,,,,,,,,,,0,0,0,0,17,2,70,2,,,,,,,,,,,,,,,,,,,,,,,,,,,,,s,1,0.434606790543,None,0,0.5,hexagonblue.gif,stop,,,,,,,,,,,,,,,,,,,,,,,,,,,,,,,,0.52,0.514321804047,0.00135087966919,0.434606790543,1,s,508.351692915,,,,,,,,,,,,,,,,,,,,,,,,,,,,,,,,,2015_Jul_02_1229,59.9789502585,LearningTask,1,74,
-200,a,-200,,,,,,,,,,,,,,,,,0,0,0,0,17,3,71,3,,,,,,,,,,,,,,,,,,,,,,,,,,,,,a,1,0.501209020615,None,0,1.0,invertedtriangleorange.gif,stop,,,,,,,,,,,,,,,,,,,,,,,,,,,,,,,,1.0,0.513547182083,0.000920057296753,0.501209020615,1,a,511.354609013,,,,,,,,,,,,,,,,,,,,,,,,,,,,,,,,,2015_Jul_02_1229,59.9789502585,LearningTask,1,74,
-200,q,200,,,,,,,,,,,,,,,,,0,0,0,0,18,0,72,1,,,,,,,,,,,,,,,,,,,,,,,,,,,,,q,1,0.400653123856,None,0,2.0,circlecyan.gif,stop,,,,,,,,,,,,,,,,,,,,,,,,,,,,,,,,2.1,0.514704942703,0.000897884368896,0.400653123856,1,q,514.35772109,,,,,,,,,,,,,,,,,,,,,,,,,,,,,,,,,2015_Jul_02_1229,59.9789502585,LearningTask,1,74,
-200,a,-200,,,,,,,,,,,,,,,,,0,0,0,0,18,1,73,3,,,,,,,,,,,,,,,,,,,,,,,,,,,,,a,1,0.618188142776,None,0,1.0,diamondgreen.gif,go,,,,,,,,,,,,,,,,,,,,,,,,,,,,,,,,1.07,0.514113903046,0.000943899154663,0.618188142776,1,a,517.361294031,,,,,,,,,,,,,,,,,,,,,,,,,,,,,,,,,2015_Jul_02_1229,59.9789502585,LearningTask,1,74,
200,s,-200,,,,,,,,,,,,,,,,,0,0,0,0,18,2,74,2,,,,,,,,,,,,,,,,,,,,,,,,,,,,,s,1,0.418449878693,None,0,2.0,circlecyan.gif,stop,,,,,,,,,,,,,,,,,,,,,,,,,,,,,,,,1.84,0.514127969742,0.000895023345947,0.418449878693,1,s,520.364659071,,,,,,,,,,,,,,,,,,,,,,,,,,,,,,,,,2015_Jul_02_1229,59.9789502585,LearningTask,1,74,
-200,q,200,,,,,,,,,,,,,,,,,0,0,0,0,18,3,75,1,,,,,,,,,,,,,,,,,,,,,,,,,,,,,q,1,0.400597810745,None,0,2.0,circlecyan.gif,stop,,,,,,,,,,,,,,,,,,,,,,,,,,,,,,,,2.05,0.514625072479,0.00111603736877,0.400597810745,1,q,523.368345976,,,,,,,,,,,,,,,,,,,,,,,,,,,,,,,,,2015_Jul_02_1229,59.9789502585,LearningTask,1,74,
200,w,200,,,,,,,,,,,,,,,,,0,0,0,0,19,0,76,0,,,,,,,,,,,,,,,,,,,,,,,,,,,,,w,1,0.350914955139,None,0,2.0,circlecyan.gif,stop,,,,,,,,,,,,,,,,,,,,,,,,,,,,,,,,2.02,0.513978004456,0.000900030136108,0.350914955139,1,w,526.371396065,,,,,,,,,,,,,,,,,,,,,,,,,,,,,,,,,2015_Jul_02_1229,59.9789502585,LearningTask,1,74,
-200,a,-200,,,,,,,,,,,,,,,,,0,0,0,0,19,1,77,3,,,,,,,,,,,,,,,,,,,,,,,,,,,,,a,1,0.434382915497,None,0,1.0,invertedtriangleorange.gif,stop,,,,,,,,,,,,,,,,,,,,,,,,,,,,,,,,0.9,0.514351844788,0.000925064086914,0.434382915497,1,a,529.374562025,,,,,,,,,,,,,,,,,,,,,,,,,,,,,,,,,2015_Jul_02_1229,59.9789502585,LearningTask,1,74,
-200,q,200,,,,,,,,,,,,,,,,,0,0,0,0,19,2,78,1,,,,,,,,,,,,,,,,,,,,,,,,,,,,,q,1,0.518531084061,None,0,2.0,trianglemagenta.gif,go,,,,,,,,,,,,,,,,,,,,,,,,,,,,,,,,0,0.514266967773,0.00102496147156,0.518531084061,1,q,532.378051996,,,,,,,,,,,,,,,,,,,,,,,,,,,,,,,,,2015_Jul_02_1229,59.9789502585,LearningTask,1,74,
-200,a,-200,,,,,,,,,,,,,,,,,0,0,0,0,19,3,79,3,,,,,,,,,,,,,,,,,,,,,,,,,,,,,a,1,0.467455148697,None,0,0.5,squaregray.gif,go,,,,,,,,,,,,,,,,,,,,,,,,,,,,,,,,0.48,0.514347076416,0.000919103622437,0.467455148697,1,a,535.381452084,,,,,,,,,,,,,,,,,,,,,,,,,,,,,,,,,2015_Jul_02_1229,59.9789502585,LearningTask,1,74,
-200,q,200,,,,,,,,,,,,,,,,,0,0,0,0,20,0,80,1,,,,,,,,,,,,,,,,,,,,,,,,,,,,,q,1,0.600844144821,None,0,2.0,circlecyan.gif,stop,,,,,,,,,,,,,,,,,,,,,,,,,,,,,,,,1.87,0.514391899109,0.000907897949219,0.600844144821,1,q,538.384776115,,,,,,,,,,,,,,,,,,,,,,,,,,,,,,,,,2015_Jul_02_1229,59.9789502585,LearningTask,1,74,
-200,q,200,,,,,,,,,,,,,,,,,0,0,0,0,20,1,81,1,,,,,,,,,,,,,,,,,,,,,,,,,,,,,q,1,0.484266996384,None,0,4.0,crosswhite.gif,stop,,,,,,,,,,,,,,,,,,,,,,,,,,,,,,,,0,0.514262914658,0.00091814994812,0.484266996384,1,q,541.388194084,,,,,,,,,,,,,,,,,,,,,,,,,,,,,,,,,2015_Jul_02_1229,59.9789502585,LearningTask,1,74,
-200,q,200,,,,,,,,,,,,,,,,,0,0,0,0,20,2,82,1,,,,,,,,,,,,,,,,,,,,,,,,,,,,,q,1,0.367571115494,None,0,4.0,lineyellow.gif,go,,,,,,,,,,,,,,,,,,,,,,,,,,,,,,,,4.12,0.514201879501,0.000913858413696,0.367571115494,1,q,544.391535997,,,,,,,,,,,,,,,,,,,,,,,,,,,,,,,,,2015_Jul_02_1229,59.9789502585,LearningTask,1,74,
200,w,200,,,,,,,,,,,,,,,,,0,0,0,0,20,3,83,0,,,,,,,,,,,,,,,,,,,,,,,,,,,,,w,1,0.417544841766,None,0,2.0,circlecyan.gif,stop,,,,,,,,,,,,,,,,,,,,,,,,,,,,,,,,2.21,0.514355897903,0.00126791000366,0.417544841766,1,w,547.395899057,,,,,,,,,,,,,,,,,,,,,,,,,,,,,,,,,2015_Jul_02_1229,59.9789502585,LearningTask,1,74,
200,w,200,,,,,,,,,,,,,,,,,0,0,0,0,21,0,84,0,,,,,,,,,,,,,,,,,,,,,,,,,,,,,w,1,0.484464883804,None,0,1.0,invertedtriangleorange.gif,stop,,,,,,,,,,,,,,,,,,,,,,,,,,,,,,,,0.84,0.513185977936,0.000901937484741,0.484464883804,1,w,550.398461103,,,,,,,,,,,,,,,,,,,,,,,,,,,,,,,,,2015_Jul_02_1229,59.9789502585,LearningTask,1,74,
-200,q,200,,,,,,,,,,,,,,,,,0,0,0,0,21,1,85,1,,,,,,,,,,,,,,,,,,,,,,,,,,,,,q,1,0.500731945038,None,0,1.0,diamondgreen.gif,go,,,,,,,,,,,,,,,,,,,,,,,,,,,,,,,,0,0.51419711113,0.000923156738281,0.500731945038,1,q,553.401552916,,,,,,,,,,,,,,,,,,,,,,,,,,,,,,,,,2015_Jul_02_1229,59.9789502585,LearningTask,1,74,
200,w,200,,,,,,,,,,,,,,,,,0,0,0,0,21,2,86,0,,,,,,,,,,,,,,,,,,,,,,,,,,,,,w,1,0.784684896469,None,0,0.5,squaregray.gif,go,,,,,,,,,,,,,,,,,,,,,,,,,,,,,,,,0.51,0.514369010925,0.000923156738281,0.784684896469,1,w,556.405336142,,,,,,,,,,,,,,,,,,,,,,,,,,,,,,,,,2015_Jul_02_1229,59.9789502585,LearningTask,1,74,
-200,a,-200,,,,,,,,,,,,,,,,,0,0,0,0,21,3,87,3,,,,,,,,,,,,,,,,,,,,,,,,,,,,,a,1,0.868260860443,None,0,1.0,invertedtriangleorange.gif,stop,,,,,,,,,,,,,,,,,,,,,,,,,,,,,,,,0.86,0.513847112656,0.00090503692627,0.868260860443,1,a,559.408291101,,,,,,,,,,,,,,,,,,,,,,,,,,,,,,,,,2015_Jul_02_1229,59.9789502585,LearningTask,1,74,
200,w,200,,,,,,,,,,,,,,,,,0,0,0,0,22,0,88,0,,,,,,,,,,,,,,,,,,,,,,,,,,,,,w,1,0.667625188828,None,0,4.0,lineyellow.gif,go,,,,,,,,,,,,,,,,,,,,,,,,,,,,,,,,3.89,0.514498949051,0.000901937484741,0.667625188828,1,w,562.411493063,,,,,,,,,,,,,,,,,,,,,,,,,,,,,,,,,2015_Jul_02_1229,59.9789502585,LearningTask,1,74,
200,w,200,,,,,,,,,,,,,,,,,0,0,0,0,22,1,89,0,,,,,,,,,,,,,,,,,,,,,,,,,,,,,w,1,0.400736093521,None,0,4.0,lineyellow.gif,go,,,,,,,,,,,,,,,,,,,,,,,,,,,,,,,,3.78,0.514327049255,0.000913143157959,0.400736093521,1,w,565.415022135,,,,,,,,,,,,,,,,,,,,,,,,,,,,,,,,,2015_Jul_02_1229,59.9789502585,LearningTask,1,74,
-200,q,200,,,,,,,,,,,,,,,,,0,0,0,0,22,2,90,1,,,,,,,,,,,,,,,,,,,,,,,,,,,,,q,1,0.433645009995,None,0,0.5,hexagonblue.gif,stop,,,,,,,,,,,,,,,,,,,,,,,,,,,,,,,,0.4,0.514556884766,0.00091290473938,0.433645009995,1,q,568.418344021,,,,,,,,,,,,,,,,,,,,,,,,,,,,,,,,,2015_Jul_02_1229,59.9789502585,LearningTask,1,74,
200,s,-200,,,,,,,,,,,,,,,,,0,0,0,0,22,3,91,2,,,,,,,,,,,,,,,,,,,,,,,,,,,,,s,1,0.51759314537,None,0,4.0,lineyellow.gif,go,,,,,,,,,,,,,,,,,,,,,,,,,,,,,,,,3.94,0.514445066452,0.00112104415894,0.51759314537,1,s,571.42207098,,,,,,,,,,,,,,,,,,,,,,,,,,,,,,,,,2015_Jul_02_1229,59.9789502585,LearningTask,1,74,
-200,a,-200,,,,,,,,,,,,,,,,,0,0,0,0,23,0,92,3,,,,,,,,,,,,,,,,,,,,,,,,,,,,,a,1,0.400763988495,None,0,1.0,invertedtriangleorange.gif,stop,,,,,,,,,,,,,,,,,,,,,,,,,,,,,,,,1.03,0.513957023621,0.000924110412598,0.400763988495,1,a,574.424993992,,,,,,,,,,,,,,,,,,,,,,,,,,,,,,,,,2015_Jul_02_1229,59.9789502585,LearningTask,1,74,
200,w,200,,,,,,,,,,,,,,,,,0,0,0,0,23,1,93,0,,,,,,,,,,,,,,,,,,,,,,,,,,,,,w,1,0.434281110764,None,0,1.0,invertedtriangleorange.gif,stop,,,,,,,,,,,,,,,,,,,,,,,,,,,,,,,,1.11,0.514379024506,0.000895023345947,0.434281110764,1,w,577.428389072,,,,,,,,,,,,,,,,,,,,,,,,,,,,,,,,,2015_Jul_02_1229,59.9789502585,LearningTask,1,74,
-200,q,200,,,,,,,,,,,,,,,,,0,0,0,0,23,2,94,1,,,,,,,,,,,,,,,,,,,,,,,,,,,,,q,1,0.417834043503,None,0,2.0,trianglemagenta.gif,go,,,,,,,,,,,,,,,,,,,,,,,,,,,,,,,,2.05,0.514002084732,0.000972032546997,0.417834043503,1,q,580.431862116,,,,,,,,,,,,,,,,,,,,,,,,,,,,,,,,,2015_Jul_02_1229,59.9789502585,LearningTask,1,74,
200,s,-200,,,,,,,,,,,,,,,,,0,0,0,0,23,3,95,2,,,,,,,,,,,,,,,,,,,,,,,,,,,,,s,1,0.450865983963,None,0,4.0,crosswhite.gif,stop,,,,,,,,,,,,,,,,,,,,,,,,,,,,,,,,3.99,0.514143943787,0.000905990600586,0.450865983963,1,s,583.43534708,,,,,,,,,,,,,,,,,,,,,,,,,,,,,,,,,2015_Jul_02_1229,59.9789502585,LearningTask,1,74,
-200,a,-200,,,,,,,,,,,,,,,,,0,0,0,0,24,0,96,3,,,,,,,,,,,,,,,,,,,,,,,,,,,,,a,1,0.417824983597,None,0,2.0,trianglemagenta.gif,go,,,,,,,,,,,,,,,,,,,,,,,,,,,,,,,,1.96,0.514070034027,0.00089693069458,0.417824983597,1,a,586.438503027,,,,,,,,,,,,,,,,,,,,,,,,,,,,,,,,,2015_Jul_02_1229,59.9789502585,LearningTask,1,74,
200,s,-200,,,,,,,,,,,,,,,,,0,0,0,0,24,1,97,2,,,,,,,,,,,,,,,,,,,,,,,,,,,,,s,1,0.433822154999,None,0,1.0,invertedtriangleorange.gif,stop,,,,,,,,,,,,,,,,,,,,,,,,,,,,,,,,0,0.514508008957,0.000922918319702,0.433822154999,1,s,589.441833019,,,,,,,,,,,,,,,,,,,,,,,,,,,,,,,,,2015_Jul_02_1229,59.9789502585,LearningTask,1,74,
200,s,-200,,,,,,,,,,,,,,,,,0,0,0,0,24,2,98,2,,,,,,,,,,,,,,,,,,,,,,,,,,,,,s,1,0.434319019318,None,0,2.0,trianglemagenta.gif,go,,,,,,,,,,,,,,,,,,,,,,,,,,,,,,,,2.1,0.514311075211,0.000900983810425,0.434319019318,1,s,592.445404053,,,,,,,,,,,,,,,,,,,,,,,,,,,,,,,,,2015_Jul_02_1229,59.9789502585,LearningTask,1,74,
200,s,-200,,,,,,,,,,,,,,,,,0,0,0,0,24,3,99,2,,,,,,,,,,,,,,,,,,,,,,,,,,,,,s,1,0.451057910919,None,0,4.0,crosswhite.gif,stop,,,,,,,,,,,,,,,,,,,,,,,,,,,,,,,,3.91,0.514023065567,0.000977039337158,0.451057910919,1,s,595.4483881,,,,,,,,,,,,,,,,,,,,,,,,,,,,,,,,,2015_Jul_02_1229,59.9789502585,LearningTask,1,74,
,,,,,,,,,,,,,,,,,,,0,0,0,0,,,,,,,,,,,,,,,,,,,,,,,,,,,,,,,,,,,,,,,,,,,,,,,,,,,,,,,,,,,,,,,,,,,,,,,,,,,,,,,9,7.08068394661,,,,,,,,,,,,,,,,,,,,,,,,,,,,,,,2015_Jul_02_1229,59.9789502585,LearningTask,1,74,
200,w,200,,,,,,,,,,,,,,,,,1,0,1,0,0,0,0,0,,,,,,,,,,,,,,,,,,,,,,,,,,,,,w,1,0.484696149826,None,0,4.0,lineyellow.gif,go,,,,,,,,0.127018928528,,,,,,,,,,,,,,,,,,,,,,,,0,0.50865316391,0.00094199180603,[],0,None,605.877658129,,,4.0,0.514853954315,0.000988960266113,0.484696149826,1,w,608.880463123,,,,,,,,,,,,,,,,,,,,,,,,2015_Jul_02_1229,59.9789502585,LearningTask,1,74,
200,s,-200,,,,,,,,,,,,,,,,,1,0,1,0,0,1,1,2,,,,,,,,,,,,,,,,,,,,,,,,,,,,,s,1,0.450567007065,None,0,0.5,hexagonblue.gif,stop,,,,,,,,,,,,,,,,,,,,,,,,,,,,,,,,0.27,0.514215946198,0.000903844833374,0.450567007065,1,s,611.883786917,,,,,,,,,,,,,,,,,,,,,,,,,,,,,,,,,2015_Jul_02_1229,59.9789502585,LearningTask,1,74,
-200,q,200,,,,,,,,,,,,,,,,,1,0,1,0,0,2,2,1,,,,,,,,,,,,,,,,,,,,,,,,,,,,,q,1,0.383937120438,None,0,1.0,diamondgreen.gif,go,,,,,,,,,,,,,,,,,,,,,,,,,,,,,,,,1.13,0.514011144638,0.000899076461792,0.383937120438,1,q,614.887295961,,,,,,,,,,,,,,,,,,,,,,,,,,,,,,,,,2015_Jul_02_1229,59.9789502585,LearningTask,1,74,
200,w,200,,,,,,,,,,,,,,,,,1,0,1,0,0,3,3,0,,,,,,,,,,,,,,,,,,,,,,,,,,,,,w,1,0.384117126465,None,0,2.0,trianglemagenta.gif,go,,,,,,,,,,,,,,,,,,,,,,,,,,,,,,,,2.08,0.51379108429,0.000944137573242,0.384117126465,1,w,617.890258074,,,,,,,,,,,,,,,,,,,,,,,,,,,,,,,,,2015_Jul_02_1229,59.9789502585,LearningTask,1,74,
-200,a,-200,,,,,,,,,,,,,,,,,1,0,1,0,1,0,4,3,,,,,,,,,,,,,,,,,,,,,,,,,,,,,a,1,0.368376016617,None,0,4.0,lineyellow.gif,go,,,,,,,,,,,,,,,,,,,,,,,,,,,,,,,,3.76,0.514053106308,0.000900030136108,0.368376016617,1,a,620.89367795,,,,,,,,,,,,,,,,,,,,,,,,,,,,,,,,,2015_Jul_02_1229,59.9789502585,LearningTask,1,74,
200,s,-200,,,,,,,,,,,,,,,,,1,0,1,0,1,1,5,2,,,,,,,,,,,,,,,,,,,,,,,,,,,,,s,1,0.31763792038,None,0,1.0,invertedtriangleorange.gif,stop,,,,,,,,,,,,,,,,,,,,,,,,,,,,,,,,1.19,0.514081954956,0.000893831253052,0.31763792038,1,s,623.897083044,,,,,,,,,,,,,,,,,,,,,,,,,,,,,,,,,2015_Jul_02_1229,59.9789502585,LearningTask,1,74,
200,w,200,,,,,,,,,,,,,,,,,1,0,1,0,1,2,6,0,,,,,,,,,,,,,,,,,,,,,,,,,,,,,w,1,0.36799788475,None,0,2.0,circlecyan.gif,stop,,,,,,,,,,,,,,,,,,,,,,,,,,,,,,,,1.89,0.514085054398,0.000931978225708,0.36799788475,1,w,626.900645018,,,,,,,,,,,,,,,,,,,,,,,,,,,,,,,,,2015_Jul_02_1229,59.9789502585,LearningTask,1,74,
200,s,-200,,,,,,,,,,,,,,,,,1,0,1,0,1,3,7,2,,,,,,,,,,,,,,,,,,,,,,,,,,,,,s,1,0.417398929596,None,0,4.0,crosswhite.gif,stop,,,,,,,,,,,,,,,,,,,,,,,,,,,,,,,,4.0,0.513921022415,0.00111413002014,0.417398929596,1,s,629.903669119,,,,,,,,,,,,,,,,,,,,,,,,,,,,,,,,,2015_Jul_02_1229,59.9789502585,LearningTask,1,74,
-200,a,-200,,,,,,,,,,,,,,,,,1,0,1,0,2,0,8,3,,,,,,,,,,,,,,,,,,,,,,,,,,,,,a,1,0.384359836578,None,0,4.0,crosswhite.gif,stop,,,,,,,,,,,,,,,,,,,,,,,,,,,,,,,,4.03,0.514464139938,0.000895977020264,0.384359836578,1,a,632.907047987,,,,,,,,,,,,,,,,,,,,,,,,,,,,,,,,,2015_Jul_02_1229,59.9789502585,LearningTask,1,74,
-200,q,200,,,,,,,,,,,,,,,,,1,0,1,0,2,1,9,1,,,,,,,,,,,,,,,,,,,,,,,,,,,,,q,1,0.301116943359,None,0,2.0,trianglemagenta.gif,go,,,,,,,,,,,,,,,,,,,,,,,,,,,,,,,,2.07,0.51393198967,0.000969886779785,0.301116943359,1,q,635.910251141,,,,,,,,,,,,,,,,,,,,,,,,,,,,,,,,,2015_Jul_02_1229,59.9789502585,LearningTask,1,74,
200,s,-200,,,,,,,,,,,,,,,,,1,0,1,0,2,2,10,2,,,,,,,,,,,,,,,,,,,,,,,,,,,,,s,1,0.400896072388,None,0,2.0,circlecyan.gif,stop,,,,,,,,,,,,,,,,,,,,,,,,,,,,,,,,1.77,0.514288902283,0.00102496147156,0.400896072388,1,s,638.913869143,,,,,,,,,,,,,,,,,,,,,,,,,,,,,,,,,2015_Jul_02_1229,59.9789502585,LearningTask,1,74,
-200,q,200,,,,,,,,,,,,,,,,,1,0,1,0,2,3,11,1,,,,,,,,,,,,,,,,,,,,,,,,,,,,,q,1,0.500834941864,None,0,4.0,lineyellow.gif,go,,,,,,,,,,,,,,,,,,,,,,,,,,,,,,,,4.06,0.514240026474,0.000890970230103,0.500834941864,1,q,641.917057991,,,,,,,,,,,,,,,,,,,,,,,,,,,,,,,,,2015_Jul_02_1229,59.9789502585,LearningTask,1,74,
-200,q,200,,,,,,,,,,,,,,,,,1,0,1,0,3,0,12,1,,,,,,,,,,,,,,,,,,,,,,,,,,,,,q,1,0.534873008728,None,0,1.0,invertedtriangleorange.gif,stop,,,,,,,,,,,,,,,,,,,,,,,,,,,,,,,,1.2,0.51452088356,0.000898838043213,0.534873008728,1,q,644.920437098,,,,,,,,,,,,,,,,,,,,,,,,,,,,,,,,,2015_Jul_02_1229,59.9789502585,LearningTask,1,74,
-200,a,-200,,,,,,,,,,,,,,,,,1,0,1,0,3,1,13,3,,,,,,,,,,,,,,,,,,,,,,,,,,,,,a,1,0.384626150131,None,0,0.5,hexagonblue.gif,stop,,,,,,,,,,,,,,,,,,,,,,,,,,,,,,,,0.42,0.513969898224,0.000981092453003,0.384626150131,1,a,647.92373991,,,,,,,,,,,,,,,,,,,,,,,,,,,,,,,,,2015_Jul_02_1229,59.9789502585,LearningTask,1,74,
200,s,-200,,,,,,,,,,,,,,,,,1,0,1,0,3,2,14,2,,,,,,,,,,,,,,,,,,,,,,,,,,,,,s,1,0.434669017792,None,0,4.0,lineyellow.gif,go,,,,,,,,,,,,,,,,,,,,,,,,,,,,,,,,3.97,0.514364957809,0.000905990600586,0.434669017792,1,s,650.927333117,,,,,,,,,,,,,,,,,,,,,,,,,,,,,,,,,2015_Jul_02_1229,59.9789502585,LearningTask,1,74,
-200,a,-200,,,,,,,,,,,,,,,,,1,0,1,0,3,3,15,3,,,,,,,,,,,,,,,,,,,,,,,,,,,,,a,1,0.434010028839,None,0,0.5,hexagonblue.gif,stop,,,,,,,,,,,,,,,,,,,,,,,,,,,,,,,,0.66,0.514345884323,0.000895977020264,0.434010028839,1,a,653.93055892,,,,,,,,,,,,,,,,,,,,,,,,,,,,,,,,,2015_Jul_02_1229,59.9789502585,LearningTask,1,74,
-200,a,-200,,,,,,,,,,,,,,,,,1,0,1,0,4,0,16,3,,,,,,,,,,,,,,,,,,,,,,,,,,,,,a,1,0.450634002686,None,0,1.0,diamondgreen.gif,go,,,,,,,,,,,,,,,,,,,,,,,,,,,,,,,,0.76,0.514199018478,0.000969886779785,0.450634002686,1,a,656.933912992,,,,,,,,,,,,,,,,,,,,,,,,,,,,,,,,,2015_Jul_02_1229,59.9789502585,LearningTask,1,74,
200,s,-200,,,,,,,,,,,,,,,,,1,0,1,0,4,1,17,2,,,,,,,,,,,,,,,,,,,,,,,,,,,,,s,1,0.484225034714,None,0,0.5,squaregray.gif,go,,,,,,,,,,,,,,,,,,,,,,,,,,,,,,,,0.68,0.514356136322,0.000874042510986,0.484225034714,1,s,659.937288046,,,,,,,,,,,,,,,,,,,,,,,,,,,,,,,,,2015_Jul_02_1229,59.9789502585,LearningTask,1,74,
-200,q,200,,,,,,,,,,,,,,,,,1,0,1,0,4,2,18,1,,,,,,,,,,,,,,,,,,,,,,,,,,,,,q,1,0.45092010498,None,0,0.5,squaregray.gif,go,,,,,,,,,,,,,,,,,,,,,,,,,,,,,,,,0.47,0.514297962189,0.00111794471741,0.45092010498,1,q,662.941133976,,,,,,,,,,,,,,,,,,,,,,,,,,,,,,,,,2015_Jul_02_1229,59.9789502585,LearningTask,1,74,
-200,a,-200,,,,,,,,,,,,,,,,,1,0,1,0,4,3,19,3,,,,,,,,,,,,,,,,,,,,,,,,,,,,,a,1,0.450773954391,None,0,0.5,squaregray.gif,go,,,,,,,,,,,,,,,,,,,,,,,,,,,,,,,,0.7,0.513743877411,0.000938892364502,0.450773954391,1,a,665.943871021,,,,,,,,,,,,,,,,,,,,,,,,,,,,,,,,,2015_Jul_02_1229,59.9789502585,LearningTask,1,74,
-200,q,200,,,,,,,,,,,,,,,,,1,0,1,0,5,0,20,1,,,,,,,,,,,,,,,,,,,,,,,,,,,,,q,1,0.501067876816,None,0,1.0,diamondgreen.gif,go,,,,,,,,,,,,,,,,,,,,,,,,,,,,,,,,0.84,0.514191865921,0.000878810882568,0.501067876816,1,q,668.947365046,,,,,,,,,,,,,,,,,,,,,,,,,,,,,,,,,2015_Jul_02_1229,59.9789502585,LearningTask,1,74,
200,w,200,,,,,,,,,,,,,,,,,1,0,1,0,5,1,21,0,,,,,,,,,,,,,,,,,,,,,,,,,,,,,w,1,0.71817111969,None,0,0.5,hexagonblue.gif,stop,,,,,,,,,,,,,,,,,,,,,,,,,,,,,,,,0.32,0.514466047287,0.000884056091309,0.71817111969,1,w,671.951282024,,,,,,,,,,,,,,,,,,,,,,,,,,,,,,,,,2015_Jul_02_1229,59.9789502585,LearningTask,1,74,
200,s,-200,,,,,,,,,,,,,,,,,1,0,1,0,5,2,22,2,,,,,,,,,,,,,,,,,,,,,,,,,,,,,s,1,0.384128093719,None,0,2.0,trianglemagenta.gif,go,,,,,,,,,,,,,,,,,,,,,,,,,,,,,,,,1.98,0.513605117798,0.000928163528442,0.384128093719,1,s,674.954076052,,,,,,,,,,,,,,,,,,,,,,,,,,,,,,,,,2015_Jul_02_1229,59.9789502585,LearningTask,1,74,
200,w,200,,,,,,,,,,,,,,,,,1,0,1,0,5,3,23,0,,,,,,,,,,,,,,,,,,,,,,,,,,,,,w,1,0.651176929474,None,0,1.0,diamondgreen.gif,go,,,,,,,,,,,,,,,,,,,,,,,,,,,,,,,,0.84,0.514245033264,0.000915050506592,0.651176929474,1,w,677.957257986,,,,,,,,,,,,,,,,,,,,,,,,,,,,,,,,,2015_Jul_02_1229,59.9789502585,LearningTask,1,74,
-200,q,200,,,,,,,,,,,,,,,,,1,0,1,0,6,0,24,1,,,,,,,,,,,,,,,,,,,,,,,,,,,,,q,1,0.583924055099,None,0,2.0,circlecyan.gif,stop,,,,,,,,,,,,,,,,,,,,,,,,,,,,,,,,1.75,0.514768123627,0.000878095626831,0.583924055099,1,q,680.960644007,,,,,,,,,,,,,,,,,,,,,,,,,,,,,,,,,2015_Jul_02_1229,59.9789502585,LearningTask,1,74,
-200,a,-200,,,,,,,,,,,,,,,,,1,0,1,0,6,1,25,3,,,,,,,,,,,,,,,,,,,,,,,,,,,,,a,1,0.734797954559,None,0,4.0,lineyellow.gif,go,,,,,,,,,,,,,,,,,,,,,,,,,,,,,,,,3.79,0.5142121315,0.000927209854126,0.734797954559,1,a,683.964134932,,,,,,,,,,,,,,,,,,,,,,,,,,,,,,,,,2015_Jul_02_1229,59.9789502585,LearningTask,1,74,
200,w,200,,,,,,,,,,,,,,,,,1,0,1,0,6,2,26,0,,,,,,,,,,,,,,,,,,,,,,,,,,,,,w,1,0.651386976242,None,0,4.0,lineyellow.gif,go,,,,,,,,,,,,,,,,,,,,,,,,,,,,,,,,3.97,0.514055013657,0.00118398666382,0.651386976242,1,w,686.967536926,,,,,,,,,,,,,,,,,,,,,,,,,,,,,,,,,2015_Jul_02_1229,59.9789502585,LearningTask,1,74,
200,s,-200,,,,,,,,,,,,,,,,,1,0,1,0,6,3,27,2,,,,,,,,,,,,,,,,,,,,,,,,,,,,,s,1,0.417432069778,None,0,2.0,trianglemagenta.gif,go,,,,,,,,,,,,,,,,,,,,,,,,,,,,,,,,1.81,0.514299154282,0.000881195068359,0.417432069778,1,s,689.970817089,,,,,,,,,,,,,,,,,,,,,,,,,,,,,,,,,2015_Jul_02_1229,59.9789502585,LearningTask,1,74,
-200,a,-200,,,,,,,,,,,,,,,,,1,0,1,0,7,0,28,3,,,,,,,,,,,,,,,,,,,,,,,,,,,,,a,1,0.466995000839,None,0,4.0,crosswhite.gif,stop,,,,,,,,,,,,,,,,,,,,,,,,,,,,,,,,4.03,0.51405787468,0.000870943069458,0.466995000839,1,a,692.974005938,,,,,,,,,,,,,,,,,,,,,,,,,,,,,,,,,2015_Jul_02_1229,59.9789502585,LearningTask,1,74,
200,s,-200,,,,,,,,,,,,,,,,,1,0,1,0,7,1,29,2,,,,,,,,,,,,,,,,,,,,,,,,,,,,,s,1,0.400907039642,None,0,1.0,invertedtriangleorange.gif,stop,,,,,,,,,,,,,,,,,,,,,,,,,,,,,,,,0.76,0.514219999313,0.000949859619141,0.400907039642,1,s,695.97735405,,,,,,,,,,,,,,,,,,,,,,,,,,,,,,,,,2015_Jul_02_1229,59.9789502585,LearningTask,1,74,
200,w,200,,,,,,,,,,,,,,,,,1,0,1,0,7,2,30,0,,,,,,,,,,,,,,,,,,,,,,,,,,,,,w,1,0.551223993301,None,0,1.0,diamondgreen.gif,go,,,,,,,,,,,,,,,,,,,,,,,,,,,,,,,,1.12,0.514381885529,0.000913858413696,0.551223993301,1,w,698.980787992,,,,,,,,,,,,,,,,,,,,,,,,,,,,,,,,,2015_Jul_02_1229,59.9789502585,LearningTask,1,74,
-200,a,-200,,,,,,,,,,,,,,,,,1,0,1,0,7,3,31,3,,,,,,,,,,,,,,,,,,,,,,,,,,,,,a,1,0.66756606102,None,0,2.0,circlecyan.gif,stop,,,,,,,,,,,,,,,,,,,,,,,,,,,,,,,,1.94,0.514509916306,0.000874996185303,0.66756606102,1,a,701.983995914,,,,,,,,,,,,,,,,,,,,,,,,,,,,,,,,,2015_Jul_02_1229,59.9789502585,LearningTask,1,74,
200,w,200,,,,,,,,,,,,,,,,,1,0,1,0,8,0,32,0,,,,,,,,,,,,,,,,,,,,,,,,,,,,,w,1,0.36799287796,None,0,4.0,lineyellow.gif,go,,,,,,,,,,,,,,,,,,,,,,,,,,,,,,,,0,0.514111995697,0.000909805297852,[],0,None,704.987474918,,,4.1,0.515315055847,0.00094199180603,0.36799287796,1,w,707.991112947,,,,,,,,,,,,,,,,,,,,,,,,2015_Jul_02_1229,59.9789502585,LearningTask,1,74,
-200,a,-200,,,,,,,,,,,,,,,,,1,0,1,0,8,1,33,3,,,,,,,,,,,,,,,,,,,,,,,,,,,,,a,1,0.551167011261,None,0,2.0,trianglemagenta.gif,go,,,,,,,,,,,,,,,,,,,,,,,,,,,,,,,,2.08,0.513784170151,0.000929117202759,0.551167011261,1,a,710.994579077,,,,,,,,,,,,,,,,,,,,,,,,,,,,,,,,,2015_Jul_02_1229,59.9789502585,LearningTask,1,74,
200,w,200,,,,,,,,,,,,,,,,,1,0,1,0,8,2,34,0,,,,,,,,,,,,,,,,,,,,,,,,,,,,,w,1,0.450902938843,None,0,2.0,circlecyan.gif,stop,,,,,,,,,,,,,,,,,,,,,,,,,,,,,,,,2.24,0.513652086258,0.000954151153564,0.450902938843,1,w,713.997596025,,,,,,,,,,,,,,,,,,,,,,,,,,,,,,,,,2015_Jul_02_1229,59.9789502585,LearningTask,1,74,
200,w,200,,,,,,,,,,,,,,,,,1,0,1,0,8,3,35,0,,,,,,,,,,,,,,,,,,,,,,,,,,,,,w,1,0.451180934906,None,0,0.5,hexagonblue.gif,stop,,,,,,,,,,,,,,,,,,,,,,,,,,,,,,,,0,0.514240980148,0.000881910324097,0.451180934906,1,w,717.001100063,,,,,,,,,,,,,,,,,,,,,,,,,,,,,,,,,2015_Jul_02_1229,59.9789502585,LearningTask,1,74,
-200,q,200,,,,,,,,,,,,,,,,,1,0,1,0,9,0,36,1,,,,,,,,,,,,,,,,,,,,,,,,,,,,,q,1,0.417873859406,None,0,2.0,circlecyan.gif,stop,,,,,,,,,,,,,,,,,,,,,,,,,,,,,,,,2.08,0.514065027237,0.000888109207153,0.417873859406,1,q,720.004611015,,,,,,,,,,,,,,,,,,,,,,,,,,,,,,,,,2015_Jul_02_1229,59.9789502585,LearningTask,1,74,
200,s,-200,,,,,,,,,,,,,,,,,1,0,1,0,9,1,37,2,,,,,,,,,,,,,,,,,,,,,,,,,,,,,s,1,0.384891033173,None,0,1.0,diamondgreen.gif,go,,,,,,,,,,,,,,,,,,,,,,,,,,,,,,,,1.17,0.513746976852,0.000939130783081,0.384891033173,1,s,723.007846117,,,,,,,,,,,,,,,,,,,,,,,,,,,,,,,,,2015_Jul_02_1229,59.9789502585,LearningTask,1,74,
-200,a,-200,,,,,,,,,,,,,,,,,1,0,1,0,9,2,38,3,,,,,,,,,,,,,,,,,,,,,,,,,,,,,a,1,0.434153795242,None,0,1.0,diamondgreen.gif,go,,,,,,,,,,,,,,,,,,,,,,,,,,,,,,,,0,0.514327049255,0.00095796585083,0.351202011108,0,q,726.011116028,,,0.89,0.515358924866,0.000943899154663,0.434153795242,1,a,729.014378071,,,,,,,,,,,,,,,,,,,,,,,,2015_Jul_02_1229,59.9789502585,LearningTask,1,74,
-200,a,-200,,,,,,,,,,,,,,,,,1,0,1,0,9,3,39,3,,,,,,,,,,,,,,,,,,,,,,,,,,,,,a,1,0.601264953613,None,0,4.0,crosswhite.gif,stop,,,,,,,,,,,,,,,,,,,,,,,,,,,,,,,,4.18,0.514323949814,0.000916004180908,0.601264953613,1,a,732.017702103,,,,,,,,,,,,,,,,,,,,,,,,,,,,,,,,,2015_Jul_02_1229,59.9789502585,LearningTask,1,74,
200,w,200,,,,,,,,,,,,,,,,,1,0,1,0,10,0,40,0,,,,,,,,,,,,,,,,,,,,,,,,,,,,,w,1,0.484600067139,None,0,1.0,invertedtriangleorange.gif,stop,,,,,,,,,,,,,,,,,,,,,,,,,,,,,,,,0,0.514149904251,0.00127601623535,0.484600067139,1,w,735.02137804,,,,,,,,,,,,,,,,,,,,,,,,,,,,,,,,,2015_Jul_02_1229,59.9789502585,LearningTask,1,74,
-200,a,-200,,,,,,,,,,,,,,,,,1,0,1,0,10,1,41,3,,,,,,,,,,,,,,,,,,,,,,,,,,,,,a,1,0.434376001358,None,0,4.0,crosswhite.gif,stop,,,,,,,,,,,,,,,,,,,,,,,,,,,,,,,,0,0.513875007629,0.000875949859619,0.434376001358,1,a,738.024573088,,,,,,,,,,,,,,,,,,,,,,,,,,,,,,,,,2015_Jul_02_1229,59.9789502585,LearningTask,1,74,
200,w,200,,,,,,,,,,,,,,,,,1,0,1,0,10,2,42,0,,,,,,,,,,,,,,,,,,,,,,,,,,,,,w,1,0.417443990707,None,0,1.0,diamondgreen.gif,go,,,,,,,,,,,,,,,,,,,,,,,,,,,,,,,,0,0.514132976532,0.000872850418091,0.417443990707,1,w,741.027728081,,,,,,,,,,,,,,,,,,,,,,,,,,,,,,,,,2015_Jul_02_1229,59.9789502585,LearningTask,1,74,
-200,q,200,,,,,,,,,,,,,,,,,1,0,1,0,10,3,43,1,,,,,,,,,,,,,,,,,,,,,,,,,,,,,q,1,0.601161003113,None,0,1.0,invertedtriangleorange.gif,stop,,,,,,,,,,,,,,,,,,,,,,,,,,,,,,,,0.81,0.51388502121,0.000952959060669,0.601161003113,1,q,744.031141043,,,,,,,,,,,,,,,,,,,,,,,,,,,,,,,,,2015_Jul_02_1229,59.9789502585,LearningTask,1,74,
200,w,200,,,,,,,,,,,,,,,,,1,0,1,0,11,0,44,0,,,,,,,,,,,,,,,,,,,,,,,,,,,,,w,1,0.450835943222,None,0,2.0,trianglemagenta.gif,go,,,,,,,,,,,,,,,,,,,,,,,,,,,,,,,,0,0.51434803009,0.000876903533936,0.450835943222,1,w,747.03463912,,,,,,,,,,,,,,,,,,,,,,,,,,,,,,,,,2015_Jul_02_1229,59.9789502585,LearningTask,1,74,
-200,a,-200,,,,,,,,,,,,,,,,,1,0,1,0,11,1,45,3,,,,,,,,,,,,,,,,,,,,,,,,,,,,,a,1,0.434111118317,None,0,1.0,diamondgreen.gif,go,,,,,,,,,,,,,,,,,,,,,,,,,,,,,,,,0,0.513671875,0.00101399421692,0.434111118317,1,a,750.038559914,,,,,,,,,,,,,,,,,,,,,,,,,,,,,,,,,2015_Jul_02_1229,59.9789502585,LearningTask,1,74,
200,w,200,,,,,,,,,,,,,,,,,1,0,1,0,11,2,46,0,,,,,,,,,,,,,,,,,,,,,,,,,,,,,w,1,0.617298841476,None,0,2.0,trianglemagenta.gif,go,,,,,,,,,,,,,,,,,,,,,,,,,,,,,,,,1.98,0.51372385025,0.000979900360107,0.617298841476,1,w,753.041168928,,,,,,,,,,,,,,,,,,,,,,,,,,,,,,,,,2015_Jul_02_1229,59.9789502585,LearningTask,1,74,
200,w,200,,,,,,,,,,,,,,,,,1,0,1,0,11,3,47,0,,,,,,,,,,,,,,,,,,,,,,,,,,,,,w,1,0.567914009094,None,0,2.0,trianglemagenta.gif,go,,,,,,,,,,,,,,,,,,,,,,,,,,,,,,,,2.25,0.514349222183,0.000868082046509,0.567914009094,1,w,756.044728041,,,,,,,,,,,,,,,,,,,,,,,,,,,,,,,,,2015_Jul_02_1229,59.9789502585,LearningTask,1,74,
-200,q,200,,,,,,,,,,,,,,,,,1,0,1,0,12,0,48,1,,,,,,,,,,,,,,,,,,,,,,,,,,,,,q,1,0.367300033569,None,0,1.0,diamondgreen.gif,go,,,,,,,,,,,,,,,,,,,,,,,,,,,,,,,,1.18,0.514453172684,0.000874996185303,0.367300033569,1,q,759.048067093,,,,,,,,,,,,,,,,,,,,,,,,,,,,,,,,,2015_Jul_02_1229,59.9789502585,LearningTask,1,74,
200,s,-200,,,,,,,,,,,,,,,,,1,0,1,0,12,1,49,2,,,,,,,,,,,,,,,,,,,,,,,,,,,,,s,1,0.500864982605,None,0,2.0,trianglemagenta.gif,go,,,,,,,,,,,,,,,,,,,,,,,,,,,,,,,,1.83,0.51397395134,0.00091290473938,0.500864982605,1,s,762.051131964,,,,,,,,,,,,,,,,,,,,,,,,,,,,,,,,,2015_Jul_02_1229,59.9789502585,LearningTask,1,74,
-200,q,200,,,,,,,,,,,,,,,,,1,0,1,0,12,2,50,1,,,,,,,,,,,,,,,,,,,,,,,,,,,,,q,1,0.584644079208,None,0,1.0,diamondgreen.gif,go,,,,,,,,,,,,,,,,,,,,,,,,,,,,,,,,0,0.514509916306,0.000957012176514,0.584644079208,1,q,765.054705143,,,,,,,,,,,,,,,,,,,,,,,,,,,,,,,,,2015_Jul_02_1229,59.9789502585,LearningTask,1,74,
-200,a,-200,,,,,,,,,,,,,,,,,1,0,1,0,12,3,51,3,,,,,,,,,,,,,,,,,,,,,,,,,,,,,a,1,0.501087188721,None,0,0.5,squaregray.gif,go,,,,,,,,,,,,,,,,,,,,,,,,,,,,,,,,0.56,0.514065027237,0.00140285491943,0.501087188721,1,a,768.058532953,,,,,,,,,,,,,,,,,,,,,,,,,,,,,,,,,2015_Jul_02_1229,59.9789502585,LearningTask,1,74,
200,w,200,,,,,,,,,,,,,,,,,1,0,1,0,13,0,52,0,,,,,,,,,,,,,,,,,,,,,,,,,,,,,w,1,0.683969020844,None,0,0.5,squaregray.gif,go,,,,,,,,,,,,,,,,,,,,,,,,,,,,,,,,0.29,0.513767957687,0.000934839248657,0.683969020844,1,w,771.061562061,,,,,,,,,,,,,,,,,,,,,,,,,,,,,,,,,2015_Jul_02_1229,59.9789502585,LearningTask,1,74,
-200,a,-200,,,,,,,,,,,,,,,,,1,0,1,0,13,1,53,3,,,,,,,,,,,,,,,,,,,,,,,,,,,,,a,1,0.484093904495,None,0,4.0,lineyellow.gif,go,,,,,,,,,,,,,,,,,,,,,,,,,,,,,,,,3.96,0.514070987701,0.000960111618042,0.484093904495,1,a,774.064723015,,,,,,,,,,,,,,,,,,,,,,,,,,,,,,,,,2015_Jul_02_1229,59.9789502585,LearningTask,1,74,
-200,q,200,,,,,,,,,,,,,,,,,1,0,1,0,13,2,54,1,,,,,,,,,,,,,,,,,,,,,,,,,,,,,q,1,0.534512042999,None,0,0.5,squaregray.gif,go,,,,,,,,,,,,,,,,,,,,,,,,,,,,,,,,0,0.514202833176,0.000876903533936,0.534512042999,1,q,777.067995071,,,,,,,,,,,,,,,,,,,,,,,,,,,,,,,,,2015_Jul_02_1229,59.9789502585,LearningTask,1,74,
200,s,-200,,,,,,,,,,,,,,,,,1,0,1,0,13,3,55,2,,,,,,,,,,,,,,,,,,,,,,,,,,,,,s,1,0.51721906662,None,0,4.0,lineyellow.gif,go,,,,,,,,,,,,,,,,,,,,,,,,,,,,,,,,4.23,0.514415979385,0.000936031341553,0.51721906662,1,s,780.071263075,,,,,,,,,,,,,,,,,,,,,,,,,,,,,,,,,2015_Jul_02_1229,59.9789502585,LearningTask,1,74,
-200,q,200,,,,,,,,,,,,,,,,,1,0,1,0,14,0,56,1,,,,,,,,,,,,,,,,,,,,,,,,,,,,,q,1,0.550728082657,None,0,1.0,invertedtriangleorange.gif,stop,,,,,,,,,,,,,,,,,,,,,,,,,,,,,,,,0.84,0.514771938324,0.00107097625732,0.550728082657,1,q,783.074717999,,,,,,,,,,,,,,,,,,,,,,,,,,,,,,,,,2015_Jul_02_1229,59.9789502585,LearningTask,1,74,
-200,q,200,,,,,,,,,,,,,,,,,1,0,1,0,14,1,57,1,,,,,,,,,,,,,,,,,,,,,,,,,,,,,q,1,0.434272050858,None,0,0.5,hexagonblue.gif,stop,,,,,,,,,,,,,,,,,,,,,,,,,,,,,,,,0,0.514292955399,0.000895977020264,0.434272050858,1,q,786.078485966,,,,,,,,,,,,,,,,,,,,,,,,,,,,,,,,,2015_Jul_02_1229,59.9789502585,LearningTask,1,74,
-200,q,200,,,,,,,,,,,,,,,,,1,0,1,0,14,2,58,1,,,,,,,,,,,,,,,,,,,,,,,,,,,,,q,1,0.733943939209,None,0,4.0,lineyellow.gif,go,,,,,,,,,,,,,,,,,,,,,,,,,,,,,,,,3.76,0.514343976974,0.000875949859619,0.733943939209,1,q,789.081314087,,,,,,,,,,,,,,,,,,,,,,,,,,,,,,,,,2015_Jul_02_1229,59.9789502585,LearningTask,1,74,
200,w,200,,,,,,,,,,,,,,,,,1,0,1,0,14,3,59,0,,,,,,,,,,,,,,,,,,,,,,,,,,,,,w,1,0.734740018845,None,0,2.0,circlecyan.gif,stop,,,,,,,,,,,,,,,,,,,,,,,,,,,,,,,,2.02,0.514216184616,0.00110912322998,0.734740018845,1,w,792.084728003,,,,,,,,,,,,,,,,,,,,,,,,,,,,,,,,,2015_Jul_02_1229,59.9789502585,LearningTask,1,74,
-200,q,200,,,,,,,,,,,,,,,,,1,0,1,0,15,0,60,1,,,,,,,,,,,,,,,,,,,,,,,,,,,,,q,1,0.334247112274,None,0,2.0,circlecyan.gif,stop,,,,,,,,0.0768849849701,,,,,,,,,,,,,,,,,,,,,,,,0,0.514413118362,0.000878095626831,[],0,None,795.088148117,,,2.01,0.515342950821,0.000971078872681,0.334247112274,1,q,798.091462135,,,,,,,,,,,,,,,,,,,,,,,,2015_Jul_02_1229,59.9789502585,LearningTask,1,74,
200,s,-200,,,,,,,,,,,,,,,,,1,0,1,0,15,1,61,2,,,,,,,,,,,,,,,,,,,,,,,,,,,,,s,1,0.483970880508,None,0,1.0,diamondgreen.gif,go,,,,,,,,,,,,,,,,,,,,,,,,,,,,,,,,0.95,0.514459133148,0.00098705291748,0.483970880508,1,s,801.09486413,,,,,,,,,,,,,,,,,,,,,,,,,,,,,,,,,2015_Jul_02_1229,59.9789502585,LearningTask,1,74,
-200,q,200,,,,,,,,,,,,,,,,,1,0,1,0,15,2,62,1,,,,,,,,,,,,,,,,,,,,,,,,,,,,,q,1,0.40082192421,None,0,2.0,trianglemagenta.gif,go,,,,,,,,,,,,,,,,,,,,,,,,,,,,,,,,1.87,0.514232158661,0.000900030136108,0.40082192421,1,q,804.098408937,,,,,,,,,,,,,,,,,,,,,,,,,,,,,,,,,2015_Jul_02_1229,59.9789502585,LearningTask,1,74,
-200,q,200,,,,,,,,,,,,,,,,,1,0,1,0,15,3,63,1,,,,,,,,,,,,,,,,,,,,,,,,,,,,,q,1,0.451236009598,None,0,0.5,hexagonblue.gif,stop,,,,,,,,,,,,,,,,,,,,,,,,,,,,,,,,0.37,0.513963937759,0.000880002975464,0.451236009598,1,q,807.101848125,,,,,,,,,,,,,,,,,,,,,,,,,,,,,,,,,2015_Jul_02_1229,59.9789502585,LearningTask,1,74,
200,s,-200,,,,,,,,,,,,,,,,,1,0,1,0,16,0,64,2,,,,,,,,,,,,,,,,,,,,,,,,,,,,,s,1,0.500810861588,None,0,1.0,invertedtriangleorange.gif,stop,,,,,,,,,,,,,,,,,,,,,,,,,,,,,,,,1.2,0.513879060745,0.000910043716431,0.500810861588,1,s,810.104851961,,,,,,,,,,,,,,,,,,,,,,,,,,,,,,,,,2015_Jul_02_1229,59.9789502585,LearningTask,1,74,
200,w,200,,,,,,,,,,,,,,,,,1,0,1,0,16,1,65,0,,,,,,,,,,,,,,,,,,,,,,,,,,,,,w,1,0.584405899048,None,0,1.0,diamondgreen.gif,go,,,,,,,,,,,,,,,,,,,,,,,,,,,,,,,,0,0.514190912247,0.000952005386353,0.584405899048,1,w,813.108564138,,,,,,,,,,,,,,,,,,,,,,,,,,,,,,,,,2015_Jul_02_1229,59.9789502585,LearningTask,1,74,
200,s,-200,,,,,,,,,,,,,,,,,1,0,1,0,16,2,66,2,,,,,,,,,,,,,,,,,,,,,,,,,,,,,s,1,0.500264883041,None,0,0.5,squaregray.gif,go,,,,,,,,,,,,,,,,,,,,,,,,,,,,,,,,0.54,0.514276027679,0.000875949859619,0.500264883041,1,s,816.112154961,,,,,,,,,,,,,,,,,,,,,,,,,,,,,,,,,2015_Jul_02_1229,59.9789502585,LearningTask,1,74,
-200,q,200,,,,,,,,,,,,,,,,,1,0,1,0,16,3,67,1,,,,,,,,,,,,,,,,,,,,,,,,,,,,,q,1,0.518290042877,None,0,2.0,circlecyan.gif,stop,,,,,,,,,,,,,,,,,,,,,,,,,,,,,,,,2.24,0.513575077057,0.000959157943726,0.518290042877,1,q,819.115159988,,,,,,,,,,,,,,,,,,,,,,,,,,,,,,,,,2015_Jul_02_1229,59.9789502585,LearningTask,1,74,
200,s,-200,,,,,,,,,,,,,,,,,1,0,1,0,17,0,68,2,,,,,,,,,,,,,,,,,,,,,,,,,,,,,s,1,0.4343791008,None,0,2.0,trianglemagenta.gif,go,,,,,,,,0.159894227982,,,,,,,,,,,,,,,,,,,,,,,,0,0.514210939407,0.000881910324097,[],0,None,822.118261099,,,2.14,0.515583992004,0.00095009803772,0.4343791008,1,s,825.121721029,,,,,,,,,,,,,,,,,,,,,,,,2015_Jul_02_1229,59.9789502585,LearningTask,1,74,
-200,a,-200,,,,,,,,,,,,,,,,,1,0,1,0,17,1,69,3,,,,,,,,,,,,,,,,,,,,,,,,,,,,,a,1,0.400784015656,None,0,2.0,circlecyan.gif,stop,,,,,,,,,,,,,,,,,,,,,,,,,,,,,,,,0,0.514127969742,0.000932931900024,0.400784015656,1,a,828.124972105,,,,,,,,,,,,,,,,,,,,,,,,,,,,,,,,,2015_Jul_02_1229,59.9789502585,LearningTask,1,74,
200,s,-200,,,,,,,,,,,,,,,,,1,0,1,0,17,2,70,2,,,,,,,,,,,,,,,,,,,,,,,,,,,,,s,1,0.584444999695,None,0,2.0,trianglemagenta.gif,go,,,,,,,,,,,,,,,,,,,,,,,,,,,,,,,,1.82,0.514409065247,0.0011990070343,0.584444999695,1,s,831.128859043,,,,,,,,,,,,,,,,,,,,,,,,,,,,,,,,,2015_Jul_02_1229,59.9789502585,LearningTask,1,74,
200,s,-200,,,,,,,,,,,,,,,,,1,0,1,0,17,3,71,2,,,,,,,,,,,,,,,,,,,,,,,,,,,,,s,1,0.367528915405,None,0,1.0,diamondgreen.gif,go,,,,,,,,,,,,,,,,,,,,,,,,,,,,,,,,1.13,0.514032125473,0.000874042510986,0.367528915405,1,s,834.131801128,,,,,,,,,,,,,,,,,,,,,,,,,,,,,,,,,2015_Jul_02_1229,59.9789502585,LearningTask,1,74,
200,w,200,,,,,,,,,,,,,,,,,1,0,1,0,18,0,72,0,,,,,,,,,,,,,,,,,,,,,,,,,,,,,w,1,0.43412899971,None,0,2.0,circlecyan.gif,stop,,,,,,,,,,,,,,,,,,,,,,,,,,,,,,,,2.19,0.514518022537,0.00088095664978,0.43412899971,1,w,837.135077953,,,,,,,,,,,,,,,,,,,,,,,,,,,,,,,,,2015_Jul_02_1229,59.9789502585,LearningTask,1,74,
-200,a,-200,,,,,,,,,,,,,,,,,1,0,1,0,18,1,73,3,,,,,,,,,,,,,,,,,,,,,,,,,,,,,a,1,0.651823997498,None,0,2.0,trianglemagenta.gif,go,,,,,,,,,,,,,,,,,,,,,,,,,,,,,,,,1.78,0.514104127884,0.000967979431152,0.651823997498,1,a,840.138366938,,,,,,,,,,,,,,,,,,,,,,,,,,,,,,,,,2015_Jul_02_1229,59.9789502585,LearningTask,1,74,
-200,a,-200,,,,,,,,,,,,,,,,,1,0,1,0,18,2,74,3,,,,,,,,,,,,,,,,,,,,,,,,,,,,,a,1,0.467964887619,None,0,1.0,invertedtriangleorange.gif,stop,,,,,,,,,,,,,,,,,,,,,,,,,,,,,,,,0.83,0.514389038086,0.000876903533936,0.467964887619,1,a,843.141880989,,,,,,,,,,,,,,,,,,,,,,,,,,,,,,,,,2015_Jul_02_1229,59.9789502585,LearningTask,1,74,
-200,q,200,,,,,,,,,,,,,,,,,1,0,1,0,18,3,75,1,,,,,,,,,,,,,,,,,,,,,,,,,,,,,q,1,0.534293174744,None,0,4.0,crosswhite.gif,stop,,,,,,,,,,,,,,,,,,,,,,,,,,,,,,,,4.2,0.514211893082,0.00088906288147,0.534293174744,1,q,846.145396948,,,,,,,,,,,,,,,,,,,,,,,,,,,,,,,,,2015_Jul_02_1229,59.9789502585,LearningTask,1,74,
-200,a,-200,,,,,,,,,,,,,,,,,1,0,1,0,19,0,76,3,,,,,,,,,,,,,,,,,,,,,,,,,,,,,a,1,0.450671195984,None,0,0.5,hexagonblue.gif,stop,,,,,,,,,,,,,,,,,,,,,,,,,,,,,,,,0.5,0.513994932175,0.000931978225708,0.450671195984,1,a,849.148544073,,,,,,,,,,,,,,,,,,,,,,,,,,,,,,,,,2015_Jul_02_1229,59.9789502585,LearningTask,1,74,
200,w,200,,,,,,,,,,,,,,,,,1,0,1,0,19,1,77,0,,,,,,,,,,,,,,,,,,,,,,,,,,,,,w,1,0.450847864151,None,0,2.0,trianglemagenta.gif,go,,,,,,,,,,,,,,,,,,,,,,,,,,,,,,,,0,0.514238834381,0.00114488601685,0.450847864151,1,w,852.151958942,,,,,,,,,,,,,,,,,,,,,,,,,,,,,,,,,2015_Jul_02_1229,59.9789502585,LearningTask,1,74,
-200,q,200,,,,,,,,,,,,,,,,,1,0,1,0,19,2,78,1,,,,,,,,,,,,,,,,,,,,,,,,,,,,,q,1,0.517652988434,None,0,0.5,squaregray.gif,go,,,,,,,,,,,,,,,,,,,,,,,,,,,,,,,,0.26,0.514317035675,0.000869035720825,0.517652988434,1,q,855.155305147,,,,,,,,,,,,,,,,,,,,,,,,,,,,,,,,,2015_Jul_02_1229,59.9789502585,LearningTask,1,74,
-200,a,-200,,,,,,,,,,,,,,,,,1,0,1,0,19,3,79,3,,,,,,,,,,,,,,,,,,,,,,,,,,,,,a,1,0.451096057892,None,0,1.0,diamondgreen.gif,go,,,,,,,,,,,,,,,,,,,,,,,,,,,,,,,,1.2,0.513870000839,0.00098991394043,0.451096057892,1,a,858.158507109,,,,,,,,,,,,,,,,,,,,,,,,,,,,,,,,,2015_Jul_02_1229,59.9789502585,LearningTask,1,74,
-200,q,200,,,,,,,,,,,,,,,,,1,0,1,0,20,0,80,1,,,,,,,,,,,,,,,,,,,,,,,,,,,,,q,1,0.384636878967,None,0,0.5,hexagonblue.gif,stop,,,,,,,,,,,,,,,,,,,,,,,,,,,,,,,,0.74,0.514352083206,0.000946998596191,0.384636878967,1,q,861.162014961,,,,,,,,,,,,,,,,,,,,,,,,,,,,,,,,,2015_Jul_02_1229,59.9789502585,LearningTask,1,74,
-200,a,-200,,,,,,,,,,,,,,,,,1,0,1,0,20,1,81,3,,,,,,,,,,,,,,,,,,,,,,,,,,,,,a,1,0.417625188828,None,0,4.0,crosswhite.gif,stop,,,,,,,,,,,,,,,,,,,,,,,,,,,,,,,,0,0.514330148697,0.000880002975464,0.417625188828,1,a,864.16607213,,,,,,,,,,,,,,,,,,,,,,,,,,,,,,,,,2015_Jul_02_1229,59.9789502585,LearningTask,1,74,
200,s,-200,,,,,,,,,,,,,,,,,1,0,1,0,20,2,82,2,,,,,,,,,,,,,,,,,,,,,,,,,,,,,s,1,0.51815700531,None,0,1.0,diamondgreen.gif,go,,,,,,,,,,,,,,,,,,,,,,,,,,,,,,,,1.23,0.513359069824,0.000936985015869,0.51815700531,1,s,867.168921947,,,,,,,,,,,,,,,,,,,,,,,,,,,,,,,,,2015_Jul_02_1229,59.9789502585,LearningTask,1,74,
200,w,200,,,,,,,,,,,,,,,,,1,0,1,0,20,3,83,0,,,,,,,,,,,,,,,,,,,,,,,,,,,,,w,1,0.60072684288,None,0,0.5,hexagonblue.gif,stop,,,,,,,,,,,,,,,,,,,,,,,,,,,,,,,,0.52,0.514182090759,0.00088095664978,0.60072684288,1,w,870.171931028,,,,,,,,,,,,,,,,,,,,,,,,,,,,,,,,,2015_Jul_02_1229,59.9789502585,LearningTask,1,74,
-200,a,-200,,,,,,,,,,,,,,,,,1,0,1,0,21,0,84,3,,,,,,,,,,,,,,,,,,,,,,,,,,,,,a,1,0.517655134201,None,0,0.5,hexagonblue.gif,stop,,,,,,,,,,,,,,,,,,,,,,,,,,,,,,,,0,0.514616012573,0.00115203857422,0.517655134201,1,a,873.175380945,,,,,,,,,,,,,,,,,,,,,,,,,,,,,,,,,2015_Jul_02_1229,59.9789502585,LearningTask,1,74,
-200,q,200,,,,,,,,,,,,,,,,,1,0,1,0,21,1,85,1,,,,,,,,,,,,,,,,,,,,,,,,,,,,,q,1,0.617792844772,None,0,0.5,squaregray.gif,go,,,,,,,,,,,,,,,,,,,,,,,,,,,,,,,,0.59,0.514118909836,0.000931024551392,0.617792844772,1,q,876.178754091,,,,,,,,,,,,,,,,,,,,,,,,,,,,,,,,,2015_Jul_02_1229,59.9789502585,LearningTask,1,74,
-200,q,200,,,,,,,,,,,,,,,,,1,0,1,0,21,2,86,1,,,,,,,,,,,,,,,,,,,,,,,,,,,,,q,1,0.40089392662,None,0,0.5,squaregray.gif,go,,,,,,,,,,,,,,,,,,,,,,,,,,,,,,,,0.67,0.514204978943,0.000997066497803,0.40089392662,1,q,879.182152987,,,,,,,,,,,,,,,,,,,,,,,,,,,,,,,,,2015_Jul_02_1229,59.9789502585,LearningTask,1,74,
200,s,-200,,,,,,,,,,,,,,,,,1,0,1,0,21,3,87,2,,,,,,,,,,,,,,,,,,,,,,,,,,,,,s,1,0.484497070312,None,0,0.5,hexagonblue.gif,stop,,,,,,,,,,,,,,,,,,,,,,,,,,,,,,,,0,0.514286994934,0.000905990600586,0.484497070312,1,s,882.185868979,,,,,,,,,,,,,,,,,,,,,,,,,,,,,,,,,2015_Jul_02_1229,59.9789502585,LearningTask,1,74,
200,w,200,,,,,,,,,,,,,,,,,1,0,1,0,22,0,88,0,,,,,,,,,,,,,,,,,,,,,,,,,,,,,w,1,0.384496927261,None,0,2.0,circlecyan.gif,stop,,,,,,,,,,,,,,,,,,,,,,,,,,,,,,,,0,0.51353597641,0.000882863998413,0.384496927261,1,w,885.188750029,,,,,,,,,,,,,,,,,,,,,,,,,,,,,,,,,2015_Jul_02_1229,59.9789502585,LearningTask,1,74,
200,s,-200,,,,,,,,,,,,,,,,,1,0,1,0,22,1,89,2,,,,,,,,,,,,,,,,,,,,,,,,,,,,,s,1,0.467731952667,None,0,1.0,invertedtriangleorange.gif,stop,,,,,,,,,,,,,,,,,,,,,,,,,,,,,,,,0.8,0.514117956161,0.00106310844421,0.467731952667,1,s,888.19205308,,,,,,,,,,,,,,,,,,,,,,,,,,,,,,,,,2015_Jul_02_1229,59.9789502585,LearningTask,1,74,
200,s,-200,,,,,,,,,,,,,,,,,1,0,1,0,22,2,90,2,,,,,,,,,,,,,,,,,,,,,,,,,,,,,s,1,0.417541027069,None,0,4.0,lineyellow.gif,go,,,,,,,,,,,,,,,,,,,,,,,,,,,,,,,,0,0.514476060867,0.00141787528992,0.417541027069,1,s,891.195667982,,,,,,,,,,,,,,,,,,,,,,,,,,,,,,,,,2015_Jul_02_1229,59.9789502585,LearningTask,1,74,
200,s,-200,,,,,,,,,,,,,,,,,1,0,1,0,22,3,91,2,,,,,,,,,,,,,,,,,,,,,,,,,,,,,s,1,0.3842420578,None,0,4.0,crosswhite.gif,stop,,,,,,,,,,,,,,,,,,,,,,,,,,,,,,,,4.12,0.514168977737,0.000882863998413,0.3842420578,1,s,894.198990107,,,,,,,,,,,,,,,,,,,,,,,,,,,,,,,,,2015_Jul_02_1229,59.9789502585,LearningTask,1,74,
-200,q,200,,,,,,,,,,,,,,,,,1,0,1,0,23,0,92,1,,,,,,,,,,,,,,,,,,,,,,,,,,,,,q,1,0.684225082397,None,0,4.0,lineyellow.gif,go,,,,,,,,,,,,,,,,,,,,,,,,,,,,,,,,3.92,0.51446890831,0.000911951065063,0.684225082397,1,q,897.202383041,,,,,,,,,,,,,,,,,,,,,,,,,,,,,,,,,2015_Jul_02_1229,59.9789502585,LearningTask,1,74,
200,w,200,,,,,,,,,,,,,,,,,1,0,1,0,23,1,93,0,,,,,,,,,,,,,,,,,,,,,,,,,,,,,w,1,0.567806005478,None,0,2.0,circlecyan.gif,stop,,,,,,,,,,,,,,,,,,,,,,,,,,,,,,,,2.1,0.514292001724,0.000874996185303,0.567806005478,1,w,900.205482006,,,,,,,,,,,,,,,,,,,,,,,,,,,,,,,,,2015_Jul_02_1229,59.9789502585,LearningTask,1,74,
200,s,-200,,,,,,,,,,,,,,,,,1,0,1,0,23,2,94,2,,,,,,,,,,,,,,,,,,,,,,,,,,,,,s,1,0.467936992645,None,0,4.0,lineyellow.gif,go,,,,,,,,,,,,,,,,,,,,,,,,,,,,,,,,0,0.51424908638,0.000993967056274,0.467936992645,1,s,903.209155083,,,,,,,,,,,,,,,,,,,,,,,,,,,,,,,,,2015_Jul_02_1229,59.9789502585,LearningTask,1,74,
200,s,-200,,,,,,,,,,,,,,,,,1,0,1,0,23,3,95,2,,,,,,,,,,,,,,,,,,,,,,,,,,,,,s,1,0.434062957764,None,0,0.5,hexagonblue.gif,stop,,,,,,,,,,,,,,,,,,,,,,,,,,,,,,,,0.38,0.513982057571,0.000956058502197,0.434062957764,1,s,906.212201118,,,,,,,,,,,,,,,,,,,,,,,,,,,,,,,,,2015_Jul_02_1229,59.9789502585,LearningTask,1,74,
-200,a,-200,,,,,,,,,,,,,,,,,1,0,1,0,24,0,96,3,,,,,,,,,,,,,,,,,,,,,,,,,,,,,a,1,0.534309864044,None,0,2.0,trianglemagenta.gif,go,,,,,,,,,,,,,,,,,,,,,,,,,,,,,,,,2.23,0.514630079269,0.000874996185303,0.534309864044,1,a,909.215815067,,,,,,,,,,,,,,,,,,,,,,,,,,,,,,,,,2015_Jul_02_1229,59.9789502585,LearningTask,1,74,
-200,a,-200,,,,,,,,,,,,,,,,,1,0,1,0,24,1,97,3,,,,,,,,,,,,,,,,,,,,,,,,,,,,,a,1,0.484041213989,None,0,0.5,squaregray.gif,go,,,,,,,,,,,,,,,,,,,,,,,,,,,,,,,,0.62,0.514341831207,0.000871896743774,0.484041213989,1,a,912.21934104,,,,,,,,,,,,,,,,,,,,,,,,,,,,,,,,,2015_Jul_02_1229,59.9789502585,LearningTask,1,74,
200,w,200,,,,,,,,,,,,,,,,,1,0,1,0,24,2,98,0,,,,,,,,,,,,,,,,,,,,,,,,,,,,,w,1,0.651376962662,None,0,2.0,circlecyan.gif,stop,,,,,,,,,,,,,,,,,,,,,,,,,,,,,,,,0,0.514270067215,0.000930070877075,0.383396863937,0,s,915.222520113,,,0,0.515267848969,0.000948905944824,0.651376962662,1,w,918.225631952,,,,,,,,,,,,,,,,,,,,,,,,2015_Jul_02_1229,59.9789502585,LearningTask,1,74,
200,w,200,,,,,,,,,,,,,,,,,1,0,1,0,24,3,99,0,,,,,,,,,,,,,,,,,,,,,,,,,,,,,w,1,0.517763853073,None,0,4.0,lineyellow.gif,go,,,,,,,,,,,,,,,,,,,,,,,,,,,,,,,,4.24,0.514366865158,0.000874042510986,0.517763853073,1,w,921.228972912,,,,,,,,,,,,,,,,,,,,,,,,,,,,,,,,,2015_Jul_02_1229,59.9789502585,LearningTask,1,74,
,,,,,,,,,,,,,,,,,,,1,0,1,0,,,,,,,,,,,,,,,,,,,,,,,,,,,,,,,,,,,,,,,,,,,,,,,,,,,,,,,,,,,,,,,,,,,,,,,,,,,,,,,9,81.4750919342,,,,,,,,,,,,,,,,,,,,,,,,,,,,,,,2015_Jul_02_1229,59.9789502585,LearningTask,1,74,
-200,q,200,,,,,,,,,,,,,,,,,2,0,2,0,0,0,0,1,,,,,,,,,,,,,,,,,,,,,,,,,,,,,q,1,0.400764942169,None,0,4.0,crosswhite.gif,stop,,,,,,,,,,,,,,,,,,,,,,,,,,,,,,,,4.19,0.509938001633,0.00086784362793,0.400764942169,1,q,1006.34116411,,,,,,,,,,,,,,,,,,,,,,,,,,,,,,,,,2015_Jul_02_1229,59.9789502585,LearningTask,1,74,
-200,a,-200,,,,,,,,,,,,,,,,,2,0,2,0,0,1,1,3,,,,,,,,,,,,,,,,,,,,,,,,,,,,,a,1,0.451199054718,None,0,4.0,lineyellow.gif,go,,,,,,,,,,,,,,,,,,,,,,,,,,,,,,,,4.12,0.51393699646,0.00096607208252,0.451199054718,1,a,1009.34396195,,,,,,,,,,,,,,,,,,,,,,,,,,,,,,,,,2015_Jul_02_1229,59.9789502585,LearningTask,1,74,
-200,a,-200,,,,,,,,,,,,,,,,,2,0,2,0,0,2,2,3,,,,,,,,,,,,,,,,,,,,,,,,,,,,,a,1,0.401181936264,None,0,2.0,trianglemagenta.gif,go,,,,,,,,,,,,,,,,,,,,,,,,,,,,,,,,1.85,0.514573097229,0.000884056091309,0.401181936264,1,a,1012.34730697,,,,,,,,,,,,,,,,,,,,,,,,,,,,,,,,,2015_Jul_02_1229,59.9789502585,LearningTask,1,74,
200,s,-200,,,,,,,,,,,,,,,,,2,0,2,0,0,3,3,2,,,,,,,,,,,,,,,,,,,,,,,,,,,,,s,1,0.534307003021,None,0,0.5,hexagonblue.gif,stop,,,,,,,,,,,,,,,,,,,,,,,,,,,,,,,,0.64,0.5143430233,0.00091814994812,0.534307003021,1,s,1015.35090303,,,,,,,,,,,,,,,,,,,,,,,,,,,,,,,,,2015_Jul_02_1229,59.9789502585,LearningTask,1,74,
200,w,200,,,,,,,,,,,,,,,,,2,0,2,0,1,0,4,0,,,,,,,,,,,,,,,,,,,,,,,,,,,,,w,1,0.383940935135,None,0,1.0,diamondgreen.gif,go,,,,,,,,,,,,,,,,,,,,,,,,,,,,,,,,0.99,0.514446020126,0.00104093551636,0.383940935135,1,w,1018.35429001,,,,,,,,,,,,,,,,,,,,,,,,,,,,,,,,,2015_Jul_02_1229,59.9789502585,LearningTask,1,74,
-200,a,-200,,,,,,,,,,,,,,,,,2,0,2,0,1,1,5,3,,,,,,,,,,,,,,,,,,,,,,,,,,,,,a,1,0.384635210037,None,0,0.5,hexagonblue.gif,stop,,,,,,,,,,,,,,,,,,,,,,,,,,,,,,,,0.27,0.514125823975,0.000893831253052,0.384635210037,1,a,1021.35751414,,,,,,,,,,,,,,,,,,,,,,,,,,,,,,,,,2015_Jul_02_1229,59.9789502585,LearningTask,1,74,
-200,a,-200,,,,,,,,,,,,,,,,,2,0,2,0,1,2,6,3,,,,,,,,,,,,,,,,,,,,,,,,,,,,,a,1,0.517664909363,None,0,1.0,diamondgreen.gif,go,,,,,,,,,,,,,,,,,,,,,,,,,,,,,,,,0,0.514361858368,0.000890016555786,0.517664909363,1,a,1024.36072111,,,,,,,,,,,,,,,,,,,,,,,,,,,,,,,,,2015_Jul_02_1229,59.9789502585,LearningTask,1,74,
-200,q,200,,,,,,,,,,,,,,,,,2,0,2,0,1,3,7,1,,,,,,,,,,,,,,,,,,,,,,,,,,,,,q,1,0.384756088257,None,0,1.0,diamondgreen.gif,go,,,,,,,,,,,,,,,,,,,,,,,,,,,,,,,,0,0.514248132706,0.000932931900024,0.384756088257,1,q,1027.36410499,,,,,,,,,,,,,,,,,,,,,,,,,,,,,,,,,2015_Jul_02_1229,59.9789502585,LearningTask,1,74,
-200,q,200,,,,,,,,,,,,,,,,,2,0,2,0,2,0,8,1,,,,,,,,,,,,,,,,,,,,,,,,,,,,,q,1,0.367957830429,None,0,4.0,crosswhite.gif,stop,,,,,,,,,,,,,,,,,,,,,,,,,,,,,,,,4.08,0.514070034027,0.000905990600586,0.367957830429,1,q,1030.36752105,,,,,,,,,,,,,,,,,,,,,,,,,,,,,,,,,2015_Jul_02_1229,59.9789502585,LearningTask,1,74,
200,s,-200,,,,,,,,,,,,,,,,,2,0,2,0,2,1,9,2,,,,,,,,,,,,,,,,,,,,,,,,,,,,,s,1,0.417653083801,None,0,0.5,hexagonblue.gif,stop,,,,,,,,,,,,,,,,,,,,,,,,,,,,,,,,0.43,0.514667034149,0.000878095626831,0.417653083801,1,s,1033.37107897,,,,,,,,,,,,,,,,,,,,,,,,,,,,,,,,,2015_Jul_02_1229,59.9789502585,LearningTask,1,74,
-200,q,200,,,,,,,,,,,,,,,,,2,0,2,0,2,2,10,1,,,,,,,,,,,,,,,,,,,,,,,,,,,,,q,1,0.350591897964,None,0,2.0,trianglemagenta.gif,go,,,,,,,,,,,,,,,,,,,,,,,,,,,,,,,,1.85,0.514391183853,0.000886201858521,0.350591897964,1,q,1036.3743031,,,,,,,,,,,,,,,,,,,,,,,,,,,,,,,,,2015_Jul_02_1229,59.9789502585,LearningTask,1,74,
200,s,-200,,,,,,,,,,,,,,,,,2,0,2,0,2,3,11,2,,,,,,,,,,,,,,,,,,,,,,,,,,,,,s,1,0.400975942612,None,0,0.5,hexagonblue.gif,stop,,,,,,,,,,,,,,,,,,,,,,,,,,,,,,,,0,0.514235973358,0.000872850418091,0.400975942612,1,s,1039.37766314,,,,,,,,,,,,,,,,,,,,,,,,,,,,,,,,,2015_Jul_02_1229,59.9789502585,LearningTask,1,74,
-200,a,-200,,,,,,,,,,,,,,,,,2,0,2,0,3,0,12,3,,,,,,,,,,,,,,,,,,,,,,,,,,,,,a,1,0.401090860367,None,0,0.5,squaregray.gif,go,,,,,,,,,,,,,,,,,,,,,,,,,,,,,,,,0.4,0.514238119125,0.000931024551392,0.401090860367,1,a,1042.38114309,,,,,,,,,,,,,,,,,,,,,,,,,,,,,,,,,2015_Jul_02_1229,59.9789502585,LearningTask,1,74,
-200,a,-200,,,,,,,,,,,,,,,,,2,0,2,0,3,1,13,3,,,,,,,,,,,,,,,,,,,,,,,,,,,,,a,1,0.467370986938,None,0,2.0,trianglemagenta.gif,go,,,,,,,,,,,,,,,,,,,,,,,,,,,,,,,,0,0.513926029205,0.000898122787476,0.467370986938,1,a,1045.38439298,,,,,,,,,,,,,,,,,,,,,,,,,,,,,,,,,2015_Jul_02_1229,59.9789502585,LearningTask,1,74,
-200,q,200,,,,,,,,,,,,,,,,,2,0,2,0,3,2,14,1,,,,,,,,,,,,,,,,,,,,,,,,,,,,,q,1,0.501086950302,None,0,2.0,trianglemagenta.gif,go,,,,,,,,,,,,,,,,,,,,,,,,,,,,,,,,1.91,0.514591217041,0.000874042510986,0.501086950302,1,q,1048.38780403,,,,,,,,,,,,,,,,,,,,,,,,,,,,,,,,,2015_Jul_02_1229,59.9789502585,LearningTask,1,74,
200,w,200,,,,,,,,,,,,,,,,,2,0,2,0,3,3,15,0,,,,,,,,,,,,,,,,,,,,,,,,,,,,,w,1,0.801393985748,None,0,0.5,hexagonblue.gif,stop,,,,,,,,,,,,,,,,,,,,,,,,,,,,,,,,0.25,0.514255046844,0.00087308883667,0.801393985748,1,w,1051.39142203,,,,,,,,,,,,,,,,,,,,,,,,,,,,,,,,,2015_Jul_02_1229,59.9789502585,LearningTask,1,74,
-200,a,-200,,,,,,,,,,,,,,,,,2,0,2,0,4,0,16,3,,,,,,,,,,,,,,,,,,,,,,,,,,,,,a,1,0.417246818542,None,0,4.0,lineyellow.gif,go,,,,,,,,,,,,,,,,,,,,,,,,,,,,,,,,0,0.514048814774,0.000883817672729,0.417246818542,1,a,1054.39438796,,,,,,,,,,,,,,,,,,,,,,,,,,,,,,,,,2015_Jul_02_1229,59.9789502585,LearningTask,1,74,
200,s,-200,,,,,,,,,,,,,,,,,2,0,2,0,4,1,17,2,,,,,,,,,,,,,,,,,,,,,,,,,,,,,s,1,0.434089899063,None,0,4.0,lineyellow.gif,go,,,,,,,,,,,,,,,,,,,,,,,,,,,,,,,,4.06,0.514419078827,0.00119590759277,0.434089899063,1,s,1057.39776611,,,,,,,,,,,,,,,,,,,,,,,,,,,,,,,,,2015_Jul_02_1229,59.9789502585,LearningTask,1,74,
-200,a,-200,,,,,,,,,,,,,,,,,2,0,2,0,4,2,18,3,,,,,,,,,,,,,,,,,,,,,,,,,,,,,a,1,0.417495012283,None,0,0.5,squaregray.gif,go,,,,,,,,,,,,,,,,,,,,,,,,,,,,,,,,0.51,0.514308929443,0.000873804092407,0.417495012283,1,a,1060.40109301,,,,,,,,,,,,,,,,,,,,,,,,,,,,,,,,,2015_Jul_02_1229,59.9789502585,LearningTask,1,74,
-200,a,-200,,,,,,,,,,,,,,,,,2,0,2,0,4,3,19,3,,,,,,,,,,,,,,,,,,,,,,,,,,,,,a,1,0.434395074844,None,0,4.0,lineyellow.gif,go,,,,,,,,,,,,,,,,,,,,,,,,,,,,,,,,3.76,0.514558076859,0.000866174697876,0.434395074844,1,a,1063.40452504,,,,,,,,,,,,,,,,,,,,,,,,,,,,,,,,,2015_Jul_02_1229,59.9789502585,LearningTask,1,74,
-200,a,-200,,,,,,,,,,,,,,,,,2,0,2,0,5,0,20,3,,,,,,,,,,,,,,,,,,,,,,,,,,,,,a,1,0.417313814163,None,0,1.0,diamondgreen.gif,go,,,,,,,,,,,,,,,,,,,,,,,,,,,,,,,,0.95,0.514097929001,0.000956058502197,0.417313814163,1,a,1066.40816212,,,,,,,,,,,,,,,,,,,,,,,,,,,,,,,,,2015_Jul_02_1229,59.9789502585,LearningTask,1,74,
200,s,-200,,,,,,,,,,,,,,,,,2,0,2,0,5,1,21,2,,,,,,,,,,,,,,,,,,,,,,,,,,,,,s,1,0.40107011795,None,0,4.0,crosswhite.gif,stop,,,,,,,,,,,,,,,,,,,,,,,,,,,,,,,,3.77,0.513879060745,0.000894069671631,0.40107011795,1,s,1069.41119003,,,,,,,,,,,,,,,,,,,,,,,,,,,,,,,,,2015_Jul_02_1229,59.9789502585,LearningTask,1,74,
200,w,200,,,,,,,,,,,,,,,,,2,0,2,0,5,2,22,0,,,,,,,,,,,,,,,,,,,,,,,,,,,,,w,1,0.484419107437,None,0,2.0,circlecyan.gif,stop,,,,,,,,,,,,,,,,,,,,,,,,,,,,,,,,1.87,0.514281988144,0.000872850418091,0.484419107437,1,w,1072.4145081,,,,,,,,,,,,,,,,,,,,,,,,,,,,,,,,,2015_Jul_02_1229,59.9789502585,LearningTask,1,74,
200,s,-200,,,,,,,,,,,,,,,,,2,0,2,0,5,3,23,2,,,,,,,,,,,,,,,,,,,,,,,,,,,,,s,1,0.484616041183,None,0,1.0,invertedtriangleorange.gif,stop,,,,,,,,,,,,,,,,,,,,,,,,,,,,,,,,0.92,0.514138936996,0.000976085662842,0.484616041183,1,s,1075.41778612,,,,,,,,,,,,,,,,,,,,,,,,,,,,,,,,,2015_Jul_02_1229,59.9789502585,LearningTask,1,74,
200,w,200,,,,,,,,,,,,,,,,,2,0,2,0,6,0,24,0,,,,,,,,,,,,,,,,,,,,,,,,,,,,,w,1,0.534338951111,None,0,0.5,hexagonblue.gif,stop,,,,,,,,,,,,,,,,,,,,,,,,,,,,,,,,0,0.514445066452,0.00088095664978,0.534338951111,1,w,1078.42129993,,,,,,,,,,,,,,,,,,,,,,,,,,,,,,,,,2015_Jul_02_1229,59.9789502585,LearningTask,1,74,
200,w,200,,,,,,,,,,,,,,,,,2,0,2,0,6,1,25,0,,,,,,,,,,,,,,,,,,,,,,,,,,,,,w,1,0.584070920944,None,0,1.0,invertedtriangleorange.gif,stop,,,,,,,,,,,,,,,,,,,,,,,,,,,,,,,,1.03,0.5145008564,0.000910997390747,0.584070920944,1,w,1081.42468905,,,,,,,,,,,,,,,,,,,,,,,,,,,,,,,,,2015_Jul_02_1229,59.9789502585,LearningTask,1,74,
200,w,200,,,,,,,,,,,,,,,,,2,0,2,0,6,2,26,0,,,,,,,,,,,,,,,,,,,,,,,,,,,,,w,1,0.534557104111,None,0,4.0,crosswhite.gif,stop,,,,,,,,,,,,,,,,,,,,,,,,,,,,,,,,4.14,0.51380109787,0.000913143157959,0.534557104111,1,w,1084.42799997,,,,,,,,,,,,,,,,,,,,,,,,,,,,,,,,,2015_Jul_02_1229,59.9789502585,LearningTask,1,74,
-200,q,200,,,,,,,,,,,,,,,,,2,0,2,0,6,3,27,1,,,,,,,,,,,,,,,,,,,,,,,,,,,,,q,1,0.4517390728,None,0,4.0,crosswhite.gif,stop,,,,,,,,,,,,,,,,,,,,,,,,,,,,,,,,0,0.514096021652,0.000874996185303,0.4517390728,1,q,1087.431247,,,,,,,,,,,,,,,,,,,,,,,,,,,,,,,,,2015_Jul_02_1229,59.9789502585,LearningTask,1,74,
-200,q,200,,,,,,,,,,,,,,,,,2,0,2,0,7,0,28,1,,,,,,,,,,,,,,,,,,,,,,,,,,,,,q,1,0.56783914566,None,0,2.0,trianglemagenta.gif,go,,,,,,,,,,,,,,,,,,,,,,,,,,,,,,,,1.99,0.514362096786,0.000880002975464,0.56783914566,1,q,1090.43487191,,,,,,,,,,,,,,,,,,,,,,,,,,,,,,,,,2015_Jul_02_1229,59.9789502585,LearningTask,1,74,
200,w,200,,,,,,,,,,,,,,,,,2,0,2,0,7,1,29,0,,,,,,,,,,,,,,,,,,,,,,,,,,,,,w,1,0.333977937698,None,0,2.0,trianglemagenta.gif,go,,,,,,,,,,,,,,,,,,,,,,,,,,,,,,,,1.95,0.514149188995,0.000903129577637,0.333977937698,1,w,1093.43800092,,,,,,,,,,,,,,,,,,,,,,,,,,,,,,,,,2015_Jul_02_1229,59.9789502585,LearningTask,1,74,
200,s,-200,,,,,,,,,,,,,,,,,2,0,2,0,7,2,30,2,,,,,,,,,,,,,,,,,,,,,,,,,,,,,s,1,0.433621883392,None,0,1.0,invertedtriangleorange.gif,stop,,,,,,,,,,,,,,,,,,,,,,,,,,,,,,,,0.84,0.514649152756,0.00088095664978,0.433621883392,1,s,1096.44162798,,,,,,,,,,,,,,,,,,,,,,,,,,,,,,,,,2015_Jul_02_1229,59.9789502585,LearningTask,1,74,
200,s,-200,,,,,,,,,,,,,,,,,2,0,2,0,7,3,31,2,,,,,,,,,,,,,,,,,,,,,,,,,,,,,s,1,0.434083223343,None,0,4.0,crosswhite.gif,stop,,,,,,,,,,,,,,,,,,,,,,,,,,,,,,,,4.13,0.514338970184,0.000879049301147,0.434083223343,1,s,1099.44506311,,,,,,,,,,,,,,,,,,,,,,,,,,,,,,,,,2015_Jul_02_1229,59.9789502585,LearningTask,1,74,
-200,q,200,,,,,,,,,,,,,,,,,2,0,2,0,8,0,32,1,,,,,,,,,,,,,,,,,,,,,,,,,,,,,q,1,0.450819969177,None,0,2.0,circlecyan.gif,stop,,,,,,,,,,,,,,,,,,,,,,,,,,,,,,,,2.23,0.514008045197,0.000882148742676,0.450819969177,1,q,1102.44791198,,,,,,,,,,,,,,,,,,,,,,,,,,,,,,,,,2015_Jul_02_1229,59.9789502585,LearningTask,1,74,
200,s,-200,,,,,,,,,,,,,,,,,2,0,2,0,8,1,33,2,,,,,,,,,,,,,,,,,,,,,,,,,,,,,s,1,0.40096783638,None,0,1.0,diamondgreen.gif,go,,,,,,,,,,,,,,,,,,,,,,,,,,,,,,,,1.05,0.514582872391,0.000874996185303,0.40096783638,1,s,1105.45133114,,,,,,,,,,,,,,,,,,,,,,,,,,,,,,,,,2015_Jul_02_1229,59.9789502585,LearningTask,1,74,
200,s,-200,,,,,,,,,,,,,,,,,2,0,2,0,8,2,34,2,,,,,,,,,,,,,,,,,,,,,,,,,,,,,s,1,0.501327037811,None,0,2.0,circlecyan.gif,stop,,,,,,,,,,,,,,,,,,,,,,,,,,,,,,,,1.89,0.514404058456,0.000905990600586,0.501327037811,1,s,1108.45482612,,,,,,,,,,,,,,,,,,,,,,,,,,,,,,,,,2015_Jul_02_1229,59.9789502585,LearningTask,1,74,
-200,a,-200,,,,,,,,,,,,,,,,,2,0,2,0,8,3,35,3,,,,,,,,,,,,,,,,,,,,,,,,,,,,,a,1,0.567450761795,None,0,1.0,diamondgreen.gif,go,,,,,,,,,,,,,,,,,,,,,,,,,,,,,,,,0.83,0.514649152756,0.000900030136108,0.567450761795,1,a,1111.45803809,,,,,,,,,,,,,,,,,,,,,,,,,,,,,,,,,2015_Jul_02_1229,59.9789502585,LearningTask,1,74,
200,w,200,,,,,,,,,,,,,,,,,2,0,2,0,9,0,36,0,,,,,,,,,,,,,,,,,,,,,,,,,,,,,w,1,0.484054088593,None,0,4.0,crosswhite.gif,stop,,,,,,,,,,,,,,,,,,,,,,,,,,,,,,,,3.98,0.514785051346,0.00110602378845,0.484054088593,1,w,1114.46171403,,,,,,,,,,,,,,,,,,,,,,,,,,,,,,,,,2015_Jul_02_1229,59.9789502585,LearningTask,1,74,
200,w,200,,,,,,,,,,,,,,,,,2,0,2,0,9,1,37,0,,,,,,,,,,,,,,,,,,,,,,,,,,,,,w,1,0.500921010971,None,0,4.0,lineyellow.gif,go,,,,,,,,,,,,,,,,,,,,,,,,,,,,,,,,0,0.514110088348,0.000882148742676,0.500921010971,1,w,1117.46500707,,,,,,,,,,,,,,,,,,,,,,,,,,,,,,,,,2015_Jul_02_1229,59.9789502585,LearningTask,1,74,
200,s,-200,,,,,,,,,,,,,,,,,2,0,2,0,9,2,38,2,,,,,,,,,,,,,,,,,,,,,,,,,,,,,s,1,0.434946060181,None,0,0.5,hexagonblue.gif,stop,,,,,,,,,,,,,,,,,,,,,,,,,,,,,,,,0.41,0.514238119125,0.000921010971069,0.434946060181,1,s,1120.46826506,,,,,,,,,,,,,,,,,,,,,,,,,,,,,,,,,2015_Jul_02_1229,59.9789502585,LearningTask,1,74,
200,w,200,,,,,,,,,,,,,,,,,2,0,2,0,9,3,39,0,,,,,,,,,,,,,,,,,,,,,,,,,,,,,w,1,0.53432393074,None,0,0.5,hexagonblue.gif,stop,,,,,,,,,,,,,,,,,,,,,,,,,,,,,,,,0.52,0.514203071594,0.00101613998413,0.53432393074,1,w,1123.47139812,,,,,,,,,,,,,,,,,,,,,,,,,,,,,,,,,2015_Jul_02_1229,59.9789502585,LearningTask,1,74,
-200,q,200,,,,,,,,,,,,,,,,,2,0,2,0,10,0,40,1,,,,,,,,,,,,,,,,,,,,,,,,,,,,,q,1,0.784565210342,None,0,0.5,squaregray.gif,go,,,,,,,,,,,,,,,,,,,,,,,,,,,,,,,,0,0.514649868011,0.000977039337158,0.784565210342,1,q,1126.47517705,,,,,,,,,,,,,,,,,,,,,,,,,,,,,,,,,2015_Jul_02_1229,59.9789502585,LearningTask,1,74,
-200,a,-200,,,,,,,,,,,,,,,,,2,0,2,0,10,1,41,3,,,,,,,,,,,,,,,,,,,,,,,,,,,,,a,1,0.417419195175,None,0,2.0,trianglemagenta.gif,go,,,,,,,,,,,,,,,,,,,,,,,,,,,,,,,,0,0.514101028442,0.000887155532837,0.417419195175,1,a,1129.4786191,,,,,,,,,,,,,,,,,,,,,,,,,,,,,,,,,2015_Jul_02_1229,59.9789502585,LearningTask,1,74,
-200,a,-200,,,,,,,,,,,,,,,,,2,0,2,0,10,2,42,3,,,,,,,,,,,,,,,,,,,,,,,,,,,,,a,1,0.451002836227,None,0,4.0,crosswhite.gif,stop,,,,,,,,,,,,,,,,,,,,,,,,,,,,,,,,4.18,0.513579130173,0.000968933105469,0.451002836227,1,a,1132.48169303,,,,,,,,,,,,,,,,,,,,,,,,,,,,,,,,,2015_Jul_02_1229,59.9789502585,LearningTask,1,74,
-200,q,200,,,,,,,,,,,,,,,,,2,0,2,0,10,3,43,1,,,,,,,,,,,,,,,,,,,,,,,,,,,,,q,1,0.384626865387,None,0,2.0,circlecyan.gif,stop,,,,,,,,,,,,,,,,,,,,,,,,,,,,,,,,1.89,0.514094114304,0.000883102416992,0.384626865387,1,q,1135.48488712,,,,,,,,,,,,,,,,,,,,,,,,,,,,,,,,,2015_Jul_02_1229,59.9789502585,LearningTask,1,74,
-200,a,-200,,,,,,,,,,,,,,,,,2,0,2,0,11,0,44,3,,,,,,,,,,,,,,,,,,,,,,,,,,,,,a,1,0.451261997223,None,0,0.5,squaregray.gif,go,,,,,,,,,,,,,,,,,,,,,,,,,,,,,,,,0.29,0.514307022095,0.00087308883667,0.451261997223,1,a,1138.48899007,,,,,,,,,,,,,,,,,,,,,,,,,,,,,,,,,2015_Jul_02_1229,59.9789502585,LearningTask,1,74,
-200,q,200,,,,,,,,,,,,,,,,,2,0,2,0,11,1,45,1,,,,,,,,,,,,,,,,,,,,,,,,,,,,,q,1,0.400797128677,None,0,1.0,invertedtriangleorange.gif,stop,,,,,,,,,,,,,,,,,,,,,,,,,,,,,,,,0.78,0.513618946075,0.000880002975464,0.400797128677,1,q,1141.49177194,,,,,,,,,,,,,,,,,,,,,,,,,,,,,,,,,2015_Jul_02_1229,59.9789502585,LearningTask,1,74,
200,w,200,,,,,,,,,,,,,,,,,2,0,2,0,11,2,46,0,,,,,,,,,,,,,,,,,,,,,,,,,,,,,w,1,0.48478102684,None,0,2.0,trianglemagenta.gif,go,,,,,,,,,,,,,,,,,,,,,,,,,,,,,,,,0,0.514370918274,0.000925064086914,0.48478102684,1,w,1144.49494195,,,,,,,,,,,,,,,,,,,,,,,,,,,,,,,,,2015_Jul_02_1229,59.9789502585,LearningTask,1,74,
-200,q,200,,,,,,,,,,,,,,,,,2,0,2,0,11,3,47,1,,,,,,,,,,,,,,,,,,,,,,,,,,,,,q,1,0.451195955276,None,0,0.5,hexagonblue.gif,stop,,,,,,,,,,,,,,,,,,,,,,,,,,,,,,,,0,0.5143430233,0.000958204269409,0.451195955276,1,q,1147.49877,,,,,,,,,,,,,,,,,,,,,,,,,,,,,,,,,2015_Jul_02_1229,59.9789502585,LearningTask,1,74,
200,w,200,,,,,,,,,,,,,,,,,2,0,2,0,12,0,48,0,,,,,,,,,,,,,,,,,,,,,,,,,,,,,w,1,0.467437982559,None,0,4.0,lineyellow.gif,go,,,,,,,,,,,,,,,,,,,,,,,,,,,,,,,,3.97,0.51394200325,0.000894069671631,0.467437982559,1,w,1150.50179601,,,,,,,,,,,,,,,,,,,,,,,,,,,,,,,,,2015_Jul_02_1229,59.9789502585,LearningTask,1,74,
200,s,-200,,,,,,,,,,,,,,,,,2,0,2,0,12,1,49,2,,,,,,,,,,,,,,,,,,,,,,,,,,,,,s,1,0.434433221817,None,0,1.0,invertedtriangleorange.gif,stop,,,,,,,,,,,,,,,,,,,,,,,,,,,,,,,,0.8,0.514147996902,0.000921010971069,0.434433221817,1,s,1153.50496793,,,,,,,,,,,,,,,,,,,,,,,,,,,,,,,,,2015_Jul_02_1229,59.9789502585,LearningTask,1,74,
200,w,200,,,,,,,,,,,,,,,,,2,0,2,0,12,2,50,0,,,,,,,,,,,,,,,,,,,,,,,,,,,,,w,1,0.73469209671,None,0,2.0,circlecyan.gif,stop,,,,,,,,,,,,,,,,,,,,,,,,,,,,,,,,1.89,0.514740943909,0.000885963439941,0.73469209671,1,w,1156.50866413,,,,,,,,,,,,,,,,,,,,,,,,,,,,,,,,,2015_Jul_02_1229,59.9789502585,LearningTask,1,74,
200,w,200,,,,,,,,,,,,,,,,,2,0,2,0,12,3,51,0,,,,,,,,,,,,,,,,,,,,,,,,,,,,,w,1,0.851625919342,None,0,4.0,crosswhite.gif,stop,,,,,,,,,,,,,,,,,,,,,,,,,,,,,,,,0,0.51414680481,0.000881910324097,0.851625919342,1,w,1159.51200414,,,,,,,,,,,,,,,,,,,,,,,,,,,,,,,,,2015_Jul_02_1229,59.9789502585,LearningTask,1,74,
200,s,-200,,,,,,,,,,,,,,,,,2,0,2,0,13,0,52,2,,,,,,,,,,,,,,,,,,,,,,,,,,,,,s,1,0.467490911484,None,0,1.0,invertedtriangleorange.gif,stop,,,,,,,,,,,,,,,,,,,,,,,,,,,,,,,,0.78,0.514399051666,0.000963926315308,0.467490911484,1,s,1162.51543093,,,,,,,,,,,,,,,,,,,,,,,,,,,,,,,,,2015_Jul_02_1229,59.9789502585,LearningTask,1,74,
-200,a,-200,,,,,,,,,,,,,,,,,2,0,2,0,13,1,53,3,,,,,,,,,,,,,,,,,,,,,,,,,,,,,a,1,0.434279918671,None,0,0.5,squaregray.gif,go,,,,,,,,,,,,,,,,,,,,,,,,,,,,,,,,0.46,0.51414513588,0.000869989395142,0.434279918671,1,a,1165.51855302,,,,,,,,,,,,,,,,,,,,,,,,,,,,,,,,,2015_Jul_02_1229,59.9789502585,LearningTask,1,74,
-200,q,200,,,,,,,,,,,,,,,,,2,0,2,0,13,2,54,1,,,,,,,,,,,,,,,,,,,,,,,,,,,,,q,1,0.400993108749,None,0,0.5,squaregray.gif,go,,,,,,,,,,,,,,,,,,,,,,,,,,,,,,,,0.31,0.514211177826,0.00109815597534,0.400993108749,1,q,1168.52179694,,,,,,,,,,,,,,,,,,,,,,,,,,,,,,,,,2015_Jul_02_1229,59.9789502585,LearningTask,1,74,
200,w,200,,,,,,,,,,,,,,,,,2,0,2,0,13,3,55,0,,,,,,,,,,,,,,,,,,,,,,,,,,,,,w,1,0.60115814209,None,0,0.5,squaregray.gif,go,,,,,,,,,,,,,,,,,,,,,,,,,,,,,,,,0.71,0.514088869095,0.000921010971069,0.60115814209,1,w,1171.52519107,,,,,,,,,,,,,,,,,,,,,,,,,,,,,,,,,2015_Jul_02_1229,59.9789502585,LearningTask,1,74,
200,s,-200,,,,,,,,,,,,,,,,,2,0,2,0,14,0,56,2,,,,,,,,,,,,,,,,,,,,,,,,,,,,,s,1,0.367425918579,None,0,4.0,crosswhite.gif,stop,,,,,,,,,,,,,,,,,,,,,,,,,,,,,,,,3.9,0.514399051666,0.000884056091309,0.367425918579,1,s,1174.52849507,,,,,,,,,,,,,,,,,,,,,,,,,,,,,,,,,2015_Jul_02_1229,59.9789502585,LearningTask,1,74,
-200,a,-200,,,,,,,,,,,,,,,,,2,0,2,0,14,1,57,3,,,,,,,,,,,,,,,,,,,,,,,,,,,,,a,1,0.384761095047,None,0,1.0,diamondgreen.gif,go,,,,,,,,,,,,,,,,,,,,,,,,,,,,,,,,0,0.514267921448,0.000881910324097,0.384761095047,1,a,1177.53213406,,,,,,,,,,,,,,,,,,,,,,,,,,,,,,,,,2015_Jul_02_1229,59.9789502585,LearningTask,1,74,
200,s,-200,,,,,,,,,,,,,,,,,2,0,2,0,14,2,58,2,,,,,,,,,,,,,,,,,,,,,,,,,,,,,s,1,0.417387008667,None,0,1.0,diamondgreen.gif,go,,,,,,,,,,,,,,,,,,,,,,,,,,,,,,,,1.11,0.514299869537,0.00118088722229,0.417387008667,1,s,1180.53532505,,,,,,,,,,,,,,,,,,,,,,,,,,,,,,,,,2015_Jul_02_1229,59.9789502585,LearningTask,1,74,
-200,q,200,,,,,,,,,,,,,,,,,2,0,2,0,14,3,59,1,,,,,,,,,,,,,,,,,,,,,,,,,,,,,q,1,0.550832033157,None,0,4.0,crosswhite.gif,stop,,,,,,,,,,,,,,,,,,,,,,,,,,,,,,,,3.99,0.514550924301,0.000881910324097,0.550832033157,1,q,1183.53895998,,,,,,,,,,,,,,,,,,,,,,,,,,,,,,,,,2015_Jul_02_1229,59.9789502585,LearningTask,1,74,
200,s,-200,,,,,,,,,,,,,,,,,2,0,2,0,15,0,60,2,,,,,,,,,,,,,,,,,,,,,,,,,,,,,s,1,0.384145975113,None,0,2.0,trianglemagenta.gif,go,,,,,,,,,,,,,,,,,,,,,,,,,,,,,,,,2.09,0.514038801193,0.000878810882568,0.384145975113,1,s,1186.54234815,,,,,,,,,,,,,,,,,,,,,,,,,,,,,,,,,2015_Jul_02_1229,59.9789502585,LearningTask,1,74,
-200,a,-200,,,,,,,,,,,,,,,,,2,0,2,0,15,1,61,3,,,,,,,,,,,,,,,,,,,,,,,,,,,,,a,1,0.434403896332,None,0,2.0,circlecyan.gif,stop,,,,,,,,,,,,,,,,,,,,,,,,,,,,,,,,1.82,0.513481140137,0.000893115997314,0.434403896332,1,a,1189.54555511,,,,,,,,,,,,,,,,,,,,,,,,,,,,,,,,,2015_Jul_02_1229,59.9789502585,LearningTask,1,74,
-200,q,200,,,,,,,,,,,,,,,,,2,0,2,0,15,2,62,1,,,,,,,,,,,,,,,,,,,,,,,,,,,,,q,1,0.451287031174,None,0,2.0,circlecyan.gif,stop,,,,,,,,,,,,,,,,,,,,,,,,,,,,,,,,0,0.514180898666,0.000878095626831,0.451287031174,1,q,1192.54878497,,,,,,,,,,,,,,,,,,,,,,,,,,,,,,,,,2015_Jul_02_1229,59.9789502585,LearningTask,1,74,
-200,q,200,,,,,,,,,,,,,,,,,2,0,2,0,15,3,63,1,,,,,,,,,,,,,,,,,,,,,,,,,,,,,q,1,0.467848062515,None,0,0.5,hexagonblue.gif,stop,,,,,,,,,,,,,,,,,,,,,,,,,,,,,,,,0.67,0.513909101486,0.000920057296753,0.467848062515,1,q,1195.55251694,,,,,,,,,,,,,,,,,,,,,,,,,,,,,,,,,2015_Jul_02_1229,59.9789502585,LearningTask,1,74,
200,w,200,,,,,,,,,,,,,,,,,2,0,2,0,16,0,64,0,,,,,,,,,,,,,,,,,,,,,,,,,,,,,w,1,0.384371995926,None,0,0.5,hexagonblue.gif,stop,,,,,,,,,,,,,,,,,,,,,,,,,,,,,,,,0.66,0.51381611824,0.000895977020264,0.384371995926,1,w,1198.55553198,,,,,,,,,,,,,,,,,,,,,,,,,,,,,,,,,2015_Jul_02_1229,59.9789502585,LearningTask,1,74,
200,s,-200,,,,,,,,,,,,,,,,,2,0,2,0,16,1,65,2,,,,,,,,,,,,,,,,,,,,,,,,,,,,,s,1,0.384387016296,None,0,1.0,diamondgreen.gif,go,,,,,,,,,,,,,,,,,,,,,,,,,,,,,,,,1.17,0.514243125916,0.000935077667236,0.384387016296,1,s,1201.5585041,,,,,,,,,,,,,,,,,,,,,,,,,,,,,,,,,2015_Jul_02_1229,59.9789502585,LearningTask,1,74,
200,w,200,,,,,,,,,,,,,,,,,2,0,2,0,16,2,66,0,,,,,,,,,,,,,,,,,,,,,,,,,,,,,w,1,0.467214107513,None,0,1.0,invertedtriangleorange.gif,stop,,,,,,,,,,,,,,,,,,,,,,,,,,,,,,,,0.82,0.51491689682,0.000870943069458,0.467214107513,1,w,1204.56227708,,,,,,,,,,,,,,,,,,,,,,,,,,,,,,,,,2015_Jul_02_1229,59.9789502585,LearningTask,1,74,
-200,a,-200,,,,,,,,,,,,,,,,,2,0,2,0,16,3,67,3,,,,,,,,,,,,,,,,,,,,,,,,,,,,,a,1,0.517590045929,None,0,1.0,invertedtriangleorange.gif,stop,,,,,,,,,,,,,,,,,,,,,,,,,,,,,,,,1.11,0.514286994934,0.000878095626831,0.517590045929,1,a,1207.56556511,,,,,,,,,,,,,,,,,,,,,,,,,,,,,,,,,2015_Jul_02_1229,59.9789502585,LearningTask,1,74,
-200,q,200,,,,,,,,,,,,,,,,,2,0,2,0,17,0,68,1,,,,,,,,,,,,,,,,,,,,,,,,,,,,,q,1,0.434504032135,None,0,2.0,circlecyan.gif,stop,,,,,,,,,,,,,,,,,,,,,,,,,,,,,,,,2.25,0.514081954956,0.000952959060669,0.434504032135,1,q,1210.56921411,,,,,,,,,,,,,,,,,,,,,,,,,,,,,,,,,2015_Jul_02_1229,59.9789502585,LearningTask,1,74,
200,s,-200,,,,,,,,,,,,,,,,,2,0,2,0,17,1,69,2,,,,,,,,,,,,,,,,,,,,,,,,,,,,,s,1,0.384546041489,None,0,1.0,invertedtriangleorange.gif,stop,,,,,,,,,,,,,,,,,,,,,,,,,,,,,,,,0.75,0.514178037643,0.00088095664978,0.384546041489,1,s,1213.57229996,,,,,,,,,,,,,,,,,,,,,,,,,,,,,,,,,2015_Jul_02_1229,59.9789502585,LearningTask,1,74,
-200,a,-200,,,,,,,,,,,,,,,,,2,0,2,0,17,2,70,3,,,,,,,,,,,,,,,,,,,,,,,,,,,,,a,1,0.534385919571,None,0,0.5,squaregray.gif,go,,,,,,,,,,,,,,,,,,,,,,,,,,,,,,,,0.66,0.514216184616,0.000868082046509,0.534385919571,1,a,1216.57560015,,,,,,,,,,,,,,,,,,,,,,,,,,,,,,,,,2015_Jul_02_1229,59.9789502585,LearningTask,1,74,
200,w,200,,,,,,,,,,,,,,,,,2,0,2,0,17,3,71,0,,,,,,,,,,,,,,,,,,,,,,,,,,,,,w,1,0.467767953873,None,0,1.0,invertedtriangleorange.gif,stop,,,,,,,,,,,,,,,,,,,,,,,,,,,,,,,,0.85,0.514112949371,0.000963926315308,0.467767953873,1,w,1219.57886791,,,,,,,,,,,,,,,,,,,,,,,,,,,,,,,,,2015_Jul_02_1229,59.9789502585,LearningTask,1,74,
200,w,200,,,,,,,,,,,,,,,,,2,0,2,0,18,0,72,0,,,,,,,,,,,,,,,,,,,,,,,,,,,,,w,1,0.467588186264,None,0,4.0,crosswhite.gif,stop,,,,,,,,,,,,,,,,,,,,,,,,,,,,,,,,4.16,0.514540910721,0.000874996185303,0.467588186264,1,w,1222.58231592,,,,,,,,,,,,,,,,,,,,,,,,,,,,,,,,,2015_Jul_02_1229,59.9789502585,LearningTask,1,74,
-200,a,-200,,,,,,,,,,,,,,,,,2,0,2,0,18,1,73,3,,,,,,,,,,,,,,,,,,,,,,,,,,,,,a,1,0.501034975052,None,0,2.0,trianglemagenta.gif,go,,,,,,,,,,,,,,,,,,,,,,,,,,,,,,,,2.11,0.514400959015,0.000874996185303,0.501034975052,1,a,1225.586061,,,,,,,,,,,,,,,,,,,,,,,,,,,,,,,,,2015_Jul_02_1229,59.9789502585,LearningTask,1,74,
-200,q,200,,,,,,,,,,,,,,,,,2,0,2,0,18,2,74,1,,,,,,,,,,,,,,,,,,,,,,,,,,,,,q,1,0.467158079147,None,0,0.5,squaregray.gif,go,,,,,,,,,,,,,,,,,,,,,,,,,,,,,,,,0.74,0.514271020889,0.000898838043213,0.467158079147,1,q,1228.58894992,,,,,,,,,,,,,,,,,,,,,,,,,,,,,,,,,2015_Jul_02_1229,59.9789502585,LearningTask,1,74,
-200,q,200,,,,,,,,,,,,,,,,,2,0,2,0,18,3,75,1,,,,,,,,,,,,,,,,,,,,,,,,,,,,,q,1,0.40097284317,None,0,0.5,squaregray.gif,go,,,,,,,,,,,,,,,,,,,,,,,,,,,,,,,,0.25,0.514545202255,0.000871181488037,0.40097284317,1,q,1231.59232903,,,,,,,,,,,,,,,,,,,,,,,,,,,,,,,,,2015_Jul_02_1229,59.9789502585,LearningTask,1,74,
-200,q,200,,,,,,,,,,,,,,,,,2,0,2,0,19,0,76,1,,,,,,,,,,,,,,,,,,,,,,,,,,,,,q,1,0.400916814804,None,0,4.0,lineyellow.gif,go,,,,,,,,,,,,,,,,,,,,,,,,,,,,,,,,3.96,0.514347076416,0.000881910324097,0.400916814804,1,q,1234.59604001,,,,,,,,,,,,,,,,,,,,,,,,,,,,,,,,,2015_Jul_02_1229,59.9789502585,LearningTask,1,74,
-200,q,200,,,,,,,,,,,,,,,,,2,0,2,0,19,1,77,1,,,,,,,,,,,,,,,,,,,,,,,,,,,,,q,1,0.401064157486,None,0,4.0,lineyellow.gif,go,,,,,,,,,,,,,,,,,,,,,,,,,,,,,,,,4.22,0.513808965683,0.000900030136108,0.401064157486,1,q,1237.59910798,,,,,,,,,,,,,,,,,,,,,,,,,,,,,,,,,2015_Jul_02_1229,59.9789502585,LearningTask,1,74,
-200,q,200,,,,,,,,,,,,,,,,,2,0,2,0,19,2,78,1,,,,,,,,,,,,,,,,,,,,,,,,,,,,,q,1,0.868413925171,None,0,1.0,diamondgreen.gif,go,,,,,,,,,,,,,,,,,,,,,,,,,,,,,,,,0.91,0.514406919479,0.000879049301147,0.868413925171,1,q,1240.602355,,,,,,,,,,,,,,,,,,,,,,,,,,,,,,,,,2015_Jul_02_1229,59.9789502585,LearningTask,1,74,
200,w,200,,,,,,,,,,,,,,,,,2,0,2,0,19,3,79,0,,,,,,,,,,,,,,,,,,,,,,,,,,,,,w,1,0.634288072586,None,0,1.0,diamondgreen.gif,go,,,,,,,,,,,,,,,,,,,,,,,,,,,,,,,,0.89,0.514440059662,0.000878095626831,0.634288072586,1,w,1243.60589814,,,,,,,,,,,,,,,,,,,,,,,,,,,,,,,,,2015_Jul_02_1229,59.9789502585,LearningTask,1,74,
-200,a,-200,,,,,,,,,,,,,,,,,2,0,2,0,20,0,80,3,,,,,,,,,,,,,,,,,,,,,,,,,,,,,a,1,0.685040950775,None,0,0.5,squaregray.gif,go,,,,,,,,,,,,,,,,,,,,,,,,,,,,,,,,0.51,0.513999938965,0.00113892555237,0.685040950775,1,a,1246.60912395,,,,,,,,,,,,,,,,,,,,,,,,,,,,,,,,,2015_Jul_02_1229,59.9789502585,LearningTask,1,74,
-200,q,200,,,,,,,,,,,,,,,,,2,0,2,0,20,1,81,1,,,,,,,,,,,,,,,,,,,,,,,,,,,,,q,1,0.484194993973,None,0,0.5,squaregray.gif,go,,,,,,,,,,,,,,,,,,,,,,,,,,,,,,,,0,0.51443696022,0.000880002975464,0.484194993973,1,q,1249.6124301,,,,,,,,,,,,,,,,,,,,,,,,,,,,,,,,,2015_Jul_02_1229,59.9789502585,LearningTask,1,74,
-200,q,200,,,,,,,,,,,,,,,,,2,0,2,0,20,2,82,1,,,,,,,,,,,,,,,,,,,,,,,,,,,,,q,1,0.400656938553,None,0,2.0,circlecyan.gif,stop,,,,,,,,,,,,,,,,,,,,,,,,,,,,,,,,1.98,0.514355897903,0.000877857208252,0.400656938553,1,q,1252.6161201,,,,,,,,,,,,,,,,,,,,,,,,,,,,,,,,,2015_Jul_02_1229,59.9789502585,LearningTask,1,74,
200,s,-200,,,,,,,,,,,,,,,,,2,0,2,0,20,3,83,2,,,,,,,,,,,,,,,,,,,,,,,,,,,,,s,1,0.617802858353,None,0,2.0,circlecyan.gif,stop,,,,,,,,,,,,,,,,,,,,,,,,,,,,,,,,1.93,0.513955116272,0.000874042510986,0.617802858353,1,s,1255.61936307,,,,,,,,,,,,,,,,,,,,,,,,,,,,,,,,,2015_Jul_02_1229,59.9789502585,LearningTask,1,74,
200,s,-200,,,,,,,,,,,,,,,,,2,0,2,0,21,0,84,2,,,,,,,,,,,,,,,,,,,,,,,,,,,,,s,1,0.451259851456,None,0,0.5,squaregray.gif,go,,,,,,,,,,,,,,,,,,,,,,,,,,,,,,,,0.25,0.513986110687,0.000961065292358,0.451259851456,1,s,1258.62288904,,,,,,,,,,,,,,,,,,,,,,,,,,,,,,,,,2015_Jul_02_1229,59.9789502585,LearningTask,1,74,
-200,a,-200,,,,,,,,,,,,,,,,,2,0,2,0,21,1,85,3,,,,,,,,,,,,,,,,,,,,,,,,,,,,,a,1,0.48418712616,None,0,1.0,invertedtriangleorange.gif,stop,,,,,,,,,,,,,,,,,,,,,,,,,,,,,,,,1.15,0.514131069183,0.000893115997314,0.48418712616,1,a,1261.62583399,,,,,,,,,,,,,,,,,,,,,,,,,,,,,,,,,2015_Jul_02_1229,59.9789502585,LearningTask,1,74,
-200,a,-200,,,,,,,,,,,,,,,,,2,0,2,0,21,2,86,3,,,,,,,,,,,,,,,,,,,,,,,,,,,,,a,1,0.417704105377,None,0,0.5,squaregray.gif,go,,,,,,,,,,,,,,,,,,,,,,,,,,,,,,,,0.65,0.514522075653,0.000877141952515,0.417704105377,1,a,1264.62926102,,,,,,,,,,,,,,,,,,,,,,,,,,,,,,,,,2015_Jul_02_1229,59.9789502585,LearningTask,1,74,
200,s,-200,,,,,,,,,,,,,,,,,2,0,2,0,21,3,87,2,,,,,,,,,,,,,,,,,,,,,,,,,,,,,s,1,0.484539031982,None,0,4.0,crosswhite.gif,stop,,,,,,,,,,,,,,,,,,,,,,,,,,,,,,,,3.75,0.514039993286,0.000936031341553,0.484539031982,1,s,1267.63264203,,,,,,,,,,,,,,,,,,,,,,,,,,,,,,,,,2015_Jul_02_1229,59.9789502585,LearningTask,1,74,
-200,a,-200,,,,,,,,,,,,,,,,,2,0,2,0,22,0,88,3,,,,,,,,,,,,,,,,,,,,,,,,,,,,,a,1,0.484735012054,None,0,2.0,trianglemagenta.gif,go,,,,,,,,,,,,,,,,,,,,,,,,,,,,,,,,1.79,0.514297008514,0.000920057296753,0.484735012054,1,a,1270.63615298,,,,,,,,,,,,,,,,,,,,,,,,,,,,,,,,,2015_Jul_02_1229,59.9789502585,LearningTask,1,74,
-200,q,200,,,,,,,,,,,,,,,,,2,0,2,0,22,1,89,1,,,,,,,,,,,,,,,,,,,,,,,,,,,,,q,1,0.484323978424,None,0,4.0,crosswhite.gif,stop,,,,,,,,,,,,,,,,,,,,,,,,,,,,,,,,0,0.514445066452,0.000884056091309,0.484323978424,1,q,1273.63939714,,,,,,,,,,,,,,,,,,,,,,,,,,,,,,,,,2015_Jul_02_1229,59.9789502585,LearningTask,1,74,
200,s,-200,,,,,,,,,,,,,,,,,2,0,2,0,22,2,90,2,,,,,,,,,,,,,,,,,,,,,,,,,,,,,s,1,0.417282819748,None,0,1.0,diamondgreen.gif,go,,,,,,,,,,,,,,,,,,,,,,,,,,,,,,,,1.05,0.514309167862,0.000923156738281,0.417282819748,1,s,1276.64257193,,,,,,,,,,,,,,,,,,,,,,,,,,,,,,,,,2015_Jul_02_1229,59.9789502585,LearningTask,1,74,
200,s,-200,,,,,,,,,,,,,,,,,2,0,2,0,22,3,91,2,,,,,,,,,,,,,,,,,,,,,,,,,,,,,s,1,0.467220067978,None,0,2.0,circlecyan.gif,stop,,,,,,,,,,,,,,,,,,,,,,,,,,,,,,,,2.17,0.514630079269,0.00090217590332,0.467220067978,1,s,1279.64606595,,,,,,,,,,,,,,,,,,,,,,,,,,,,,,,,,2015_Jul_02_1229,59.9789502585,LearningTask,1,74,
200,s,-200,,,,,,,,,,,,,,,,,2,0,2,0,23,0,92,2,,,,,,,,,,,,,,,,,,,,,,,,,,,,,s,1,0.351413965225,None,0,4.0,crosswhite.gif,stop,,,,,,,,,,,,,,,,,,,,,,,,,,,,,,,,4.16,0.514235973358,0.000881910324097,0.351413965225,1,s,1282.64961696,,,,,,,,,,,,,,,,,,,,,,,,,,,,,,,,,2015_Jul_02_1229,59.9789502585,LearningTask,1,74,
