xPos,corrAns,yPos,corrGoResp,yPosGoStim,xPosGoStim,pracTrials.thisRepN,pracTrials.thisTrialN,pracTrials.thisN,pracTrials.thisIndex,ReDoLoopPrac.thisRepN,ReDoLoopPrac.thisTrialN,ReDoLoopPrac.thisN,ReDoLoopPrac.thisIndex,ReDoLoopPrac.thisTrial,pracStopTrials.thisRepN,pracStopTrials.thisTrialN,pracStopTrials.thisN,pracStopTrials.thisIndex,Blocks.thisRepN,Blocks.thisTrialN,Blocks.thisN,Blocks.thisIndex,trials.thisRepN,trials.thisTrialN,trials.thisN,trials.thisIndex,ReDoLoopMain.thisRepN,ReDoLoopMain.thisTrialN,ReDoLoopMain.thisN,ReDoLoopMain.thisIndex,ReDoLoopMain.thisTrial,StopBlocks.thisRepN,StopBlocks.thisTrialN,StopBlocks.thisN,StopBlocks.thisIndex,StopTrials.thisRepN,StopTrials.thisTrialN,StopTrials.thisN,StopTrials.thisIndex,auctionBlocks.thisRepN,auctionBlocks.thisTrialN,auctionBlocks.thisN,auctionBlocks.thisIndex,auctionTrials.thisRepN,auctionTrials.thisTrialN,auctionTrials.thisN,auctionTrials.thisIndex,learningTrialList,learningPracTrialList,stopTrialList,stopPracTrialList,auctionTrialList,ok1.keys,ok1.rt,resp.keys,resp.corr,resp.rt,feedbackResp.keys,feedbackResp.corr,currentReward,currentStimulus,currentStimType,firstPracComputedRewardOutput,firstPracLearningStimOnset,firstPracLearningFixOnset,firstPracPresentationRT,firstPracPresentationAcc,firstPracPresentationResp,firstPracEndTrialTimeStamp,StartTrialTimeStamp,trialType,goStim,stimType,stopStimValue,goResp.keys,goResp.corr,goResp.rt,key_resp_9.keys,key_resp_9.corr,fixStopOnset,goStimOnset,EndTrialTimeStamp,stopSignalOnset,key_resp_9.rt,key_resp_3.keys,key_resp_3.rt,feedbackResp.rt,firstComputedRewardOutput,firstLearningStimOnset,firstLearningFixOnset,firstPresentationRT,firstPresentationAcc,firstPresentationResp,firstEndTrialTimeStamp,secondComputedRewardOutput,secondLearningStimOnset,secondLearningFixOnset,secondPresentationRT,secondPresentationAcc,secondPresentationResp,secondEndTrialTimeStamp,key_resp_7.keys,key_resp_7.rt,beginningSSD,EndingSSD,key_resp_4.keys,key_resp_4.rt,auctionResponse.keys,auctionStimDuration,auctionStim,auctionAmounts,auctionStimValue,auctionCondition,chosenAuctionAmount,auctionResponse.rt,key_resp_5.keys,key_resp_5.rt,shuffledRewardList,chosenReward1,chosenReward2,chosenReward3,chosenReward4,chosenReward5,key_resp_6.keys,key_resp_6.rt,date,frameRate,expName,session,participant,
,,,,,,,,,,,,,,,,,,,,,,,,,,,,,,,,,,,,,,,,,,,,,,,,[],[],[],[],[],9,45.4109840393,,,,,,,,,,,,,,,,,,,,,,,,,,,,,,,,,,,,,,,,,,,,,,,,,,,,,,,,,,,,,,,,,,,,,,,,2015_Jul_02_1354,59.8960392081,LearningTask,1,75,
-200,q,200,,,,0,0,0,5,,,,,,,,,,,,,,,,,,,,,,,,,,,,,,,,,,,,,,,,,,,,,,q,1,0.651147842407,None,0,1.0,circleorange.gif,stop,0.81,0.506187915802,0.0302081108093,0.651147842407,1,q,102.435075998,,,,,,,,,,,,,,,,,,,,,,,,,,,,,,,,,,,,,,,,,,,,,,,,,,,,,,,,,2015_Jul_02_1354,59.8960392081,LearningTask,1,75,
-200,a,-200,,,,0,1,1,7,,,,,,,,,,,,,,,,,,,,,,,,,,,,,,,,,,,,,,,,,,,,,,a,1,0.451194047928,None,0,4.0,crossblue.gif,stop,0,0.51464009285,0.0384418964386,0.451194047928,1,a,105.438057899,,,,,,,,,,,,,,,,,,,,,,,,,,,,,,,,,,,,,,,,,,,,,,,,,,,,,,,,,2015_Jul_02_1354,59.8960392081,LearningTask,1,75,
200,w,200,,,,0,2,2,8,,,,,,,,,,,,,,,,,,,,,,,,,,,,,,,,,,,,,,,,,,,,,,w,1,0.367469072342,None,0,2.0,linegray.gif,stop,2.25,0.514993906021,0.0493409633636,0.367469072342,1,w,108.44123292,,,,,,,,,,,,,,,,,,,,,,,,,,,,,,,,,,,,,,,,,,,,,,,,,,,,,,,,,2015_Jul_02_1354,59.8960392081,LearningTask,1,75,
200,w,200,,,,0,3,3,4,,,,,,,,,,,,,,,,,,,,,,,,,,,,,,,,,,,,,,,,,,,,,,w,1,0.384095191956,None,0,2.0,trianglemagenta.gif,go,2.09,0.5151450634,0.00156116485596,0.384095191956,1,w,111.444475889,,,,,,,,,,,,,,,,,,,,,,,,,,,,,,,,,,,,,,,,,,,,,,,,,,,,,,,,,2015_Jul_02_1354,59.8960392081,LearningTask,1,75,
200,s,-200,,,,0,4,4,2,,,,,,,,,,,,,,,,,,,,,,,,,,,,,,,,,,,,,,,,,,,,,,s,1,0.317395925522,None,0,4.0,squarewhite.gif,go,3.97,0.51563501358,0.0439488887787,0.317395925522,1,s,114.448304892,,,,,,,,,,,,,,,,,,,,,,,,,,,,,,,,,,,,,,,,,,,,,,,,,,,,,,,,,2015_Jul_02_1354,59.8960392081,LearningTask,1,75,
200,w,200,,,,0,5,5,0,,,,,,,,,,,,,,,,,,,,,,,,,,,,,,,,,,,,,,,,,,,,,,w,1,0.333898067474,None,0,2.0,trianglemagenta.gif,go,1.9,0.514348983765,0.00100803375244,0.333898067474,1,w,117.45132494,,,,,,,,,,,,,,,,,,,,,,,,,,,,,,,,,,,,,,,,,,,,,,,,,,,,,,,,,2015_Jul_02_1354,59.8960392081,LearningTask,1,75,
-200,q,200,,,,0,6,6,9,,,,,,,,,,,,,,,,,,,,,,,,,,,,,,,,,,,,,,,,,,,,,,q,1,0.367886066437,None,0,1.0,invertedtrianglegreen.gif,go,1.04,0.515259981155,0.0365009307861,0.367886066437,1,q,120.454941988,,,,,,,,,,,,,,,,,,,,,,,,,,,,,,,,,,,,,,,,,,,,,,,,,,,,,,,,,2015_Jul_02_1354,59.8960392081,LearningTask,1,75,
200,s,-200,,,,0,7,7,6,,,,,,,,,,,,,,,,,,,,,,,,,,,,,,,,,,,,,,,,,,,,,,s,1,0.334624052048,None,0,2.0,trianglemagenta.gif,go,1.85,0.514961004257,0.000887870788574,0.334624052048,1,s,123.45823288,,,,,,,,,,,,,,,,,,,,,,,,,,,,,,,,,,,,,,,,,,,,,,,,,,,,,,,,,2015_Jul_02_1354,59.8960392081,LearningTask,1,75,
-200,q,200,,,,0,8,8,1,,,,,,,,,,,,,,,,,,,,,,,,,,,,,,,,,,,,,,,,,,,,,,q,1,0.384110927582,None,0,1.0,circleorange.gif,stop,0.77,0.514672994614,0.000946998596191,0.384110927582,1,q,126.461257935,,,,,,,,,,,,,,,,,,,,,,,,,,,,,,,,,,,,,,,,,,,,,,,,,,,,,,,,,2015_Jul_02_1354,59.8960392081,LearningTask,1,75,
-200,a,-200,,,,0,9,9,3,,,,,,,,,,,,,,,,,,,,,,,,,,,,,,,,,,,,,,,,,,,,,,a,1,0.384557008743,None,0,0.5,diamondyellow.gif,stop,0,0.515444993973,0.0155282020569,0.384557008743,1,a,129.464751959,,,,,,,,,,,,,,,,,,,,,,,,,,,,,,,,,,,,,,,,,,,,,,,,,,,,,,,,,2015_Jul_02_1354,59.8960392081,LearningTask,1,75,
,,,z,0,-200,,,,,,,,,,0,0,0,0,,,,,,,,,,,,,,,,,,,,,,,,,,,,,,,,,,,,,,,,,,,,,,,,,,,,174.829706907,go,invertedtrianglegreen.gif,go,1.0,z,1,0.400906801224,None,0,0.00133299827576,0.50137591362,177.83541584,,,,,,,,,,,,,,,,,,,,,,,,,,,,,,,,,,,,,,,,,,,,2015_Jul_02_1354,59.8960392081,LearningTask,1,75,
,,,m,0,200,,,,,,,,,,0,1,1,1,,,,,,,,,,,,,,,,,,,,,,,,,,,,,,,,,,,,,,,,,,,,,,,,,,,,177.835811853,go,trianglemagenta.gif,go,2.0,m,1,0.317745923996,None,0,0.00104904174805,0.515646219254,180.838649988,,,,,,,,,,,,,,,,,,,,,,,,,,,,,,,,,,,,,,,,,,,,2015_Jul_02_1354,59.8960392081,LearningTask,1,75,
,,,m,0,200,,,,,,,,,,1,0,2,1,,,,,,,,,,,,,,,,,,,,,,,,,,,,,,,,,,,,,,,,,,,,,,,,,,,,180.839020967,go,squarewhite.gif,go,4.0,m,1,0.350464105606,None,0,0.000960826873779,0.516486883163,183.842206001,,,,,,,,,,,,,,,,,,,,,,,,,,,,,,,,,,,,,,,,,,,,2015_Jul_02_1354,59.8960392081,LearningTask,1,75,
,,,z,0,-200,,,,,,,,,,1,1,3,0,,,,,,,,,,,,,,,,,,,,,,,,,,,,,,,,,,,,,,,,,,,,,,,,,,,,183.84262085,stop,linegray.gif,stop,2.0,z,1,0.668061971664,None,0,0.000955104827881,0.515429973602,186.845496893,0.765910148621,,,,,,,,,,,,,,,,,,,,,,,,,,,,,,,,,,,,,,,,,,,2015_Jul_02_1354,59.8960392081,LearningTask,1,75,
,,,m,0,200,,,,,,,,,,2,0,4,1,,,,,,,,,,,,,,,,,,,,,,,,,,,,,,,,,,,,,,,,,,,,,,,,,,,,186.845876932,stop,diamondyellow.gif,stop,0.5,m,1,0.400115013123,None,0,0.00110483169556,0.515980958939,189.848726988,0.765983819962,,,,,,,,,,,,,,,,,,,,,,,,,,,,,,,,,,,,,,,,,,,2015_Jul_02_1354,59.8960392081,LearningTask,1,75,
,,,m,0,200,,,,,,,,,,2,1,5,1,,,,,,,,,,,,,,,,,,,,,,,,,,,,,,,,,,,,,,,,,,,,,,,,,,,,189.849100828,go,invertedtrianglegreen.gif,go,1.0,m,1,0.451560020447,None,0,0.000995874404907,0.515742063522,192.852107048,,,,,,,,,,,,,,,,,,,,,,,,,,,,,,,,,,,,,,,,,,,,2015_Jul_02_1354,59.8960392081,LearningTask,1,75,
,,,z,0,-200,,,,,,,,,,3,0,6,0,,,,,,,,,,,,,,,,,,,,,,,,,,,,,,,,,,,,,,,,,,,,,,,,,,,,192.852520943,go,invertedtrianglegreen.gif,go,1.0,z,1,0.500746965408,None,0,0.000955820083618,0.51576590538,195.85519886,,,,,,,,,,,,,,,,,,,,,,,,,,,,,,,,,,,,,,,,,,,,2015_Jul_02_1354,59.8960392081,LearningTask,1,75,
,,,m,0,200,,,,,,,,,,3,1,7,1,,,,,,,,,,,,,,,,,,,,,,,,,,,,,,,,,,,,,,,,,,,,,,,,,,,,195.855561018,stop,crossblue.gif,stop,4.0,None,0,,None,0,0.0013439655304,0.51605796814,198.859529972,0.766451120377,,,,,,,,,,,,,,,,,,,,,,,,,,,,,,,,,,,,,,,,,,,2015_Jul_02_1354,59.8960392081,LearningTask,1,75,
,,,z,0,-200,,,,,,,,,,4,0,8,0,,,,,,,,,,,,,,,,,,,,,,,,,,,,,,,,,,,,,,,,,,,,,,,,,,,,198.859895945,go,trianglemagenta.gif,go,2.0,None,0,,z,1,0.000973224639893,0.515107154846,201.862366915,,0.0332221984863,,,,,,,,,,,,,,,,,,,,,,,,,,,,,,,,,,,,,,,,,,2015_Jul_02_1354,59.8960392081,LearningTask,1,75,
,,,z,0,-200,,,,,,,,,,4,1,9,0,,,,,,,,,,,,,,,,,,,,,,,,,,,,,,,,,,,,,,,,,,,,,,,,,,,,201.862764835,stop,circleorange.gif,stop,1.0,z,1,0.517549037933,None,0,0.000947952270508,0.515801906586,204.865620852,0.765568971634,,,,,,,,,,,,,,,,,,,,,,,,,,,,,,,,,,,,,,,,,,,2015_Jul_02_1354,59.8960392081,LearningTask,1,75,
,,,,,,,,,,,,,,,,,,,,,,,,,,,,,,,,,,,,,,,,,,,,,,,,,,,,,,,,,,,,,,,,,,,,,,,,,,,,,,,,,,,,,9,5.29753303528,,,,,,,,,,,,,,,,,,,,,,,,,,,,,,,,,,,,,,,,2015_Jul_02_1354,59.8960392081,LearningTask,1,75,
,,,,,,,,,,,,,,,,,,,,,,,,,,,,,,,,,,,,,,,,,,,,,,,,,,,,,9,12.5480871201,,,,,,,,,,,,,,,,,,,,,,,,,,,,,,,,,,,,,,,,,,,,,,,,,,,,,,,,,,,,,,,,,,,,,,,,2015_Jul_02_1354,59.8960392081,LearningTask,1,75,
-200,q,200,,,,,,,,,,,,,,,,,0,0,0,0,0,0,0,1,,,,,,,,,,,,,,,,,,,,,,,,,,,,,q,1,0.417586088181,None,0,2.0,trianglemagenta.gif,go,,,,,,,,,,,,,,,,,,,,,,,,,0.343225002289,0,0.508245944977,0.000900983810425,[],0,None,225.890120029,2.22,0.515052080154,0.000941038131714,0.417586088181,1,q,228.893254995,,,,,,,,,,,,,,,,,,,,,,,,,2015_Jul_02_1354,59.8960392081,LearningTask,1,75,
-200,a,-200,,,,,,,,,,,,,,,,,0,0,0,0,0,1,1,3,,,,,,,,,,,,,,,,,,,,,,,,,,,,,a,1,0.317608118057,None,0,1.0,invertedtrianglegreen.gif,go,,,,,,,,,,,,,,,,,,,,,,,,,,0.94,0.514156103134,0.000907182693481,0.317608118057,1,a,231.896642923,,,,,,,,,,,,,,,,,,,,,,,,,,,,,,,,2015_Jul_02_1354,59.8960392081,LearningTask,1,75,
200,s,-200,,,,,,,,,,,,,,,,,0,0,0,0,0,2,2,2,,,,,,,,,,,,,,,,,,,,,,,,,,,,,s,1,0.351448059082,None,0,1.0,invertedtrianglegreen.gif,go,,,,,,,,,,,,,,,,,,,,,,,,,,1.08,0.513643026352,0.000900030136108,0.351448059082,1,s,234.900593996,,,,,,,,,,,,,,,,,,,,,,,,,,,,,,,,2015_Jul_02_1354,59.8960392081,LearningTask,1,75,
-200,a,-200,,,,,,,,,,,,,,,,,0,0,0,0,0,3,3,3,,,,,,,,,,,,,,,,,,,,,,,,,,,,,a,1,0.317327976227,None,0,1.0,circleorange.gif,stop,,,,,,,,,,,,,,,,,,,,,,,,,,0.89,0.513926029205,0.00104308128357,0.317327976227,1,a,237.903177023,,,,,,,,,,,,,,,,,,,,,,,,,,,,,,,,2015_Jul_02_1354,59.8960392081,LearningTask,1,75,
200,w,200,,,,,,,,,,,,,,,,,0,0,0,0,1,0,4,0,,,,,,,,,,,,,,,,,,,,,,,,,,,,,w,1,0.350740909576,None,0,0.5,hexagoncyan.gif,go,,,,,,,,,,,,,,,,,,,,,,,,,,0.52,0.51430106163,0.0354819297791,0.350740909576,1,w,240.906648874,,,,,,,,,,,,,,,,,,,,,,,,,,,,,,,,2015_Jul_02_1354,59.8960392081,LearningTask,1,75,
200,w,200,,,,,,,,,,,,,,,,,0,0,0,0,1,1,5,0,,,,,,,,,,,,,,,,,,,,,,,,,,,,,w,1,0.351045846939,None,0,4.0,crossblue.gif,stop,,,,,,,,,,,,,,,,,,,,,,,,,,3.84,0.51419711113,0.000888109207153,0.351045846939,1,w,243.909993887,,,,,,,,,,,,,,,,,,,,,,,,,,,,,,,,2015_Jul_02_1354,59.8960392081,LearningTask,1,75,
200,s,-200,,,,,,,,,,,,,,,,,0,0,0,0,1,2,6,2,,,,,,,,,,,,,,,,,,,,,,,,,,,,,s,1,0.317800045013,None,0,4.0,squarewhite.gif,go,,,,,,,,,,,,,,,,,,,,,,,,,,3.86,0.513989210129,0.00107908248901,0.317800045013,1,s,246.91306901,,,,,,,,,,,,,,,,,,,,,,,,,,,,,,,,2015_Jul_02_1354,59.8960392081,LearningTask,1,75,
200,s,-200,,,,,,,,,,,,,,,,,0,0,0,0,1,3,7,2,,,,,,,,,,,,,,,,,,,,,,,,,,,,,s,1,0.317276954651,None,0,0.5,diamondyellow.gif,stop,,,,,,,,,,,,,,,,,,,,,,,,,,0.73,0.514852046967,0.00090503692627,0.317276954651,1,s,249.916867018,,,,,,,,,,,,,,,,,,,,,,,,,,,,,,,,2015_Jul_02_1354,59.8960392081,LearningTask,1,75,
-200,q,200,,,,,,,,,,,,,,,,,0,0,0,0,2,0,8,1,,,,,,,,,,,,,,,,,,,,,,,,,,,,,q,1,0.366991996765,None,0,0.5,hexagoncyan.gif,go,,,,,,,,,,,,,,,,,,,,,,,,,,0.38,0.514248847961,0.000918865203857,0.366991996765,1,q,252.920140982,,,,,,,,,,,,,,,,,,,,,,,,,,,,,,,,2015_Jul_02_1354,59.8960392081,LearningTask,1,75,
-200,q,200,,,,,,,,,,,,,,,,,0,0,0,0,2,1,9,1,,,,,,,,,,,,,,,,,,,,,,,,,,,,,q,1,0.367540121078,None,0,4.0,crossblue.gif,stop,,,,,,,,,,,,,,,,,,,,,,,,,,3.77,0.513805866241,0.000950813293457,0.367540121078,1,q,255.923328876,,,,,,,,,,,,,,,,,,,,,,,,,,,,,,,,2015_Jul_02_1354,59.8960392081,LearningTask,1,75,
200,s,-200,,,,,,,,,,,,,,,,,0,0,0,0,2,2,10,2,,,,,,,,,,,,,,,,,,,,,,,,,,,,,s,1,0.333695888519,None,0,1.0,circleorange.gif,stop,,,,,,,,,,,,,,,,,,,,,,,,,,0.95,0.514688968658,0.00090503692627,0.333695888519,1,s,258.926730871,,,,,,,,,,,,,,,,,,,,,,,,,,,,,,,,2015_Jul_02_1354,59.8960392081,LearningTask,1,75,
-200,q,200,,,,,,,,,,,,,,,,,0,0,0,0,2,3,11,1,,,,,,,,,,,,,,,,,,,,,,,,,,,,,q,1,0.350747823715,None,0,2.0,trianglemagenta.gif,go,,,,,,,,,,,,,,,,,,,,,,,,,,2.08,0.51433801651,0.000900030136108,0.350747823715,1,q,261.930058002,,,,,,,,,,,,,,,,,,,,,,,,,,,,,,,,2015_Jul_02_1354,59.8960392081,LearningTask,1,75,
200,w,200,,,,,,,,,,,,,,,,,0,0,0,0,3,0,12,0,,,,,,,,,,,,,,,,,,,,,,,,,,,,,w,1,0.301225185394,None,0,0.5,hexagoncyan.gif,go,,,,,,,,,,,,,,,,,,,,,,,,,,0,0.513931035995,0.000924110412598,0.301225185394,1,w,264.93333602,,,,,,,,,,,,,,,,,,,,,,,,,,,,,,,,2015_Jul_02_1354,59.8960392081,LearningTask,1,75,
-200,a,-200,,,,,,,,,,,,,,,,,0,0,0,0,3,1,13,3,,,,,,,,,,,,,,,,,,,,,,,,,,,,,a,1,0.283969163895,None,0,1.0,invertedtrianglegreen.gif,go,,,,,,,,,,,,,,,,,,,,,,,,,,1.2,0.514650821686,0.000966787338257,0.283969163895,1,a,267.936949015,,,,,,,,,,,,,,,,,,,,,,,,,,,,,,,,2015_Jul_02_1354,59.8960392081,LearningTask,1,75,
-200,a,-200,,,,,,,,,,,,,,,,,0,0,0,0,3,2,14,3,,,,,,,,,,,,,,,,,,,,,,,,,,,,,a,1,0.333944797516,None,0,2.0,linegray.gif,stop,,,,,,,,,,,,,,,,,,,,,,,,,,0,0.514269113541,0.000913143157959,0.3341319561,0,q,270.940045834,0,0.515408992767,0.000982999801636,0.333944797516,1,a,273.943382978,,,,,,,,,,,,,,,,,,,,,,,,,2015_Jul_02_1354,59.8960392081,LearningTask,1,75,
-200,q,200,,,,,,,,,,,,,,,,,0,0,0,0,3,3,15,1,,,,,,,,,,,,,,,,,,,,,,,,,,,,,q,1,0.317248106003,None,0,1.0,circleorange.gif,stop,,,,,,,,,,,,,,,,,,,,,,,,,,0,0.514308929443,0.000972986221313,0.317248106003,1,q,276.946856976,,,,,,,,,,,,,,,,,,,,,,,,,,,,,,,,2015_Jul_02_1354,59.8960392081,LearningTask,1,75,
-200,a,-200,,,,,,,,,,,,,,,,,0,0,0,0,4,0,16,3,,,,,,,,,,,,,,,,,,,,,,,,,,,,,a,1,0.301025867462,None,0,0.5,hexagoncyan.gif,go,,,,,,,,,,,,,,,,,,,,,,,,,,0.26,0.51410984993,0.000901937484741,0.301025867462,1,a,279.950578928,,,,,,,,,,,,,,,,,,,,,,,,,,,,,,,,2015_Jul_02_1354,59.8960392081,LearningTask,1,75,
-200,a,-200,,,,,,,,,,,,,,,,,0,0,0,0,4,1,17,3,,,,,,,,,,,,,,,,,,,,,,,,,,,,,a,1,0.301004171371,None,0,2.0,linegray.gif,stop,,,,,,,,,,,,,,,,,,,,,,,,,,1.87,0.513640880585,0.000916004180908,0.301004171371,1,a,282.953482866,,,,,,,,,,,,,,,,,,,,,,,,,,,,,,,,2015_Jul_02_1354,59.8960392081,LearningTask,1,75,
200,w,200,,,,,,,,,,,,,,,,,0,0,0,0,4,2,18,0,,,,,,,,,,,,,,,,,,,,,,,,,,,,,w,1,0.317564964294,None,0,2.0,linegray.gif,stop,,,,,,,,,,,,,,,,,,,,,,,,,,2.11,0.514173030853,0.000890016555786,0.317564964294,1,w,285.956851959,,,,,,,,,,,,,,,,,,,,,,,,,,,,,,,,2015_Jul_02_1354,59.8960392081,LearningTask,1,75,
200,s,-200,,,,,,,,,,,,,,,,,0,0,0,0,4,3,19,2,,,,,,,,,,,,,,,,,,,,,,,,,,,,,s,1,0.30068898201,None,0,2.0,trianglemagenta.gif,go,,,,,,,,,,,,,,,,,,,,,,,,,,2.06,0.514256954193,0.000900983810425,0.30068898201,1,s,288.96043992,,,,,,,,,,,,,,,,,,,,,,,,,,,,,,,,2015_Jul_02_1354,59.8960392081,LearningTask,1,75,
-200,q,200,,,,,,,,,,,,,,,,,0,0,0,0,5,0,20,1,,,,,,,,,,,,,,,,,,,,,,,,,,,,,q,1,0.301012992859,None,0,0.5,hexagoncyan.gif,go,,,,,,,,,,,,,,,,,,,,,,,,,,0.38,0.514029026031,0.000917911529541,0.301012992859,1,q,291.963510036,,,,,,,,,,,,,,,,,,,,,,,,,,,,,,,,2015_Jul_02_1354,59.8960392081,LearningTask,1,75,
-200,q,200,,,,,,,,,,,,,,,,,0,0,0,0,5,1,21,1,,,,,,,,,,,,,,,,,,,,,,,,,,,,,q,1,0.401530981064,None,0,2.0,linegray.gif,stop,,,,,,,,,,,,,,,,,,,,,,,,,,2.06,0.514362096786,0.000910997390747,0.401530981064,1,q,294.966742039,,,,,,,,,,,,,,,,,,,,,,,,,,,,,,,,2015_Jul_02_1354,59.8960392081,LearningTask,1,75,
200,s,-200,,,,,,,,,,,,,,,,,0,0,0,0,5,2,22,2,,,,,,,,,,,,,,,,,,,,,,,,,,,,,s,1,0.317508935928,None,0,4.0,squarewhite.gif,go,,,,,,,,,,,,,,,,,,,,,,,,,,4.13,0.514513015747,0.000885009765625,0.317508935928,1,s,297.970372915,,,,,,,,,,,,,,,,,,,,,,,,,,,,,,,,2015_Jul_02_1354,59.8960392081,LearningTask,1,75,
-200,a,-200,,,,,,,,,,,,,,,,,0,0,0,0,5,3,23,3,,,,,,,,,,,,,,,,,,,,,,,,,,,,,a,1,0.317162036896,None,0,2.0,linegray.gif,stop,,,,,,,,,,,,,,,,,,,,,,,,,,2.09,0.514597177505,0.000891208648682,0.317162036896,1,a,300.973867893,,,,,,,,,,,,,,,,,,,,,,,,,,,,,,,,2015_Jul_02_1354,59.8960392081,LearningTask,1,75,
200,w,200,,,,,,,,,,,,,,,,,0,0,0,0,6,0,24,0,,,,,,,,,,,,,,,,,,,,,,,,,,,,,w,1,0.317543029785,None,0,4.0,crossblue.gif,stop,,,,,,,,,,,,,,,,,,,,,,,,,,4.21,0.513915061951,0.00103807449341,0.317543029785,1,w,303.976980925,,,,,,,,,,,,,,,,,,,,,,,,,,,,,,,,2015_Jul_02_1354,59.8960392081,LearningTask,1,75,
200,s,-200,,,,,,,,,,,,,,,,,0,0,0,0,6,1,25,2,,,,,,,,,,,,,,,,,,,,,,,,,,,,,s,1,0.317455053329,None,0,0.5,diamondyellow.gif,stop,,,,,,,,,,,,,,,,,,,,,,,,,,0.6,0.514243841171,0.000895977020264,0.317455053329,1,s,306.980291843,,,,,,,,,,,,,,,,,,,,,,,,,,,,,,,,2015_Jul_02_1354,59.8960392081,LearningTask,1,75,
200,s,-200,,,,,,,,,,,,,,,,,0,0,0,0,6,2,26,2,,,,,,,,,,,,,,,,,,,,,,,,,,,,,s,1,0.367835044861,None,0,1.0,circleorange.gif,stop,,,,,,,,,,,,,,,,,,,,,,,,,,0.86,0.514105796814,0.000931978225708,0.367835044861,1,s,309.983690977,,,,,,,,,,,,,,,,,,,,,,,,,,,,,,,,2015_Jul_02_1354,59.8960392081,LearningTask,1,75,
200,s,-200,,,,,,,,,,,,,,,,,0,0,0,0,6,3,27,2,,,,,,,,,,,,,,,,,,,,,,,,,,,,,s,1,0.334362030029,None,0,2.0,linegray.gif,stop,,,,,,,,,,,,,,,,,,,,,,,,,,2.04,0.514014005661,0.000940084457397,0.334362030029,1,s,312.987090826,,,,,,,,,,,,,,,,,,,,,,,,,,,,,,,,2015_Jul_02_1354,59.8960392081,LearningTask,1,75,
200,w,200,,,,,,,,,,,,,,,,,0,0,0,0,7,0,28,0,,,,,,,,,,,,,,,,,,,,,,,,,,,,,w,1,0.284455060959,None,0,4.0,crossblue.gif,stop,,,,,,,,,,,,,,,,,,,,,,,,,,3.88,0.51425409317,0.0010461807251,0.284455060959,1,w,315.990706921,,,,,,,,,,,,,,,,,,,,,,,,,,,,,,,,2015_Jul_02_1354,59.8960392081,LearningTask,1,75,
-200,a,-200,,,,,,,,,,,,,,,,,0,0,0,0,7,1,29,3,,,,,,,,,,,,,,,,,,,,,,,,,,,,,a,1,0.40096616745,None,0,0.5,diamondyellow.gif,stop,,,,,,,,,,,,,,,,,,,,,,,,,,0.66,0.514140844345,0.00090479850769,0.40096616745,1,a,318.99384284,,,,,,,,,,,,,,,,,,,,,,,,,,,,,,,,2015_Jul_02_1354,59.8960392081,LearningTask,1,75,
-200,q,200,,,,,,,,,,,,,,,,,0,0,0,0,7,2,30,1,,,,,,,,,,,,,,,,,,,,,,,,,,,,,q,1,0.33424115181,None,0,4.0,squarewhite.gif,go,,,,,,,,,,,,,,,,,,,,,,,,,,3.97,0.514010190964,0.000913143157959,0.33424115181,1,q,321.997068882,,,,,,,,,,,,,,,,,,,,,,,,,,,,,,,,2015_Jul_02_1354,59.8960392081,LearningTask,1,75,
-200,q,200,,,,,,,,,,,,,,,,,0,0,0,0,7,3,31,1,,,,,,,,,,,,,,,,,,,,,,,,,,,,,q,1,0.334190130234,None,0,0.5,hexagoncyan.gif,go,,,,,,,,,,,,,,,,,,,,,,,,,,0.59,0.514328956604,0.000931978225708,0.334190130234,1,q,325.00040102,,,,,,,,,,,,,,,,,,,,,,,,,,,,,,,,2015_Jul_02_1354,59.8960392081,LearningTask,1,75,
200,s,-200,,,,,,,,,,,,,,,,,0,0,0,0,8,0,32,2,,,,,,,,,,,,,,,,,,,,,,,,,,,,,s,1,0.284085035324,None,0,2.0,linegray.gif,stop,,,,,,,,,,,,,,,,,,,,,,,,,,2.17,0.514420032501,0.000898122787476,0.284085035324,1,s,328.003963947,,,,,,,,,,,,,,,,,,,,,,,,,,,,,,,,2015_Jul_02_1354,59.8960392081,LearningTask,1,75,
-200,a,-200,,,,,,,,,,,,,,,,,0,0,0,0,8,1,33,3,,,,,,,,,,,,,,,,,,,,,,,,,,,,,a,1,0.300718069077,None,0,0.5,hexagoncyan.gif,go,,,,,,,,,,,,,,,,,,,,,,,,,,0.63,0.514080047607,0.00108289718628,0.300718069077,1,a,331.007554054,,,,,,,,,,,,,,,,,,,,,,,,,,,,,,,,2015_Jul_02_1354,59.8960392081,LearningTask,1,75,
200,s,-200,,,,,,,,,,,,,,,,,0,0,0,0,8,2,34,2,,,,,,,,,,,,,,,,,,,,,,,,,,,,,s,1,0.30046582222,None,0,1.0,circleorange.gif,stop,,,,,,,,,,,,,,,,,,,,,,,,,,0.92,0.514073848724,0.000977993011475,0.30046582222,1,s,334.010607004,,,,,,,,,,,,,,,,,,,,,,,,,,,,,,,,2015_Jul_02_1354,59.8960392081,LearningTask,1,75,
-200,a,-200,,,,,,,,,,,,,,,,,0,0,0,0,8,3,35,3,,,,,,,,,,,,,,,,,,,,,,,,,,,,,a,1,0.333899021149,None,0,2.0,linegray.gif,stop,,,,,,,,,,,,,,,,,,,,,,,,,,2.19,0.514446973801,0.000909090042114,0.333899021149,1,a,337.014024019,,,,,,,,,,,,,,,,,,,,,,,,,,,,,,,,2015_Jul_02_1354,59.8960392081,LearningTask,1,75,
200,s,-200,,,,,,,,,,,,,,,,,0,0,0,0,9,0,36,2,,,,,,,,,,,,,,,,,,,,,,,,,,,,,s,1,0.334344863892,None,0,0.5,hexagoncyan.gif,go,,,,,,,,,,,,,,,,,,,,,,,,,,0.54,0.514276981354,0.000901937484741,0.334344863892,1,s,340.017333031,,,,,,,,,,,,,,,,,,,,,,,,,,,,,,,,2015_Jul_02_1354,59.8960392081,LearningTask,1,75,
-200,a,-200,,,,,,,,,,,,,,,,,0,0,0,0,9,1,37,3,,,,,,,,,,,,,,,,,,,,,,,,,,,,,a,1,0.334211111069,None,0,2.0,trianglemagenta.gif,go,,,,,,,,,,,,,,,,,,,,,,,,,,2.18,0.514102935791,0.00102996826172,0.334211111069,1,a,343.020508051,,,,,,,,,,,,,,,,,,,,,,,,,,,,,,,,2015_Jul_02_1354,59.8960392081,LearningTask,1,75,
200,w,200,,,,,,,,,,,,,,,,,0,0,0,0,9,2,38,0,,,,,,,,,,,,,,,,,,,,,,,,,,,,,w,1,0.384140014648,None,0,4.0,squarewhite.gif,go,,,,,,,,,,,,,,,,,,,,,,,,,,3.83,0.514433145523,0.000895023345947,0.384140014648,1,w,346.02403903,,,,,,,,,,,,,,,,,,,,,,,,,,,,,,,,2015_Jul_02_1354,59.8960392081,LearningTask,1,75,
200,w,200,,,,,,,,,,,,,,,,,0,0,0,0,9,3,39,0,,,,,,,,,,,,,,,,,,,,,,,,,,,,,w,1,0.350550889969,None,0,1.0,invertedtrianglegreen.gif,go,,,,,,,,,,,,,,,,,,,,,,,,,,1.1,0.514457941055,0.0011420249939,0.350550889969,1,w,349.027441978,,,,,,,,,,,,,,,,,,,,,,,,,,,,,,,,2015_Jul_02_1354,59.8960392081,LearningTask,1,75,
-200,a,-200,,,,,,,,,,,,,,,,,0,0,0,0,10,0,40,3,,,,,,,,,,,,,,,,,,,,,,,,,,,,,a,1,0.350838899612,None,0,4.0,squarewhite.gif,go,,,,,,,,,,,,,,,,,,,,,,,,,,0,0.514024972916,0.000941038131714,0.350838899612,1,a,352.030870914,,,,,,,,,,,,,,,,,,,,,,,,,,,,,,,,2015_Jul_02_1354,59.8960392081,LearningTask,1,75,
200,w,200,,,,,,,,,,,,,,,,,0,0,0,0,10,1,41,0,,,,,,,,,,,,,,,,,,,,,,,,,,,,,w,1,0.317565917969,None,0,0.5,hexagoncyan.gif,go,,,,,,,,,,,,,,,,,,,,,,,,,,0.67,0.514183998108,0.000931978225708,0.317565917969,1,w,355.034139872,,,,,,,,,,,,,,,,,,,,,,,,,,,,,,,,2015_Jul_02_1354,59.8960392081,LearningTask,1,75,
-200,q,200,,,,,,,,,,,,,,,,,0,0,0,0,10,2,42,1,,,,,,,,,,,,,,,,,,,,,,,,,,,,,q,1,0.384895086288,None,0,4.0,crossblue.gif,stop,,,,,,,,,,,,,,,,,,,,,,,,,,0,0.514279842377,0.000903844833374,0.350941181183,0,a,358.037526846,0,0.515250921249,0.00109696388245,0.384895086288,1,q,361.040814877,,,,,,,,,,,,,,,,,,,,,,,,,2015_Jul_02_1354,59.8960392081,LearningTask,1,75,
200,s,-200,,,,,,,,,,,,,,,,,0,0,0,0,10,3,43,2,,,,,,,,,,,,,,,,,,,,,,,,,,,,,s,1,0.334234952927,None,0,2.0,linegray.gif,stop,,,,,,,,,,,,,,,,,,,,,,,,,,2.16,0.514260053635,0.000986099243164,0.334234952927,1,s,364.044395924,,,,,,,,,,,,,,,,,,,,,,,,,,,,,,,,2015_Jul_02_1354,59.8960392081,LearningTask,1,75,
200,s,-200,,,,,,,,,,,,,,,,,0,0,0,0,11,0,44,2,,,,,,,,,,,,,,,,,,,,,,,,,,,,,s,1,0.384423017502,None,0,4.0,squarewhite.gif,go,,,,,,,,,,,,,,,,,,,,,,,,,,4.06,0.514131069183,0.000900983810425,0.384423017502,1,s,367.047559023,,,,,,,,,,,,,,,,,,,,,,,,,,,,,,,,2015_Jul_02_1354,59.8960392081,LearningTask,1,75,
200,w,200,,,,,,,,,,,,,,,,,0,0,0,0,11,1,45,0,,,,,,,,,,,,,,,,,,,,,,,,,,,,,w,1,0.350776195526,None,0,2.0,linegray.gif,stop,,,,,,,,,,,,,,,,,,,,,,,,,,1.75,0.514068841934,0.000931978225708,0.350776195526,1,w,370.050746918,,,,,,,,,,,,,,,,,,,,,,,,,,,,,,,,2015_Jul_02_1354,59.8960392081,LearningTask,1,75,
200,w,200,,,,,,,,,,,,,,,,,0,0,0,0,11,2,46,0,,,,,,,,,,,,,,,,,,,,,,,,,,,,,w,1,0.317979097366,None,0,2.0,trianglemagenta.gif,go,,,,,,,,,,,,,,,,,,,,,,,,,,1.77,0.514307022095,0.00095009803772,0.317979097366,1,w,373.054100037,,,,,,,,,,,,,,,,,,,,,,,,,,,,,,,,2015_Jul_02_1354,59.8960392081,LearningTask,1,75,
200,w,200,,,,,,,,,,,,,,,,,0,0,0,0,11,3,47,0,,,,,,,,,,,,,,,,,,,,,,,,,,,,,w,1,0.334178924561,None,0,4.0,crossblue.gif,stop,,,,,,,,,,,,,,,,,,,,,,,,,,4.02,0.514427900314,0.000900030136108,0.334178924561,1,w,376.057997942,,,,,,,,,,,,,,,,,,,,,,,,,,,,,,,,2015_Jul_02_1354,59.8960392081,LearningTask,1,75,
200,s,-200,,,,,,,,,,,,,,,,,0,0,0,0,12,0,48,2,,,,,,,,,,,,,,,,,,,,,,,,,,,,,s,1,0.284047842026,None,0,0.5,hexagoncyan.gif,go,,,,,,,,,,,,,,,,,,,,,,,,,,0.44,0.513723134995,0.000916957855225,0.284047842026,1,s,379.061130047,,,,,,,,,,,,,,,,,,,,,,,,,,,,,,,,2015_Jul_02_1354,59.8960392081,LearningTask,1,75,
200,s,-200,,,,,,,,,,,,,,,,,0,0,0,0,12,1,49,2,,,,,,,,,,,,,,,,,,,,,,,,,,,,,s,1,0.35079407692,None,0,1.0,invertedtrianglegreen.gif,go,,,,,,,,,,,,,,,,,,,,,,,,,,1.02,0.514377117157,0.000895023345947,0.35079407692,1,s,382.064291,,,,,,,,,,,,,,,,,,,,,,,,,,,,,,,,2015_Jul_02_1354,59.8960392081,LearningTask,1,75,
200,w,200,,,,,,,,,,,,,,,,,0,0,0,0,12,2,50,0,,,,,,,,,,,,,,,,,,,,,,,,,,,,,w,1,0.300898075104,None,0,2.0,trianglemagenta.gif,go,,,,,,,,,,,,,,,,,,,,,,,,,,2.25,0.514332056046,0.000905990600586,0.300898075104,1,w,385.067678928,,,,,,,,,,,,,,,,,,,,,,,,,,,,,,,,2015_Jul_02_1354,59.8960392081,LearningTask,1,75,
-200,a,-200,,,,,,,,,,,,,,,,,0,0,0,0,12,3,51,3,,,,,,,,,,,,,,,,,,,,,,,,,,,,,a,1,0.334372997284,None,0,0.5,diamondyellow.gif,stop,,,,,,,,,,,,,,,,,,,,,,,,,,0,0.514318943024,0.000901937484741,0.334372997284,1,a,388.071071863,,,,,,,,,,,,,,,,,,,,,,,,,,,,,,,,2015_Jul_02_1354,59.8960392081,LearningTask,1,75,
200,s,-200,,,,,,,,,,,,,,,,,0,0,0,0,13,0,52,2,,,,,,,,,,,,,,,,,,,,,,,,,,,,,s,1,0.317823171616,None,0,4.0,crossblue.gif,stop,,,,,,,,,,,,,,,,,,,,,,,,,,0,0.51425409317,0.00100016593933,0.317823171616,1,s,391.074157953,,,,,,,,,,,,,,,,,,,,,,,,,,,,,,,,2015_Jul_02_1354,59.8960392081,LearningTask,1,75,
-200,a,-200,,,,,,,,,,,,,,,,,0,0,0,0,13,1,53,3,,,,,,,,,,,,,,,,,,,,,,,,,,,,,a,1,0.367725133896,None,0,0.5,diamondyellow.gif,stop,,,,,,,,,,,,,,,,,,,,,,,,,,0.26,0.514606952667,0.00088906288147,0.367725133896,1,a,394.078384876,,,,,,,,,,,,,,,,,,,,,,,,,,,,,,,,2015_Jul_02_1354,59.8960392081,LearningTask,1,75,
-200,q,200,,,,,,,,,,,,,,,,,0,0,0,0,13,2,54,1,,,,,,,,,,,,,,,,,,,,,,,,,,,,,q,1,0.350259065628,None,0,4.0,crossblue.gif,stop,,,,,,,,,,,,,,,,,,,,,,,,,,4.24,0.514068841934,0.000898838043213,0.350259065628,1,q,397.08118701,,,,,,,,,,,,,,,,,,,,,,,,,,,,,,,,2015_Jul_02_1354,59.8960392081,LearningTask,1,75,
-200,a,-200,,,,,,,,,,,,,,,,,0,0,0,0,13,3,55,3,,,,,,,,,,,,,,,,,,,,,,,,,,,,,a,1,0.334214925766,None,0,4.0,squarewhite.gif,go,,,,,,,,,,,,,,,,,,,,,,,,,,0,0.513962984085,0.00101590156555,0.334214925766,1,a,400.084422827,,,,,,,,,,,,,,,,,,,,,,,,,,,,,,,,2015_Jul_02_1354,59.8960392081,LearningTask,1,75,
200,w,200,,,,,,,,,,,,,,,,,0,0,0,0,14,0,56,0,,,,,,,,,,,,,,,,,,,,,,,,,,,,,w,1,0.351326942444,None,0,4.0,squarewhite.gif,go,,,,,,,,,,,,,,,,,,,,,,,,,,0,0.51443696022,0.000879049301147,0.351326942444,1,w,403.087752819,,,,,,,,,,,,,,,,,,,,,,,,,,,,,,,,2015_Jul_02_1354,59.8960392081,LearningTask,1,75,
-200,q,200,,,,,,,,,,,,,,,,,0,0,0,0,14,1,57,1,,,,,,,,,,,,,,,,,,,,,,,,,,,,,q,1,0.283764839172,None,0,1.0,invertedtrianglegreen.gif,go,,,,,,,,,,,,,,,,,,,,,,,,,,0.88,0.514461040497,0.000893831253052,0.283764839172,1,q,406.091140985,,,,,,,,,,,,,,,,,,,,,,,,,,,,,,,,2015_Jul_02_1354,59.8960392081,LearningTask,1,75,
200,w,200,,,,,,,,,,,,,,,,,0,0,0,0,14,2,58,0,,,,,,,,,,,,,,,,,,,,,,,,,,,,,w,1,0.384283065796,None,0,0.5,hexagoncyan.gif,go,,,,,,,,,,,,,,,,,,,,,,,,,,0.7,0.513921022415,0.00100302696228,0.384283065796,1,w,409.094478846,,,,,,,,,,,,,,,,,,,,,,,,,,,,,,,,2015_Jul_02_1354,59.8960392081,LearningTask,1,75,
-200,q,200,,,,,,,,,,,,,,,,,0,0,0,0,14,3,59,1,,,,,,,,,,,,,,,,,,,,,,,,,,,,,q,1,0.317698955536,None,0,1.0,invertedtrianglegreen.gif,go,,,,,,,,,,,,,,,,,,,,,,,,,,0.96,0.51445889473,0.00101590156555,0.317698955536,1,q,412.098026037,,,,,,,,,,,,,,,,,,,,,,,,,,,,,,,,2015_Jul_02_1354,59.8960392081,LearningTask,1,75,
200,s,-200,,,,,,,,,,,,,,,,,0,0,0,0,15,0,60,2,,,,,,,,,,,,,,,,,,,,,,,,,,,,,s,1,0.300604104996,None,0,0.5,diamondyellow.gif,stop,,,,,,,,,,,,,,,,,,,,,,,,,,0.44,0.514240980148,0.000903129577637,0.300604104996,1,s,415.101140976,,,,,,,,,,,,,,,,,,,,,,,,,,,,,,,,2015_Jul_02_1354,59.8960392081,LearningTask,1,75,
-200,a,-200,,,,,,,,,,,,,,,,,0,0,0,0,15,1,61,3,,,,,,,,,,,,,,,,,,,,,,,,,,,,,a,1,0.317398071289,None,0,0.5,diamondyellow.gif,stop,,,,,,,,,,,,,,,,,,,,,,,,,,0.71,0.514101982117,0.000934839248657,0.317398071289,1,a,418.104511023,,,,,,,,,,,,,,,,,,,,,,,,,,,,,,,,2015_Jul_02_1354,59.8960392081,LearningTask,1,75,
200,s,-200,,,,,,,,,,,,,,,,,0,0,0,0,15,2,62,2,,,,,,,,,,,,,,,,,,,,,,,,,,,,,s,1,0.350641965866,None,0,2.0,linegray.gif,stop,,,,,,,,,,,,,,,,,,,,,,,,,,1.84,0.514243841171,0.00095796585083,0.350641965866,1,s,421.107905865,,,,,,,,,,,,,,,,,,,,,,,,,,,,,,,,2015_Jul_02_1354,59.8960392081,LearningTask,1,75,
-200,q,200,,,,,,,,,,,,,,,,,0,0,0,0,15,3,63,1,,,,,,,,,,,,,,,,,,,,,,,,,,,,,q,1,0.38455915451,None,0,4.0,crossblue.gif,stop,,,,,,,,,,,,,,,,,,,,,,,,,,0,0.514292001724,0.000904083251953,0.38455915451,1,q,424.11164403,,,,,,,,,,,,,,,,,,,,,,,,,,,,,,,,2015_Jul_02_1354,59.8960392081,LearningTask,1,75,
-200,q,200,,,,,,,,,,,,,,,,,0,0,0,0,16,0,64,1,,,,,,,,,,,,,,,,,,,,,,,,,,,,,q,1,0.35093998909,None,0,4.0,squarewhite.gif,go,,,,,,,,,,,,,,,,,,,,,,,,,,4.07,0.514005899429,0.000900983810425,0.35093998909,1,q,427.114770889,,,,,,,,,,,,,,,,,,,,,,,,,,,,,,,,2015_Jul_02_1354,59.8960392081,LearningTask,1,75,
-200,q,200,,,,,,,,,,,,,,,,,0,0,0,0,16,1,65,1,,,,,,,,,,,,,,,,,,,,,,,,,,,,,q,1,0.417094945908,None,0,2.0,linegray.gif,stop,,,,,,,,,,,,,,,,,,,,,,,,,,2.06,0.514528036118,0.000897884368896,0.417094945908,1,q,430.117964029,,,,,,,,,,,,,,,,,,,,,,,,,,,,,,,,2015_Jul_02_1354,59.8960392081,LearningTask,1,75,
200,w,200,,,,,,,,,,,,,,,,,0,0,0,0,16,2,66,0,,,,,,,,,,,,,,,,,,,,,,,,,,,,,w,1,0.350876092911,None,0,0.5,hexagoncyan.gif,go,,,,,,,,,,,,,,,,,,,,,,,,,,0.33,0.514449119568,0.000893115997314,0.350876092911,1,w,433.121497869,,,,,,,,,,,,,,,,,,,,,,,,,,,,,,,,2015_Jul_02_1354,59.8960392081,LearningTask,1,75,
200,w,200,,,,,,,,,,,,,,,,,0,0,0,0,16,3,67,0,,,,,,,,,,,,,,,,,,,,,,,,,,,,,w,1,0.384323835373,None,0,0.5,diamondyellow.gif,stop,,,,,,,,,,,,,,,,,,,,,,,,,,0,0.514163970947,0.000910043716431,0.384323835373,1,w,436.124683857,,,,,,,,,,,,,,,,,,,,,,,,,,,,,,,,2015_Jul_02_1354,59.8960392081,LearningTask,1,75,
200,w,200,,,,,,,,,,,,,,,,,0,0,0,0,17,0,68,0,,,,,,,,,,,,,,,,,,,,,,,,,,,,,w,1,0.367604017258,None,0,0.5,diamondyellow.gif,stop,,,,,,,,,,,,,,,,,,,,,,,,,,0.45,0.514625072479,0.000901937484741,0.367604017258,1,w,439.127915859,,,,,,,,,,,,,,,,,,,,,,,,,,,,,,,,2015_Jul_02_1354,59.8960392081,LearningTask,1,75,
200,w,200,,,,,,,,,,,,,,,,,0,0,0,0,17,1,69,0,,,,,,,,,,,,,,,,,,,,,,,,,,,,,w,1,0.367587089539,None,0,1.0,circleorange.gif,stop,,,,,,,,,,,,,,,,,,,,,,,,,,0,0.514313936234,0.000910043716431,0.367587089539,1,w,442.131484032,,,,,,,,,,,,,,,,,,,,,,,,,,,,,,,,2015_Jul_02_1354,59.8960392081,LearningTask,1,75,
-200,q,200,,,,,,,,,,,,,,,,,0,0,0,0,17,2,70,1,,,,,,,,,,,,,,,,,,,,,,,,,,,,,q,1,0.333759069443,None,0,4.0,squarewhite.gif,go,,,,,,,,,,,,,,,,,,,,,,,,,,3.98,0.514504909515,0.000885009765625,0.333759069443,1,q,445.134860992,,,,,,,,,,,,,,,,,,,,,,,,,,,,,,,,2015_Jul_02_1354,59.8960392081,LearningTask,1,75,
-200,a,-200,,,,,,,,,,,,,,,,,0,0,0,0,17,3,71,3,,,,,,,,,,,,,,,,,,,,,,,,,,,,,a,1,0.300357818604,None,0,0.5,hexagoncyan.gif,go,,,,,,,,,,,,,,,,,,,,,,,,,,0,0.514185190201,0.000955104827881,0.300357818604,1,a,448.138173819,,,,,,,,,,,,,,,,,,,,,,,,,,,,,,,,2015_Jul_02_1354,59.8960392081,LearningTask,1,75,
-200,q,200,,,,,,,,,,,,,,,,,0,0,0,0,18,0,72,1,,,,,,,,,,,,,,,,,,,,,,,,,,,,,q,1,0.300613880157,None,0,4.0,squarewhite.gif,go,,,,,,,,,,,,,,,,,,,,,,,,,,3.9,0.514356136322,0.000885963439941,0.300613880157,1,q,451.141490936,,,,,,,,,,,,,,,,,,,,,,,,,,,,,,,,2015_Jul_02_1354,59.8960392081,LearningTask,1,75,
-200,a,-200,,,,,,,,,,,,,,,,,0,0,0,0,18,1,73,3,,,,,,,,,,,,,,,,,,,,,,,,,,,,,a,1,0.317342042923,None,0,4.0,crossblue.gif,stop,,,,,,,,,,,,,,,,,,,,,,,,,,4.22,0.514481067657,0.000916957855225,0.317342042923,1,a,454.144827843,,,,,,,,,,,,,,,,,,,,,,,,,,,,,,,,2015_Jul_02_1354,59.8960392081,LearningTask,1,75,
200,s,-200,,,,,,,,,,,,,,,,,0,0,0,0,18,2,74,2,,,,,,,,,,,,,,,,,,,,,,,,,,,,,s,1,0.283734083176,None,0,0.5,hexagoncyan.gif,go,,,,,,,,,,,,,,,,,,,,,,,,,,0.49,0.514530897141,0.000951051712036,0.283734083176,1,s,457.148133039,,,,,,,,,,,,,,,,,,,,,,,,,,,,,,,,2015_Jul_02_1354,59.8960392081,LearningTask,1,75,
-200,q,200,,,,,,,,,,,,,,,,,0,0,0,0,18,3,75,1,,,,,,,,,,,,,,,,,,,,,,,,,,,,,q,1,0.300646066666,None,0,0.5,hexagoncyan.gif,go,,,,,,,,,,,,,,,,,,,,,,,,,,0.58,0.514667034149,0.000947952270508,0.300646066666,1,q,460.151824951,,,,,,,,,,,,,,,,,,,,,,,,,,,,,,,,2015_Jul_02_1354,59.8960392081,LearningTask,1,75,
200,w,200,,,,,,,,,,,,,,,,,0,0,0,0,19,0,76,0,,,,,,,,,,,,,,,,,,,,,,,,,,,,,w,1,0.416768074036,None,0,2.0,linegray.gif,stop,,,,,,,,,,,,,,,,,,,,,,,,,,0,0.514031171799,0.000910997390747,0.300651073456,0,s,463.155544043,1.83,0.515202045441,0.00098705291748,0.416768074036,1,w,466.158160925,,,,,,,,,,,,,,,,,,,,,,,,,2015_Jul_02_1354,59.8960392081,LearningTask,1,75,
200,s,-200,,,,,,,,,,,,,,,,,0,0,0,0,19,1,77,2,,,,,,,,,,,,,,,,,,,,,,,,,,,,,s,1,0.334336996078,None,0,2.0,trianglemagenta.gif,go,,,,,,,,,,,,,,,,,,,,,,,,,,2.25,0.514302968979,0.000956058502197,0.334336996078,1,s,469.161605835,,,,,,,,,,,,,,,,,,,,,,,,,,,,,,,,2015_Jul_02_1354,59.8960392081,LearningTask,1,75,
200,w,200,,,,,,,,,,,,,,,,,0,0,0,0,19,2,78,0,,,,,,,,,,,,,,,,,,,,,,,,,,,,,w,1,0.334090948105,None,0,1.0,circleorange.gif,stop,,,,,,,,,,,,,,,,,,,,,,,,,,1.21,0.514281988144,0.000909090042114,0.334090948105,1,w,472.16533494,,,,,,,,,,,,,,,,,,,,,,,,,,,,,,,,2015_Jul_02_1354,59.8960392081,LearningTask,1,75,
-200,a,-200,,,,,,,,,,,,,,,,,0,0,0,0,19,3,79,3,,,,,,,,,,,,,,,,,,,,,,,,,,,,,a,1,0.334149122238,None,0,2.0,linegray.gif,stop,,,,,,,,,,,,,,,,,,,,,,,,,,2.02,0.513959884644,0.000903844833374,0.334149122238,1,a,475.168361902,,,,,,,,,,,,,,,,,,,,,,,,,,,,,,,,2015_Jul_02_1354,59.8960392081,LearningTask,1,75,
200,s,-200,,,,,,,,,,,,,,,,,0,0,0,0,20,0,80,2,,,,,,,,,,,,,,,,,,,,,,,,,,,,,s,1,0.28405380249,None,0,1.0,circleorange.gif,stop,,,,,,,,,,,,,,,,,,,,,,,,,,0.8,0.514228820801,0.000907897949219,0.28405380249,1,s,478.171746016,,,,,,,,,,,,,,,,,,,,,,,,,,,,,,,,2015_Jul_02_1354,59.8960392081,LearningTask,1,75,
-200,q,200,,,,,,,,,,,,,,,,,0,0,0,0,20,1,81,1,,,,,,,,,,,,,,,,,,,,,,,,,,,,,q,1,0.283933877945,None,0,2.0,linegray.gif,stop,,,,,,,,,,,,,,,,,,,,,,,,,,2.12,0.514350175858,0.000901222229004,0.283933877945,1,q,481.175185919,,,,,,,,,,,,,,,,,,,,,,,,,,,,,,,,2015_Jul_02_1354,59.8960392081,LearningTask,1,75,
-200,a,-200,,,,,,,,,,,,,,,,,0,0,0,0,20,2,82,3,,,,,,,,,,,,,,,,,,,,,,,,,,,,,a,1,0.350717067719,None,0,0.5,diamondyellow.gif,stop,,,,,,,,,,,,,,,,,,,,,,,,,,0.52,0.514218091965,0.000900030136108,0.350717067719,1,a,484.178437948,,,,,,,,,,,,,,,,,,,,,,,,,,,,,,,,2015_Jul_02_1354,59.8960392081,LearningTask,1,75,
-200,a,-200,,,,,,,,,,,,,,,,,0,0,0,0,20,3,83,3,,,,,,,,,,,,,,,,,,,,,,,,,,,,,a,1,0.334163188934,None,0,1.0,circleorange.gif,stop,,,,,,,,,,,,,,,,,,,,,,,,,,1.01,0.514260053635,0.00104713439941,0.334163188934,1,a,487.181619883,,,,,,,,,,,,,,,,,,,,,,,,,,,,,,,,2015_Jul_02_1354,59.8960392081,LearningTask,1,75,
200,w,200,,,,,,,,,,,,,,,,,0,0,0,0,21,0,84,0,,,,,,,,,,,,,,,,,,,,,,,,,,,,,w,1,0.367469787598,None,0,2.0,linegray.gif,stop,,,,,,,,,,,,,,,,,,,,,,,,,,2.07,0.5144739151,0.000907897949219,0.367469787598,1,w,490.185107946,,,,,,,,,,,,,,,,,,,,,,,,,,,,,,,,2015_Jul_02_1354,59.8960392081,LearningTask,1,75,
-200,a,-200,,,,,,,,,,,,,,,,,0,0,0,0,21,1,85,3,,,,,,,,,,,,,,,,,,,,,,,,,,,,,a,1,0.418318986893,None,0,0.5,hexagoncyan.gif,go,,,,,,,,,,,,,,,,,,,,,,,,,,0,0.513837099075,0.000982046127319,0.418318986893,1,a,493.188686848,,,,,,,,,,,,,,,,,,,,,,,,,,,,,,,,2015_Jul_02_1354,59.8960392081,LearningTask,1,75,
200,s,-200,,,,,,,,,,,,,,,,,0,0,0,0,21,2,86,2,,,,,,,,,,,,,,,,,,,,,,,,,,,,,s,1,0.30088019371,None,0,0.5,diamondyellow.gif,stop,,,,,,,,,,,,,,,,,,,,,,,,,,0.34,0.513777017593,0.000957012176514,0.30088019371,1,s,496.191864014,,,,,,,,,,,,,,,,,,,,,,,,,,,,,,,,2015_Jul_02_1354,59.8960392081,LearningTask,1,75,
-200,q,200,,,,,,,,,,,,,,,,,0,0,0,0,21,3,87,1,,,,,,,,,,,,,,,,,,,,,,,,,,,,,q,1,0.284107208252,None,0,2.0,trianglemagenta.gif,go,,,,,,,,,,,,,,,,,,,,,,,,,,2.13,0.51438999176,0.000895023345947,0.284107208252,1,q,499.195178032,,,,,,,,,,,,,,,,,,,,,,,,,,,,,,,,2015_Jul_02_1354,59.8960392081,LearningTask,1,75,
-200,q,200,,,,,,,,,,,,,,,,,0,0,0,0,22,0,88,1,,,,,,,,,,,,,,,,,,,,,,,,,,,,,q,1,0.285034894943,None,0,2.0,linegray.gif,stop,,,,,,,,,,,,,,,,,,,,,,,,,,0,0.514337062836,0.000893115997314,0.35080909729,0,a,502.198559046,2.07,0.515325069427,0.00107908248901,0.285034894943,1,q,505.201860905,,,,,,,,,,,,,,,,,,,,,,,,,2015_Jul_02_1354,59.8960392081,LearningTask,1,75,
200,w,200,,,,,,,,,,,,,,,,,0,0,0,0,22,1,89,0,,,,,,,,,,,,,,,,,,,,,,,,,,,,,w,1,0.367439985275,None,0,4.0,crossblue.gif,stop,,,,,,,,,,,,,,,,,,,,,,,,,,3.89,0.514297008514,0.00107502937317,0.367439985275,1,w,508.205533028,,,,,,,,,,,,,,,,,,,,,,,,,,,,,,,,2015_Jul_02_1354,59.8960392081,LearningTask,1,75,
-200,q,200,,,,,,,,,,,,,,,,,0,0,0,0,22,2,90,1,,,,,,,,,,,,,,,,,,,,,,,,,,,,,q,1,0.33412694931,None,0,2.0,linegray.gif,stop,,,,,,,,,,,,,,,,,,,,,,,,,,2.12,0.514039039612,0.000936031341553,0.33412694931,1,q,511.208724022,,,,,,,,,,,,,,,,,,,,,,,,,,,,,,,,2015_Jul_02_1354,59.8960392081,LearningTask,1,75,
200,s,-200,,,,,,,,,,,,,,,,,0,0,0,0,22,3,91,2,,,,,,,,,,,,,,,,,,,,,,,,,,,,,s,1,0.300512075424,None,0,0.5,diamondyellow.gif,stop,,,,,,,,,,,,,,,,,,,,,,,,,,0.74,0.513985872269,0.000917911529541,0.300512075424,1,s,514.211889982,,,,,,,,,,,,,,,,,,,,,,,,,,,,,,,,2015_Jul_02_1354,59.8960392081,LearningTask,1,75,
-200,a,-200,,,,,,,,,,,,,,,,,0,0,0,0,23,0,92,3,,,,,,,,,,,,,,,,,,,,,,,,,,,,,a,1,0.38414812088,None,0,4.0,squarewhite.gif,go,,,,,,,,,,,,,,,,,,,,,,,,,,3.91,0.514281988144,0.000949144363403,0.38414812088,1,a,517.215157032,,,,,,,,,,,,,,,,,,,,,,,,,,,,,,,,2015_Jul_02_1354,59.8960392081,LearningTask,1,75,
200,w,200,,,,,,,,,,,,,,,,,0,0,0,0,23,1,93,0,,,,,,,,,,,,,,,,,,,,,,,,,,,,,w,1,0.350771903992,None,0,2.0,linegray.gif,stop,,,,,,,,,,,,,,,,,,,,,,,,,,1.75,0.514506101608,0.000893115997314,0.350771903992,1,w,520.219094038,,,,,,,,,,,,,,,,,,,,,,,,,,,,,,,,2015_Jul_02_1354,59.8960392081,LearningTask,1,75,
-200,q,200,,,,,,,,,,,,,,,,,0,0,0,0,23,2,94,1,,,,,,,,,,,,,,,,,,,,,,,,,,,,,q,1,0.35071182251,None,0,2.0,linegray.gif,stop,,,,,,,,,,,,,,,,,,,,,,,,,,2.03,0.514094114304,0.00090503692627,0.35071182251,1,q,523.222168922,,,,,,,,,,,,,,,,,,,,,,,,,,,,,,,,2015_Jul_02_1354,59.8960392081,LearningTask,1,75,
-200,q,200,,,,,,,,,,,,,,,,,0,0,0,0,23,3,95,1,,,,,,,,,,,,,,,,,,,,,,,,,,,,,q,1,0.334384918213,None,0,0.5,diamondyellow.gif,stop,,,,,,,,,,,,,,,,,,,,,,,,,,0.66,0.514613866806,0.000899076461792,0.334384918213,1,q,526.225332975,,,,,,,,,,,,,,,,,,,,,,,,,,,,,,,,2015_Jul_02_1354,59.8960392081,LearningTask,1,75,
-200,a,-200,,,,,,,,,,,,,,,,,0,0,0,0,24,0,96,3,,,,,,,,,,,,,,,,,,,,,,,,,,,,,a,1,0.601878166199,None,0,1.0,invertedtrianglegreen.gif,go,,,,,,,,,,,,,,,,,,,,,,,,,,0,0.51424407959,0.000899076461792,0.601878166199,1,a,529.229140997,,,,,,,,,,,,,,,,,,,,,,,,,,,,,,,,2015_Jul_02_1354,59.8960392081,LearningTask,1,75,
200,w,200,,,,,,,,,,,,,,,,,0,0,0,0,24,1,97,0,,,,,,,,,,,,,,,,,,,,,,,,,,,,,w,1,0.317442893982,None,0,2.0,trianglemagenta.gif,go,,,,,,,,,,,,,,,,,,,,,,,,,,1.99,0.513635158539,0.000900983810425,0.317442893982,1,w,532.232149839,,,,,,,,,,,,,,,,,,,,,,,,,,,,,,,,2015_Jul_02_1354,59.8960392081,LearningTask,1,75,
200,s,-200,,,,,,,,,,,,,,,,,0,0,0,0,24,2,98,2,,,,,,,,,,,,,,,,,,,,,,,,,,,,,s,1,0.301407814026,None,0,4.0,crossblue.gif,stop,,,,,,,,,,,,,,,,,,,,,,,,,,4.14,0.514238119125,0.00098705291748,0.301407814026,1,s,535.235280037,,,,,,,,,,,,,,,,,,,,,,,,,,,,,,,,2015_Jul_02_1354,59.8960392081,LearningTask,1,75,
-200,a,-200,,,,,,,,,,,,,,,,,0,0,0,0,24,3,99,3,,,,,,,,,,,,,,,,,,,,,,,,,,,,,a,1,0.317347049713,None,0,2.0,linegray.gif,stop,,,,,,,,,,,,,,,,,,,,,,,,,,1.77,0.514711141586,0.000899076461792,0.317347049713,1,a,538.238924026,,,,,,,,,,,,,,,,,,,,,,,,,,,,,,,,2015_Jul_02_1354,59.8960392081,LearningTask,1,75,
,,,,,,,,,,,,,,,,,,,0,0,0,0,,,,,,,,,,,,,,,,,,,,,,,,,,,,,,,,,,,,,,,,,,,,,,,,,,,,,,,,,,,,,,,,,,,,,,,,,,,,,,,,9,41.9682600498,,,,,,,,,,,,,,,,,,,,,,,2015_Jul_02_1354,59.8960392081,LearningTask,1,75,
-200,a,-200,,,,,,,,,,,,,,,,,1,0,1,0,0,0,0,3,,,,,,,,,,,,,,,,,,,,,,,,,,,,,a,1,0.417397022247,None,0,2.0,linegray.gif,stop,,,,,,,,,,,,,,,,,,,,,,,,,0.04381108284,0,0.509384870529,0.000922918319702,[],0,None,583.656728029,2.04,0.514806032181,0.000971078872681,0.417397022247,1,a,586.659975052,,,,,,,,,,,,,,,,,,,,,,,,,2015_Jul_02_1354,59.8960392081,LearningTask,1,75,
-200,a,-200,,,,,,,,,,,,,,,,,1,0,1,0,0,1,1,3,,,,,,,,,,,,,,,,,,,,,,,,,,,,,a,1,0.551113843918,None,0,2.0,linegray.gif,stop,,,,,,,,,,,,,,,,,,,,,,,,,,1.96,0.513453006744,0.000936985015869,0.551113843918,1,a,589.662904024,,,,,,,,,,,,,,,,,,,,,,,,,,,,,,,,2015_Jul_02_1354,59.8960392081,LearningTask,1,75,
200,w,200,,,,,,,,,,,,,,,,,1,0,1,0,0,2,2,0,,,,,,,,,,,,,,,,,,,,,,,,,,,,,w,1,0.334112882614,None,0,4.0,crossblue.gif,stop,,,,,,,,,,,,,,,,,,,,,,,,,,0,0.514485120773,0.000893115997314,0.334112882614,1,w,592.666400909,,,,,,,,,,,,,,,,,,,,,,,,,,,,,,,,2015_Jul_02_1354,59.8960392081,LearningTask,1,75,
-200,q,200,,,,,,,,,,,,,,,,,1,0,1,0,0,3,3,1,,,,,,,,,,,,,,,,,,,,,,,,,,,,,q,1,0.317610025406,None,0,1.0,circleorange.gif,stop,,,,,,,,,,,,,,,,,,,,,,,,,,0,0.514089822769,0.00115299224854,0.317610025406,1,q,595.669774055,,,,,,,,,,,,,,,,,,,,,,,,,,,,,,,,2015_Jul_02_1354,59.8960392081,LearningTask,1,75,
-200,a,-200,,,,,,,,,,,,,,,,,1,0,1,0,1,0,4,3,,,,,,,,,,,,,,,,,,,,,,,,,,,,,a,1,0.333731889725,None,0,1.0,invertedtrianglegreen.gif,go,,,,,,,,,,,,,,,,,,,,,,,,,,0.91,0.51404094696,0.00090503692627,0.333731889725,1,a,598.673001051,,,,,,,,,,,,,,,,,,,,,,,,,,,,,,,,2015_Jul_02_1354,59.8960392081,LearningTask,1,75,
200,s,-200,,,,,,,,,,,,,,,,,1,0,1,0,1,1,5,2,,,,,,,,,,,,,,,,,,,,,,,,,,,,,s,1,0.267298936844,None,0,0.5,diamondyellow.gif,stop,,,,,,,,,,,,,,,,,,,,,,,,,,0.66,0.514370918274,0.000895977020264,0.267298936844,1,s,601.676287889,,,,,,,,,,,,,,,,,,,,,,,,,,,,,,,,2015_Jul_02_1354,59.8960392081,LearningTask,1,75,
200,w,200,,,,,,,,,,,,,,,,,1,0,1,0,1,2,6,0,,,,,,,,,,,,,,,,,,,,,,,,,,,,,w,1,0.3004758358,None,0,4.0,squarewhite.gif,go,,,,,,,,,,,,,,,,,,,,,,,,,,0,0.514366149902,0.000893115997314,0.3004758358,1,w,604.680155039,,,,,,,,,,,,,,,,,,,,,,,,,,,,,,,,2015_Jul_02_1354,59.8960392081,LearningTask,1,75,
200,w,200,,,,,,,,,,,,,,,,,1,0,1,0,1,3,7,0,,,,,,,,,,,,,,,,,,,,,,,,,,,,,w,1,0.300828933716,None,0,2.0,trianglemagenta.gif,go,,,,,,,,,,,,,,,,,,,,,,,,,,1.89,0.513687133789,0.000914096832275,0.300828933716,1,w,607.683117867,,,,,,,,,,,,,,,,,,,,,,,,,,,,,,,,2015_Jul_02_1354,59.8960392081,LearningTask,1,75,
200,w,200,,,,,,,,,,,,,,,,,1,0,1,0,2,0,8,0,,,,,,,,,,,,,,,,,,,,,,,,,,,,,w,1,0.702038049698,None,0,2.0,trianglemagenta.gif,go,,,,,,,,,,,,,,,,,,,,,,,,,,1.94,0.514255046844,0.00102806091309,0.702038049698,1,w,610.686609983,,,,,,,,,,,,,,,,,,,,,,,,,,,,,,,,2015_Jul_02_1354,59.8960392081,LearningTask,1,75,
200,w,200,,,,,,,,,,,,,,,,,1,0,1,0,2,1,9,0,,,,,,,,,,,,,,,,,,,,,,,,,,,,,w,1,0.317273139954,None,0,2.0,linegray.gif,stop,,,,,,,,,,,,,,,,,,,,,,,,,,1.78,0.514464139938,0.00088906288147,0.317273139954,1,w,613.690184832,,,,,,,,,,,,,,,,,,,,,,,,,,,,,,,,2015_Jul_02_1354,59.8960392081,LearningTask,1,75,
200,w,200,,,,,,,,,,,,,,,,,1,0,1,0,2,2,10,0,,,,,,,,,,,,,,,,,,,,,,,,,,,,,w,1,0.400722980499,None,0,0.5,diamondyellow.gif,stop,,,,,,,,,,,,,,,,,,,,,,,,,,0.28,0.514050006866,0.00090217590332,0.400722980499,1,w,616.69314599,,,,,,,,,,,,,,,,,,,,,,,,,,,,,,,,2015_Jul_02_1354,59.8960392081,LearningTask,1,75,
-200,q,200,,,,,,,,,,,,,,,,,1,0,1,0,2,3,11,1,,,,,,,,,,,,,,,,,,,,,,,,,,,,,q,1,0.334278106689,None,0,4.0,squarewhite.gif,go,,,,,,,,,,,,,,,,,,,,,,,,,,0,0.51419210434,0.0010461807251,0.334278106689,1,q,619.696399927,,,,,,,,,,,,,,,,,,,,,,,,,,,,,,,,2015_Jul_02_1354,59.8960392081,LearningTask,1,75,
-200,a,-200,,,,,,,,,,,,,,,,,1,0,1,0,3,0,12,3,,,,,,,,,,,,,,,,,,,,,,,,,,,,,a,1,0.31743311882,None,0,0.5,hexagoncyan.gif,go,,,,,,,,,,,,,,,,,,,,,,,,,,0,0.514487028122,0.00090503692627,0.301199913025,0,s,622.699869871,0.65,0.515526771545,0.000972986221313,0.31743311882,1,a,625.703476906,,,,,,,,,,,,,,,,,,,,,,,,,2015_Jul_02_1354,59.8960392081,LearningTask,1,75,
-200,q,200,,,,,,,,,,,,,,,,,1,0,1,0,3,1,13,1,,,,,,,,,,,,,,,,,,,,,,,,,,,,,q,1,0.334218025208,None,0,2.0,linegray.gif,stop,,,,,,,,,,,,,,,,,,,,,,,,,,0,0.51429605484,0.000939846038818,0.334218025208,1,q,628.706626892,,,,,,,,,,,,,,,,,,,,,,,,,,,,,,,,2015_Jul_02_1354,59.8960392081,LearningTask,1,75,
200,s,-200,,,,,,,,,,,,,,,,,1,0,1,0,3,2,14,2,,,,,,,,,,,,,,,,,,,,,,,,,,,,,s,1,0.334092855453,None,0,4.0,crossblue.gif,stop,,,,,,,,,,,,,,,,,,,,,,,,,,4.13,0.514554023743,0.000874996185303,0.334092855453,1,s,631.709874868,,,,,,,,,,,,,,,,,,,,,,,,,,,,,,,,2015_Jul_02_1354,59.8960392081,LearningTask,1,75,
200,w,200,,,,,,,,,,,,,,,,,1,0,1,0,3,3,15,0,,,,,,,,,,,,,,,,,,,,,,,,,,,,,w,1,0.3343770504,None,0,4.0,squarewhite.gif,go,,,,,,,,,,,,,,,,,,,,,,,,,,4.03,0.514424085617,0.000872135162354,0.3343770504,1,w,634.713284016,,,,,,,,,,,,,,,,,,,,,,,,,,,,,,,,2015_Jul_02_1354,59.8960392081,LearningTask,1,75,
200,w,200,,,,,,,,,,,,,,,,,1,0,1,0,4,0,16,0,,,,,,,,,,,,,,,,,,,,,,,,,,,,,w,1,0.351013898849,None,0,4.0,squarewhite.gif,go,,,,,,,,,,,,,,,,,,,,,,,,,,4.09,0.514055967331,0.000904083251953,0.351013898849,1,w,637.716616869,,,,,,,,,,,,,,,,,,,,,,,,,,,,,,,,2015_Jul_02_1354,59.8960392081,LearningTask,1,75,
200,s,-200,,,,,,,,,,,,,,,,,1,0,1,0,4,1,17,2,,,,,,,,,,,,,,,,,,,,,,,,,,,,,s,1,0.334098815918,None,0,2.0,trianglemagenta.gif,go,,,,,,,,,,,,,,,,,,,,,,,,,,2.2,0.514125823975,0.000918865203857,0.334098815918,1,s,640.720182896,,,,,,,,,,,,,,,,,,,,,,,,,,,,,,,,2015_Jul_02_1354,59.8960392081,LearningTask,1,75,
-200,q,200,,,,,,,,,,,,,,,,,1,0,1,0,4,2,18,1,,,,,,,,,,,,,,,,,,,,,,,,,,,,,q,1,0.283778190613,None,0,0.5,hexagoncyan.gif,go,,,,,,,,,,,,,,,,,,,,,,,,,,0,0.514512062073,0.000882148742676,0.3006939888,0,a,643.723649979,0.64,0.515303850174,0.000974893569946,0.283778190613,1,q,646.726625919,,,,,,,,,,,,,,,,,,,,,,,,,2015_Jul_02_1354,59.8960392081,LearningTask,1,75,
-200,a,-200,,,,,,,,,,,,,,,,,1,0,1,0,4,3,19,3,,,,,,,,,,,,,,,,,,,,,,,,,,,,,a,1,0.350692033768,None,0,2.0,linegray.gif,stop,,,,,,,,,,,,,,,,,,,,,,,,,,1.98,0.514271974564,0.00101685523987,0.350692033768,1,a,649.729986906,,,,,,,,,,,,,,,,,,,,,,,,,,,,,,,,2015_Jul_02_1354,59.8960392081,LearningTask,1,75,
200,s,-200,,,,,,,,,,,,,,,,,1,0,1,0,5,0,20,2,,,,,,,,,,,,,,,,,,,,,,,,,,,,,s,1,0.300675153732,None,0,4.0,squarewhite.gif,go,,,,,,,,,,,,,,,,,,,,,,,,,,0,0.514442920685,0.00086498260498,0.300675153732,1,s,652.733650923,,,,,,,,,,,,,,,,,,,,,,,,,,,,,,,,2015_Jul_02_1354,59.8960392081,LearningTask,1,75,
200,s,-200,,,,,,,,,,,,,,,,,1,0,1,0,5,1,21,2,,,,,,,,,,,,,,,,,,,,,,,,,,,,,s,1,0.317713975906,None,0,1.0,circleorange.gif,stop,,,,,,,,,,,,,,,,,,,,,,,,,,0.76,0.513861894608,0.00088095664978,0.317713975906,1,s,655.736862898,,,,,,,,,,,,,,,,,,,,,,,,,,,,,,,,2015_Jul_02_1354,59.8960392081,LearningTask,1,75,
200,w,200,,,,,,,,,,,,,,,,,1,0,1,0,5,2,22,0,,,,,,,,,,,,,,,,,,,,,,,,,,,,,w,1,0.333567142487,None,0,0.5,hexagoncyan.gif,go,,,,,,,,,,,,,,,,,,,,,,,,,,0.66,0.514513015747,0.000937223434448,0.333567142487,1,w,658.740154982,,,,,,,,,,,,,,,,,,,,,,,,,,,,,,,,2015_Jul_02_1354,59.8960392081,LearningTask,1,75,
200,s,-200,,,,,,,,,,,,,,,,,1,0,1,0,5,3,23,2,,,,,,,,,,,,,,,,,,,,,,,,,,,,,s,1,0.283854961395,None,0,0.5,diamondyellow.gif,stop,,,,,,,,,,,,,,,,,,,,,,,,,,0.71,0.51446390152,0.00088095664978,0.283854961395,1,s,661.74363184,,,,,,,,,,,,,,,,,,,,,,,,,,,,,,,,2015_Jul_02_1354,59.8960392081,LearningTask,1,75,
-200,a,-200,,,,,,,,,,,,,,,,,1,0,1,0,6,0,24,3,,,,,,,,,,,,,,,,,,,,,,,,,,,,,a,1,0.300936937332,None,0,0.5,hexagoncyan.gif,go,,,,,,,,,,,,,,,,,,,,,,,,,,0.28,0.514158010483,0.000883102416992,0.300936937332,1,a,664.746837854,,,,,,,,,,,,,,,,,,,,,,,,,,,,,,,,2015_Jul_02_1354,59.8960392081,LearningTask,1,75,
-200,a,-200,,,,,,,,,,,,,,,,,1,0,1,0,6,1,25,3,,,,,,,,,,,,,,,,,,,,,,,,,,,,,a,1,0.33398604393,None,0,1.0,invertedtrianglegreen.gif,go,,,,,,,,,,,,,,,,,,,,,,,,,,0.96,0.514220952988,0.000978946685791,0.33398604393,1,a,667.749997854,,,,,,,,,,,,,,,,,,,,,,,,,,,,,,,,2015_Jul_02_1354,59.8960392081,LearningTask,1,75,
-200,q,200,,,,,,,,,,,,,,,,,1,0,1,0,6,2,26,1,,,,,,,,,,,,,,,,,,,,,,,,,,,,,q,1,0.334226846695,None,0,4.0,crossblue.gif,stop,,,,,,,,,,,,,,,,,,,,,,,,,,4.01,0.514597177505,0.000895977020264,0.334226846695,1,q,670.753617048,,,,,,,,,,,,,,,,,,,,,,,,,,,,,,,,2015_Jul_02_1354,59.8960392081,LearningTask,1,75,
-200,q,200,,,,,,,,,,,,,,,,,1,0,1,0,6,3,27,1,,,,,,,,,,,,,,,,,,,,,,,,,,,,,q,1,0.317316055298,None,0,2.0,linegray.gif,stop,,,,,,,,,,,,,,,,,,,,,,,,,,0,0.514266014099,0.000885963439941,0.334135055542,0,a,673.757223845,0,0.515476942062,0.000952959060669,0.317316055298,1,q,676.760328054,,,,,,,,,,,,,,,,,,,,,,,,,2015_Jul_02_1354,59.8960392081,LearningTask,1,75,
-200,q,200,,,,,,,,,,,,,,,,,1,0,1,0,7,0,28,1,,,,,,,,,,,,,,,,,,,,,,,,,,,,,q,1,0.317163944244,None,0,2.0,linegray.gif,stop,,,,,,,,,,,,,,,,,,,,,,,,,,1.9,0.514364004135,0.000880002975464,0.317163944244,1,q,679.763658047,,,,,,,,,,,,,,,,,,,,,,,,,,,,,,,,2015_Jul_02_1354,59.8960392081,LearningTask,1,75,
200,s,-200,,,,,,,,,,,,,,,,,1,0,1,0,7,1,29,2,,,,,,,,,,,,,,,,,,,,,,,,,,,,,s,1,0.317682027817,None,0,2.0,linegray.gif,stop,,,,,,,,,,,,,,,,,,,,,,,,,,2.13,0.514400005341,0.000879049301147,0.317682027817,1,s,682.766873837,,,,,,,,,,,,,,,,,,,,,,,,,,,,,,,,2015_Jul_02_1354,59.8960392081,LearningTask,1,75,
-200,a,-200,,,,,,,,,,,,,,,,,1,0,1,0,7,2,30,3,,,,,,,,,,,,,,,,,,,,,,,,,,,,,a,1,0.334169864655,None,0,0.5,hexagoncyan.gif,go,,,,,,,,,,,,,,,,,,,,,,,,,,0.72,0.514220952988,0.000935077667236,0.334169864655,1,a,685.770416021,,,,,,,,,,,,,,,,,,,,,,,,,,,,,,,,2015_Jul_02_1354,59.8960392081,LearningTask,1,75,
200,w,200,,,,,,,,,,,,,,,,,1,0,1,0,7,3,31,0,,,,,,,,,,,,,,,,,,,,,,,,,,,,,w,1,0.334626913071,None,0,0.5,diamondyellow.gif,stop,,,,,,,,,,,,,,,,,,,,,,,,,,0.29,0.514319181442,0.000872135162354,0.334626913071,1,w,688.773900986,,,,,,,,,,,,,,,,,,,,,,,,,,,,,,,,2015_Jul_02_1354,59.8960392081,LearningTask,1,75,
200,s,-200,,,,,,,,,,,,,,,,,1,0,1,0,8,0,32,2,,,,,,,,,,,,,,,,,,,,,,,,,,,,,s,1,0.267668962479,None,0,1.0,invertedtrianglegreen.gif,go,,,,,,,,,,,,,,,,,,,,,,,,,,0,0.514110088348,0.00087308883667,0.267668962479,1,s,691.777204037,,,,,,,,,,,,,,,,,,,,,,,,,,,,,,,,2015_Jul_02_1354,59.8960392081,LearningTask,1,75,
-200,q,200,,,,,,,,,,,,,,,,,1,0,1,0,8,1,33,1,,,,,,,,,,,,,,,,,,,,,,,,,,,,,q,1,0.283893108368,None,0,0.5,hexagoncyan.gif,go,,,,,,,,,,,,,,,,,,,,,,,,,,0,0.513906002045,0.000890016555786,0.283893108368,1,q,694.780436993,,,,,,,,,,,,,,,,,,,,,,,,,,,,,,,,2015_Jul_02_1354,59.8960392081,LearningTask,1,75,
-200,a,-200,,,,,,,,,,,,,,,,,1,0,1,0,8,2,34,3,,,,,,,,,,,,,,,,,,,,,,,,,,,,,a,1,0.317215919495,None,0,4.0,crossblue.gif,stop,,,,,,,,,,,,,,,,,,,,,,,,,,4.04,0.514491796494,0.000874996185303,0.317215919495,1,a,697.783730984,,,,,,,,,,,,,,,,,,,,,,,,,,,,,,,,2015_Jul_02_1354,59.8960392081,LearningTask,1,75,
200,s,-200,,,,,,,,,,,,,,,,,1,0,1,0,8,3,35,2,,,,,,,,,,,,,,,,,,,,,,,,,,,,,s,1,0.351112127304,None,0,2.0,trianglemagenta.gif,go,,,,,,,,,,,,,,,,,,,,,,,,,,2.18,0.51441192627,0.000874042510986,0.351112127304,1,s,700.787644863,,,,,,,,,,,,,,,,,,,,,,,,,,,,,,,,2015_Jul_02_1354,59.8960392081,LearningTask,1,75,
200,s,-200,,,,,,,,,,,,,,,,,1,0,1,0,9,0,36,2,,,,,,,,,,,,,,,,,,,,,,,,,,,,,s,1,0.484832048416,None,0,4.0,squarewhite.gif,go,,,,,,,,,,,,,,,,,,,,,,,,,,4.0,0.513499975204,0.000874042510986,0.484832048416,1,s,703.790565968,,,,,,,,,,,,,,,,,,,,,,,,,,,,,,,,2015_Jul_02_1354,59.8960392081,LearningTask,1,75,
200,s,-200,,,,,,,,,,,,,,,,,1,0,1,0,9,1,37,2,,,,,,,,,,,,,,,,,,,,,,,,,,,,,s,1,0.350836992264,None,0,2.0,trianglemagenta.gif,go,,,,,,,,,,,,,,,,,,,,,,,,,,1.96,0.514340877533,0.000888824462891,0.350836992264,1,s,706.794167042,,,,,,,,,,,,,,,,,,,,,,,,,,,,,,,,2015_Jul_02_1354,59.8960392081,LearningTask,1,75,
200,s,-200,,,,,,,,,,,,,,,,,1,0,1,0,9,2,38,2,,,,,,,,,,,,,,,,,,,,,,,,,,,,,s,1,0.317591905594,None,0,2.0,trianglemagenta.gif,go,,,,,,,,,,,,,,,,,,,,,,,,,,0,0.514168977737,0.000880002975464,0.317591905594,1,s,709.797376871,,,,,,,,,,,,,,,,,,,,,,,,,,,,,,,,2015_Jul_02_1354,59.8960392081,LearningTask,1,75,
200,s,-200,,,,,,,,,,,,,,,,,1,0,1,0,9,3,39,2,,,,,,,,,,,,,,,,,,,,,,,,,,,,,s,1,0.3342628479,None,0,0.5,diamondyellow.gif,stop,,,,,,,,,,,,,,,,,,,,,,,,,,0,0.514147043228,0.000877857208252,0.3342628479,1,s,712.800547838,,,,,,,,,,,,,,,,,,,,,,,,,,,,,,,,2015_Jul_02_1354,59.8960392081,LearningTask,1,75,
-200,a,-200,,,,,,,,,,,,,,,,,1,0,1,0,10,0,40,3,,,,,,,,,,,,,,,,,,,,,,,,,,,,,a,1,0.334021091461,None,0,4.0,crossblue.gif,stop,,,,,,,,,,,,,,,,,,,,,,,,,,4.21,0.514242887497,0.00103878974915,0.334021091461,1,a,715.803833008,,,,,,,,,,,,,,,,,,,,,,,,,,,,,,,,2015_Jul_02_1354,59.8960392081,LearningTask,1,75,
-200,a,-200,,,,,,,,,,,,,,,,,1,0,1,0,10,1,41,3,,,,,,,,,,,,,,,,,,,,,,,,,,,,,a,1,0.317389965057,None,0,4.0,squarewhite.gif,go,,,,,,,,,,,,,,,,,,,,,,,,,,4.15,0.514643192291,0.000869989395142,0.317389965057,1,a,718.808025837,,,,,,,,,,,,,,,,,,,,,,,,,,,,,,,,2015_Jul_02_1354,59.8960392081,LearningTask,1,75,
200,s,-200,,,,,,,,,,,,,,,,,1,0,1,0,10,2,42,2,,,,,,,,,,,,,,,,,,,,,,,,,,,,,s,1,0.334316968918,None,0,2.0,linegray.gif,stop,,,,,,,,,,,,,,,,,,,,,,,,,,0,0.513346195221,0.000941038131714,0.334316968918,1,s,721.810842991,,,,,,,,,,,,,,,,,,,,,,,,,,,,,,,,2015_Jul_02_1354,59.8960392081,LearningTask,1,75,
-200,q,200,,,,,,,,,,,,,,,,,1,0,1,0,10,3,43,1,,,,,,,,,,,,,,,,,,,,,,,,,,,,,q,1,0.43448805809,None,0,0.5,hexagoncyan.gif,go,,,,,,,,,,,,,,,,,,,,,,,,,,0,0.514023065567,0.00107598304749,0.0836029052734,0,s,724.81398797,0,0.515266895294,0.00106596946716,0.43448805809,1,q,727.817200899,,,,,,,,,,,,,,,,,,,,,,,,,2015_Jul_02_1354,59.8960392081,LearningTask,1,75,
200,s,-200,,,,,,,,,,,,,,,,,1,0,1,0,11,0,44,2,,,,,,,,,,,,,,,,,,,,,,,,,,,,,s,1,0.400894880295,None,0,0.5,diamondyellow.gif,stop,,,,,,,,,,,,,,,,,,,,,,,,,,0.39,0.514734983444,0.000877857208252,0.400894880295,1,s,730.820677996,,,,,,,,,,,,,,,,,,,,,,,,,,,,,,,,2015_Jul_02_1354,59.8960392081,LearningTask,1,75,
-200,a,-200,,,,,,,,,,,,,,,,,1,0,1,0,11,1,45,3,,,,,,,,,,,,,,,,,,,,,,,,,,,,,a,1,0.367578983307,None,0,2.0,trianglemagenta.gif,go,,,,,,,,,,,,,,,,,,,,,,,,,,0,0.513972043991,0.000939130783081,0.367578983307,1,a,733.824174881,,,,,,,,,,,,,,,,,,,,,,,,,,,,,,,,2015_Jul_02_1354,59.8960392081,LearningTask,1,75,
-200,q,200,,,,,,,,,,,,,,,,,1,0,1,0,11,2,46,1,,,,,,,,,,,,,,,,,,,,,,,,,,,,,q,1,0.334188938141,None,0,0.5,hexagoncyan.gif,go,,,,,,,,,,,,,,,,,,,,,,,,,,0.62,0.514302968979,0.000936985015869,0.334188938141,1,q,736.827137947,,,,,,,,,,,,,,,,,,,,,,,,,,,,,,,,2015_Jul_02_1354,59.8960392081,LearningTask,1,75,
-200,q,200,,,,,,,,,,,,,,,,,1,0,1,0,11,3,47,1,,,,,,,,,,,,,,,,,,,,,,,,,,,,,q,1,0.300720930099,None,0,2.0,linegray.gif,stop,,,,,,,,,,,,,,,,,,,,,,,,,,2.05,0.514909029007,0.000876903533936,0.300720930099,1,q,739.830857038,,,,,,,,,,,,,,,,,,,,,,,,,,,,,,,,2015_Jul_02_1354,59.8960392081,LearningTask,1,75,
200,w,200,,,,,,,,,,,,,,,,,1,0,1,0,12,0,48,0,,,,,,,,,,,,,,,,,,,,,,,,,,,,,w,1,0.350766897202,None,0,4.0,crossblue.gif,stop,,,,,,,,,,,,,,,,,,,,,,,,,,4.17,0.51421713829,0.000914096832275,0.350766897202,1,w,742.833925962,,,,,,,,,,,,,,,,,,,,,,,,,,,,,,,,2015_Jul_02_1354,59.8960392081,LearningTask,1,75,
200,w,200,,,,,,,,,,,,,,,,,1,0,1,0,12,1,49,0,,,,,,,,,,,,,,,,,,,,,,,,,,,,,w,1,0.334408998489,None,0,0.5,diamondyellow.gif,stop,,,,,,,,,,,,,,,,,,,,,,,,,,0.52,0.514741897583,0.000884056091309,0.334408998489,1,w,745.837566853,,,,,,,,,,,,,,,,,,,,,,,,,,,,,,,,2015_Jul_02_1354,59.8960392081,LearningTask,1,75,
200,s,-200,,,,,,,,,,,,,,,,,1,0,1,0,12,2,50,2,,,,,,,,,,,,,,,,,,,,,,,,,,,,,s,1,0.317607164383,None,0,1.0,circleorange.gif,stop,,,,,,,,,,,,,,,,,,,,,,,,,,0.94,0.514252901077,0.000933885574341,0.317607164383,1,s,748.841265917,,,,,,,,,,,,,,,,,,,,,,,,,,,,,,,,2015_Jul_02_1354,59.8960392081,LearningTask,1,75,
-200,q,200,,,,,,,,,,,,,,,,,1,0,1,0,12,3,51,1,,,,,,,,,,,,,,,,,,,,,,,,,,,,,q,1,0.267669916153,None,0,0.5,hexagoncyan.gif,go,,,,,,,,,,,,,,,,,,,,,,,,,,0,0.513631105423,0.000891923904419,0.267669916153,1,q,751.843960047,,,,,,,,,,,,,,,,,,,,,,,,,,,,,,,,2015_Jul_02_1354,59.8960392081,LearningTask,1,75,
-200,a,-200,,,,,,,,,,,,,,,,,1,0,1,0,13,0,52,3,,,,,,,,,,,,,,,,,,,,,,,,,,,,,a,1,0.334010839462,None,0,1.0,invertedtrianglegreen.gif,go,,,,,,,,,,,,,,,,,,,,,,,,,,1.2,0.514577865601,0.0010199546814,0.334010839462,1,a,754.847724915,,,,,,,,,,,,,,,,,,,,,,,,,,,,,,,,2015_Jul_02_1354,59.8960392081,LearningTask,1,75,
200,s,-200,,,,,,,,,,,,,,,,,1,0,1,0,13,1,53,2,,,,,,,,,,,,,,,,,,,,,,,,,,,,,s,1,0.35115814209,None,0,0.5,hexagoncyan.gif,go,,,,,,,,,,,,,,,,,,,,,,,,,,0.66,0.514210939407,0.000881910324097,0.35115814209,1,s,757.851125956,,,,,,,,,,,,,,,,,,,,,,,,,,,,,,,,2015_Jul_02_1354,59.8960392081,LearningTask,1,75,
-200,a,-200,,,,,,,,,,,,,,,,,1,0,1,0,13,2,54,3,,,,,,,,,,,,,,,,,,,,,,,,,,,,,a,1,0.334039926529,None,0,1.0,invertedtrianglegreen.gif,go,,,,,,,,,,,,,,,,,,,,,,,,,,0.87,0.514364957809,0.000903844833374,0.334039926529,1,a,760.854338884,,,,,,,,,,,,,,,,,,,,,,,,,,,,,,,,2015_Jul_02_1354,59.8960392081,LearningTask,1,75,
-200,q,200,,,,,,,,,,,,,,,,,1,0,1,0,13,3,55,1,,,,,,,,,,,,,,,,,,,,,,,,,,,,,q,1,0.284150123596,None,0,2.0,linegray.gif,stop,,,,,,,,,,,,,,,,,,,,,,,,,,1.95,0.514094114304,0.000938177108765,0.284150123596,1,q,763.857455969,,,,,,,,,,,,,,,,,,,,,,,,,,,,,,,,2015_Jul_02_1354,59.8960392081,LearningTask,1,75,
200,w,200,,,,,,,,,,,,,,,,,1,0,1,0,14,0,56,0,,,,,,,,,,,,,,,,,,,,,,,,,,,,,w,1,0.38423705101,None,0,1.0,circleorange.gif,stop,,,,,,,,,,,,,,,,,,,,,,,,,,1.03,0.514522075653,0.000883102416992,0.38423705101,1,w,766.860967875,,,,,,,,,,,,,,,,,,,,,,,,,,,,,,,,2015_Jul_02_1354,59.8960392081,LearningTask,1,75,
200,s,-200,,,,,,,,,,,,,,,,,1,0,1,0,14,1,57,2,,,,,,,,,,,,,,,,,,,,,,,,,,,,,s,1,0.317557096481,None,0,0.5,hexagoncyan.gif,go,,,,,,,,,,,,,,,,,,,,,,,,,,0,0.514381170273,0.000874996185303,0.317557096481,1,s,769.864498854,,,,,,,,,,,,,,,,,,,,,,,,,,,,,,,,2015_Jul_02_1354,59.8960392081,LearningTask,1,75,
-200,q,200,,,,,,,,,,,,,,,,,1,0,1,0,14,2,58,1,,,,,,,,,,,,,,,,,,,,,,,,,,,,,q,1,0.4176030159,None,0,0.5,diamondyellow.gif,stop,,,,,,,,,,,,,,,,,,,,,,,,,,0,0.513637781143,0.00107979774475,0.284389019012,0,a,772.867948055,0.46,0.515396118164,0.000940084457397,0.4176030159,1,q,775.871048927,,,,,,,,,,,,,,,,,,,,,,,,,2015_Jul_02_1354,59.8960392081,LearningTask,1,75,
-200,a,-200,,,,,,,,,,,,,,,,,1,0,1,0,14,3,59,3,,,,,,,,,,,,,,,,,,,,,,,,,,,,,a,1,0.267524957657,None,0,0.5,diamondyellow.gif,stop,,,,,,,,,,,,,,,,,,,,,,,,,,0,0.514533996582,0.000883102416992,0.300540924072,0,q,778.87449193,0,0.515287160873,0.00102996826172,0.267524957657,1,a,781.877662897,,,,,,,,,,,,,,,,,,,,,,,,,2015_Jul_02_1354,59.8960392081,LearningTask,1,75,
200,w,200,,,,,,,,,,,,,,,,,1,0,1,0,15,0,60,0,,,,,,,,,,,,,,,,,,,,,,,,,,,,,w,1,0.434139966965,None,0,1.0,circleorange.gif,stop,,,,,,,,,,,,,,,,,,,,,,,,,,1.12,0.514616012573,0.000885009765625,0.434139966965,1,w,784.881114006,,,,,,,,,,,,,,,,,,,,,,,,,,,,,,,,2015_Jul_02_1354,59.8960392081,LearningTask,1,75,
-200,q,200,,,,,,,,,,,,,,,,,1,0,1,0,15,1,61,1,,,,,,,,,,,,,,,,,,,,,,,,,,,,,q,1,0.40101981163,None,0,2.0,linegray.gif,stop,,,,,,,,,,,,,,,,,,,,,,,,,,2.09,0.514137983322,0.000910043716431,0.40101981163,1,q,787.884870052,,,,,,,,,,,,,,,,,,,,,,,,,,,,,,,,2015_Jul_02_1354,59.8960392081,LearningTask,1,75,
-200,a,-200,,,,,,,,,,,,,,,,,1,0,1,0,15,2,62,3,,,,,,,,,,,,,,,,,,,,,,,,,,,,,a,1,0.3507168293,None,0,1.0,invertedtrianglegreen.gif,go,,,,,,,,,,,,,,,,,,,,,,,,,,1.09,0.513737201691,0.000877141952515,0.3507168293,1,a,790.887876034,,,,,,,,,,,,,,,,,,,,,,,,,,,,,,,,2015_Jul_02_1354,59.8960392081,LearningTask,1,75,
-200,q,200,,,,,,,,,,,,,,,,,1,0,1,0,15,3,63,1,,,,,,,,,,,,,,,,,,,,,,,,,,,,,q,1,0.300820112228,None,0,1.0,circleorange.gif,stop,,,,,,,,,,,,,,,,,,,,,,,,,,0.89,0.514443874359,0.000901937484741,0.300820112228,1,q,793.891228914,,,,,,,,,,,,,,,,,,,,,,,,,,,,,,,,2015_Jul_02_1354,59.8960392081,LearningTask,1,75,
200,w,200,,,,,,,,,,,,,,,,,1,0,1,0,16,0,64,0,,,,,,,,,,,,,,,,,,,,,,,,,,,,,w,1,0.534465074539,None,0,0.5,hexagoncyan.gif,go,,,,,,,,,,,,,,,,,,,,,,,,,,0.72,0.514240026474,0.000891923904419,0.534465074539,1,w,796.89524889,,,,,,,,,,,,,,,,,,,,,,,,,,,,,,,,2015_Jul_02_1354,59.8960392081,LearningTask,1,75,
200,s,-200,,,,,,,,,,,,,,,,,1,0,1,0,16,1,65,2,,,,,,,,,,,,,,,,,,,,,,,,,,,,,s,1,0.300811052322,None,0,0.5,diamondyellow.gif,stop,,,,,,,,,,,,,,,,,,,,,,,,,,0.32,0.513305187225,0.000903129577637,0.300811052322,1,s,799.898080826,,,,,,,,,,,,,,,,,,,,,,,,,,,,,,,,2015_Jul_02_1354,59.8960392081,LearningTask,1,75,
200,w,200,,,,,,,,,,,,,,,,,1,0,1,0,16,2,66,0,,,,,,,,,,,,,,,,,,,,,,,,,,,,,w,1,0.501260042191,None,0,0.5,hexagoncyan.gif,go,,,,,,,,,,,,,,,,,,,,,,,,,,0.6,0.514528989792,0.000928163528442,0.501260042191,1,w,802.901345015,,,,,,,,,,,,,,,,,,,,,,,,,,,,,,,,2015_Jul_02_1354,59.8960392081,LearningTask,1,75,
200,s,-200,,,,,,,,,,,,,,,,,1,0,1,0,16,3,67,2,,,,,,,,,,,,,,,,,,,,,,,,,,,,,s,1,0.334346055984,None,0,4.0,crossblue.gif,stop,,,,,,,,,,,,,,,,,,,,,,,,,,3.77,0.514302015305,0.000878095626831,0.334346055984,1,s,805.904881001,,,,,,,,,,,,,,,,,,,,,,,,,,,,,,,,2015_Jul_02_1354,59.8960392081,LearningTask,1,75,
-200,q,200,,,,,,,,,,,,,,,,,1,0,1,0,17,0,68,1,,,,,,,,,,,,,,,,,,,,,,,,,,,,,q,1,0.333674907684,None,0,4.0,crossblue.gif,stop,,,,,,,,,,,,,,,,,,,,,,,,,,4.15,0.514276981354,0.000981092453003,0.333674907684,1,q,808.907942057,,,,,,,,,,,,,,,,,,,,,,,,,,,,,,,,2015_Jul_02_1354,59.8960392081,LearningTask,1,75,
200,s,-200,,,,,,,,,,,,,,,,,1,0,1,0,17,1,69,2,,,,,,,,,,,,,,,,,,,,,,,,,,,,,s,1,0.334445953369,None,0,2.0,trianglemagenta.gif,go,,,,,,,,,,,,,,,,,,,,,,,,,,2.0,0.514356136322,0.000955104827881,0.334445953369,1,s,811.911223888,,,,,,,,,,,,,,,,,,,,,,,,,,,,,,,,2015_Jul_02_1354,59.8960392081,LearningTask,1,75,
-200,a,-200,,,,,,,,,,,,,,,,,1,0,1,0,17,2,70,3,,,,,,,,,,,,,,,,,,,,,,,,,,,,,a,1,0.334222793579,None,0,2.0,linegray.gif,stop,,,,,,,,,,,,,,,,,,,,,,,,,,1.88,0.514435052872,0.000885963439941,0.334222793579,1,a,814.914726973,,,,,,,,,,,,,,,,,,,,,,,,,,,,,,,,2015_Jul_02_1354,59.8960392081,LearningTask,1,75,
-200,a,-200,,,,,,,,,,,,,,,,,1,0,1,0,17,3,71,3,,,,,,,,,,,,,,,,,,,,,,,,,,,,,a,1,0.584531068802,None,0,2.0,trianglemagenta.gif,go,,,,,,,,,,,,,,,,,,,,,,,,,,2.07,0.514261960983,0.000870943069458,0.584531068802,1,a,817.918337822,,,,,,,,,,,,,,,,,,,,,,,,,,,,,,,,2015_Jul_02_1354,59.8960392081,LearningTask,1,75,
200,w,200,,,,,,,,,,,,,,,,,1,0,1,0,18,0,72,0,,,,,,,,,,,,,,,,,,,,,,,,,,,,,w,1,0.517946958542,None,0,4.0,crossblue.gif,stop,,,,,,,,,,,,,,,,,,,,,,,,,,3.98,0.513988018036,0.000959157943726,0.517946958542,1,w,820.921648979,,,,,,,,,,,,,,,,,,,,,,,,,,,,,,,,2015_Jul_02_1354,59.8960392081,LearningTask,1,75,
-200,q,200,,,,,,,,,,,,,,,,,1,0,1,0,18,1,73,1,,,,,,,,,,,,,,,,,,,,,,,,,,,,,q,1,0.334292888641,None,0,2.0,trianglemagenta.gif,go,,,,,,,,,,,,,,,,,,,,,,,,,,2.03,0.514276981354,0.000875949859619,0.334292888641,1,q,823.924760818,,,,,,,,,,,,,,,,,,,,,,,,,,,,,,,,2015_Jul_02_1354,59.8960392081,LearningTask,1,75,
200,w,200,,,,,,,,,,,,,,,,,1,0,1,0,18,2,74,0,,,,,,,,,,,,,,,,,,,,,,,,,,,,,w,1,0.801408052444,None,0,1.0,invertedtrianglegreen.gif,go,,,,,,,,,,,,,,,,,,,,,,,,,,1.05,0.514375925064,0.000881910324097,0.801408052444,1,w,826.928287029,,,,,,,,,,,,,,,,,,,,,,,,,,,,,,,,2015_Jul_02_1354,59.8960392081,LearningTask,1,75,
-200,a,-200,,,,,,,,,,,,,,,,,1,0,1,0,18,3,75,3,,,,,,,,,,,,,,,,,,,,,,,,,,,,,a,1,0.417675018311,None,0,1.0,circleorange.gif,stop,,,,,,,,,,,,,,,,,,,,,,,,,,0,0.513676166534,0.000972032546997,0.417675018311,1,a,829.931488037,,,,,,,,,,,,,,,,,,,,,,,,,,,,,,,,2015_Jul_02_1354,59.8960392081,LearningTask,1,75,
-200,a,-200,,,,,,,,,,,,,,,,,1,0,1,0,19,0,76,3,,,,,,,,,,,,,,,,,,,,,,,,,,,,,a,1,0.384066104889,None,0,4.0,crossblue.gif,stop,,,,,,,,,,,,,,,,,,,,,,,,,,0,0.514359951019,0.000874996185303,0.901639223099,0,s,832.935150862,0,0.515470027924,0.000941038131714,0.384066104889,1,a,835.938598871,,,,,,,,,,,,,,,,,,,,,,,,,2015_Jul_02_1354,59.8960392081,LearningTask,1,75,
200,w,200,,,,,,,,,,,,,,,,,1,0,1,0,19,1,77,0,,,,,,,,,,,,,,,,,,,,,,,,,,,,,w,1,0.46744799614,None,0,1.0,invertedtrianglegreen.gif,go,,,,,,,,,,,,,,,,,,,,,,,,,,1.01,0.513730049133,0.000890016555786,0.46744799614,1,w,838.941534996,,,,,,,,,,,,,,,,,,,,,,,,,,,,,,,,2015_Jul_02_1354,59.8960392081,LearningTask,1,75,
-200,q,200,,,,,,,,,,,,,,,,,1,0,1,0,19,2,78,1,,,,,,,,,,,,,,,,,,,,,,,,,,,,,q,1,0.317853927612,None,0,0.5,hexagoncyan.gif,go,,,,,,,,,,,,,,,,,,,,,,,,,,0,0.514406919479,0.000880002975464,0.317853927612,1,q,841.944785833,,,,,,,,,,,,,,,,,,,,,,,,,,,,,,,,2015_Jul_02_1354,59.8960392081,LearningTask,1,75,
200,s,-200,,,,,,,,,,,,,,,,,1,0,1,0,19,3,79,2,,,,,,,,,,,,,,,,,,,,,,,,,,,,,s,1,0.350843191147,None,0,0.5,hexagoncyan.gif,go,,,,,,,,,,,,,,,,,,,,,,,,,,0,0.51442193985,0.00088095664978,0.350843191147,1,s,844.948943853,,,,,,,,,,,,,,,,,,,,,,,,,,,,,,,,2015_Jul_02_1354,59.8960392081,LearningTask,1,75,
-200,q,200,,,,,,,,,,,,,,,,,1,0,1,0,20,0,80,1,,,,,,,,,,,,,,,,,,,,,,,,,,,,,q,1,0.43376493454,None,0,4.0,crossblue.gif,stop,,,,,,,,,,,,,,,,,,,,,,,,,,3.94,0.514143943787,0.000877857208252,0.43376493454,1,q,847.951680899,,,,,,,,,,,,,,,,,,,,,,,,,,,,,,,,2015_Jul_02_1354,59.8960392081,LearningTask,1,75,
200,w,200,,,,,,,,,,,,,,,,,1,0,1,0,20,1,81,0,,,,,,,,,,,,,,,,,,,,,,,,,,,,,w,1,0.367650032043,None,0,1.0,circleorange.gif,stop,,,,,,,,,,,,,,,,,,,,,,,,,,0.79,0.514050006866,0.000916957855225,0.367650032043,1,w,850.955238819,,,,,,,,,,,,,,,,,,,,,,,,,,,,,,,,2015_Jul_02_1354,59.8960392081,LearningTask,1,75,
200,s,-200,,,,,,,,,,,,,,,,,1,0,1,0,20,2,82,2,,,,,,,,,,,,,,,,,,,,,,,,,,,,,s,1,0.334003925323,None,0,4.0,squarewhite.gif,go,,,,,,,,,,,,,,,,,,,,,,,,,,0,0.514195919037,0.000876903533936,0.334003925323,1,s,853.95852685,,,,,,,,,,,,,,,,,,,,,,,,,,,,,,,,2015_Jul_02_1354,59.8960392081,LearningTask,1,75,
200,w,200,,,,,,,,,,,,,,,,,1,0,1,0,20,3,83,0,,,,,,,,,,,,,,,,,,,,,,,,,,,,,w,1,0.367455005646,None,0,2.0,trianglemagenta.gif,go,,,,,,,,,,,,,,,,,,,,,,,,,,1.92,0.514173030853,0.000874996185303,0.367455005646,1,w,856.961668015,,,,,,,,,,,,,,,,,,,,,,,,,,,,,,,,2015_Jul_02_1354,59.8960392081,LearningTask,1,75,
200,w,200,,,,,,,,,,,,,,,,,1,0,1,0,21,0,84,0,,,,,,,,,,,,,,,,,,,,,,,,,,,,,w,1,0.367980003357,None,0,1.0,circleorange.gif,stop,,,,,,,,,,,,,,,,,,,,,,,,,,0.87,0.514258146286,0.000984191894531,0.367980003357,1,w,859.964843035,,,,,,,,,,,,,,,,,,,,,,,,,,,,,,,,2015_Jul_02_1354,59.8960392081,LearningTask,1,75,
200,s,-200,,,,,,,,,,,,,,,,,1,0,1,0,21,1,85,2,,,,,,,,,,,,,,,,,,,,,,,,,,,,,s,1,0.384347915649,None,0,2.0,linegray.gif,stop,,,,,,,,,,,,,,,,,,,,,,,,,,2.01,0.5145008564,0.000875949859619,0.384347915649,1,s,862.968477964,,,,,,,,,,,,,,,,,,,,,,,,,,,,,,,,2015_Jul_02_1354,59.8960392081,LearningTask,1,75,
-200,q,200,,,,,,,,,,,,,,,,,1,0,1,0,21,2,86,1,,,,,,,,,,,,,,,,,,,,,,,,,,,,,q,1,0.434373855591,None,0,2.0,linegray.gif,stop,,,,,,,,,,,,,,,,,,,,,,,,,,1.92,0.514143943787,0.000872135162354,0.434373855591,1,q,865.971673012,,,,,,,,,,,,,,,,,,,,,,,,,,,,,,,,2015_Jul_02_1354,59.8960392081,LearningTask,1,75,
-200,q,200,,,,,,,,,,,,,,,,,1,0,1,0,21,3,87,1,,,,,,,,,,,,,,,,,,,,,,,,,,,,,q,1,0.367920160294,None,0,0.5,hexagoncyan.gif,go,,,,,,,,,,,,,,,,,,,,,,,,,,0.52,0.514047861099,0.00112199783325,0.367920160294,1,q,868.975178957,,,,,,,,,,,,,,,,,,,,,,,,,,,,,,,,2015_Jul_02_1354,59.8960392081,LearningTask,1,75,
-200,a,-200,,,,,,,,,,,,,,,,,1,0,1,0,22,0,88,3,,,,,,,,,,,,,,,,,,,,,,,,,,,,,a,1,0.484518051147,None,0,0.5,diamondyellow.gif,stop,,,,,,,,,,,,,,,,,,,,,,,,,,0,0.514170885086,0.000875949859619,0.484518051147,1,a,871.978579998,,,,,,,,,,,,,,,,,,,,,,,,,,,,,,,,2015_Jul_02_1354,59.8960392081,LearningTask,1,75,
-200,q,200,,,,,,,,,,,,,,,,,1,0,1,0,22,1,89,1,,,,,,,,,,,,,,,,,,,,,,,,,,,,,q,1,0.417701005936,None,0,0.5,diamondyellow.gif,stop,,,,,,,,,,,,,,,,,,,,,,,,,,0,0.51425409317,0.000874996185303,0.417701005936,1,q,874.981889963,,,,,,,,,,,,,,,,,,,,,,,,,,,,,,,,2015_Jul_02_1354,59.8960392081,LearningTask,1,75,
-200,a,-200,,,,,,,,,,,,,,,,,1,0,1,0,22,2,90,3,,,,,,,,,,,,,,,,,,,,,,,,,,,,,a,1,0.434134960175,None,0,2.0,trianglemagenta.gif,go,,,,,,,,,,,,,,,,,,,,,,,,,,1.78,0.514450073242,0.000910043716431,0.434134960175,1,a,877.985050917,,,,,,,,,,,,,,,,,,,,,,,,,,,,,,,,2015_Jul_02_1354,59.8960392081,LearningTask,1,75,
200,w,200,,,,,,,,,,,,,,,,,1,0,1,0,22,3,91,0,,,,,,,,,,,,,,,,,,,,,,,,,,,,,w,1,0.384306907654,None,0,4.0,crossblue.gif,stop,,,,,,,,,,,,,,,,,,,,,,,,,,4.0,0.514464139938,0.000874996185303,0.384306907654,1,w,880.988725901,,,,,,,,,,,,,,,,,,,,,,,,,,,,,,,,2015_Jul_02_1354,59.8960392081,LearningTask,1,75,
-200,a,-200,,,,,,,,,,,,,,,,,1,0,1,0,23,0,92,3,,,,,,,,,,,,,,,,,,,,,,,,,,,,,a,1,0.300808906555,None,0,0.5,diamondyellow.gif,stop,,,,,,,,,,,,,,,,,,,,,,,,,,0.37,0.514060974121,0.000878095626831,0.300808906555,1,a,883.992482901,,,,,,,,,,,,,,,,,,,,,,,,,,,,,,,,2015_Jul_02_1354,59.8960392081,LearningTask,1,75,
-200,q,200,,,,,,,,,,,,,,,,,1,0,1,0,23,1,93,1,,,,,,,,,,,,,,,,,,,,,,,,,,,,,q,1,0.467486858368,None,0,1.0,circleorange.gif,stop,,,,,,,,,,,,,,,,,,,,,,,,,,1.09,0.513472795486,0.000897884368896,0.467486858368,1,q,886.995311022,,,,,,,,,,,,,,,,,,,,,,,,,,,,,,,,2015_Jul_02_1354,59.8960392081,LearningTask,1,75,
-200,q,200,,,,,,,,,,,,,,,,,1,0,1,0,23,2,94,1,,,,,,,,,,,,,,,,,,,,,,,,,,,,,q,1,0.484878063202,None,0,1.0,invertedtrianglegreen.gif,go,,,,,,,,,,,,,,,,,,,,,,,,,,0,0.514375925064,0.000874042510986,0.484878063202,1,q,889.998814821,,,,,,,,,,,,,,,,,,,,,,,,,,,,,,,,2015_Jul_02_1354,59.8960392081,LearningTask,1,75,
200,w,200,,,,,,,,,,,,,,,,,1,0,1,0,23,3,95,0,,,,,,,,,,,,,,,,,,,,,,,,,,,,,w,1,0.500890016556,None,0,1.0,circleorange.gif,stop,,,,,,,,,,,,,,,,,,,,,,,,,,0.94,0.514220952988,0.000881910324097,0.500890016556,1,w,893.002563,,,,,,,,,,,,,,,,,,,,,,,,,,,,,,,,2015_Jul_02_1354,59.8960392081,LearningTask,1,75,
200,w,200,,,,,,,,,,,,,,,,,1,0,1,0,24,0,96,0,,,,,,,,,,,,,,,,,,,,,,,,,,,,,w,1,0.434205055237,None,0,4.0,crossblue.gif,stop,,,,,,,,,,,,,,,,,,,,,,,,,,3.88,0.513779878616,0.000893831253052,0.434205055237,1,w,896.005360842,,,,,,,,,,,,,,,,,,,,,,,,,,,,,,,,2015_Jul_02_1354,59.8960392081,LearningTask,1,75,
-200,a,-200,,,,,,,,,,,,,,,,,1,0,1,0,24,1,97,3,,,,,,,,,,,,,,,,,,,,,,,,,,,,,a,1,0.417652130127,None,0,4.0,squarewhite.gif,go,,,,,,,,,,,,,,,,,,,,,,,,,,3.83,0.514616012573,0.000893115997314,0.417652130127,1,a,899.00896287,,,,,,,,,,,,,,,,,,,,,,,,,,,,,,,,2015_Jul_02_1354,59.8960392081,LearningTask,1,75,
200,s,-200,,,,,,,,,,,,,,,,,1,0,1,0,24,2,98,2,,,,,,,,,,,,,,,,,,,,,,,,,,,,,s,1,0.450951099396,None,0,4.0,crossblue.gif,stop,,,,,,,,,,,,,,,,,,,,,,,,,,3.83,0.514307975769,0.000878095626831,0.450951099396,1,s,902.012228966,,,,,,,,,,,,,,,,,,,,,,,,,,,,,,,,2015_Jul_02_1354,59.8960392081,LearningTask,1,75,
-200,a,-200,,,,,,,,,,,,,,,,,1,0,1,0,24,3,99,3,,,,,,,,,,,,,,,,,,,,,,,,,,,,,a,1,0.350900173187,None,0,0.5,diamondyellow.gif,stop,,,,,,,,,,,,,,,,,,,,,,,,,,0.64,0.514168024063,0.000898122787476,0.350900173187,1,a,905.015296936,,,,,,,,,,,,,,,,,,,,,,,,,,,,,,,,2015_Jul_02_1354,59.8960392081,LearningTask,1,75,
,,,,,,,,,,,,,,,,,,,1,0,1,0,,,,,,,,,,,,,,,,,,,,,,,,,,,,,,,,,,,,,,,,,,,,,,,,,,,,,,,,,,,,,,,,,,,,,,,,,,,,,,,,9,7.90022516251,,,,,,,,,,,,,,,,,,,,,,,2015_Jul_02_1354,59.8960392081,LearningTask,1,75,
200,w,200,,,,,,,,,,,,,,,,,2,0,2,0,0,0,0,0,,,,,,,,,,,,,,,,,,,,,,,,,,,,,w,1,0.718101024628,None,0,1.0,invertedtrianglegreen.gif,go,,,,,,,,,,,,,,,,,,,,,,,,,,0,0.510107040405,0.000986099243164,0.718101024628,1,w,916.629287958,,,,,,,,,,,,,,,,,,,,,,,,,,,,,,,,2015_Jul_02_1354,59.8960392081,LearningTask,1,75,
-200,a,-200,,,,,,,,,,,,,,,,,2,0,2,0,0,1,1,3,,,,,,,,,,,,,,,,,,,,,,,,,,,,,a,1,0.400767803192,None,0,1.0,circleorange.gif,stop,,,,,,,,,,,,,,,,,,,,,,,,,,1.21,0.513352870941,0.000879049301147,0.400767803192,1,a,919.631810904,,,,,,,,,,,,,,,,,,,,,,,,,,,,,,,,2015_Jul_02_1354,59.8960392081,LearningTask,1,75,
200,s,-200,,,,,,,,,,,,,,,,,2,0,2,0,0,2,2,2,,,,,,,,,,,,,,,,,,,,,,,,,,,,,s,1,0.38377404213,None,0,0.5,hexagoncyan.gif,go,,,,,,,,,,,,,,,,,,,,,,,,,,0,0.514698028564,0.000937938690186,0.38377404213,1,s,922.634970903,,,,,,,,,,,,,,,,,,,,,,,,,,,,,,,,2015_Jul_02_1354,59.8960392081,LearningTask,1,75,
-200,a,-200,,,,,,,,,,,,,,,,,2,0,2,0,0,3,3,3,,,,,,,,,,,,,,,,,,,,,,,,,,,,,a,1,0.467643022537,None,0,4.0,squarewhite.gif,go,,,,,,,,,,,,,,,,,,,,,,,,,,4.05,0.514290094376,0.000908136367798,0.467643022537,1,a,925.638473034,,,,,,,,,,,,,,,,,,,,,,,,,,,,,,,,2015_Jul_02_1354,59.8960392081,LearningTask,1,75,
200,w,200,,,,,,,,,,,,,,,,,2,0,2,0,1,0,4,0,,,,,,,,,,,,,,,,,,,,,,,,,,,,,w,1,0.350836038589,None,0,2.0,trianglemagenta.gif,go,,,,,,,,,,,,,,,,,,,,,,,,,,0,0.514326095581,0.000881195068359,0.350836038589,1,w,928.64180994,,,,,,,,,,,,,,,,,,,,,,,,,,,,,,,,2015_Jul_02_1354,59.8960392081,LearningTask,1,75,
-200,a,-200,,,,,,,,,,,,,,,,,2,0,2,0,1,1,5,3,,,,,,,,,,,,,,,,,,,,,,,,,,,,,a,1,0.467764139175,None,0,4.0,crossblue.gif,stop,,,,,,,,,,,,,,,,,,,,,,,,,,3.93,0.51403594017,0.000931024551392,0.467764139175,1,a,931.645405054,,,,,,,,,,,,,,,,,,,,,,,,,,,,,,,,2015_Jul_02_1354,59.8960392081,LearningTask,1,75,
-200,a,-200,,,,,,,,,,,,,,,,,2,0,2,0,1,2,6,3,,,,,,,,,,,,,,,,,,,,,,,,,,,,,a,1,0.400642871857,None,0,2.0,trianglemagenta.gif,go,,,,,,,,,,,,,,,,,,,,,,,,,,2.07,0.514314889908,0.000890016555786,0.400642871857,1,a,934.648589849,,,,,,,,,,,,,,,,,,,,,,,,,,,,,,,,2015_Jul_02_1354,59.8960392081,LearningTask,1,75,
200,s,-200,,,,,,,,,,,,,,,,,2,0,2,0,1,3,7,2,,,,,,,,,,,,,,,,,,,,,,,,,,,,,s,1,0.367817878723,None,0,1.0,circleorange.gif,stop,,,,,,,,,,,,,,,,,,,,,,,,,,1.2,0.51408290863,0.000878095626831,0.367817878723,1,s,937.651965857,,,,,,,,,,,,,,,,,,,,,,,,,,,,,,,,2015_Jul_02_1354,59.8960392081,LearningTask,1,75,
-200,a,-200,,,,,,,,,,,,,,,,,2,0,2,0,2,0,8,3,,,,,,,,,,,,,,,,,,,,,,,,,,,,,a,1,0.350980997086,None,0,2.0,trianglemagenta.gif,go,,,,,,,,,,,,,,,,,,,,,,,,,,0,0.514394044876,0.000875949859619,0.350980997086,1,a,940.655279875,,,,,,,,,,,,,,,,,,,,,,,,,,,,,,,,2015_Jul_02_1354,59.8960392081,LearningTask,1,75,
-200,q,200,,,,,,,,,,,,,,,,,2,0,2,0,2,1,9,1,,,,,,,,,,,,,,,,,,,,,,,,,,,,,q,1,0.350848913193,None,0,1.0,circleorange.gif,stop,,,,,,,,,,,,,,,,,,,,,,,,,,1.05,0.514087915421,0.000883817672729,0.350848913193,1,q,943.659021854,,,,,,,,,,,,,,,,,,,,,,,,,,,,,,,,2015_Jul_02_1354,59.8960392081,LearningTask,1,75,
-200,q,200,,,,,,,,,,,,,,,,,2,0,2,0,2,2,10,1,,,,,,,,,,,,,,,,,,,,,,,,,,,,,q,1,0.368176937103,None,0,1.0,invertedtrianglegreen.gif,go,,,,,,,,,,,,,,,,,,,,,,,,,,0,0.513702869415,0.000869989395142,0.368176937103,1,q,946.661939859,,,,,,,,,,,,,,,,,,,,,,,,,,,,,,,,2015_Jul_02_1354,59.8960392081,LearningTask,1,75,
200,w,200,,,,,,,,,,,,,,,,,2,0,2,0,2,3,11,0,,,,,,,,,,,,,,,,,,,,,,,,,,,,,w,1,0.334681987762,None,0,1.0,invertedtrianglegreen.gif,go,,,,,,,,,,,,,,,,,,,,,,,,,,1.05,0.514139890671,0.000875949859619,0.334681987762,1,w,949.665640831,,,,,,,,,,,,,,,,,,,,,,,,,,,,,,,,2015_Jul_02_1354,59.8960392081,LearningTask,1,75,
-200,a,-200,,,,,,,,,,,,,,,,,2,0,2,0,3,0,12,3,,,,,,,,,,,,,,,,,,,,,,,,,,,,,a,1,0.401000976562,None,0,4.0,crossblue.gif,stop,,,,,,,,,,,,,,,,,,,,,,,,,,0,0.513756990433,0.000892877578735,0.401000976562,1,a,952.668416023,,,,,,,,,,,,,,,,,,,,,,,,,,,,,,,,2015_Jul_02_1354,59.8960392081,LearningTask,1,75,
200,s,-200,,,,,,,,,,,,,,,,,2,0,2,0,3,1,13,2,,,,,,,,,,,,,,,,,,,,,,,,,,,,,s,1,0.384032011032,None,0,2.0,trianglemagenta.gif,go,,,,,,,,,,,,,,,,,,,,,,,,,,0,0.514877080917,0.000874996185303,0.384032011032,1,s,955.672138929,,,,,,,,,,,,,,,,,,,,,,,,,,,,,,,,2015_Jul_02_1354,59.8960392081,LearningTask,1,75,
-200,q,200,,,,,,,,,,,,,,,,,2,0,2,0,3,2,14,1,,,,,,,,,,,,,,,,,,,,,,,,,,,,,q,1,0.43434214592,None,0,2.0,linegray.gif,stop,,,,,,,,,,,,,,,,,,,,,,,,,,1.87,0.514126062393,0.000869035720825,0.43434214592,1,q,958.675391912,,,,,,,,,,,,,,,,,,,,,,,,,,,,,,,,2015_Jul_02_1354,59.8960392081,LearningTask,1,75,
-200,q,200,,,,,,,,,,,,,,,,,2,0,2,0,3,3,15,1,,,,,,,,,,,,,,,,,,,,,,,,,,,,,q,1,0.367553949356,None,0,4.0,squarewhite.gif,go,,,,,,,,,,,,,,,,,,,,,,,,,,0,0.5143699646,0.000926971435547,0.367553949356,1,q,961.678508043,,,,,,,,,,,,,,,,,,,,,,,,,,,,,,,,2015_Jul_02_1354,59.8960392081,LearningTask,1,75,
-200,a,-200,,,,,,,,,,,,,,,,,2,0,2,0,4,0,16,3,,,,,,,,,,,,,,,,,,,,,,,,,,,,,a,1,0.350821018219,None,0,0.5,hexagoncyan.gif,go,,,,,,,,,,,,,,,,,,,,,,,,,,0.3,0.514620065689,0.00096607208252,0.350821018219,1,a,964.682390928,,,,,,,,,,,,,,,,,,,,,,,,,,,,,,,,2015_Jul_02_1354,59.8960392081,LearningTask,1,75,
-200,a,-200,,,,,,,,,,,,,,,,,2,0,2,0,4,1,17,3,,,,,,,,,,,,,,,,,,,,,,,,,,,,,a,1,0.41758108139,None,0,1.0,invertedtrianglegreen.gif,go,,,,,,,,,,,,,,,,,,,,,,,,,,1.13,0.514070987701,0.000874996185303,0.41758108139,1,a,967.685183048,,,,,,,,,,,,,,,,,,,,,,,,,,,,,,,,2015_Jul_02_1354,59.8960392081,LearningTask,1,75,
200,w,200,,,,,,,,,,,,,,,,,2,0,2,0,4,2,18,0,,,,,,,,,,,,,,,,,,,,,,,,,,,,,w,1,0.400913000107,None,0,4.0,squarewhite.gif,go,,,,,,,,,,,,,,,,,,,,,,,,,,4.11,0.514622926712,0.00180792808533,0.400913000107,1,w,970.688921928,,,,,,,,,,,,,,,,,,,,,,,,,,,,,,,,2015_Jul_02_1354,59.8960392081,LearningTask,1,75,
-200,q,200,,,,,,,,,,,,,,,,,2,0,2,0,4,3,19,1,,,,,,,,,,,,,,,,,,,,,,,,,,,,,q,1,0.317581892014,None,0,2.0,trianglemagenta.gif,go,,,,,,,,,,,,,,,,,,,,,,,,,,0,0.514018058777,0.00114703178406,0.317581892014,1,q,973.69213891,,,,,,,,,,,,,,,,,,,,,,,,,,,,,,,,2015_Jul_02_1354,59.8960392081,LearningTask,1,75,
200,s,-200,,,,,,,,,,,,,,,,,2,0,2,0,5,0,20,2,,,,,,,,,,,,,,,,,,,,,,,,,,,,,s,1,0.367858171463,None,0,1.0,invertedtrianglegreen.gif,go,,,,,,,,,,,,,,,,,,,,,,,,,,1.1,0.514439821243,0.000875949859619,0.367858171463,1,s,976.69556284,,,,,,,,,,,,,,,,,,,,,,,,,,,,,,,,2015_Jul_02_1354,59.8960392081,LearningTask,1,75,
-200,a,-200,,,,,,,,,,,,,,,,,2,0,2,0,5,1,21,3,,,,,,,,,,,,,,,,,,,,,,,,,,,,,a,1,0.450768947601,None,0,1.0,invertedtrianglegreen.gif,go,,,,,,,,,,,,,,,,,,,,,,,,,,0.76,0.514245986938,0.000906944274902,0.450768947601,1,a,979.699157953,,,,,,,,,,,,,,,,,,,,,,,,,,,,,,,,2015_Jul_02_1354,59.8960392081,LearningTask,1,75,
200,s,-200,,,,,,,,,,,,,,,,,2,0,2,0,5,2,22,2,,,,,,,,,,,,,,,,,,,,,,,,,,,,,s,1,0.618468046188,None,0,4.0,squarewhite.gif,go,,,,,,,,,,,,,,,,,,,,,,,,,,3.99,0.51347899437,0.000943899154663,0.618468046188,1,s,982.702476978,,,,,,,,,,,,,,,,,,,,,,,,,,,,,,,,2015_Jul_02_1354,59.8960392081,LearningTask,1,75,
200,w,200,,,,,,,,,,,,,,,,,2,0,2,0,5,3,23,0,,,,,,,,,,,,,,,,,,,,,,,,,,,,,w,1,0.417406082153,None,0,1.0,circleorange.gif,stop,,,,,,,,,,,,,,,,,,,,,,,,,,0,0.51417016983,0.000909090042114,0.417406082153,1,w,985.705909014,,,,,,,,,,,,,,,,,,,,,,,,,,,,,,,,2015_Jul_02_1354,59.8960392081,LearningTask,1,75,
-200,a,-200,,,,,,,,,,,,,,,,,2,0,2,0,6,0,24,3,,,,,,,,,,,,,,,,,,,,,,,,,,,,,a,1,0.46675992012,None,0,0.5,diamondyellow.gif,stop,,,,,,,,,,,,,,,,,,,,,,,,,0.109865188599,0,0.514196157455,0.00087308883667,[],0,None,988.709233999,0.51,0.515524864197,0.000952005386353,0.46675992012,1,a,991.712605,,,,,,,,,,,,,,,,,,,,,,,,,2015_Jul_02_1354,59.8960392081,LearningTask,1,75,
200,w,200,,,,,,,,,,,,,,,,,2,0,2,0,6,1,25,0,,,,,,,,,,,,,,,,,,,,,,,,,,,,,w,1,0.43467092514,None,0,2.0,linegray.gif,stop,,,,,,,,,,,,,,,,,,,,,,,,,,1.75,0.514227867126,0.000865936279297,0.43467092514,1,w,994.715958834,,,,,,,,,,,,,,,,,,,,,,,,,,,,,,,,2015_Jul_02_1354,59.8960392081,LearningTask,1,75,
200,s,-200,,,,,,,,,,,,,,,,,2,0,2,0,6,2,26,2,,,,,,,,,,,,,,,,,,,,,,,,,,,,,s,1,0.367223978043,None,0,1.0,circleorange.gif,stop,,,,,,,,,,,,,,,,,,,,,,,,,,0.93,0.514140129089,0.000900030136108,0.367223978043,1,s,997.719316006,,,,,,,,,,,,,,,,,,,,,,,,,,,,,,,,2015_Jul_02_1354,59.8960392081,LearningTask,1,75,
200,s,-200,,,,,,,,,,,,,,,,,2,0,2,0,6,3,27,2,,,,,,,,,,,,,,,,,,,,,,,,,,,,,s,1,0.384627819061,None,0,0.5,diamondyellow.gif,stop,,,,,,,,,,,,,,,,,,,,,,,,,,0.33,0.513917922974,0.000890970230103,0.384627819061,1,s,1000.7224369,,,,,,,,,,,,,,,,,,,,,,,,,,,,,,,,2015_Jul_02_1354,59.8960392081,LearningTask,1,75,
200,s,-200,,,,,,,,,,,,,,,,,2,0,2,0,7,0,28,2,,,,,,,,,,,,,,,,,,,,,,,,,,,,,s,1,0.401077032089,None,0,4.0,crossblue.gif,stop,,,,,,,,,,,,,,,,,,,,,,,,,,4.01,0.514132976532,0.000870943069458,0.401077032089,1,s,1003.72567892,,,,,,,,,,,,,,,,,,,,,,,,,,,,,,,,2015_Jul_02_1354,59.8960392081,LearningTask,1,75,
200,w,200,,,,,,,,,,,,,,,,,2,0,2,0,7,1,29,0,,,,,,,,,,,,,,,,,,,,,,,,,,,,,w,1,0.401525974274,None,0,4.0,crossblue.gif,stop,,,,,,,,,,,,,,,,,,,,,,,,,,3.91,0.514442920685,0.000874996185303,0.401525974274,1,w,1006.72900701,,,,,,,,,,,,,,,,,,,,,,,,,,,,,,,,2015_Jul_02_1354,59.8960392081,LearningTask,1,75,
200,s,-200,,,,,,,,,,,,,,,,,2,0,2,0,7,2,30,2,,,,,,,,,,,,,,,,,,,,,,,,,,,,,s,1,0.367474079132,None,0,4.0,squarewhite.gif,go,,,,,,,,,,,,,,,,,,,,,,,,,,3.82,0.514344930649,0.000866889953613,0.367474079132,1,s,1009.73238993,,,,,,,,,,,,,,,,,,,,,,,,,,,,,,,,2015_Jul_02_1354,59.8960392081,LearningTask,1,75,
-200,q,200,,,,,,,,,,,,,,,,,2,0,2,0,7,3,31,1,,,,,,,,,,,,,,,,,,,,,,,,,,,,,q,1,0.401216983795,None,0,1.0,circleorange.gif,stop,,,,,,,,,,,,,,,,,,,,,,,,,,0.86,0.514441013336,0.00107502937317,0.401216983795,1,q,1012.73610997,,,,,,,,,,,,,,,,,,,,,,,,,,,,,,,,2015_Jul_02_1354,59.8960392081,LearningTask,1,75,
-200,q,200,,,,,,,,,,,,,,,,,2,0,2,0,8,0,32,1,,,,,,,,,,,,,,,,,,,,,,,,,,,,,q,1,0.467767000198,None,0,1.0,invertedtrianglegreen.gif,go,,,,,,,,,,,,,,,,,,,,,,,,,,0.77,0.514165878296,0.000891923904419,0.467767000198,1,q,1015.7391839,,,,,,,,,,,,,,,,,,,,,,,,,,,,,,,,2015_Jul_02_1354,59.8960392081,LearningTask,1,75,
200,w,200,,,,,,,,,,,,,,,,,2,0,2,0,8,1,33,0,,,,,,,,,,,,,,,,,,,,,,,,,,,,,w,1,0.350635051727,None,0,4.0,crossblue.gif,stop,,,,,,,,,,,,,,,,,,,,,,,,,,4.06,0.514575958252,0.000921964645386,0.350635051727,1,w,1018.74244785,,,,,,,,,,,,,,,,,,,,,,,,,,,,,,,,2015_Jul_02_1354,59.8960392081,LearningTask,1,75,
200,s,-200,,,,,,,,,,,,,,,,,2,0,2,0,8,2,34,2,,,,,,,,,,,,,,,,,,,,,,,,,,,,,s,1,0.383830070496,None,0,1.0,circleorange.gif,stop,,,,,,,,,,,,,,,,,,,,,,,,,,1.12,0.514456987381,0.000961065292358,0.383830070496,1,s,1021.7457819,,,,,,,,,,,,,,,,,,,,,,,,,,,,,,,,2015_Jul_02_1354,59.8960392081,LearningTask,1,75,
-200,a,-200,,,,,,,,,,,,,,,,,2,0,2,0,8,3,35,3,,,,,,,,,,,,,,,,,,,,,,,,,,,,,a,1,0.334527015686,None,0,4.0,crossblue.gif,stop,,,,,,,,,,,,,,,,,,,,,,,,,,4.05,0.514351129532,0.000887155532837,0.334527015686,1,a,1024.74898887,,,,,,,,,,,,,,,,,,,,,,,,,,,,,,,,2015_Jul_02_1354,59.8960392081,LearningTask,1,75,
-200,a,-200,,,,,,,,,,,,,,,,,2,0,2,0,9,0,36,3,,,,,,,,,,,,,,,,,,,,,,,,,,,,,a,1,0.200558900833,None,0,2.0,trianglemagenta.gif,go,,,,,,,,,,,,,,,,,,,,,,,,,,0,0.514382123947,0.000955104827881,0.384804964066,0,q,1027.75223684,1.79,0.516386032104,0.00108408927917,0.200558900833,1,a,1030.75602388,,,,,,,,,,,,,,,,,,,,,,,,,2015_Jul_02_1354,59.8960392081,LearningTask,1,75,
-200,a,-200,,,,,,,,,,,,,,,,,2,0,2,0,9,1,37,3,,,,,,,,,,,,,,,,,,,,,,,,,,,,,a,1,0.434592008591,None,0,2.0,linegray.gif,stop,,,,,,,,,,,,,,,,,,,,,,,,,,1.79,0.513950109482,0.000884056091309,0.434592008591,1,a,1033.75959396,,,,,,,,,,,,,,,,,,,,,,,,,,,,,,,,2015_Jul_02_1354,59.8960392081,LearningTask,1,75,
200,w,200,,,,,,,,,,,,,,,,,2,0,2,0,9,2,38,0,,,,,,,,,,,,,,,,,,,,,,,,,,,,,w,1,0.417461872101,None,0,4.0,squarewhite.gif,go,,,,,,,,,,,,,,,,,,,,,,,,,,0,0.514141798019,0.000902891159058,0.417461872101,1,w,1036.76290393,,,,,,,,,,,,,,,,,,,,,,,,,,,,,,,,2015_Jul_02_1354,59.8960392081,LearningTask,1,75,
-200,q,200,,,,,,,,,,,,,,,,,2,0,2,0,9,3,39,1,,,,,,,,,,,,,,,,,,,,,,,,,,,,,q,1,0.383967876434,None,0,1.0,invertedtrianglegreen.gif,go,,,,,,,,,,,,,,,,,,,,,,,,,,1.07,0.513933897018,0.000881910324097,0.383967876434,1,q,1039.76590991,,,,,,,,,,,,,,,,,,,,,,,,,,,,,,,,2015_Jul_02_1354,59.8960392081,LearningTask,1,75,
-200,a,-200,,,,,,,,,,,,,,,,,2,0,2,0,10,0,40,3,,,,,,,,,,,,,,,,,,,,,,,,,,,,,a,1,0.367579221725,None,0,0.5,hexagoncyan.gif,go,,,,,,,,,,,,,,,,,,,,,,,,,,0.41,0.514246940613,0.000961065292358,0.367579221725,1,a,1042.76920485,,,,,,,,,,,,,,,,,,,,,,,,,,,,,,,,2015_Jul_02_1354,59.8960392081,LearningTask,1,75,
200,s,-200,,,,,,,,,,,,,,,,,2,0,2,0,10,1,41,2,,,,,,,,,,,,,,,,,,,,,,,,,,,,,s,1,0.451014995575,None,0,2.0,trianglemagenta.gif,go,,,,,,,,,,,,,,,,,,,,,,,,,,1.8,0.514736890793,0.000880002975464,0.451014995575,1,s,1045.77294993,,,,,,,,,,,,,,,,,,,,,,,,,,,,,,,,2015_Jul_02_1354,59.8960392081,LearningTask,1,75,
-200,q,200,,,,,,,,,,,,,,,,,2,0,2,0,10,2,42,1,,,,,,,,,,,,,,,,,,,,,,,,,,,,,q,1,0.534100055695,None,0,4.0,squarewhite.gif,go,,,,,,,,,,,,,,,,,,,,,,,,,,3.81,0.51397395134,0.000888109207153,0.534100055695,1,q,1048.77610898,,,,,,,,,,,,,,,,,,,,,,,,,,,,,,,,2015_Jul_02_1354,59.8960392081,LearningTask,1,75,
200,s,-200,,,,,,,,,,,,,,,,,2,0,2,0,10,3,43,2,,,,,,,,,,,,,,,,,,,,,,,,,,,,,s,1,0.351390838623,None,0,1.0,invertedtrianglegreen.gif,go,,,,,,,,,,,,,,,,,,,,,,,,,,0.87,0.514485836029,0.00088095664978,0.351390838623,1,s,1051.77948284,,,,,,,,,,,,,,,,,,,,,,,,,,,,,,,,2015_Jul_02_1354,59.8960392081,LearningTask,1,75,
200,w,200,,,,,,,,,,,,,,,,,2,0,2,0,11,0,44,0,,,,,,,,,,,,,,,,,,,,,,,,,,,,,w,1,0.41733789444,None,0,1.0,circleorange.gif,stop,,,,,,,,,,,,,,,,,,,,,,,,,,0,0.514368057251,0.0011351108551,0.41733789444,1,w,1054.78284097,,,,,,,,,,,,,,,,,,,,,,,,,,,,,,,,2015_Jul_02_1354,59.8960392081,LearningTask,1,75,
-200,a,-200,,,,,,,,,,,,,,,,,2,0,2,0,11,1,45,3,,,,,,,,,,,,,,,,,,,,,,,,,,,,,a,1,0.418359994888,None,0,1.0,invertedtrianglegreen.gif,go,,,,,,,,,,,,,,,,,,,,,,,,,0.344310998917,0,0.514420032501,0.000973224639893,[],0,None,1057.78581786,0.95,0.515776157379,0.000941038131714,0.418359994888,1,a,1060.78932095,,,,,,,,,,,,,,,,,,,,,,,,,2015_Jul_02_1354,59.8960392081,LearningTask,1,75,
200,w,200,,,,,,,,,,,,,,,,,2,0,2,0,11,2,46,0,,,,,,,,,,,,,,,,,,,,,,,,,,,,,w,1,0.40069103241,None,0,2.0,trianglemagenta.gif,go,,,,,,,,,,,,,,,,,,,,,,,,,,2.21,0.514689922333,0.000910043716431,0.40069103241,1,w,1063.79262805,,,,,,,,,,,,,,,,,,,,,,,,,,,,,,,,2015_Jul_02_1354,59.8960392081,LearningTask,1,75,
200,s,-200,,,,,,,,,,,,,,,,,2,0,2,0,11,3,47,2,,,,,,,,,,,,,,,,,,,,,,,,,,,,,s,1,0.650897026062,None,0,4.0,squarewhite.gif,go,,,,,,,,,,,,,,,,,,,,,,,,,,3.75,0.514863967896,0.000907897949219,0.650897026062,1,s,1066.796345,,,,,,,,,,,,,,,,,,,,,,,,,,,,,,,,2015_Jul_02_1354,59.8960392081,LearningTask,1,75,
200,s,-200,,,,,,,,,,,,,,,,,2,0,2,0,12,0,48,2,,,,,,,,,,,,,,,,,,,,,,,,,,,,,s,1,0.400980949402,None,0,1.0,circleorange.gif,stop,,,,,,,,,,,,,,,,,,,,,,,,,,1.24,0.513979911804,0.00104999542236,0.400980949402,1,s,1069.79964805,,,,,,,,,,,,,,,,,,,,,,,,,,,,,,,,2015_Jul_02_1354,59.8960392081,LearningTask,1,75,
200,s,-200,,,,,,,,,,,,,,,,,2,0,2,0,12,1,49,2,,,,,,,,,,,,,,,,,,,,,,,,,,,,,s,1,0.350720882416,None,0,2.0,trianglemagenta.gif,go,,,,,,,,,,,,,,,,,,,,,,,,,,0,0.514245986938,0.000870943069458,0.350720882416,1,s,1072.80269289,,,,,,,,,,,,,,,,,,,,,,,,,,,,,,,,2015_Jul_02_1354,59.8960392081,LearningTask,1,75,
200,w,200,,,,,,,,,,,,,,,,,2,0,2,0,12,2,50,0,,,,,,,,,,,,,,,,,,,,,,,,,,,,,w,1,0.36777806282,None,0,1.0,circleorange.gif,stop,,,,,,,,,,,,,,,,,,,,,,,,,,1.2,0.514348983765,0.00098705291748,0.36777806282,1,w,1075.80658293,,,,,,,,,,,,,,,,,,,,,,,,,,,,,,,,2015_Jul_02_1354,59.8960392081,LearningTask,1,75,
200,w,200,,,,,,,,,,,,,,,,,2,0,2,0,12,3,51,0,,,,,,,,,,,,,,,,,,,,,,,,,,,,,w,1,0.318032026291,None,0,4.0,squarewhite.gif,go,,,,,,,,,,,,,,,,,,,,,,,,,,4.24,0.513531923294,0.000899076461792,0.318032026291,1,w,1078.80974603,,,,,,,,,,,,,,,,,,,,,,,,,,,,,,,,2015_Jul_02_1354,59.8960392081,LearningTask,1,75,
200,w,200,,,,,,,,,,,,,,,,,2,0,2,0,13,0,52,0,,,,,,,,,,,,,,,,,,,,,,,,,,,,,w,1,0.384968996048,None,0,4.0,crossblue.gif,stop,,,,,,,,,,,,,,,,,,,,,,,,,,3.81,0.51414680481,0.000883817672729,0.384968996048,1,w,1081.81304502,,,,,,,,,,,,,,,,,,,,,,,,,,,,,,,,2015_Jul_02_1354,59.8960392081,LearningTask,1,75,
-200,q,200,,,,,,,,,,,,,,,,,2,0,2,0,13,1,53,1,,,,,,,,,,,,,,,,,,,,,,,,,,,,,q,1,0.501064062119,None,0,2.0,linegray.gif,stop,,,,,,,,,,,,,,,,,,,,,,,,,,0,0.514177083969,0.000874996185303,0.601300001144,0,a,1084.81664705,2.06,0.515215873718,0.000975847244263,0.501064062119,1,q,1087.81953692,,,,,,,,,,,,,,,,,,,,,,,,,2015_Jul_02_1354,59.8960392081,LearningTask,1,75,
-200,q,200,,,,,,,,,,,,,,,,,2,0,2,0,13,2,54,1,,,,,,,,,,,,,,,,,,,,,,,,,,,,,q,1,0.434091091156,None,0,2.0,trianglemagenta.gif,go,,,,,,,,,,,,,,,,,,,,,,,,,,2.04,0.514486074448,0.000874042510986,0.434091091156,1,q,1090.8236959,,,,,,,,,,,,,,,,,,,,,,,,,,,,,,,,2015_Jul_02_1354,59.8960392081,LearningTask,1,75,
-200,q,200,,,,,,,,,,,,,,,,,2,0,2,0,13,3,55,1,,,,,,,,,,,,,,,,,,,,,,,,,,,,,q,1,0.501121997833,None,0,2.0,linegray.gif,stop,,,,,,,,,,,,,,,,,,,,,,,,,,0,0.513464927673,0.000883102416992,0.501121997833,1,q,1093.82698083,,,,,,,,,,,,,,,,,,,,,,,,,,,,,,,,2015_Jul_02_1354,59.8960392081,LearningTask,1,75,
200,s,-200,,,,,,,,,,,,,,,,,2,0,2,0,14,0,56,2,,,,,,,,,,,,,,,,,,,,,,,,,,,,,s,1,0.450725793839,None,0,1.0,circleorange.gif,stop,,,,,,,,,,,,,,,,,,,,,,,,,,0.97,0.513751983643,0.000909090042114,0.450725793839,1,s,1096.82974887,,,,,,,,,,,,,,,,,,,,,,,,,,,,,,,,2015_Jul_02_1354,59.8960392081,LearningTask,1,75,
-200,q,200,,,,,,,,,,,,,,,,,2,0,2,0,14,1,57,1,,,,,,,,,,,,,,,,,,,,,,,,,,,,,q,1,0.585099935532,None,0,4.0,squarewhite.gif,go,,,,,,,,,,,,,,,,,,,,,,,,,,3.98,0.514317035675,0.000872850418091,0.585099935532,1,q,1099.8332119,,,,,,,,,,,,,,,,,,,,,,,,,,,,,,,,2015_Jul_02_1354,59.8960392081,LearningTask,1,75,
-200,a,-200,,,,,,,,,,,,,,,,,2,0,2,0,14,2,58,3,,,,,,,,,,,,,,,,,,,,,,,,,,,,,a,1,0.567589998245,None,0,4.0,crossblue.gif,stop,,,,,,,,,,,,,,,,,,,,,,,,,,3.88,0.514319896698,0.000875949859619,0.567589998245,1,a,1102.83667588,,,,,,,,,,,,,,,,,,,,,,,,,,,,,,,,2015_Jul_02_1354,59.8960392081,LearningTask,1,75,
200,s,-200,,,,,,,,,,,,,,,,,2,0,2,0,14,3,59,2,,,,,,,,,,,,,,,,,,,,,,,,,,,,,s,1,0.567170143127,None,0,2.0,linegray.gif,stop,,,,,,,,,,,,,,,,,,,,,,,,,,1.85,0.514347076416,0.000930070877075,0.567170143127,1,s,1105.83982682,,,,,,,,,,,,,,,,,,,,,,,,,,,,,,,,2015_Jul_02_1354,59.8960392081,LearningTask,1,75,
-200,q,200,,,,,,,,,,,,,,,,,2,0,2,0,15,0,60,1,,,,,,,,,,,,,,,,,,,,,,,,,,,,,q,1,0.534352064133,None,0,2.0,linegray.gif,stop,,,,,,,,,,,,,,,,,,,,,,,,,,2.15,0.514730930328,0.00107097625732,0.534352064133,1,q,1108.84345794,,,,,,,,,,,,,,,,,,,,,,,,,,,,,,,,2015_Jul_02_1354,59.8960392081,LearningTask,1,75,
200,s,-200,,,,,,,,,,,,,,,,,2,0,2,0,15,1,61,2,,,,,,,,,,,,,,,,,,,,,,,,,,,,,s,1,0.517356872559,None,0,1.0,circleorange.gif,stop,,,,,,,,,,,,,,,,,,,,,,,,,,1.07,0.514315128326,0.000879049301147,0.517356872559,1,s,1111.8466289,,,,,,,,,,,,,,,,,,,,,,,,,,,,,,,,2015_Jul_02_1354,59.8960392081,LearningTask,1,75,
200,w,200,,,,,,,,,,,,,,,,,2,0,2,0,15,2,62,0,,,,,,,,,,,,,,,,,,,,,,,,,,,,,w,1,0.434005022049,None,0,1.0,invertedtrianglegreen.gif,go,,,,,,,,,,,,,,,,,,,,,,,,,,0.78,0.514352083206,0.000952005386353,0.434005022049,1,w,1114.85001993,,,,,,,,,,,,,,,,,,,,,,,,,,,,,,,,2015_Jul_02_1354,59.8960392081,LearningTask,1,75,
200,w,200,,,,,,,,,,,,,,,,,2,0,2,0,15,3,63,0,,,,,,,,,,,,,,,,,,,,,,,,,,,,,w,1,0.401226043701,None,0,0.5,hexagoncyan.gif,go,,,,,,,,,,,,,,,,,,,,,,,,,,0.57,0.513850927353,0.000956058502197,0.401226043701,1,w,1117.85305095,,,,,,,,,,,,,,,,,,,,,,,,,,,,,,,,2015_Jul_02_1354,59.8960392081,LearningTask,1,75,
-200,q,200,,,,,,,,,,,,,,,,,2,0,2,0,16,0,64,1,,,,,,,,,,,,,,,,,,,,,,,,,,,,,q,1,0.367547988892,None,0,1.0,circleorange.gif,stop,,,,,,,,,,,,,,,,,,,,,,,,,,0,0.514713048935,0.000880002975464,0.367547988892,1,q,1120.85665798,,,,,,,,,,,,,,,,,,,,,,,,,,,,,,,,2015_Jul_02_1354,59.8960392081,LearningTask,1,75,
200,w,200,,,,,,,,,,,,,,,,,2,0,2,0,16,1,65,0,,,,,,,,,,,,,,,,,,,,,,,,,,,,,w,1,0.384587049484,None,0,1.0,invertedtrianglegreen.gif,go,,,,,,,,,,,,,,,,,,,,,,,,,,0,0.514080047607,0.000919103622437,0.384587049484,1,w,1123.85988688,,,,,,,,,,,,,,,,,,,,,,,,,,,,,,,,2015_Jul_02_1354,59.8960392081,LearningTask,1,75,
-200,q,200,,,,,,,,,,,,,,,,,2,0,2,0,16,2,66,1,,,,,,,,,,,,,,,,,,,,,,,,,,,,,q,1,0.901887178421,None,0,1.0,circleorange.gif,stop,,,,,,,,,,,,,,,,,,,,,,,,,,1.11,0.513957023621,0.000897169113159,0.901887178421,1,q,1126.86328983,,,,,,,,,,,,,,,,,,,,,,,,,,,,,,,,2015_Jul_02_1354,59.8960392081,LearningTask,1,75,
200,s,-200,,,,,,,,,,,,,,,,,2,0,2,0,16,3,67,2,,,,,,,,,,,,,,,,,,,,,,,,,,,,,s,1,0.467764854431,None,0,4.0,crossblue.gif,stop,,,,,,,,,,,,,,,,,,,,,,,,,,3.97,0.51437997818,0.000877857208252,0.467764854431,1,s,1129.86662197,,,,,,,,,,,,,,,,,,,,,,,,,,,,,,,,2015_Jul_02_1354,59.8960392081,LearningTask,1,75,
200,s,-200,,,,,,,,,,,,,,,,,2,0,2,0,17,0,68,2,,,,,,,,,,,,,,,,,,,,,,,,,,,,,s,1,0.434293031693,None,0,2.0,trianglemagenta.gif,go,,,,,,,,,,,,,,,,,,,,,,,,,,2.02,0.514401912689,0.000898838043213,0.434293031693,1,s,1132.86982083,,,,,,,,,,,,,,,,,,,,,,,,,,,,,,,,2015_Jul_02_1354,59.8960392081,LearningTask,1,75,
200,s,-200,,,,,,,,,,,,,,,,,2,0,2,0,17,1,69,2,,,,,,,,,,,,,,,,,,,,,,,,,,,,,s,1,0.367614030838,None,0,0.5,hexagoncyan.gif,go,,,,,,,,,,,,,,,,,,,,,,,,,,0.38,0.514297962189,0.000921964645386,0.367614030838,1,s,1135.87345886,,,,,,,,,,,,,,,,,,,,,,,,,,,,,,,,2015_Jul_02_1354,59.8960392081,LearningTask,1,75,
200,s,-200,,,,,,,,,,,,,,,,,2,0,2,0,17,2,70,2,,,,,,,,,,,,,,,,,,,,,,,,,,,,,s,1,0.801306009293,None,0,0.5,hexagoncyan.gif,go,,,,,,,,,,,,,,,,,,,,,,,,,,0.53,0.514305114746,0.000875949859619,0.801306009293,1,s,1138.87704897,,,,,,,,,,,,,,,,,,,,,,,,,,,,,,,,2015_Jul_02_1354,59.8960392081,LearningTask,1,75,
-200,a,-200,,,,,,,,,,,,,,,,,2,0,2,0,17,3,71,3,,,,,,,,,,,,,,,,,,,,,,,,,,,,,a,1,0.334469079971,None,0,1.0,invertedtrianglegreen.gif,go,,,,,,,,,,,,,,,,,,,,,,,,,,0.94,0.51398396492,0.00119400024414,0.334469079971,1,a,1141.88051486,,,,,,,,,,,,,,,,,,,,,,,,,,,,,,,,2015_Jul_02_1354,59.8960392081,LearningTask,1,75,
-200,a,-200,,,,,,,,,,,,,,,,,2,0,2,0,18,0,72,3,,,,,,,,,,,,,,,,,,,,,,,,,,,,,a,1,0.450648069382,a,1,4.0,crossblue.gif,stop,,,,,,,,,,,,,,,,,,,,,,,,,0.642930984497,3.88,0.513890028,0.000879049301147,0.450648069382,1,a,1144.88362503,,,,,,,,,,,,,,,,,,,,,,,,,,,,,,,,2015_Jul_02_1354,59.8960392081,LearningTask,1,75,
200,w,200,,,,,,,,,,,,,,,,,2,0,2,0,18,1,73,0,,,,,,,,,,,,,,,,,,,,,,,,,,,,,w,1,0.451022863388,None,0,2.0,trianglemagenta.gif,go,,,,,,,,,,,,,,,,,,,,,,,,,,0,0.514073848724,0.000885009765625,0.451022863388,1,w,1147.88696098,,,,,,,,,,,,,,,,,,,,,,,,,,,,,,,,2015_Jul_02_1354,59.8960392081,LearningTask,1,75,
-200,a,-200,,,,,,,,,,,,,,,,,2,0,2,0,18,2,74,3,,,,,,,,,,,,,,,,,,,,,,,,,,,,,a,1,0.383645057678,None,0,2.0,trianglemagenta.gif,go,,,,,,,,,,,,,,,,,,,,,,,,,,2.03,0.514604091644,0.000874042510986,0.383645057678,1,a,1150.89043093,,,,,,,,,,,,,,,,,,,,,,,,,,,,,,,,2015_Jul_02_1354,59.8960392081,LearningTask,1,75,
200,w,200,,,,,,,,,,,,,,,,,2,0,2,0,18,3,75,0,,,,,,,,,,,,,,,,,,,,,,,,,,,,,w,1,0.351068019867,None,0,0.5,diamondyellow.gif,stop,,,,,,,,,,,,,,,,,,,,,,,,,,0.74,0.514230966568,0.000933170318604,0.351068019867,1,w,1153.8934319,,,,,,,,,,,,,,,,,,,,,,,,,,,,,,,,2015_Jul_02_1354,59.8960392081,LearningTask,1,75,
-200,a,-200,,,,,,,,,,,,,,,,,2,0,2,0,19,0,76,3,,,,,,,,,,,,,,,,,,,,,,,,,,,,,a,1,0.384285926819,None,0,1.0,invertedtrianglegreen.gif,go,,,,,,,,,,,,,,,,,,,,,,,,,,1.1,0.514408111572,0.00115418434143,0.384285926819,1,a,1156.8972249,,,,,,,,,,,,,,,,,,,,,,,,,,,,,,,,2015_Jul_02_1354,59.8960392081,LearningTask,1,75,
-200,q,200,,,,,,,,,,,,,,,,,2,0,2,0,19,1,77,1,,,,,,,,,,,,,,,,,,,,,,,,,,,,,q,1,0.367722034454,None,0,1.0,invertedtrianglegreen.gif,go,,,,,,,,,,,,,,,,,,,,,,,,,,0,0.514019012451,0.000874042510986,0.367722034454,1,q,1159.90038705,,,,,,,,,,,,,,,,,,,,,,,,,,,,,,,,2015_Jul_02_1354,59.8960392081,LearningTask,1,75,
-200,a,-200,,,,,,,,,,,,,,,,,2,0,2,0,19,2,78,3,,,,,,,,,,,,,,,,,,,,,,,,,,,,,a,1,0.417590856552,None,0,0.5,diamondyellow.gif,stop,,,,,,,,,,,,,,,,,,,,,,,,,,0.56,0.514274120331,0.000938177108765,0.417590856552,1,a,1162.90334105,,,,,,,,,,,,,,,,,,,,,,,,,,,,,,,,2015_Jul_02_1354,59.8960392081,LearningTask,1,75,
-200,q,200,,,,,,,,,,,,,,,,,2,0,2,0,19,3,79,1,,,,,,,,,,,,,,,,,,,,,,,,,,,,,q,1,0.350841999054,None,0,2.0,trianglemagenta.gif,go,,,,,,,,,,,,,,,,,,,,,,,,,,2.1,0.514508962631,0.00119805335999,0.350841999054,1,q,1165.90711284,,,,,,,,,,,,,,,,,,,,,,,,,,,,,,,,2015_Jul_02_1354,59.8960392081,LearningTask,1,75,
-200,a,-200,,,,,,,,,,,,,,,,,2,0,2,0,20,0,80,3,,,,,,,,,,,,,,,,,,,,,,,,,,,,,a,1,0.384068965912,None,0,0.5,diamondyellow.gif,stop,,,,,,,,,,,,,,,,,,,,,,,,,,0.33,0.514154911041,0.000875949859619,0.384068965912,1,a,1168.91038084,,,,,,,,,,,,,,,,,,,,,,,,,,,,,,,,2015_Jul_02_1354,59.8960392081,LearningTask,1,75,
-200,q,200,,,,,,,,,,,,,,,,,2,0,2,0,20,1,81,1,,,,,,,,,,,,,,,,,,,,,,,,,,,,,q,1,0.418036937714,None,0,0.5,diamondyellow.gif,stop,,,,,,,,,,,,,,,,,,,,,,,,,,0.44,0.514105081558,0.000921964645386,0.418036937714,1,q,1171.91415286,,,,,,,,,,,,,,,,,,,,,,,,,,,,,,,,2015_Jul_02_1354,59.8960392081,LearningTask,1,75,
200,w,200,,,,,,,,,,,,,,,,,2,0,2,0,20,2,82,0,,,,,,,,,,,,,,,,,,,,,,,,,,,,,w,1,0.467636108398,None,0,0.5,hexagoncyan.gif,go,,,,,,,,,,,,,,,,,,,,,,,,,,0,0.513928890228,0.000903844833374,0.467636108398,1,w,1174.91717982,,,,,,,,,,,,,,,,,,,,,,,,,,,,,,,,2015_Jul_02_1354,59.8960392081,LearningTask,1,75,
200,w,200,,,,,,,,,,,,,,,,,2,0,2,0,20,3,83,0,,,,,,,,,,,,,,,,,,,,,,,,,,,,,w,1,0.418034076691,None,0,4.0,squarewhite.gif,go,,,,,,,,,,,,,,,,,,,,,,,,,,3.97,0.514358043671,0.00120401382446,0.418034076691,1,w,1177.92094493,,,,,,,,,,,,,,,,,,,,,,,,,,,,,,,,2015_Jul_02_1354,59.8960392081,LearningTask,1,75,
200,s,-200,,,,,,,,,,,,,,,,,2,0,2,0,21,0,84,2,,,,,,,,,,,,,,,,,,,,,,,,,,,,,s,1,0.467415809631,None,0,2.0,trianglemagenta.gif,go,,,,,,,,,,,,,,,,,,,,,,,,,,0,0.513768196106,0.000954151153564,0.467415809631,1,s,1180.924119,,,,,,,,,,,,,,,,,,,,,,,,,,,,,,,,2015_Jul_02_1354,59.8960392081,LearningTask,1,75,
-200,q,200,,,,,,,,,,,,,,,,,2,0,2,0,21,1,85,1,,,,,,,,,,,,,,,,,,,,,,,,,,,,,q,1,0.30073094368,None,0,0.5,diamondyellow.gif,stop,,,,,,,,,,,,,,,,,,,,,,,,,,0,0.514063119888,0.000874996185303,0.30073094368,1,q,1183.92718005,,,,,,,,,,,,,,,,,,,,,,,,,,,,,,,,2015_Jul_02_1354,59.8960392081,LearningTask,1,75,
-200,q,200,,,,,,,,,,,,,,,,,2,0,2,0,21,2,86,1,,,,,,,,,,,,,,,,,,,,,,,,,,,,,q,1,0.918179988861,None,0,0.5,diamondyellow.gif,stop,,,,,,,,,,,,,,,,,,,,,,,,,,0.27,0.514297008514,0.000872135162354,0.918179988861,1,q,1186.93078399,,,,,,,,,,,,,,,,,,,,,,,,,,,,,,,,2015_Jul_02_1354,59.8960392081,LearningTask,1,75,
200,s,-200,,,,,,,,,,,,,,,,,2,0,2,0,21,3,87,2,,,,,,,,,,,,,,,,,,,,,,,,,,,,,s,1,0.401239871979,None,0,0.5,diamondyellow.gif,stop,,,,,,,,,,,,,,,,,,,,,,,,,,0.53,0.513846158981,0.00088095664978,0.401239871979,1,s,1189.93424702,,,,,,,,,,,,,,,,,,,,,,,,,,,,,,,,2015_Jul_02_1354,59.8960392081,LearningTask,1,75,
-200,q,200,,,,,,,,,,,,,,,,,2,0,2,0,22,0,88,1,,,,,,,,,,,,,,,,,,,,,,,,,,,,,q,1,0.400563955307,None,0,4.0,crossblue.gif,stop,,,,,,,,,,,,,,,,,,,,,,,,,,0,0.514176130295,0.000874042510986,[],0,None,1192.93697405,4.0,0.51603102684,0.000934839248657,0.400563955307,1,q,1195.94059587,,,,,,,,,,,,,,,,,,,,,,,,,2015_Jul_02_1354,59.8960392081,LearningTask,1,75,
200,w,200,,,,,,,,,,,,,,,,,2,0,2,0,22,1,89,0,,,,,,,,,,,,,,,,,,,,,,,,,,,,,w,1,0.383810043335,None,0,0.5,diamondyellow.gif,stop,,,,,,,,,,,,,,,,,,,,,,,,,,0.66,0.514537096024,0.00117611885071,0.383810043335,1,w,1198.94378996,,,,,,,,,,,,,,,,,,,,,,,,,,,,,,,,2015_Jul_02_1354,59.8960392081,LearningTask,1,75,
-200,a,-200,,,,,,,,,,,,,,,,,2,0,2,0,22,2,90,3,,,,,,,,,,,,,,,,,,,,,,,,,,,,,a,1,0.484302043915,None,0,0.5,hexagoncyan.gif,go,,,,,,,,,,,,,,,,,,,,,,,,,,0,0.514475822449,0.00090479850769,0.484302043915,1,a,1201.94714284,,,,,,,,,,,,,,,,,,,,,,,,,,,,,,,,2015_Jul_02_1354,59.8960392081,LearningTask,1,75,
200,w,200,,,,,,,,,,,,,,,,,2,0,2,0,22,3,91,0,,,,,,,,,,,,,,,,,,,,,,,,,,,,,w,1,0.334331989288,None,0,4.0,squarewhite.gif,go,,,,,,,,,,,,,,,,,,,,,,,,,,0,0.514304876328,0.00104403495789,0.334331989288,1,w,1204.95095301,,,,,,,,,,,,,,,,,,,,,,,,,,,,,,,,2015_Jul_02_1354,59.8960392081,LearningTask,1,75,
200,w,200,,,,,,,,,,,,,,,,,2,0,2,0,23,0,92,0,,,,,,,,,,,,,,,,,,,,,,,,,,,,,w,1,0.35059595108,None,0,4.0,squarewhite.gif,go,,,,,,,,,,,,,,,,,,,,,,,,,,4.17,0.514023065567,0.00088095664978,0.35059595108,1,w,1207.95400691,,,,,,,,,,,,,,,,,,,,,,,,,,,,,,,,2015_Jul_02_1354,59.8960392081,LearningTask,1,75,
-200,q,200,,,,,,,,,,,,,,,,,2,0,2,0,23,1,93,1,,,,,,,,,,,,,,,,,,,,,,,,,,,,,q,1,0.451179027557,None,0,4.0,crossblue.gif,stop,,,,,,,,,,,,,,,,,,,,,,,,,,3.9,0.514100074768,0.000935077667236,0.451179027557,1,q,1210.95731187,,,,,,,,,,,,,,,,,,,,,,,,,,,,,,,,2015_Jul_02_1354,59.8960392081,LearningTask,1,75,
-200,a,-200,,,,,,,,,,,,,,,,,2,0,2,0,23,2,94,3,,,,,,,,,,,,,,,,,,,,,,,,,,,,,a,1,0.400763034821,None,0,1.0,circleorange.gif,stop,,,,,,,,,,,,,,,,,,,,,,,,,,0.81,0.514103889465,0.000952959060669,0.400763034821,1,a,1213.96069288,,,,,,,,,,,,,,,,,,,,,,,,,,,,,,,,2015_Jul_02_1354,59.8960392081,LearningTask,1,75,
-200,a,-200,,,,,,,,,,,,,,,,,2,0,2,0,23,3,95,3,,,,,,,,,,,,,,,,,,,,,,,,,,,,,a,1,0.584454059601,None,0,4.0,crossblue.gif,stop,,,,,,,,,,,,,,,,,,,,,,,,,,4.13,0.514427900314,0.000875949859619,0.584454059601,1,a,1216.96397996,,,,,,,,,,,,,,,,,,,,,,,,,,,,,,,,2015_Jul_02_1354,59.8960392081,LearningTask,1,75,
-200,q,200,,,,,,,,,,,,,,,,,2,0,2,0,24,0,96,1,,,,,,,,,,,,,,,,,,,,,,,,,,,,,q,1,0.58456492424,None,0,0.5,diamondyellow.gif,stop,,,,,,,,,,,,,,,,,,,,,,,,,,0.34,0.514164209366,0.000929117202759,0.58456492424,1,q,1219.96769691,,,,,,,,,,,,,,,,,,,,,,,,,,,,,,,,2015_Jul_02_1354,59.8960392081,LearningTask,1,75,
200,s,-200,,,,,,,,,,,,,,,,,2,0,2,0,24,1,97,2,,,,,,,,,,,,,,,,,,,,,,,,,,,,,s,1,0.401709079742,None,0,2.0,trianglemagenta.gif,go,,,,,,,,,,,,,,,,,,,,,,,,,,2.05,0.513433933258,0.000997066497803,0.401709079742,1,s,1222.97049189,,,,,,,,,,,,,,,,,,,,,,,,,,,,,,,,2015_Jul_02_1354,59.8960392081,LearningTask,1,75,
200,w,200,,,,,,,,,,,,,,,,,2,0,2,0,24,2,98,0,,,,,,,,,,,,,,,,,,,,,,,,,,,,,w,1,0.367086172104,None,0,0.5,hexagoncyan.gif,go,,,,,,,,,,,,,,,,,,,,,,,,,,0.29,0.514858007431,0.000886917114258,0.367086172104,1,w,1225.97424197,,,,,,,,,,,,,,,,,,,,,,,,,,,,,,,,2015_Jul_02_1354,59.8960392081,LearningTask,1,75,
