xPos,corrAns,yPos,corrGoResp,yPosGoStim,xPosGoStim,pracTrials.thisRepN,pracTrials.thisTrialN,pracTrials.thisN,pracTrials.thisIndex,ReDoLoopPrac.thisRepN,ReDoLoopPrac.thisTrialN,ReDoLoopPrac.thisN,ReDoLoopPrac.thisIndex,ReDoLoopPrac.thisTrial,pracStopTrials.thisRepN,pracStopTrials.thisTrialN,pracStopTrials.thisN,pracStopTrials.thisIndex,Blocks.thisRepN,Blocks.thisTrialN,Blocks.thisN,Blocks.thisIndex,trials.thisRepN,trials.thisTrialN,trials.thisN,trials.thisIndex,ReDoLoopMain.thisRepN,ReDoLoopMain.thisTrialN,ReDoLoopMain.thisN,ReDoLoopMain.thisIndex,ReDoLoopMain.thisTrial,StopBlocks.thisRepN,StopBlocks.thisTrialN,StopBlocks.thisN,StopBlocks.thisIndex,StopTrials.thisRepN,StopTrials.thisTrialN,StopTrials.thisN,StopTrials.thisIndex,auctionBlocks.thisRepN,auctionBlocks.thisTrialN,auctionBlocks.thisN,auctionBlocks.thisIndex,auctionTrials.thisRepN,auctionTrials.thisTrialN,auctionTrials.thisN,auctionTrials.thisIndex,learningTrialList,learningPracTrialList,stopTrialList,stopPracTrialList,auctionTrialList,ok1.keys,ok1.rt,resp.keys,resp.corr,resp.rt,feedbackResp.keys,feedbackResp.corr,currentReward,currentStimulus,currentStimType,firstPracComputedRewardOutput,firstPracLearningStimOnset,firstPracLearningFixOnset,firstPracPresentationRT,firstPracPresentationAcc,firstPracPresentationResp,firstPracEndTrialTimeStamp,StartTrialTimeStamp,trialType,goStim,stimType,stopStimValue,goResp.keys,goResp.corr,key_resp_9.keys,key_resp_9.corr,fixStopOnset,goStimOnset,stopSignalOnset,EndTrialTimeStamp,goResp.rt,key_resp_3.keys,key_resp_3.rt,firstComputedRewardOutput,firstLearningStimOnset,firstLearningFixOnset,firstPresentationRT,firstPresentationAcc,firstPresentationResp,firstEndTrialTimeStamp,secondComputedRewardOutput,secondLearningStimOnset,secondLearningFixOnset,secondPresentationRT,secondPresentationAcc,secondPresentationResp,secondEndTrialTimeStamp,key_resp_7.keys,key_resp_7.rt,beginningSSD,EndingSSD,key_resp_9.rt,key_resp_4.keys,key_resp_4.rt,auctionResponse.keys,auctionStimDuration,auctionStim,auctionAmounts,auctionStimValue,auctionCondition,chosenAuctionAmount,auctionResponse.rt,key_resp_5.keys,key_resp_5.rt,shuffledRewardList,chosenReward1,chosenReward2,chosenReward3,chosenReward4,chosenReward5,key_resp_6.keys,key_resp_6.rt,date,frameRate,expName,session,participant,
,,,,,,,,,,,,,,,,,,,,,,,,,,,,,,,,,,,,,,,,,,,,,,,,[],[],[],[],[],9,83.2789468765,,,,,,,,,,,,,,,,,,,,,,,,,,,,,,,,,,,,,,,,,,,,,,,,,,,,,,,,,,,,,,,,,,,,,,,2015_Jul_06_1244,59.8626997063,LearningTask,1,78,
200,w,200,,,,0,0,0,4,,,,,,,,,,,,,,,,,,,,,,,,,,,,,,,,,,,,,,,,,,,,,,w,1,0.767895936966,None,0,0.5,invertedtriangleyellow.gif,go,0.6,0.508510112762,0.0496048927307,0.767895936966,1,w,100.155676842,,,,,,,,,,,,,,,,,,,,,,,,,,,,,,,,,,,,,,,,,,,,,,,,,,,,,,,,2015_Jul_06_1244,59.8626997063,LearningTask,1,78,
-200,q,200,,,,0,1,1,5,,,,,,,,,,,,,,,,,,,,,,,,,,,,,,,,,,,,,,,,,,,,,,q,1,0.567468166351,None,0,4.0,squarecyan.gif,stop,4.04,0.514502048492,0.0438210964203,0.567468166351,1,q,103.158621788,,,,,,,,,,,,,,,,,,,,,,,,,,,,,,,,,,,,,,,,,,,,,,,,,,,,,,,,2015_Jul_06_1244,59.8626997063,LearningTask,1,78,
-200,a,-200,,,,0,2,2,7,,,,,,,,,,,,,,,,,,,,,,,,,,,,,,,,,,,,,,,,,,,,,,a,1,0.534225940704,None,0,4.0,squarecyan.gif,stop,4.15,0.515158176422,0.000894069671631,0.534225940704,1,a,106.1617589,,,,,,,,,,,,,,,,,,,,,,,,,,,,,,,,,,,,,,,,,,,,,,,,,,,,,,,,2015_Jul_06_1244,59.8626997063,LearningTask,1,78,
-200,a,-200,,,,0,3,3,3,,,,,,,,,,,,,,,,,,,,,,,,,,,,,,,,,,,,,,,,,,,,,,a,1,0.534171104431,None,0,4.0,squarecyan.gif,stop,4.04,0.51522397995,0.000885963439941,0.534171104431,1,a,109.165012836,,,,,,,,,,,,,,,,,,,,,,,,,,,,,,,,,,,,,,,,,,,,,,,,,,,,,,,,2015_Jul_06_1244,59.8626997063,LearningTask,1,78,
200,w,200,,,,0,4,4,8,,,,,,,,,,,,,,,,,,,,,,,,,,,,,,,,,,,,,,,,,,,,,,w,1,0.751237154007,None,0,1.0,hexagongreen.gif,stop,1.0,0.515125989914,0.0129101276398,0.751237154007,1,w,112.168541908,,,,,,,,,,,,,,,,,,,,,,,,,,,,,,,,,,,,,,,,,,,,,,,,,,,,,,,,2015_Jul_06_1244,59.8626997063,LearningTask,1,78,
-200,q,200,,,,0,5,5,1,,,,,,,,,,,,,,,,,,,,,,,,,,,,,,,,,,,,,,,,,,,,,,q,1,0.400614976883,None,0,1.0,trianglewhite.gif,go,1.22,0.515485048294,0.0456221103668,0.400614976883,1,q,115.171955824,,,,,,,,,,,,,,,,,,,,,,,,,,,,,,,,,,,,,,,,,,,,,,,,,,,,,,,,2015_Jul_06_1244,59.8626997063,LearningTask,1,78,
-200,q,200,,,,0,6,6,9,,,,,,,,,,,,,,,,,,,,,,,,,,,,,,,,,,,,,,,,,,,,,,q,1,0.400490045547,None,0,0.5,invertedtriangleyellow.gif,go,0.52,0.515450000763,0.000900983810425,0.400490045547,1,q,118.175511837,,,,,,,,,,,,,,,,,,,,,,,,,,,,,,,,,,,,,,,,,,,,,,,,,,,,,,,,2015_Jul_06_1244,59.8626997063,LearningTask,1,78,
200,w,200,,,,0,7,7,0,,,,,,,,,,,,,,,,,,,,,,,,,,,,,,,,,,,,,,,,,,,,,,w,1,0.367093086243,None,0,0.5,invertedtriangleyellow.gif,go,0.27,0.51526594162,0.000893115997314,0.367093086243,1,w,121.178715944,,,,,,,,,,,,,,,,,,,,,,,,,,,,,,,,,,,,,,,,,,,,,,,,,,,,,,,,2015_Jul_06_1244,59.8626997063,LearningTask,1,78,
200,s,-200,,,,0,8,8,2,,,,,,,,,,,,,,,,,,,,,,,,,,,,,,,,,,,,,,,,,,,,,,s,1,0.451509952545,None,0,0.5,diamondmagenta.gif,stop,0,0.514941215515,0.00563216209412,0.451509952545,1,s,124.181958914,,,,,,,,,,,,,,,,,,,,,,,,,,,,,,,,,,,,,,,,,,,,,,,,,,,,,,,,2015_Jul_06_1244,59.8626997063,LearningTask,1,78,
200,s,-200,,,,0,9,9,6,,,,,,,,,,,,,,,,,,,,,,,,,,,,,,,,,,,,,,,,,,,,,,s,1,0.400850057602,None,0,4.0,squarecyan.gif,stop,3.87,0.515148162842,0.0010290145874,0.400850057602,1,s,127.185244799,,,,,,,,,,,,,,,,,,,,,,,,,,,,,,,,,,,,,,,,,,,,,,,,,,,,,,,,2015_Jul_06_1244,59.8626997063,LearningTask,1,78,
,,,m,0,200,,,,,,,,,,0,0,0,1,,,,,,,,,,,,,,,,,,,,,,,,,,,,,,,,,,,,,,,,,,,,,,,,,,,,180.616798878,stop,circleblue.gif,stop,2.0,None,0,None,0,0.0364909172058,0.511229038239,0.761615037918,183.615723848,,,,,,,,,,,,,,,,,,,,,,,,,,,,,,,,,,,,,,,,,,,2015_Jul_06_1244,59.8626997063,LearningTask,1,78,
,,,m,0,200,,,,,,,,,,0,1,1,1,,,,,,,,,,,,,,,,,,,,,,,,,,,,,,,,,,,,,,,,,,,,,,,,,,,,183.616111994,stop,circleblue.gif,stop,2.0,None,0,None,0,0.00095009803772,0.5153028965,0.766022920609,186.618906975,,,,,,,,,,,,,,,,,,,,,,,,,,,,,,,,,,,,,,,,,,,2015_Jul_06_1244,59.8626997063,LearningTask,1,78,
,,,z,0,-200,,,,,,,,,,1,0,2,0,,,,,,,,,,,,,,,,,,,,,,,,,,,,,,,,,,,,,,,,,,,,,,,,,,,,186.619308949,stop,circleblue.gif,stop,2.0,z,1,None,0,0.000977039337158,0.515483140945,0.765944004059,189.622187853,0.41762804985,,,,,,,,,,,,,,,,,,,,,,,,,,,,,,,,,,,,,,,,,,2015_Jul_06_1244,59.8626997063,LearningTask,1,78,
,,,z,0,-200,,,,,,,,,,1,1,3,0,,,,,,,,,,,,,,,,,,,,,,,,,,,,,,,,,,,,,,,,,,,,,,,,,,,,189.622550964,stop,hexagongreen.gif,stop,1.0,None,0,None,0,0.00118708610535,0.515912055969,0.766057014465,192.625341892,,,,,,,,,,,,,,,,,,,,,,,,,,,,,,,,,,,,,,,,,,,2015_Jul_06_1244,59.8626997063,LearningTask,1,78,
,,,z,0,-200,,,,,,,,,,2,0,4,0,,,,,,,,,,,,,,,,,,,,,,,,,,,,,,,,,,,,,,,,,,,,,,,,,,,,192.625703812,go,crossorange.gif,go,2.0,z,1,None,0,0.0441198348999,0.515921831131,,195.628724813,0.634935855865,,,,,,,,,,,,,,,,,,,,,,,,,,,,,,,,,,,,,,,,,,2015_Jul_06_1244,59.8626997063,LearningTask,1,78,
,,,z,0,-200,,,,,,,,,,2,1,5,0,,,,,,,,,,,,,,,,,,,,,,,,,,,,,,,,,,,,,,,,,,,,,,,,,,,,195.629086971,stop,squarecyan.gif,stop,4.0,None,0,None,0,0.000943899154663,0.515826940536,0.766175031662,198.632190943,,,,,,,,,,,,,,,,,,,,,,,,,,,,,,,,,,,,,,,,,,,2015_Jul_06_1244,59.8626997063,LearningTask,1,78,
,,,z,0,-200,,,,,,,,,,3,0,6,0,,,,,,,,,,,,,,,,,,,,,,,,,,,,,,,,,,,,,,,,,,,,,,,,,,,,198.632591963,stop,diamondmagenta.gif,stop,0.5,None,0,None,0,0.0010039806366,0.515611886978,0.765567064285,201.635736942,,,,,,,,,,,,,,,,,,,,,,,,,,,,,,,,,,,,,,,,,,,2015_Jul_06_1244,59.8626997063,LearningTask,1,78,
,,,m,0,200,,,,,,,,,,3,1,7,1,,,,,,,,,,,,,,,,,,,,,,,,,,,,,,,,,,,,,,,,,,,,,,,,,,,,201.636096954,go,linegray.gif,go,4.0,m,1,None,0,0.00772500038147,0.51566195488,,204.639009953,0.601390123367,,,,,,,,,,,,,,,,,,,,,,,,,,,,,,,,,,,,,,,,,,2015_Jul_06_1244,59.8626997063,LearningTask,1,78,
,,,m,0,200,,,,,,,,,,4,0,8,1,,,,,,,,,,,,,,,,,,,,,,,,,,,,,,,,,,,,,,,,,,,,,,,,,,,,204.639369965,go,linegray.gif,go,4.0,m,1,None,0,0.000944852828979,0.515736818314,,207.642426968,0.634310007095,,,,,,,,,,,,,,,,,,,,,,,,,,,,,,,,,,,,,,,,,,2015_Jul_06_1244,59.8626997063,LearningTask,1,78,
,,,m,0,200,,,,,,,,,,4,1,9,1,,,,,,,,,,,,,,,,,,,,,,,,,,,,,,,,,,,,,,,,,,,,,,,,,,,,207.642838955,go,crossorange.gif,go,2.0,m,1,None,0,0.000982046127319,0.515547990799,,210.645680904,0.601282119751,,,,,,,,,,,,,,,,,,,,,,,,,,,,,,,,,,,,,,,,,,2015_Jul_06_1244,59.8626997063,LearningTask,1,78,
,,,,,,,,,,,,,,,,,,,,,,,,,,,,,,,,,,,,,,,,,,,,,,,,,,,,,,,,,,,,,,,,,,,,,,,,,,,,,,,,,,,,9,50.2179560661,,,,,,,,,,,,,,,,,,,,,,,,,,,,,,,,,,,,,,,,2015_Jul_06_1244,59.8626997063,LearningTask,1,78,
,,,,,,,,,,,,,,,,,,,,,,,,,,,,,,,,,,,,,,,,,,,,,,,,,,,,,9,10.7620239258,,,,,,,,,,,,,,,,,,,,,,,,,,,,,,,,,,,,,,,,,,,,,,,,,,,,,,,,,,,,,,,,,,,,,,,2015_Jul_06_1244,59.8626997063,LearningTask,1,78,
200,s,-200,,,,,,,,,,,,,,,,,0,0,0,0,0,0,0,2,,,,,,,,,,,,,,,,,,,,,,,,,,,,,s,1,0.401543140411,None,0,0.5,invertedtriangleyellow.gif,go,,,,,,,,,,,,,,,,,,,,,,,,0.48,0.509613990784,0.000888109207153,0.401543140411,1,s,274.769003868,,,,,,,,,,,,,,,,,,,,,,,,,,,,,,,,,2015_Jul_06_1244,59.8626997063,LearningTask,1,78,
-200,q,200,,,,,,,,,,,,,,,,,0,0,0,0,0,1,1,1,,,,,,,,,,,,,,,,,,,,,,,,,,,,,q,1,0.367176055908,None,0,0.5,diamondmagenta.gif,stop,,,,,,,,,,,,,,,,,,,,,,,,0.72,0.513818979263,0.00108313560486,0.367176055908,1,q,277.771892786,,,,,,,,,,,,,,,,,,,,,,,,,,,,,,,,,2015_Jul_06_1244,59.8626997063,LearningTask,1,78,
200,s,-200,,,,,,,,,,,,,,,,,0,0,0,0,0,2,2,2,,,,,,,,,,,,,,,,,,,,,,,,,,,,,s,1,0.367245197296,None,0,4.0,linegray.gif,go,,,,,,,,,,,,,,,,,,,,,,,,0,0.514513015747,0.00110507011414,0.367245197296,1,s,280.775573015,,,,,,,,,,,,,,,,,,,,,,,,,,,,,,,,,2015_Jul_06_1244,59.8626997063,LearningTask,1,78,
-200,q,200,,,,,,,,,,,,,,,,,0,0,0,0,0,3,3,1,,,,,,,,,,,,,,,,,,,,,,,,,,,,,q,1,0.33376288414,None,0,0.5,invertedtriangleyellow.gif,go,,,,,,,,,,,,,,,,,,,,,,,,0.73,0.514187097549,0.000898122787476,0.33376288414,1,q,283.778702974,,,,,,,,,,,,,,,,,,,,,,,,,,,,,,,,,2015_Jul_06_1244,59.8626997063,LearningTask,1,78,
-200,q,200,,,,,,,,,,,,,,,,,0,0,0,0,1,0,4,1,,,,,,,,,,,,,,,,,,,,,,,,,,,,,q,1,0.351039886475,None,0,1.0,hexagongreen.gif,stop,,,,,,,,,,,,,,,,,,,,,,,,1.07,0.514232873917,0.00112390518188,0.351039886475,1,q,286.78183198,,,,,,,,,,,,,,,,,,,,,,,,,,,,,,,,,2015_Jul_06_1244,59.8626997063,LearningTask,1,78,
-200,a,-200,,,,,,,,,,,,,,,,,0,0,0,0,1,1,5,3,,,,,,,,,,,,,,,,,,,,,,,,,,,,,a,1,0.400754928589,None,0,0.5,diamondmagenta.gif,stop,,,,,,,,,,,,,,,,,,,,,,,,0.67,0.51450419426,0.000910043716431,0.400754928589,1,a,289.785542965,,,,,,,,,,,,,,,,,,,,,,,,,,,,,,,,,2015_Jul_06_1244,59.8626997063,LearningTask,1,78,
200,w,200,,,,,,,,,,,,,,,,,0,0,0,0,1,2,6,0,,,,,,,,,,,,,,,,,,,,,,,,,,,,,w,1,0.333883047104,None,0,0.5,invertedtriangleyellow.gif,go,,,,,,,,,,,,,,,,,,,,,,,,0.41,0.514255046844,0.000955104827881,0.333883047104,1,w,292.788645983,,,,,,,,,,,,,,,,,,,,,,,,,,,,,,,,,2015_Jul_06_1244,59.8626997063,LearningTask,1,78,
200,w,200,,,,,,,,,,,,,,,,,0,0,0,0,1,3,7,0,,,,,,,,,,,,,,,,,,,,,,,,,,,,,w,1,0.317708969116,None,0,2.0,circleblue.gif,stop,,,,,,,,,,,,,,,,,,,,,,,,1.99,0.514091014862,0.00094199180603,0.317708969116,1,w,295.792128801,,,,,,,,,,,,,,,,,,,,,,,,,,,,,,,,,2015_Jul_06_1244,59.8626997063,LearningTask,1,78,
-200,q,200,,,,,,,,,,,,,,,,,0,0,0,0,2,0,8,1,,,,,,,,,,,,,,,,,,,,,,,,,,,,,q,1,0.35139298439,None,0,4.0,linegray.gif,go,,,,,,,,,,,,,,,,,,,,,,,,0,0.514384031296,0.000907182693481,0.35139298439,1,q,298.795749903,,,,,,,,,,,,,,,,,,,,,,,,,,,,,,,,,2015_Jul_06_1244,59.8626997063,LearningTask,1,78,
200,s,-200,,,,,,,,,,,,,,,,,0,0,0,0,2,1,9,2,,,,,,,,,,,,,,,,,,,,,,,,,,,,,s,1,0.334175109863,None,0,4.0,squarecyan.gif,stop,,,,,,,,,,,,,,,,,,,,,,,,4.07,0.51424407959,0.000894069671631,0.334175109863,1,s,301.799073935,,,,,,,,,,,,,,,,,,,,,,,,,,,,,,,,,2015_Jul_06_1244,59.8626997063,LearningTask,1,78,
-200,q,200,,,,,,,,,,,,,,,,,0,0,0,0,2,2,10,1,,,,,,,,,,,,,,,,,,,,,,,,,,,,,q,1,0.351287841797,None,0,2.0,circleblue.gif,stop,,,,,,,,,,,,,,,,,,,,,,,,1.88,0.513734817505,0.000938892364502,0.351287841797,1,q,304.802676916,,,,,,,,,,,,,,,,,,,,,,,,,,,,,,,,,2015_Jul_06_1244,59.8626997063,LearningTask,1,78,
200,s,-200,,,,,,,,,,,,,,,,,0,0,0,0,2,3,11,2,,,,,,,,,,,,,,,,,,,,,,,,,,,,,s,1,0.317515134811,None,0,2.0,crossorange.gif,go,,,,,,,,,,,,,,,,,,,,,,,,2.25,0.514048814774,0.000901937484741,0.317515134811,1,s,307.805679798,,,,,,,,,,,,,,,,,,,,,,,,,,,,,,,,,2015_Jul_06_1244,59.8626997063,LearningTask,1,78,
200,s,-200,,,,,,,,,,,,,,,,,0,0,0,0,3,0,12,2,,,,,,,,,,,,,,,,,,,,,,,,,,,,,s,1,0.334472179413,None,0,1.0,trianglewhite.gif,go,,,,,,,,,,,,,,,,,,,,,,,,0.92,0.514314889908,0.000900983810425,0.334472179413,1,s,310.809417009,,,,,,,,,,,,,,,,,,,,,,,,,,,,,,,,,2015_Jul_06_1244,59.8626997063,LearningTask,1,78,
-200,a,-200,,,,,,,,,,,,,,,,,0,0,0,0,3,1,13,3,,,,,,,,,,,,,,,,,,,,,,,,,,,,,a,1,0.367465019226,None,0,1.0,hexagongreen.gif,stop,,,,,,,,,,,,,,,,,,,,,,,,0.98,0.513556003571,0.00119400024414,0.367465019226,1,a,313.812440872,,,,,,,,,,,,,,,,,,,,,,,,,,,,,,,,,2015_Jul_06_1244,59.8626997063,LearningTask,1,78,
-200,a,-200,,,,,,,,,,,,,,,,,0,0,0,0,3,2,14,3,,,,,,,,,,,,,,,,,,,,,,,,,,,,,a,1,0.334055900574,None,0,0.5,diamondmagenta.gif,stop,,,,,,,,,,,,,,,,,,,,,,,,0.37,0.514494180679,0.000910997390747,0.334055900574,1,a,316.815779924,,,,,,,,,,,,,,,,,,,,,,,,,,,,,,,,,2015_Jul_06_1244,59.8626997063,LearningTask,1,78,
200,s,-200,,,,,,,,,,,,,,,,,0,0,0,0,3,3,15,2,,,,,,,,,,,,,,,,,,,,,,,,,,,,,s,1,0.317444801331,None,0,0.5,invertedtriangleyellow.gif,go,,,,,,,,,,,,,,,,,,,,,,,,0.74,0.514363050461,0.000900030136108,0.317444801331,1,s,319.819463968,,,,,,,,,,,,,,,,,,,,,,,,,,,,,,,,,2015_Jul_06_1244,59.8626997063,LearningTask,1,78,
200,w,200,,,,,,,,,,,,,,,,,0,0,0,0,4,0,16,0,,,,,,,,,,,,,,,,,,,,,,,,,,,,,w,1,0.367698907852,None,0,2.0,crossorange.gif,go,,,,,,,,,,,,,,,,,,,,,,,,0,0.514332056046,0.000890016555786,0.334108114243,0,s,322.822623968,2.14,0.515388011932,0.000985860824585,0.367698907852,1,w,325.826468945,,,,,,,,,,,,,,,,,,,,,,,,,,2015_Jul_06_1244,59.8626997063,LearningTask,1,78,
-200,a,-200,,,,,,,,,,,,,,,,,0,0,0,0,4,1,17,3,,,,,,,,,,,,,,,,,,,,,,,,,,,,,a,1,0.401163816452,None,0,0.5,diamondmagenta.gif,stop,,,,,,,,,,,,,,,,,,,,,,,,0,0.513736963272,0.000894069671631,0.401163816452,1,a,328.829304934,,,,,,,,,,,,,,,,,,,,,,,,,,,,,,,,,2015_Jul_06_1244,59.8626997063,LearningTask,1,78,
200,w,200,,,,,,,,,,,,,,,,,0,0,0,0,4,2,18,0,,,,,,,,,,,,,,,,,,,,,,,,,,,,,w,1,0.334430932999,None,0,2.0,crossorange.gif,go,,,,,,,,,,,,,,,,,,,,,,,,0,0.514366149902,0.000910043716431,0.334430932999,1,w,331.832598925,,,,,,,,,,,,,,,,,,,,,,,,,,,,,,,,,2015_Jul_06_1244,59.8626997063,LearningTask,1,78,
-200,q,200,,,,,,,,,,,,,,,,,0,0,0,0,4,3,19,1,,,,,,,,,,,,,,,,,,,,,,,,,,,,,q,1,0.351523160934,None,0,0.5,invertedtriangleyellow.gif,go,,,,,,,,,,,,,,,,,,,,,,,,0.44,0.514029026031,0.00108408927917,0.351523160934,1,q,334.836013794,,,,,,,,,,,,,,,,,,,,,,,,,,,,,,,,,2015_Jul_06_1244,59.8626997063,LearningTask,1,78,
200,w,200,,,,,,,,,,,,,,,,,0,0,0,0,5,0,20,0,,,,,,,,,,,,,,,,,,,,,,,,,,,,,w,1,0.350506067276,None,0,0.5,diamondmagenta.gif,stop,,,,,,,,,,,,,,,,,,,,,,,,0.53,0.514630079269,0.000899076461792,0.350506067276,1,w,337.839177847,,,,,,,,,,,,,,,,,,,,,,,,,,,,,,,,,2015_Jul_06_1244,59.8626997063,LearningTask,1,78,
-200,q,200,,,,,,,,,,,,,,,,,0,0,0,0,5,1,21,1,,,,,,,,,,,,,,,,,,,,,,,,,,,,,q,1,0.350908041,None,0,1.0,hexagongreen.gif,stop,,,,,,,,,,,,,,,,,,,,,,,,1.18,0.514825105667,0.000903129577637,0.350908041,1,q,340.8431108,,,,,,,,,,,,,,,,,,,,,,,,,,,,,,,,,2015_Jul_06_1244,59.8626997063,LearningTask,1,78,
-200,a,-200,,,,,,,,,,,,,,,,,0,0,0,0,5,2,22,3,,,,,,,,,,,,,,,,,,,,,,,,,,,,,a,1,0.383960008621,None,0,0.5,diamondmagenta.gif,stop,,,,,,,,,,,,,,,,,,,,,,,,0.48,0.513983011246,0.0010290145874,0.383960008621,1,a,343.846125841,,,,,,,,,,,,,,,,,,,,,,,,,,,,,,,,,2015_Jul_06_1244,59.8626997063,LearningTask,1,78,
-200,a,-200,,,,,,,,,,,,,,,,,0,0,0,0,5,3,23,3,,,,,,,,,,,,,,,,,,,,,,,,,,,,,a,1,0.317238092422,None,0,0.5,diamondmagenta.gif,stop,,,,,,,,,,,,,,,,,,,,,,,,0.62,0.5144739151,0.000895977020264,0.317238092422,1,a,346.849624872,,,,,,,,,,,,,,,,,,,,,,,,,,,,,,,,,2015_Jul_06_1244,59.8626997063,LearningTask,1,78,
200,s,-200,,,,,,,,,,,,,,,,,0,0,0,0,6,0,24,2,,,,,,,,,,,,,,,,,,,,,,,,,,,,,s,1,0.350569963455,None,0,1.0,trianglewhite.gif,go,,,,,,,,,,,,,,,,,,,,,,,,0.78,0.514365911484,0.000910997390747,0.350569963455,1,s,349.853582859,,,,,,,,,,,,,,,,,,,,,,,,,,,,,,,,,2015_Jul_06_1244,59.8626997063,LearningTask,1,78,
-200,q,200,,,,,,,,,,,,,,,,,0,0,0,0,6,1,25,1,,,,,,,,,,,,,,,,,,,,,,,,,,,,,q,1,0.350877046585,None,0,4.0,linegray.gif,go,,,,,,,,,,,,,,,,,,,,,,,,3.93,0.513632059097,0.00092887878418,0.350877046585,1,q,352.856630802,,,,,,,,,,,,,,,,,,,,,,,,,,,,,,,,,2015_Jul_06_1244,59.8626997063,LearningTask,1,78,
200,s,-200,,,,,,,,,,,,,,,,,0,0,0,0,6,2,26,2,,,,,,,,,,,,,,,,,,,,,,,,,,,,,s,1,0.350849866867,None,0,1.0,hexagongreen.gif,stop,,,,,,,,,,,,,,,,,,,,,,,,0,0.513926029205,0.000895977020264,0.350849866867,1,s,355.859645844,,,,,,,,,,,,,,,,,,,,,,,,,,,,,,,,,2015_Jul_06_1244,59.8626997063,LearningTask,1,78,
-200,a,-200,,,,,,,,,,,,,,,,,0,0,0,0,6,3,27,3,,,,,,,,,,,,,,,,,,,,,,,,,,,,,a,1,0.384243965149,None,0,0.5,diamondmagenta.gif,stop,,,,,,,,,,,,,,,,,,,,,,,,0,0.514307975769,0.000913143157959,0.384243965149,1,a,358.863449812,,,,,,,,,,,,,,,,,,,,,,,,,,,,,,,,,2015_Jul_06_1244,59.8626997063,LearningTask,1,78,
200,w,200,,,,,,,,,,,,,,,,,0,0,0,0,7,0,28,0,,,,,,,,,,,,,,,,,,,,,,,,,,,,,w,1,0.334020137787,None,0,0.5,invertedtriangleyellow.gif,go,,,,,,,,,,,,,,,,,,,,,,,,0.41,0.513820886612,0.000921964645386,0.334020137787,1,w,361.866705894,,,,,,,,,,,,,,,,,,,,,,,,,,,,,,,,,2015_Jul_06_1244,59.8626997063,LearningTask,1,78,
200,w,200,,,,,,,,,,,,,,,,,0,0,0,0,7,1,29,0,,,,,,,,,,,,,,,,,,,,,,,,,,,,,w,1,0.351156949997,None,0,0.5,diamondmagenta.gif,stop,,,,,,,,,,,,,,,,,,,,,,,,0.33,0.513998031616,0.000984191894531,0.351156949997,1,w,364.870035887,,,,,,,,,,,,,,,,,,,,,,,,,,,,,,,,,2015_Jul_06_1244,59.8626997063,LearningTask,1,78,
-200,q,200,,,,,,,,,,,,,,,,,0,0,0,0,7,2,30,1,,,,,,,,,,,,,,,,,,,,,,,,,,,,,q,1,0.5678358078,None,0,4.0,linegray.gif,go,,,,,,,,,,,,,,,,,,,,,,,,3.9,0.514361858368,0.000905990600586,0.5678358078,1,q,367.873360872,,,,,,,,,,,,,,,,,,,,,,,,,,,,,,,,,2015_Jul_06_1244,59.8626997063,LearningTask,1,78,
-200,a,-200,,,,,,,,,,,,,,,,,0,0,0,0,7,3,31,3,,,,,,,,,,,,,,,,,,,,,,,,,,,,,a,1,0.634433031082,None,0,4.0,squarecyan.gif,stop,,,,,,,,,,,,,,,,,,,,,,,,4.12,0.514126062393,0.000904083251953,0.634433031082,1,a,370.876530886,,,,,,,,,,,,,,,,,,,,,,,,,,,,,,,,,2015_Jul_06_1244,59.8626997063,LearningTask,1,78,
-200,a,-200,,,,,,,,,,,,,,,,,0,0,0,0,8,0,32,3,,,,,,,,,,,,,,,,,,,,,,,,,,,,,a,1,0.684649944305,None,0,0.5,diamondmagenta.gif,stop,,,,,,,,,,,,,,,,,,,,,,,,0.6,0.514637231827,0.00154113769531,0.684649944305,1,a,373.880151987,,,,,,,,,,,,,,,,,,,,,,,,,,,,,,,,,2015_Jul_06_1244,59.8626997063,LearningTask,1,78,
200,s,-200,,,,,,,,,,,,,,,,,0,0,0,0,8,1,33,2,,,,,,,,,,,,,,,,,,,,,,,,,,,,,s,1,0.367434978485,None,0,1.0,hexagongreen.gif,stop,,,,,,,,,,,,,,,,,,,,,,,,0,0.514112949371,0.000905990600586,0.367434978485,1,s,376.883448839,,,,,,,,,,,,,,,,,,,,,,,,,,,,,,,,,2015_Jul_06_1244,59.8626997063,LearningTask,1,78,
200,s,-200,,,,,,,,,,,,,,,,,0,0,0,0,8,2,34,2,,,,,,,,,,,,,,,,,,,,,,,,,,,,,s,1,0.751121044159,None,0,1.0,trianglewhite.gif,go,,,,,,,,,,,,,,,,,,,,,,,,1.01,0.514311075211,0.000903129577637,0.751121044159,1,s,379.886862993,,,,,,,,,,,,,,,,,,,,,,,,,,,,,,,,,2015_Jul_06_1244,59.8626997063,LearningTask,1,78,
200,w,200,,,,,,,,,,,,,,,,,0,0,0,0,8,3,35,0,,,,,,,,,,,,,,,,,,,,,,,,,,,,,w,1,0.334733009338,None,0,2.0,crossorange.gif,go,,,,,,,,,,,,,,,,,,,,,,,,2.16,0.513872146606,0.000949144363403,0.334733009338,1,w,382.890102863,,,,,,,,,,,,,,,,,,,,,,,,,,,,,,,,,2015_Jul_06_1244,59.8626997063,LearningTask,1,78,
-200,q,200,,,,,,,,,,,,,,,,,0,0,0,0,9,0,36,1,,,,,,,,,,,,,,,,,,,,,,,,,,,,,q,1,0.31783413887,None,0,4.0,squarecyan.gif,stop,,,,,,,,,,,,,,,,,,,,,,,,4.07,0.514400959015,0.000895023345947,0.31783413887,1,q,385.89359498,,,,,,,,,,,,,,,,,,,,,,,,,,,,,,,,,2015_Jul_06_1244,59.8626997063,LearningTask,1,78,
200,w,200,,,,,,,,,,,,,,,,,0,0,0,0,9,1,37,0,,,,,,,,,,,,,,,,,,,,,,,,,,,,,w,1,0.350788116455,None,0,2.0,crossorange.gif,go,,,,,,,,,,,,,,,,,,,,,,,,1.76,0.514326095581,0.00090503692627,0.350788116455,1,w,388.8969028,,,,,,,,,,,,,,,,,,,,,,,,,,,,,,,,,2015_Jul_06_1244,59.8626997063,LearningTask,1,78,
-200,a,-200,,,,,,,,,,,,,,,,,0,0,0,0,9,2,38,3,,,,,,,,,,,,,,,,,,,,,,,,,,,,,a,1,0.350641012192,None,0,1.0,hexagongreen.gif,stop,,,,,,,,,,,,,,,,,,,,,,,,0.84,0.513369083405,0.000982046127319,0.350641012192,1,a,391.900761843,,,,,,,,,,,,,,,,,,,,,,,,,,,,,,,,,2015_Jul_06_1244,59.8626997063,LearningTask,1,78,
-200,a,-200,,,,,,,,,,,,,,,,,0,0,0,0,9,3,39,3,,,,,,,,,,,,,,,,,,,,,,,,,,,,,a,1,0.384521007538,None,0,1.0,trianglewhite.gif,go,,,,,,,,,,,,,,,,,,,,,,,,0,0.513985157013,0.00090503692627,0.384521007538,1,a,394.903633833,,,,,,,,,,,,,,,,,,,,,,,,,,,,,,,,,2015_Jul_06_1244,59.8626997063,LearningTask,1,78,
200,s,-200,,,,,,,,,,,,,,,,,0,0,0,0,10,0,40,2,,,,,,,,,,,,,,,,,,,,,,,,,,,,,s,1,0.367758989334,None,0,4.0,linegray.gif,go,,,,,,,,,,,,,,,,,,,,,,,,4.16,0.514216184616,0.000904083251953,0.367758989334,1,s,397.907483816,,,,,,,,,,,,,,,,,,,,,,,,,,,,,,,,,2015_Jul_06_1244,59.8626997063,LearningTask,1,78,
-200,a,-200,,,,,,,,,,,,,,,,,0,0,0,0,10,1,41,3,,,,,,,,,,,,,,,,,,,,,,,,,,,,,a,1,0.367594003677,None,0,2.0,crossorange.gif,go,,,,,,,,,,,,,,,,,,,,,,,,1.99,0.513713121414,0.000897169113159,0.367594003677,1,a,400.910404921,,,,,,,,,,,,,,,,,,,,,,,,,,,,,,,,,2015_Jul_06_1244,59.8626997063,LearningTask,1,78,
-200,a,-200,,,,,,,,,,,,,,,,,0,0,0,0,10,2,42,3,,,,,,,,,,,,,,,,,,,,,,,,,,,,,a,1,0.351235866547,None,0,4.0,linegray.gif,go,,,,,,,,,,,,,,,,,,,,,,,,3.88,0.514272212982,0.000890016555786,0.351235866547,1,a,403.913757801,,,,,,,,,,,,,,,,,,,,,,,,,,,,,,,,,2015_Jul_06_1244,59.8626997063,LearningTask,1,78,
-200,q,200,,,,,,,,,,,,,,,,,0,0,0,0,10,3,43,1,,,,,,,,,,,,,,,,,,,,,,,,,,,,,q,1,0.384343147278,None,0,2.0,crossorange.gif,go,,,,,,,,,,,,,,,,,,,,,,,,2.0,0.51432299614,0.00090503692627,0.384343147278,1,q,406.917118788,,,,,,,,,,,,,,,,,,,,,,,,,,,,,,,,,2015_Jul_06_1244,59.8626997063,LearningTask,1,78,
200,w,200,,,,,,,,,,,,,,,,,0,0,0,0,11,0,44,0,,,,,,,,,,,,,,,,,,,,,,,,,,,,,w,1,0.367115020752,None,0,2.0,circleblue.gif,stop,,,,,,,,,,,,,,,,,,,,,,,,1.78,0.514517068863,0.00091814994812,0.367115020752,1,w,409.920431852,,,,,,,,,,,,,,,,,,,,,,,,,,,,,,,,,2015_Jul_06_1244,59.8626997063,LearningTask,1,78,
-200,q,200,,,,,,,,,,,,,,,,,0,0,0,0,11,1,45,1,,,,,,,,,,,,,,,,,,,,,,,,,,,,,q,1,0.367556095123,None,0,4.0,linegray.gif,go,,,,,,,,,,,,,,,,,,,,,,,,3.88,0.514415979385,0.00105309486389,0.367556095123,1,q,412.924359798,,,,,,,,,,,,,,,,,,,,,,,,,,,,,,,,,2015_Jul_06_1244,59.8626997063,LearningTask,1,78,
-200,a,-200,,,,,,,,,,,,,,,,,0,0,0,0,11,2,46,3,,,,,,,,,,,,,,,,,,,,,,,,,,,,,a,1,0.384371042252,None,0,2.0,crossorange.gif,go,,,,,,,,,,,,,,,,,,,,,,,,2.16,0.513823032379,0.000965118408203,0.384371042252,1,a,415.927363873,,,,,,,,,,,,,,,,,,,,,,,,,,,,,,,,,2015_Jul_06_1244,59.8626997063,LearningTask,1,78,
-200,q,200,,,,,,,,,,,,,,,,,0,0,0,0,11,3,47,1,,,,,,,,,,,,,,,,,,,,,,,,,,,,,q,1,0.367680072784,None,0,0.5,diamondmagenta.gif,stop,,,,,,,,,,,,,,,,,,,,,,,,0.35,0.514134883881,0.000905990600586,0.367680072784,1,q,418.930563927,,,,,,,,,,,,,,,,,,,,,,,,,,,,,,,,,2015_Jul_06_1244,59.8626997063,LearningTask,1,78,
-200,q,200,,,,,,,,,,,,,,,,,0,0,0,0,12,0,48,1,,,,,,,,,,,,,,,,,,,,,,,,,,,,,q,1,0.351084947586,None,0,2.0,circleblue.gif,stop,,,,,,,,,,,,,,,,,,,,,,,,2.18,0.514085054398,0.00108408927917,0.351084947586,1,q,421.934460878,,,,,,,,,,,,,,,,,,,,,,,,,,,,,,,,,2015_Jul_06_1244,59.8626997063,LearningTask,1,78,
-200,q,200,,,,,,,,,,,,,,,,,0,0,0,0,12,1,49,1,,,,,,,,,,,,,,,,,,,,,,,,,,,,,q,1,0.350557088852,None,0,4.0,squarecyan.gif,stop,,,,,,,,,,,,,,,,,,,,,,,,4.02,0.514263868332,0.000897884368896,0.350557088852,1,q,424.937567949,,,,,,,,,,,,,,,,,,,,,,,,,,,,,,,,,2015_Jul_06_1244,59.8626997063,LearningTask,1,78,
200,s,-200,,,,,,,,,,,,,,,,,0,0,0,0,12,2,50,2,,,,,,,,,,,,,,,,,,,,,,,,,,,,,s,1,0.351110935211,None,0,4.0,squarecyan.gif,stop,,,,,,,,,,,,,,,,,,,,,,,,3.86,0.51419711113,0.000925064086914,0.351110935211,1,s,427.940540791,,,,,,,,,,,,,,,,,,,,,,,,,,,,,,,,,2015_Jul_06_1244,59.8626997063,LearningTask,1,78,
200,w,200,,,,,,,,,,,,,,,,,0,0,0,0,12,3,51,0,,,,,,,,,,,,,,,,,,,,,,,,,,,,,w,1,0.350995063782,None,0,2.0,circleblue.gif,stop,,,,,,,,,,,,,,,,,,,,,,,,0,0.514705896378,0.000953912734985,0.350995063782,1,w,430.944096804,,,,,,,,,,,,,,,,,,,,,,,,,,,,,,,,,2015_Jul_06_1244,59.8626997063,LearningTask,1,78,
200,s,-200,,,,,,,,,,,,,,,,,0,0,0,0,13,0,52,2,,,,,,,,,,,,,,,,,,,,,,,,,,,,,s,1,0.401510953903,None,0,1.0,trianglewhite.gif,go,,,,,,,,,,,,,,,,,,,,,,,,1.22,0.514214992523,0.000932931900024,0.401510953903,1,s,433.947621822,,,,,,,,,,,,,,,,,,,,,,,,,,,,,,,,,2015_Jul_06_1244,59.8626997063,LearningTask,1,78,
-200,a,-200,,,,,,,,,,,,,,,,,0,0,0,0,13,1,53,3,,,,,,,,,,,,,,,,,,,,,,,,,,,,,a,1,0.501004934311,None,0,0.5,invertedtriangleyellow.gif,go,,,,,,,,,,,,,,,,,,,,,,,,0,0.514271020889,0.000906944274902,0.501004934311,1,a,436.951274872,,,,,,,,,,,,,,,,,,,,,,,,,,,,,,,,,2015_Jul_06_1244,59.8626997063,LearningTask,1,78,
-200,q,200,,,,,,,,,,,,,,,,,0,0,0,0,13,2,54,1,,,,,,,,,,,,,,,,,,,,,,,,,,,,,q,1,0.367710113525,None,0,0.5,diamondmagenta.gif,stop,,,,,,,,,,,,,,,,,,,,,,,,0.44,0.513613939285,0.000970840454102,0.367710113525,1,q,439.954350948,,,,,,,,,,,,,,,,,,,,,,,,,,,,,,,,,2015_Jul_06_1244,59.8626997063,LearningTask,1,78,
200,s,-200,,,,,,,,,,,,,,,,,0,0,0,0,13,3,55,2,,,,,,,,,,,,,,,,,,,,,,,,,,,,,s,1,0.40097618103,None,0,4.0,linegray.gif,go,,,,,,,,,,,,,,,,,,,,,,,,4.19,0.514051914215,0.00098991394043,0.40097618103,1,s,442.957824945,,,,,,,,,,,,,,,,,,,,,,,,,,,,,,,,,2015_Jul_06_1244,59.8626997063,LearningTask,1,78,
200,w,200,,,,,,,,,,,,,,,,,0,0,0,0,14,0,56,0,,,,,,,,,,,,,,,,,,,,,,,,,,,,,w,1,0.33442401886,None,0,2.0,circleblue.gif,stop,,,,,,,,,,,,,,,,,,,,,,,,1.94,0.514399051666,0.000897169113159,0.33442401886,1,w,445.961569786,,,,,,,,,,,,,,,,,,,,,,,,,,,,,,,,,2015_Jul_06_1244,59.8626997063,LearningTask,1,78,
-200,q,200,,,,,,,,,,,,,,,,,0,0,0,0,14,1,57,1,,,,,,,,,,,,,,,,,,,,,,,,,,,,,q,1,0.367779016495,None,0,1.0,hexagongreen.gif,stop,,,,,,,,,,,,,,,,,,,,,,,,0.99,0.513617038727,0.000926971435547,0.367779016495,1,q,448.964403868,,,,,,,,,,,,,,,,,,,,,,,,,,,,,,,,,2015_Jul_06_1244,59.8626997063,LearningTask,1,78,
-200,q,200,,,,,,,,,,,,,,,,,0,0,0,0,14,2,58,1,,,,,,,,,,,,,,,,,,,,,,,,,,,,,q,1,0.401172161102,None,0,1.0,hexagongreen.gif,stop,,,,,,,,,,,,,,,,,,,,,,,,0,0.514157772064,0.000926971435547,0.401172161102,1,q,451.967803955,,,,,,,,,,,,,,,,,,,,,,,,,,,,,,,,,2015_Jul_06_1244,59.8626997063,LearningTask,1,78,
-200,q,200,,,,,,,,,,,,,,,,,0,0,0,0,14,3,59,1,,,,,,,,,,,,,,,,,,,,,,,,,,,,,q,1,0.333687067032,None,0,4.0,squarecyan.gif,stop,,,,,,,,,,,,,,,,,,,,,,,,3.91,0.514555931091,0.000890970230103,0.333687067032,1,q,454.970973015,,,,,,,,,,,,,,,,,,,,,,,,,,,,,,,,,2015_Jul_06_1244,59.8626997063,LearningTask,1,78,
200,s,-200,,,,,,,,,,,,,,,,,0,0,0,0,15,0,60,2,,,,,,,,,,,,,,,,,,,,,,,,,,,,,s,1,0.367431879044,None,0,1.0,trianglewhite.gif,go,,,,,,,,,,,,,,,,,,,,,,,,1.16,0.514735937119,0.000918865203857,0.367431879044,1,s,457.974497795,,,,,,,,,,,,,,,,,,,,,,,,,,,,,,,,,2015_Jul_06_1244,59.8626997063,LearningTask,1,78,
-200,a,-200,,,,,,,,,,,,,,,,,0,0,0,0,15,1,61,3,,,,,,,,,,,,,,,,,,,,,,,,,,,,,a,1,0.417966842651,None,0,4.0,squarecyan.gif,stop,,,,,,,,,,,,,,,,,,,,,,,,0,0.514590024948,0.00124001502991,0.333790063858,0,q,460.977886915,0,0.515539169312,0.000964164733887,0.417966842651,1,a,463.981369972,,,,,,,,,,,,,,,,,,,,,,,,,,2015_Jul_06_1244,59.8626997063,LearningTask,1,78,
200,w,200,,,,,,,,,,,,,,,,,0,0,0,0,15,2,62,0,,,,,,,,,,,,,,,,,,,,,,,,,,,,,w,1,0.384144067764,None,0,1.0,trianglewhite.gif,go,,,,,,,,,,,,,,,,,,,,,,,,1.22,0.514246225357,0.000913143157959,0.384144067764,1,w,466.9845438,,,,,,,,,,,,,,,,,,,,,,,,,,,,,,,,,2015_Jul_06_1244,59.8626997063,LearningTask,1,78,
-200,a,-200,,,,,,,,,,,,,,,,,0,0,0,0,15,3,63,3,,,,,,,,,,,,,,,,,,,,,,,,,,,,,a,1,0.400707006454,None,0,4.0,squarecyan.gif,stop,,,,,,,,,,,,,,,,,,,,,,,,4.04,0.514258861542,0.000958919525146,0.400707006454,1,a,469.988063812,,,,,,,,,,,,,,,,,,,,,,,,,,,,,,,,,2015_Jul_06_1244,59.8626997063,LearningTask,1,78,
200,w,200,,,,,,,,,,,,,,,,,0,0,0,0,16,0,64,0,,,,,,,,,,,,,,,,,,,,,,,,,,,,,w,1,0.384248018265,None,0,0.5,diamondmagenta.gif,stop,,,,,,,,,,,,,,,,,,,,,,,,0,0.514243841171,0.000900030136108,0.384248018265,1,w,472.991436005,,,,,,,,,,,,,,,,,,,,,,,,,,,,,,,,,2015_Jul_06_1244,59.8626997063,LearningTask,1,78,
-200,q,200,,,,,,,,,,,,,,,,,0,0,0,0,16,1,65,1,,,,,,,,,,,,,,,,,,,,,,,,,,,,,q,1,0.417540073395,None,0,1.0,trianglewhite.gif,go,,,,,,,,,,,,,,,,,,,,,,,,1.14,0.514307022095,0.000904083251953,0.417540073395,1,q,475.994752884,,,,,,,,,,,,,,,,,,,,,,,,,,,,,,,,,2015_Jul_06_1244,59.8626997063,LearningTask,1,78,
200,s,-200,,,,,,,,,,,,,,,,,0,0,0,0,16,2,66,2,,,,,,,,,,,,,,,,,,,,,,,,,,,,,s,1,0.384648084641,None,0,1.0,trianglewhite.gif,go,,,,,,,,,,,,,,,,,,,,,,,,1.12,0.514042139053,0.000951051712036,0.384648084641,1,s,478.998032808,,,,,,,,,,,,,,,,,,,,,,,,,,,,,,,,,2015_Jul_06_1244,59.8626997063,LearningTask,1,78,
-200,a,-200,,,,,,,,,,,,,,,,,0,0,0,0,16,3,67,3,,,,,,,,,,,,,,,,,,,,,,,,,,,,,a,1,0.433926105499,None,0,4.0,linegray.gif,go,,,,,,,,,,,,,,,,,,,,,,,,0,0.514760971069,0.000890970230103,0.433926105499,1,a,482.001536846,,,,,,,,,,,,,,,,,,,,,,,,,,,,,,,,,2015_Jul_06_1244,59.8626997063,LearningTask,1,78,
200,w,200,,,,,,,,,,,,,,,,,0,0,0,0,17,0,68,0,,,,,,,,,,,,,,,,,,,,,,,,,,,,,w,1,0.350878000259,None,0,0.5,diamondmagenta.gif,stop,,,,,,,,,,,,,,,,,,,,,,,,0.45,0.514343976974,0.000895977020264,0.350878000259,1,w,485.005256891,,,,,,,,,,,,,,,,,,,,,,,,,,,,,,,,,2015_Jul_06_1244,59.8626997063,LearningTask,1,78,
200,w,200,,,,,,,,,,,,,,,,,0,0,0,0,17,1,69,0,,,,,,,,,,,,,,,,,,,,,,,,,,,,,w,1,0.384268045425,None,0,4.0,linegray.gif,go,,,,,,,,,,,,,,,,,,,,,,,,4.06,0.513799190521,0.000953197479248,0.384268045425,1,w,488.008265972,,,,,,,,,,,,,,,,,,,,,,,,,,,,,,,,,2015_Jul_06_1244,59.8626997063,LearningTask,1,78,
200,s,-200,,,,,,,,,,,,,,,,,0,0,0,0,17,2,70,2,,,,,,,,,,,,,,,,,,,,,,,,,,,,,s,1,0.384078025818,None,0,1.0,trianglewhite.gif,go,,,,,,,,,,,,,,,,,,,,,,,,0.77,0.514678955078,0.000895977020264,0.384078025818,1,s,491.011762857,,,,,,,,,,,,,,,,,,,,,,,,,,,,,,,,,2015_Jul_06_1244,59.8626997063,LearningTask,1,78,
200,w,200,,,,,,,,,,,,,,,,,0,0,0,0,17,3,71,0,,,,,,,,,,,,,,,,,,,,,,,,,,,,,w,1,0.350841999054,None,0,0.5,invertedtriangleyellow.gif,go,,,,,,,,,,,,,,,,,,,,,,,,0.29,0.514168977737,0.000895977020264,0.350841999054,1,w,494.01509881,,,,,,,,,,,,,,,,,,,,,,,,,,,,,,,,,2015_Jul_06_1244,59.8626997063,LearningTask,1,78,
200,w,200,,,,,,,,,,,,,,,,,0,0,0,0,18,0,72,0,,,,,,,,,,,,,,,,,,,,,,,,,,,,,w,1,0.3673620224,None,0,1.0,trianglewhite.gif,go,,,,,,,,,,,,,,,,,,,,,,,,0,0.513964891434,0.000905990600586,0.3673620224,1,w,497.018395901,,,,,,,,,,,,,,,,,,,,,,,,,,,,,,,,,2015_Jul_06_1244,59.8626997063,LearningTask,1,78,
200,s,-200,,,,,,,,,,,,,,,,,0,0,0,0,18,1,73,2,,,,,,,,,,,,,,,,,,,,,,,,,,,,,s,1,0.350918054581,None,0,1.0,hexagongreen.gif,stop,,,,,,,,,,,,,,,,,,,,,,,,0.82,0.514361858368,0.000913858413696,0.350918054581,1,s,500.021796942,,,,,,,,,,,,,,,,,,,,,,,,,,,,,,,,,2015_Jul_06_1244,59.8626997063,LearningTask,1,78,
-200,a,-200,,,,,,,,,,,,,,,,,0,0,0,0,18,2,74,3,,,,,,,,,,,,,,,,,,,,,,,,,,,,,a,1,0.384160041809,None,0,1.0,trianglewhite.gif,go,,,,,,,,,,,,,,,,,,,,,,,,1.24,0.514397144318,0.000892162322998,0.384160041809,1,a,503.025286913,,,,,,,,,,,,,,,,,,,,,,,,,,,,,,,,,2015_Jul_06_1244,59.8626997063,LearningTask,1,78,
-200,q,200,,,,,,,,,,,,,,,,,0,0,0,0,18,3,75,1,,,,,,,,,,,,,,,,,,,,,,,,,,,,,q,1,0.384602069855,None,0,2.0,circleblue.gif,stop,,,,,,,,,,,,,,,,,,,,,,,,2.12,0.51414513588,0.000917911529541,0.384602069855,1,q,506.028517962,,,,,,,,,,,,,,,,,,,,,,,,,,,,,,,,,2015_Jul_06_1244,59.8626997063,LearningTask,1,78,
200,s,-200,,,,,,,,,,,,,,,,,0,0,0,0,19,0,76,2,,,,,,,,,,,,,,,,,,,,,,,,,,,,,s,1,0.367867946625,None,0,2.0,circleblue.gif,stop,,,,,,,,,,,,,,,,,,,,,,,,2.03,0.514304161072,0.000943183898926,0.367867946625,1,s,509.032066822,,,,,,,,,,,,,,,,,,,,,,,,,,,,,,,,,2015_Jul_06_1244,59.8626997063,LearningTask,1,78,
-200,a,-200,,,,,,,,,,,,,,,,,0,0,0,0,19,1,77,3,,,,,,,,,,,,,,,,,,,,,,,,,,,,,a,1,0.417461156845,None,0,2.0,crossorange.gif,go,,,,,,,,,,,,,,,,,,,,,,,,0,0.514117002487,0.000907897949219,0.417461156845,1,a,512.035373926,,,,,,,,,,,,,,,,,,,,,,,,,,,,,,,,,2015_Jul_06_1244,59.8626997063,LearningTask,1,78,
200,s,-200,,,,,,,,,,,,,,,,,0,0,0,0,19,2,78,2,,,,,,,,,,,,,,,,,,,,,,,,,,,,,s,1,0.367243051529,None,0,2.0,crossorange.gif,go,,,,,,,,,,,,,,,,,,,,,,,,1.9,0.514255046844,0.00090503692627,0.367243051529,1,s,515.038733959,,,,,,,,,,,,,,,,,,,,,,,,,,,,,,,,,2015_Jul_06_1244,59.8626997063,LearningTask,1,78,
200,w,200,,,,,,,,,,,,,,,,,0,0,0,0,19,3,79,0,,,,,,,,,,,,,,,,,,,,,,,,,,,,,w,1,0.33428478241,None,0,2.0,crossorange.gif,go,,,,,,,,,,,,,,,,,,,,,,,,2.11,0.513954877853,0.000918865203857,0.33428478241,1,w,518.042038918,,,,,,,,,,,,,,,,,,,,,,,,,,,,,,,,,2015_Jul_06_1244,59.8626997063,LearningTask,1,78,
200,s,-200,,,,,,,,,,,,,,,,,0,0,0,0,20,0,80,2,,,,,,,,,,,,,,,,,,,,,,,,,,,,,s,1,0.367290973663,None,0,4.0,squarecyan.gif,stop,,,,,,,,,,,,,,,,,,,,,,,,4.06,0.514415979385,0.000898838043213,0.367290973663,1,s,521.045416832,,,,,,,,,,,,,,,,,,,,,,,,,,,,,,,,,2015_Jul_06_1244,59.8626997063,LearningTask,1,78,
200,w,200,,,,,,,,,,,,,,,,,0,0,0,0,20,1,81,0,,,,,,,,,,,,,,,,,,,,,,,,,,,,,w,1,0.36795592308,None,0,1.0,hexagongreen.gif,stop,,,,,,,,,,,,,,,,,,,,,,,,0.91,0.514432907104,0.000911951065063,0.36795592308,1,w,524.049184799,,,,,,,,,,,,,,,,,,,,,,,,,,,,,,,,,2015_Jul_06_1244,59.8626997063,LearningTask,1,78,
200,s,-200,,,,,,,,,,,,,,,,,0,0,0,0,20,2,82,2,,,,,,,,,,,,,,,,,,,,,,,,,,,,,s,1,0.367384910583,None,0,0.5,invertedtriangleyellow.gif,go,,,,,,,,,,,,,,,,,,,,,,,,0.34,0.513575077057,0.000949859619141,0.367384910583,1,s,527.052214861,,,,,,,,,,,,,,,,,,,,,,,,,,,,,,,,,2015_Jul_06_1244,59.8626997063,LearningTask,1,78,
-200,a,-200,,,,,,,,,,,,,,,,,0,0,0,0,20,3,83,3,,,,,,,,,,,,,,,,,,,,,,,,,,,,,a,1,0.350606918335,None,0,1.0,hexagongreen.gif,stop,,,,,,,,,,,,,,,,,,,,,,,,1.07,0.514445066452,0.000940084457397,0.350606918335,1,a,530.055773973,,,,,,,,,,,,,,,,,,,,,,,,,,,,,,,,,2015_Jul_06_1244,59.8626997063,LearningTask,1,78,
200,s,-200,,,,,,,,,,,,,,,,,0,0,0,0,21,0,84,2,,,,,,,,,,,,,,,,,,,,,,,,,,,,,s,1,0.351104974747,None,0,4.0,squarecyan.gif,stop,,,,,,,,,,,,,,,,,,,,,,,,0,0.51394200325,0.00120806694031,0.351104974747,1,s,533.059798002,,,,,,,,,,,,,,,,,,,,,,,,,,,,,,,,,2015_Jul_06_1244,59.8626997063,LearningTask,1,78,
-200,q,200,,,,,,,,,,,,,,,,,0,0,0,0,21,1,85,1,,,,,,,,,,,,,,,,,,,,,,,,,,,,,q,1,0.384418010712,None,0,4.0,linegray.gif,go,,,,,,,,,,,,,,,,,,,,,,,,3.98,0.513312101364,0.000919103622437,0.384418010712,1,q,536.06237793,,,,,,,,,,,,,,,,,,,,,,,,,,,,,,,,,2015_Jul_06_1244,59.8626997063,LearningTask,1,78,
200,w,200,,,,,,,,,,,,,,,,,0,0,0,0,21,2,86,0,,,,,,,,,,,,,,,,,,,,,,,,,,,,,w,1,0.350502967834,None,0,2.0,crossorange.gif,go,,,,,,,,,,,,,,,,,,,,,,,,1.79,0.514493227005,0.000903129577637,0.350502967834,1,w,539.065751791,,,,,,,,,,,,,,,,,,,,,,,,,,,,,,,,,2015_Jul_06_1244,59.8626997063,LearningTask,1,78,
-200,a,-200,,,,,,,,,,,,,,,,,0,0,0,0,21,3,87,3,,,,,,,,,,,,,,,,,,,,,,,,,,,,,a,1,0.333967208862,None,0,1.0,trianglewhite.gif,go,,,,,,,,,,,,,,,,,,,,,,,,1.19,0.514227867126,0.000897884368896,0.333967208862,1,a,542.069531918,,,,,,,,,,,,,,,,,,,,,,,,,,,,,,,,,2015_Jul_06_1244,59.8626997063,LearningTask,1,78,
-200,a,-200,,,,,,,,,,,,,,,,,0,0,0,0,22,0,88,3,,,,,,,,,,,,,,,,,,,,,,,,,,,,,a,1,0.351011037827,None,0,4.0,squarecyan.gif,stop,,,,,,,,,,,,,,,,,,,,,,,,4.17,0.513615846634,0.000899791717529,0.351011037827,1,a,545.072371006,,,,,,,,,,,,,,,,,,,,,,,,,,,,,,,,,2015_Jul_06_1244,59.8626997063,LearningTask,1,78,
200,w,200,,,,,,,,,,,,,,,,,0,0,0,0,22,1,89,0,,,,,,,,,,,,,,,,,,,,,,,,,,,,,w,1,0.334673881531,None,0,0.5,invertedtriangleyellow.gif,go,,,,,,,,,,,,,,,,,,,,,,,,0,0.514351129532,0.00117993354797,0.334673881531,1,w,548.07625699,,,,,,,,,,,,,,,,,,,,,,,,,,,,,,,,,2015_Jul_06_1244,59.8626997063,LearningTask,1,78,
200,w,200,,,,,,,,,,,,,,,,,0,0,0,0,22,2,90,0,,,,,,,,,,,,,,,,,,,,,,,,,,,,,w,1,0.35146689415,None,0,0.5,invertedtriangleyellow.gif,go,,,,,,,,,,,,,,,,,,,,,,,,0,0.513644933701,0.000899791717529,0.35146689415,1,w,551.079598904,,,,,,,,,,,,,,,,,,,,,,,,,,,,,,,,,2015_Jul_06_1244,59.8626997063,LearningTask,1,78,
-200,q,200,,,,,,,,,,,,,,,,,0,0,0,0,22,3,91,1,,,,,,,,,,,,,,,,,,,,,,,,,,,,,q,1,0.400710105896,None,0,2.0,crossorange.gif,go,,,,,,,,,,,,,,,,,,,,,,,,2.22,0.514069080353,0.000903129577637,0.400710105896,1,q,554.08255887,,,,,,,,,,,,,,,,,,,,,,,,,,,,,,,,,2015_Jul_06_1244,59.8626997063,LearningTask,1,78,
200,w,200,,,,,,,,,,,,,,,,,0,0,0,0,23,0,92,0,,,,,,,,,,,,,,,,,,,,,,,,,,,,,w,1,0.334137201309,None,0,2.0,circleblue.gif,stop,,,,,,,,,,,,,,,,,,,,,,,,1.8,0.514194965363,0.000976085662842,0.334137201309,1,w,557.086167812,,,,,,,,,,,,,,,,,,,,,,,,,,,,,,,,,2015_Jul_06_1244,59.8626997063,LearningTask,1,78,
200,w,200,,,,,,,,,,,,,,,,,0,0,0,0,23,1,93,0,,,,,,,,,,,,,,,,,,,,,,,,,,,,,w,1,0.350346088409,None,0,0.5,invertedtriangleyellow.gif,go,,,,,,,,,,,,,,,,,,,,,,,,0.44,0.514524936676,0.000894069671631,0.350346088409,1,w,560.089554787,,,,,,,,,,,,,,,,,,,,,,,,,,,,,,,,,2015_Jul_06_1244,59.8626997063,LearningTask,1,78,
-200,q,200,,,,,,,,,,,,,,,,,0,0,0,0,23,2,94,1,,,,,,,,,,,,,,,,,,,,,,,,,,,,,q,1,0.301025152206,None,0,2.0,circleblue.gif,stop,,,,,,,,,,,,,,,,,,,,,,,,1.77,0.51435303688,0.000917196273804,0.301025152206,1,q,563.093031883,,,,,,,,,,,,,,,,,,,,,,,,,,,,,,,,,2015_Jul_06_1244,59.8626997063,LearningTask,1,78,
-200,a,-200,,,,,,,,,,,,,,,,,0,0,0,0,23,3,95,3,,,,,,,,,,,,,,,,,,,,,,,,,,,,,a,1,0.334120988846,None,0,1.0,trianglewhite.gif,go,,,,,,,,,,,,,,,,,,,,,,,,0.82,0.514114141464,0.00100898742676,0.334120988846,1,a,566.096126795,,,,,,,,,,,,,,,,,,,,,,,,,,,,,,,,,2015_Jul_06_1244,59.8626997063,LearningTask,1,78,
200,s,-200,,,,,,,,,,,,,,,,,0,0,0,0,24,0,96,2,,,,,,,,,,,,,,,,,,,,,,,,,,,,,s,1,0.36736702919,None,0,0.5,diamondmagenta.gif,stop,,,,,,,,,,,,,,,,,,,,,,,,0.38,0.514555931091,0.000913858413696,0.36736702919,1,s,569.099844933,,,,,,,,,,,,,,,,,,,,,,,,,,,,,,,,,2015_Jul_06_1244,59.8626997063,LearningTask,1,78,
200,s,-200,,,,,,,,,,,,,,,,,0,0,0,0,24,1,97,2,,,,,,,,,,,,,,,,,,,,,,,,,,,,,s,1,0.401064872742,None,0,1.0,hexagongreen.gif,stop,,,,,,,,,,,,,,,,,,,,,,,,0.75,0.51395201683,0.000938892364502,0.401064872742,1,s,572.103149891,,,,,,,,,,,,,,,,,,,,,,,,,,,,,,,,,2015_Jul_06_1244,59.8626997063,LearningTask,1,78,
-200,q,200,,,,,,,,,,,,,,,,,0,0,0,0,24,2,98,1,,,,,,,,,,,,,,,,,,,,,,,,,,,,,q,1,0.300732135773,None,0,4.0,squarecyan.gif,stop,,,,,,,,,,,,,,,,,,,,,,,,4.05,0.513552904129,0.00278806686401,0.300732135773,1,q,575.106328011,,,,,,,,,,,,,,,,,,,,,,,,,,,,,,,,,2015_Jul_06_1244,59.8626997063,LearningTask,1,78,
-200,a,-200,,,,,,,,,,,,,,,,,0,0,0,0,24,3,99,3,,,,,,,,,,,,,,,,,,,,,,,,,,,,,a,1,0.333988189697,None,0,0.5,invertedtriangleyellow.gif,go,,,,,,,,,,,,,,,,,,,,,,,,0.73,0.514683961868,0.00089693069458,0.333988189697,1,a,578.109680891,,,,,,,,,,,,,,,,,,,,,,,,,,,,,,,,,2015_Jul_06_1244,59.8626997063,LearningTask,1,78,
,,,,,,,,,,,,,,,,,,,0,0,0,0,,,,,,,,,,,,,,,,,,,,,,,,,,,,,,,,,,,,,,,,,,,,,,,,,,,,,,,,,,,,,,,,,,,,,,,,,,,,,,9,43.5064849854,,,,,,,,,,,,,,,,,,,,,,,,2015_Jul_06_1244,59.8626997063,LearningTask,1,78,
200,s,-200,,,,,,,,,,,,,,,,,1,0,1,0,0,0,0,2,,,,,,,,,,,,,,,,,,,,,,,,,,,,,s,1,0.500987052917,None,0,0.5,invertedtriangleyellow.gif,go,,,,,,,,,,,,,,,,,,,,,,,,0.51,0.50931096077,0.00103688240051,0.500987052917,1,s,625.062732935,,,,,,,,,,,,,,,,,,,,,,,,,,,,,,,,,2015_Jul_06_1244,59.8626997063,LearningTask,1,78,
200,s,-200,,,,,,,,,,,,,,,,,1,0,1,0,0,1,1,2,,,,,,,,,,,,,,,,,,,,,,,,,,,,,s,1,0.367284059525,None,0,4.0,linegray.gif,go,,,,,,,,,,,,,,,,,,,,,,,,3.85,0.514044046402,0.000914096832275,0.367284059525,1,s,628.065809965,,,,,,,,,,,,,,,,,,,,,,,,,,,,,,,,,2015_Jul_06_1244,59.8626997063,LearningTask,1,78,
-200,a,-200,,,,,,,,,,,,,,,,,1,0,1,0,0,2,2,3,,,,,,,,,,,,,,,,,,,,,,,,,,,,,a,1,0.350881814957,None,0,2.0,crossorange.gif,go,,,,,,,,,,,,,,,,,,,,,,,,1.85,0.514397859573,0.000898838043213,0.350881814957,1,a,631.069412947,,,,,,,,,,,,,,,,,,,,,,,,,,,,,,,,,2015_Jul_06_1244,59.8626997063,LearningTask,1,78,
200,w,200,,,,,,,,,,,,,,,,,1,0,1,0,0,3,3,0,,,,,,,,,,,,,,,,,,,,,,,,,,,,,w,1,0.350836992264,None,0,2.0,circleblue.gif,stop,,,,,,,,,,,,,,,,,,,,,,,,2.02,0.514317989349,0.0010449886322,0.350836992264,1,w,634.072391987,,,,,,,,,,,,,,,,,,,,,,,,,,,,,,,,,2015_Jul_06_1244,59.8626997063,LearningTask,1,78,
-200,q,200,,,,,,,,,,,,,,,,,1,0,1,0,1,0,4,1,,,,,,,,,,,,,,,,,,,,,,,,,,,,,q,1,0.350881099701,None,0,2.0,crossorange.gif,go,,,,,,,,,,,,,,,,,,,,,,,,0,0.514385938644,0.000980854034424,0.350881099701,1,q,637.075868845,,,,,,,,,,,,,,,,,,,,,,,,,,,,,,,,,2015_Jul_06_1244,59.8626997063,LearningTask,1,78,
200,w,200,,,,,,,,,,,,,,,,,1,0,1,0,1,1,5,0,,,,,,,,,,,,,,,,,,,,,,,,,,,,,w,1,0.36795091629,None,0,2.0,circleblue.gif,stop,,,,,,,,,,,,,,,,,,,,,,,,1.79,0.514356851578,0.000901937484741,0.36795091629,1,w,640.079352856,,,,,,,,,,,,,,,,,,,,,,,,,,,,,,,,,2015_Jul_06_1244,59.8626997063,LearningTask,1,78,
200,s,-200,,,,,,,,,,,,,,,,,1,0,1,0,1,2,6,2,,,,,,,,,,,,,,,,,,,,,,,,,,,,,s,1,0.334206104279,None,0,2.0,circleblue.gif,stop,,,,,,,,,,,,,,,,,,,,,,,,2.12,0.514070987701,0.000957012176514,0.334206104279,1,s,643.082789898,,,,,,,,,,,,,,,,,,,,,,,,,,,,,,,,,2015_Jul_06_1244,59.8626997063,LearningTask,1,78,
-200,q,200,,,,,,,,,,,,,,,,,1,0,1,0,1,3,7,1,,,,,,,,,,,,,,,,,,,,,,,,,,,,,q,1,0.351000070572,None,0,0.5,diamondmagenta.gif,stop,,,,,,,,,,,,,,,,,,,,,,,,0.56,0.514395952225,0.000902891159058,0.351000070572,1,q,646.086077929,,,,,,,,,,,,,,,,,,,,,,,,,,,,,,,,,2015_Jul_06_1244,59.8626997063,LearningTask,1,78,
-200,a,-200,,,,,,,,,,,,,,,,,1,0,1,0,2,0,8,3,,,,,,,,,,,,,,,,,,,,,,,,,,,,,a,1,0.618019104004,None,0,0.5,invertedtriangleyellow.gif,go,,,,,,,,,,,,,,,,,,,,,,,,0.62,0.514415979385,0.000900030136108,0.618019104004,1,a,649.089365959,,,,,,,,,,,,,,,,,,,,,,,,,,,,,,,,,2015_Jul_06_1244,59.8626997063,LearningTask,1,78,
200,s,-200,,,,,,,,,,,,,,,,,1,0,1,0,2,1,9,2,,,,,,,,,,,,,,,,,,,,,,,,,,,,,s,1,0.334066867828,None,0,0.5,invertedtriangleyellow.gif,go,,,,,,,,,,,,,,,,,,,,,,,,0.51,0.514309167862,0.000919103622437,0.334066867828,1,s,652.092870951,,,,,,,,,,,,,,,,,,,,,,,,,,,,,,,,,2015_Jul_06_1244,59.8626997063,LearningTask,1,78,
-200,a,-200,,,,,,,,,,,,,,,,,1,0,1,0,2,2,10,3,,,,,,,,,,,,,,,,,,,,,,,,,,,,,a,1,0.417671918869,None,0,0.5,diamondmagenta.gif,stop,,,,,,,,,,,,,,,,,,,,,,,,0.29,0.514544010162,0.00091814994812,0.417671918869,1,a,655.096210957,,,,,,,,,,,,,,,,,,,,,,,,,,,,,,,,,2015_Jul_06_1244,59.8626997063,LearningTask,1,78,
-200,q,200,,,,,,,,,,,,,,,,,1,0,1,0,2,3,11,1,,,,,,,,,,,,,,,,,,,,,,,,,,,,,q,1,0.36790895462,None,0,4.0,linegray.gif,go,,,,,,,,,,,,,,,,,,,,,,,,0,0.514257907867,0.000895977020264,0.36790895462,1,q,658.099951982,,,,,,,,,,,,,,,,,,,,,,,,,,,,,,,,,2015_Jul_06_1244,59.8626997063,LearningTask,1,78,
200,s,-200,,,,,,,,,,,,,,,,,1,0,1,0,3,0,12,2,,,,,,,,,,,,,,,,,,,,,,,,,,,,,s,1,0.350513935089,None,0,2.0,crossorange.gif,go,,,,,,,,,,,,,,,,,,,,,,,,0,0.513834953308,0.000946044921875,0.350513935089,1,s,661.102888823,,,,,,,,,,,,,,,,,,,,,,,,,,,,,,,,,2015_Jul_06_1244,59.8626997063,LearningTask,1,78,
-200,q,200,,,,,,,,,,,,,,,,,1,0,1,0,3,1,13,1,,,,,,,,,,,,,,,,,,,,,,,,,,,,,q,1,0.35099196434,None,0,4.0,squarecyan.gif,stop,,,,,,,,,,,,,,,,,,,,,,,,0,0.514278173447,0.000883102416992,0.35099196434,1,q,664.106556892,,,,,,,,,,,,,,,,,,,,,,,,,,,,,,,,,2015_Jul_06_1244,59.8626997063,LearningTask,1,78,
200,w,200,,,,,,,,,,,,,,,,,1,0,1,0,3,2,14,0,,,,,,,,,,,,,,,,,,,,,,,,,,,,,w,1,0.350985765457,None,0,2.0,crossorange.gif,go,,,,,,,,,,,,,,,,,,,,,,,,1.86,0.513969182968,0.00090503692627,0.350985765457,1,w,667.109764814,,,,,,,,,,,,,,,,,,,,,,,,,,,,,,,,,2015_Jul_06_1244,59.8626997063,LearningTask,1,78,
-200,a,-200,,,,,,,,,,,,,,,,,1,0,1,0,3,3,15,3,,,,,,,,,,,,,,,,,,,,,,,,,,,,,a,1,0.334280967712,None,0,2.0,crossorange.gif,go,,,,,,,,,,,,,,,,,,,,,,,,1.81,0.514347076416,0.000915050506592,0.334280967712,1,a,670.113005877,,,,,,,,,,,,,,,,,,,,,,,,,,,,,,,,,2015_Jul_06_1244,59.8626997063,LearningTask,1,78,
200,s,-200,,,,,,,,,,,,,,,,,1,0,1,0,4,0,16,2,,,,,,,,,,,,,,,,,,,,,,,,,,,,,s,1,0.350807905197,None,0,2.0,crossorange.gif,go,,,,,,,,,,,,,,,,,,,,,,,,1.78,0.514302968979,0.000930070877075,0.350807905197,1,s,673.116436005,,,,,,,,,,,,,,,,,,,,,,,,,,,,,,,,,2015_Jul_06_1244,59.8626997063,LearningTask,1,78,
200,s,-200,,,,,,,,,,,,,,,,,1,0,1,0,4,1,17,2,,,,,,,,,,,,,,,,,,,,,,,,,,,,,s,1,0.334063053131,None,0,2.0,crossorange.gif,go,,,,,,,,,,,,,,,,,,,,,,,,2.0,0.514384031296,0.00090503692627,0.334063053131,1,s,676.119826794,,,,,,,,,,,,,,,,,,,,,,,,,,,,,,,,,2015_Jul_06_1244,59.8626997063,LearningTask,1,78,
200,w,200,,,,,,,,,,,,,,,,,1,0,1,0,4,2,18,0,,,,,,,,,,,,,,,,,,,,,,,,,,,,,w,1,0.33477807045,None,0,4.0,squarecyan.gif,stop,,,,,,,,,,,,,,,,,,,,,,,,3.94,0.514347791672,0.000866889953613,0.33477807045,1,w,679.123167992,,,,,,,,,,,,,,,,,,,,,,,,,,,,,,,,,2015_Jul_06_1244,59.8626997063,LearningTask,1,78,
-200,a,-200,,,,,,,,,,,,,,,,,1,0,1,0,4,3,19,3,,,,,,,,,,,,,,,,,,,,,,,,,,,,,a,1,0.350820064545,None,0,0.5,invertedtriangleyellow.gif,go,,,,,,,,,,,,,,,,,,,,,,,,0.35,0.51429104805,0.00108599662781,0.350820064545,1,a,682.126897812,,,,,,,,,,,,,,,,,,,,,,,,,,,,,,,,,2015_Jul_06_1244,59.8626997063,LearningTask,1,78,
-200,q,200,,,,,,,,,,,,,,,,,1,0,1,0,5,0,20,1,,,,,,,,,,,,,,,,,,,,,,,,,,,,,q,1,0.350948095322,None,0,1.0,trianglewhite.gif,go,,,,,,,,,,,,,,,,,,,,,,,,0.94,0.513933897018,0.000921010971069,0.350948095322,1,q,685.130266905,,,,,,,,,,,,,,,,,,,,,,,,,,,,,,,,,2015_Jul_06_1244,59.8626997063,LearningTask,1,78,
200,s,-200,,,,,,,,,,,,,,,,,1,0,1,0,5,1,21,2,,,,,,,,,,,,,,,,,,,,,,,,,,,,,s,1,0.351074934006,None,0,4.0,squarecyan.gif,stop,,,,,,,,,,,,,,,,,,,,,,,,4.1,0.513147115707,0.00111508369446,0.351074934006,1,s,688.133296967,,,,,,,,,,,,,,,,,,,,,,,,,,,,,,,,,2015_Jul_06_1244,59.8626997063,LearningTask,1,78,
-200,a,-200,,,,,,,,,,,,,,,,,1,0,1,0,5,2,22,3,,,,,,,,,,,,,,,,,,,,,,,,,,,,,a,1,0.367398023605,None,0,0.5,invertedtriangleyellow.gif,go,,,,,,,,,,,,,,,,,,,,,,,,0.41,0.514035224915,0.000989198684692,0.367398023605,1,a,691.136740923,,,,,,,,,,,,,,,,,,,,,,,,,,,,,,,,,2015_Jul_06_1244,59.8626997063,LearningTask,1,78,
200,s,-200,,,,,,,,,,,,,,,,,1,0,1,0,5,3,23,2,,,,,,,,,,,,,,,,,,,,,,,,,,,,,s,1,0.351274013519,None,0,2.0,circleblue.gif,stop,,,,,,,,,,,,,,,,,,,,,,,,0,0.514223098755,0.00088095664978,0.351274013519,1,s,694.13993001,,,,,,,,,,,,,,,,,,,,,,,,,,,,,,,,,2015_Jul_06_1244,59.8626997063,LearningTask,1,78,
-200,a,-200,,,,,,,,,,,,,,,,,1,0,1,0,6,0,24,3,,,,,,,,,,,,,,,,,,,,,,,,,,,,,a,1,0.334146022797,None,0,0.5,invertedtriangleyellow.gif,go,,,,,,,,,,,,,,,,,,,,,,,,0,0.514680147171,0.000877141952515,0.334146022797,1,a,697.143777847,,,,,,,,,,,,,,,,,,,,,,,,,,,,,,,,,2015_Jul_06_1244,59.8626997063,LearningTask,1,78,
-200,a,-200,,,,,,,,,,,,,,,,,1,0,1,0,6,1,25,3,,,,,,,,,,,,,,,,,,,,,,,,,,,,,a,1,0.300811052322,None,0,2.0,crossorange.gif,go,,,,,,,,,,,,,,,,,,,,,,,,1.94,0.514105081558,0.000880002975464,0.300811052322,1,a,700.146876812,,,,,,,,,,,,,,,,,,,,,,,,,,,,,,,,,2015_Jul_06_1244,59.8626997063,LearningTask,1,78,
-200,q,200,,,,,,,,,,,,,,,,,1,0,1,0,6,2,26,1,,,,,,,,,,,,,,,,,,,,,,,,,,,,,q,1,0.350759983063,None,0,2.0,circleblue.gif,stop,,,,,,,,,,,,,,,,,,,,,,,,0,0.514678001404,0.000927925109863,0.367522954941,0,w,703.150551796,2.02,0.515125989914,0.000952959060669,0.350759983063,1,q,706.154266834,,,,,,,,,,,,,,,,,,,,,,,,,,2015_Jul_06_1244,59.8626997063,LearningTask,1,78,
200,w,200,,,,,,,,,,,,,,,,,1,0,1,0,6,3,27,0,,,,,,,,,,,,,,,,,,,,,,,,,,,,,w,1,0.367056846619,None,0,4.0,linegray.gif,go,,,,,,,,,,,,,,,,,,,,,,,,4.05,0.513831138611,0.000893115997314,0.367056846619,1,w,709.157073975,,,,,,,,,,,,,,,,,,,,,,,,,,,,,,,,,2015_Jul_06_1244,59.8626997063,LearningTask,1,78,
200,w,200,,,,,,,,,,,,,,,,,1,0,1,0,7,0,28,0,,,,,,,,,,,,,,,,,,,,,,,,,,,,,w,1,0.36775302887,None,0,2.0,circleblue.gif,stop,,,,,,,,,,,,,,,,,,,,,,,,1.82,0.514230966568,0.000880002975464,0.36775302887,1,w,712.160278797,,,,,,,,,,,,,,,,,,,,,,,,,,,,,,,,,2015_Jul_06_1244,59.8626997063,LearningTask,1,78,
-200,q,200,,,,,,,,,,,,,,,,,1,0,1,0,7,1,29,1,,,,,,,,,,,,,,,,,,,,,,,,,,,,,q,1,0.350395917892,None,0,2.0,circleblue.gif,stop,,,,,,,,,,,,,,,,,,,,,,,,1.75,0.514739990234,0.000880002975464,0.350395917892,1,q,715.163836002,,,,,,,,,,,,,,,,,,,,,,,,,,,,,,,,,2015_Jul_06_1244,59.8626997063,LearningTask,1,78,
200,s,-200,,,,,,,,,,,,,,,,,1,0,1,0,7,2,30,2,,,,,,,,,,,,,,,,,,,,,,,,,,,,,s,1,0.334499835968,None,0,4.0,squarecyan.gif,stop,,,,,,,,,,,,,,,,,,,,,,,,3.75,0.514082193375,0.000872135162354,0.334499835968,1,s,718.16742301,,,,,,,,,,,,,,,,,,,,,,,,,,,,,,,,,2015_Jul_06_1244,59.8626997063,LearningTask,1,78,
200,w,200,,,,,,,,,,,,,,,,,1,0,1,0,7,3,31,0,,,,,,,,,,,,,,,,,,,,,,,,,,,,,w,1,0.334551095963,None,0,1.0,trianglewhite.gif,go,,,,,,,,,,,,,,,,,,,,,,,,0.81,0.513887882233,0.00109791755676,0.334551095963,1,w,721.170954943,,,,,,,,,,,,,,,,,,,,,,,,,,,,,,,,,2015_Jul_06_1244,59.8626997063,LearningTask,1,78,
200,w,200,,,,,,,,,,,,,,,,,1,0,1,0,8,0,32,0,,,,,,,,,,,,,,,,,,,,,,,,,,,,,w,1,0.36741900444,None,0,2.0,crossorange.gif,go,,,,,,,,,,,,,,,,,,,,,,,,0,0.514043092728,0.000883102416992,0.36741900444,1,w,724.173947811,,,,,,,,,,,,,,,,,,,,,,,,,,,,,,,,,2015_Jul_06_1244,59.8626997063,LearningTask,1,78,
-200,q,200,,,,,,,,,,,,,,,,,1,0,1,0,8,1,33,1,,,,,,,,,,,,,,,,,,,,,,,,,,,,,q,1,0.33401799202,None,0,1.0,hexagongreen.gif,stop,,,,,,,,,,,,,,,,,,,,,,,,0.75,0.514251947403,0.000884056091309,0.33401799202,1,q,727.177151918,,,,,,,,,,,,,,,,,,,,,,,,,,,,,,,,,2015_Jul_06_1244,59.8626997063,LearningTask,1,78,
-200,a,-200,,,,,,,,,,,,,,,,,1,0,1,0,8,2,34,3,,,,,,,,,,,,,,,,,,,,,,,,,,,,,a,1,0.367758989334,None,0,1.0,hexagongreen.gif,stop,,,,,,,,,,,,,,,,,,,,,,,,0.89,0.514196872711,0.00121402740479,0.367758989334,1,a,730.180626869,,,,,,,,,,,,,,,,,,,,,,,,,,,,,,,,,2015_Jul_06_1244,59.8626997063,LearningTask,1,78,
200,w,200,,,,,,,,,,,,,,,,,1,0,1,0,8,3,35,0,,,,,,,,,,,,,,,,,,,,,,,,,,,,,w,1,0.31782412529,None,0,2.0,circleblue.gif,stop,,,,,,,,,,,,,,,,,,,,,,,,0,0.514199018478,0.000875949859619,0.31782412529,1,w,733.184022903,,,,,,,,,,,,,,,,,,,,,,,,,,,,,,,,,2015_Jul_06_1244,59.8626997063,LearningTask,1,78,
200,s,-200,,,,,,,,,,,,,,,,,1,0,1,0,9,0,36,2,,,,,,,,,,,,,,,,,,,,,,,,,,,,,s,1,0.350736141205,None,0,1.0,hexagongreen.gif,stop,,,,,,,,,,,,,,,,,,,,,,,,0,0.514219045639,0.000876188278198,0.350736141205,1,s,736.187429905,,,,,,,,,,,,,,,,,,,,,,,,,,,,,,,,,2015_Jul_06_1244,59.8626997063,LearningTask,1,78,
200,s,-200,,,,,,,,,,,,,,,,,1,0,1,0,9,1,37,2,,,,,,,,,,,,,,,,,,,,,,,,,,,,,s,1,0.351313114166,None,0,0.5,diamondmagenta.gif,stop,,,,,,,,,,,,,,,,,,,,,,,,0,0.513977050781,0.00103712081909,0.351313114166,1,s,739.190782785,,,,,,,,,,,,,,,,,,,,,,,,,,,,,,,,,2015_Jul_06_1244,59.8626997063,LearningTask,1,78,
200,w,200,,,,,,,,,,,,,,,,,1,0,1,0,9,2,38,0,,,,,,,,,,,,,,,,,,,,,,,,,,,,,w,1,0.367398023605,None,0,4.0,linegray.gif,go,,,,,,,,,,,,,,,,,,,,,,,,4.18,0.514518976212,0.000867128372192,0.367398023605,1,w,742.194069862,,,,,,,,,,,,,,,,,,,,,,,,,,,,,,,,,2015_Jul_06_1244,59.8626997063,LearningTask,1,78,
-200,a,-200,,,,,,,,,,,,,,,,,1,0,1,0,9,3,39,3,,,,,,,,,,,,,,,,,,,,,,,,,,,,,a,1,0.351125001907,None,0,2.0,circleblue.gif,stop,,,,,,,,,,,,,,,,,,,,,,,,1.92,0.51437997818,0.000878810882568,0.351125001907,1,a,745.197906971,,,,,,,,,,,,,,,,,,,,,,,,,,,,,,,,,2015_Jul_06_1244,59.8626997063,LearningTask,1,78,
200,w,200,,,,,,,,,,,,,,,,,1,0,1,0,10,0,40,0,,,,,,,,,,,,,,,,,,,,,,,,,,,,,w,1,0.284477949142,None,0,4.0,squarecyan.gif,stop,,,,,,,,,,,,,,,,,,,,,,,,3.79,0.513861894608,0.000917911529541,0.284477949142,1,w,748.200896978,,,,,,,,,,,,,,,,,,,,,,,,,,,,,,,,,2015_Jul_06_1244,59.8626997063,LearningTask,1,78,
200,s,-200,,,,,,,,,,,,,,,,,1,0,1,0,10,1,41,2,,,,,,,,,,,,,,,,,,,,,,,,,,,,,s,1,0.367795944214,None,0,0.5,diamondmagenta.gif,stop,,,,,,,,,,,,,,,,,,,,,,,,0.33,0.514380931854,0.000869989395142,0.367795944214,1,s,751.204226017,,,,,,,,,,,,,,,,,,,,,,,,,,,,,,,,,2015_Jul_06_1244,59.8626997063,LearningTask,1,78,
-200,q,200,,,,,,,,,,,,,,,,,1,0,1,0,10,2,42,1,,,,,,,,,,,,,,,,,,,,,,,,,,,,,q,1,0.334122896194,None,0,2.0,circleblue.gif,stop,,,,,,,,,,,,,,,,,,,,,,,,0,0.51429104805,0.000874996185303,0.334122896194,1,q,754.207999945,,,,,,,,,,,,,,,,,,,,,,,,,,,,,,,,,2015_Jul_06_1244,59.8626997063,LearningTask,1,78,
-200,q,200,,,,,,,,,,,,,,,,,1,0,1,0,10,3,43,1,,,,,,,,,,,,,,,,,,,,,,,,,,,,,q,1,0.36753320694,None,0,4.0,squarecyan.gif,stop,,,,,,,,,,,,,,,,,,,,,,,,4.2,0.513896942139,0.000888109207153,0.36753320694,1,q,757.211133003,,,,,,,,,,,,,,,,,,,,,,,,,,,,,,,,,2015_Jul_06_1244,59.8626997063,LearningTask,1,78,
200,w,200,,,,,,,,,,,,,,,,,1,0,1,0,11,0,44,0,,,,,,,,,,,,,,,,,,,,,,,,,,,,,w,1,0.334394931793,None,0,4.0,squarecyan.gif,stop,,,,,,,,,,,,,,,,,,,,,,,,3.76,0.514246940613,0.000955820083618,0.334394931793,1,w,760.214265823,,,,,,,,,,,,,,,,,,,,,,,,,,,,,,,,,2015_Jul_06_1244,59.8626997063,LearningTask,1,78,
-200,a,-200,,,,,,,,,,,,,,,,,1,0,1,0,11,1,45,3,,,,,,,,,,,,,,,,,,,,,,,,,,,,,a,1,0.367722988129,None,0,1.0,hexagongreen.gif,stop,,,,,,,,,,,,,,,,,,,,,,,,1.13,0.514498949051,0.000890970230103,0.367722988129,1,a,763.218014002,,,,,,,,,,,,,,,,,,,,,,,,,,,,,,,,,2015_Jul_06_1244,59.8626997063,LearningTask,1,78,
-200,q,200,,,,,,,,,,,,,,,,,1,0,1,0,11,2,46,1,,,,,,,,,,,,,,,,,,,,,,,,,,,,,q,1,0.350331068039,None,0,0.5,invertedtriangleyellow.gif,go,,,,,,,,,,,,,,,,,,,,,,,,0,0.514500141144,0.000890016555786,0.350331068039,1,q,766.221140862,,,,,,,,,,,,,,,,,,,,,,,,,,,,,,,,,2015_Jul_06_1244,59.8626997063,LearningTask,1,78,
-200,a,-200,,,,,,,,,,,,,,,,,1,0,1,0,11,3,47,3,,,,,,,,,,,,,,,,,,,,,,,,,,,,,a,1,0.350905179977,None,0,2.0,circleblue.gif,stop,,,,,,,,,,,,,,,,,,,,,,,,2.23,0.514241933823,0.00092601776123,0.350905179977,1,a,769.224843979,,,,,,,,,,,,,,,,,,,,,,,,,,,,,,,,,2015_Jul_06_1244,59.8626997063,LearningTask,1,78,
200,w,200,,,,,,,,,,,,,,,,,1,0,1,0,12,0,48,0,,,,,,,,,,,,,,,,,,,,,,,,,,,,,w,1,0.267273187637,None,0,0.5,invertedtriangleyellow.gif,go,,,,,,,,,,,,,,,,,,,,,,,,0,0.514174938202,0.000874996185303,0.267273187637,1,w,772.228025913,,,,,,,,,,,,,,,,,,,,,,,,,,,,,,,,,2015_Jul_06_1244,59.8626997063,LearningTask,1,78,
200,w,200,,,,,,,,,,,,,,,,,1,0,1,0,12,1,49,0,,,,,,,,,,,,,,,,,,,,,,,,,,,,,w,1,0.317503929138,None,0,0.5,diamondmagenta.gif,stop,,,,,,,,,,,,,,,,,,,,,,,,0.68,0.514187097549,0.000868082046509,0.317503929138,1,w,775.231280804,,,,,,,,,,,,,,,,,,,,,,,,,,,,,,,,,2015_Jul_06_1244,59.8626997063,LearningTask,1,78,
-200,q,200,,,,,,,,,,,,,,,,,1,0,1,0,12,2,50,1,,,,,,,,,,,,,,,,,,,,,,,,,,,,,q,1,0.384124040604,None,0,0.5,invertedtriangleyellow.gif,go,,,,,,,,,,,,,,,,,,,,,,,,0.47,0.514180898666,0.000941038131714,0.384124040604,1,q,778.234593868,,,,,,,,,,,,,,,,,,,,,,,,,,,,,,,,,2015_Jul_06_1244,59.8626997063,LearningTask,1,78,
-200,a,-200,,,,,,,,,,,,,,,,,1,0,1,0,12,3,51,3,,,,,,,,,,,,,,,,,,,,,,,,,,,,,a,1,0.3342628479,None,0,4.0,squarecyan.gif,stop,,,,,,,,,,,,,,,,,,,,,,,,4.2,0.514185905457,0.000936031341553,0.3342628479,1,a,781.238128901,,,,,,,,,,,,,,,,,,,,,,,,,,,,,,,,,2015_Jul_06_1244,59.8626997063,LearningTask,1,78,
-200,a,-200,,,,,,,,,,,,,,,,,1,0,1,0,13,0,52,3,,,,,,,,,,,,,,,,,,,,,,,,,,,,,a,1,0.350340843201,None,0,1.0,hexagongreen.gif,stop,,,,,,,,,,,,,,,,,,,,,,,,0,0.514282941818,0.00116896629333,0.350340843201,1,a,784.24168992,,,,,,,,,,,,,,,,,,,,,,,,,,,,,,,,,2015_Jul_06_1244,59.8626997063,LearningTask,1,78,
-200,q,200,,,,,,,,,,,,,,,,,1,0,1,0,13,1,53,1,,,,,,,,,,,,,,,,,,,,,,,,,,,,,q,1,0.367511987686,None,0,1.0,hexagongreen.gif,stop,,,,,,,,,,,,,,,,,,,,,,,,0,0.514127016068,0.000874996185303,0.367511987686,1,q,787.244796991,,,,,,,,,,,,,,,,,,,,,,,,,,,,,,,,,2015_Jul_06_1244,59.8626997063,LearningTask,1,78,
-200,q,200,,,,,,,,,,,,,,,,,1,0,1,0,13,2,54,1,,,,,,,,,,,,,,,,,,,,,,,,,,,,,q,1,0.350914001465,None,0,1.0,trianglewhite.gif,go,,,,,,,,,,,,,,,,,,,,,,,,0,0.514474153519,0.00088906288147,0.350914001465,1,q,790.248183012,,,,,,,,,,,,,,,,,,,,,,,,,,,,,,,,,2015_Jul_06_1244,59.8626997063,LearningTask,1,78,
200,w,200,,,,,,,,,,,,,,,,,1,0,1,0,13,3,55,0,,,,,,,,,,,,,,,,,,,,,,,,,,,,,w,1,0.35084605217,None,0,1.0,trianglewhite.gif,go,,,,,,,,,,,,,,,,,,,,,,,,1.25,0.51433801651,0.000874042510986,0.35084605217,1,w,793.251859903,,,,,,,,,,,,,,,,,,,,,,,,,,,,,,,,,2015_Jul_06_1244,59.8626997063,LearningTask,1,78,
200,w,200,,,,,,,,,,,,,,,,,1,0,1,0,14,0,56,0,,,,,,,,,,,,,,,,,,,,,,,,,,,,,w,1,0.350838184357,None,0,0.5,diamondmagenta.gif,stop,,,,,,,,,,,,,,,,,,,,,,,,0.29,0.513869047165,0.000863075256348,0.350838184357,1,w,796.254961014,,,,,,,,,,,,,,,,,,,,,,,,,,,,,,,,,2015_Jul_06_1244,59.8626997063,LearningTask,1,78,
200,s,-200,,,,,,,,,,,,,,,,,1,0,1,0,14,1,57,2,,,,,,,,,,,,,,,,,,,,,,,,,,,,,s,1,0.367337942123,None,0,2.0,circleblue.gif,stop,,,,,,,,,,,,,,,,,,,,,,,,2.08,0.514467954636,0.000880002975464,0.367337942123,1,s,799.258338928,,,,,,,,,,,,,,,,,,,,,,,,,,,,,,,,,2015_Jul_06_1244,59.8626997063,LearningTask,1,78,
200,w,200,,,,,,,,,,,,,,,,,1,0,1,0,14,2,58,0,,,,,,,,,,,,,,,,,,,,,,,,,,,,,w,1,0.350966930389,None,0,4.0,linegray.gif,go,,,,,,,,,,,,,,,,,,,,,,,,3.8,0.514076948166,0.000879049301147,0.350966930389,1,w,802.261837959,,,,,,,,,,,,,,,,,,,,,,,,,,,,,,,,,2015_Jul_06_1244,59.8626997063,LearningTask,1,78,
200,s,-200,,,,,,,,,,,,,,,,,1,0,1,0,14,3,59,2,,,,,,,,,,,,,,,,,,,,,,,,,,,,,s,1,0.383907079697,None,0,0.5,diamondmagenta.gif,stop,,,,,,,,,,,,,,,,,,,,,,,,0.37,0.51452088356,0.00088095664978,0.383907079697,1,s,805.264986992,,,,,,,,,,,,,,,,,,,,,,,,,,,,,,,,,2015_Jul_06_1244,59.8626997063,LearningTask,1,78,
200,s,-200,,,,,,,,,,,,,,,,,1,0,1,0,15,0,60,2,,,,,,,,,,,,,,,,,,,,,,,,,,,,,s,1,0.350819826126,None,0,1.0,hexagongreen.gif,stop,,,,,,,,,,,,,,,,,,,,,,,,1.25,0.514527082443,0.000991106033325,0.350819826126,1,s,808.268857956,,,,,,,,,,,,,,,,,,,,,,,,,,,,,,,,,2015_Jul_06_1244,59.8626997063,LearningTask,1,78,
200,s,-200,,,,,,,,,,,,,,,,,1,0,1,0,15,1,61,2,,,,,,,,,,,,,,,,,,,,,,,,,,,,,s,1,0.366998910904,None,0,0.5,diamondmagenta.gif,stop,,,,,,,,,,,,,,,,,,,,,,,,0,0.513942956924,0.00088095664978,0.366998910904,1,s,811.271921873,,,,,,,,,,,,,,,,,,,,,,,,,,,,,,,,,2015_Jul_06_1244,59.8626997063,LearningTask,1,78,
200,s,-200,,,,,,,,,,,,,,,,,1,0,1,0,15,2,62,2,,,,,,,,,,,,,,,,,,,,,,,,,,,,,s,1,0.367001056671,None,0,1.0,hexagongreen.gif,stop,,,,,,,,,,,,,,,,,,,,,,,,1.18,0.514189958572,0.000897884368896,0.367001056671,1,s,814.275278807,,,,,,,,,,,,,,,,,,,,,,,,,,,,,,,,,2015_Jul_06_1244,59.8626997063,LearningTask,1,78,
-200,q,200,,,,,,,,,,,,,,,,,1,0,1,0,15,3,63,1,,,,,,,,,,,,,,,,,,,,,,,,,,,,,q,1,0.36762213707,None,0,1.0,trianglewhite.gif,go,,,,,,,,,,,,,,,,,,,,,,,,0,0.5139939785,0.000932931900024,0.36762213707,1,q,817.278730869,,,,,,,,,,,,,,,,,,,,,,,,,,,,,,,,,2015_Jul_06_1244,59.8626997063,LearningTask,1,78,
-200,q,200,,,,,,,,,,,,,,,,,1,0,1,0,16,0,64,1,,,,,,,,,,,,,,,,,,,,,,,,,,,,,q,1,0.367218971252,None,0,0.5,invertedtriangleyellow.gif,go,,,,,,,,,,,,,,,,,,,,,,,,0,0.514544010162,0.000884056091309,0.367218971252,1,q,820.281930923,,,,,,,,,,,,,,,,,,,,,,,,,,,,,,,,,2015_Jul_06_1244,59.8626997063,LearningTask,1,78,
-200,q,200,,,,,,,,,,,,,,,,,1,0,1,0,16,1,65,1,,,,,,,,,,,,,,,,,,,,,,,,,,,,,q,1,0.367667913437,None,0,0.5,diamondmagenta.gif,stop,,,,,,,,,,,,,,,,,,,,,,,,0,0.514292001724,0.000884056091309,0.367667913437,1,q,823.285279989,,,,,,,,,,,,,,,,,,,,,,,,,,,,,,,,,2015_Jul_06_1244,59.8626997063,LearningTask,1,78,
-200,q,200,,,,,,,,,,,,,,,,,1,0,1,0,16,2,66,1,,,,,,,,,,,,,,,,,,,,,,,,,,,,,q,1,0.368177890778,None,0,1.0,trianglewhite.gif,go,,,,,,,,,,,,,,,,,,,,,,,,0,0.513824939728,0.000914812088013,0.368177890778,1,q,826.288697958,,,,,,,,,,,,,,,,,,,,,,,,,,,,,,,,,2015_Jul_06_1244,59.8626997063,LearningTask,1,78,
-200,q,200,,,,,,,,,,,,,,,,,1,0,1,0,16,3,67,1,,,,,,,,,,,,,,,,,,,,,,,,,,,,,q,1,0.367650985718,None,0,2.0,crossorange.gif,go,,,,,,,,,,,,,,,,,,,,,,,,2.1,0.514292001724,0.000882863998413,0.367650985718,1,q,829.292218924,,,,,,,,,,,,,,,,,,,,,,,,,,,,,,,,,2015_Jul_06_1244,59.8626997063,LearningTask,1,78,
200,w,200,,,,,,,,,,,,,,,,,1,0,1,0,17,0,68,0,,,,,,,,,,,,,,,,,,,,,,,,,,,,,w,1,0.334263086319,None,0,1.0,trianglewhite.gif,go,,,,,,,,,,,,,,,,,,,,,,,,1.0,0.514287948608,0.000881910324097,0.334263086319,1,w,832.295972824,,,,,,,,,,,,,,,,,,,,,,,,,,,,,,,,,2015_Jul_06_1244,59.8626997063,LearningTask,1,78,
-200,q,200,,,,,,,,,,,,,,,,,1,0,1,0,17,1,69,1,,,,,,,,,,,,,,,,,,,,,,,,,,,,,q,1,0.367347002029,None,0,4.0,linegray.gif,go,,,,,,,,,,,,,,,,,,,,,,,,3.9,0.513878107071,0.000895023345947,0.367347002029,1,q,835.298760891,,,,,,,,,,,,,,,,,,,,,,,,,,,,,,,,,2015_Jul_06_1244,59.8626997063,LearningTask,1,78,
-200,a,-200,,,,,,,,,,,,,,,,,1,0,1,0,17,2,70,3,,,,,,,,,,,,,,,,,,,,,,,,,,,,,a,1,0.417370080948,None,0,1.0,trianglewhite.gif,go,,,,,,,,,,,,,,,,,,,,,,,,1.04,0.514328956604,0.000885009765625,0.417370080948,1,a,838.302352905,,,,,,,,,,,,,,,,,,,,,,,,,,,,,,,,,2015_Jul_06_1244,59.8626997063,LearningTask,1,78,
-200,a,-200,,,,,,,,,,,,,,,,,1,0,1,0,17,3,71,3,,,,,,,,,,,,,,,,,,,,,,,,,,,,,a,1,0.300993919373,None,0,4.0,squarecyan.gif,stop,,,,,,,,,,,,,,,,,,,,,,,,4.24,0.514174938202,0.000868797302246,0.300993919373,1,a,841.305804968,,,,,,,,,,,,,,,,,,,,,,,,,,,,,,,,,2015_Jul_06_1244,59.8626997063,LearningTask,1,78,
-200,a,-200,,,,,,,,,,,,,,,,,1,0,1,0,18,0,72,3,,,,,,,,,,,,,,,,,,,,,,,,,,,,,a,1,0.334321022034,None,0,1.0,hexagongreen.gif,stop,,,,,,,,,,,,,,,,,,,,,,,,1.23,0.514034986496,0.000888109207153,0.334321022034,1,a,844.309014797,,,,,,,,,,,,,,,,,,,,,,,,,,,,,,,,,2015_Jul_06_1244,59.8626997063,LearningTask,1,78,
200,s,-200,,,,,,,,,,,,,,,,,1,0,1,0,18,1,73,2,,,,,,,,,,,,,,,,,,,,,,,,,,,,,s,1,0.333714962006,None,0,1.0,hexagongreen.gif,stop,,,,,,,,,,,,,,,,,,,,,,,,1.14,0.514477968216,0.00088906288147,0.333714962006,1,s,847.312290907,,,,,,,,,,,,,,,,,,,,,,,,,,,,,,,,,2015_Jul_06_1244,59.8626997063,LearningTask,1,78,
-200,a,-200,,,,,,,,,,,,,,,,,1,0,1,0,18,2,74,3,,,,,,,,,,,,,,,,,,,,,,,,,,,,,a,1,0.36772608757,None,0,4.0,linegray.gif,go,,,,,,,,,,,,,,,,,,,,,,,,4.25,0.514611959457,0.000901937484741,0.36772608757,1,a,850.316088915,,,,,,,,,,,,,,,,,,,,,,,,,,,,,,,,,2015_Jul_06_1244,59.8626997063,LearningTask,1,78,
200,w,200,,,,,,,,,,,,,,,,,1,0,1,0,18,3,75,0,,,,,,,,,,,,,,,,,,,,,,,,,,,,,w,1,0.384114980698,None,0,2.0,crossorange.gif,go,,,,,,,,,,,,,,,,,,,,,,,,1.98,0.514034032822,0.000880002975464,0.384114980698,1,w,853.319308996,,,,,,,,,,,,,,,,,,,,,,,,,,,,,,,,,2015_Jul_06_1244,59.8626997063,LearningTask,1,78,
200,s,-200,,,,,,,,,,,,,,,,,1,0,1,0,19,0,76,2,,,,,,,,,,,,,,,,,,,,,,,,,,,,,s,1,0.500434875488,None,0,4.0,linegray.gif,go,,,,,,,,,,,,,,,,,,,,,,,,4.16,0.514345169067,0.00112509727478,0.500434875488,1,s,856.322321892,,,,,,,,,,,,,,,,,,,,,,,,,,,,,,,,,2015_Jul_06_1244,59.8626997063,LearningTask,1,78,
-200,q,200,,,,,,,,,,,,,,,,,1,0,1,0,19,1,77,1,,,,,,,,,,,,,,,,,,,,,,,,,,,,,q,1,0.351021051407,None,0,2.0,circleblue.gif,stop,,,,,,,,,,,,,,,,,,,,,,,,0,0.514590978622,0.000882148742676,0.350727081299,0,a,859.325934887,0,0.51567697525,0.000976085662842,0.351021051407,1,q,862.329180002,,,,,,,,,,,,,,,,,,,,,,,,,,2015_Jul_06_1244,59.8626997063,LearningTask,1,78,
200,s,-200,,,,,,,,,,,,,,,,,1,0,1,0,19,2,78,2,,,,,,,,,,,,,,,,,,,,,,,,,,,,,s,1,0.350758075714,None,0,1.0,hexagongreen.gif,stop,,,,,,,,,,,,,,,,,,,,,,,,1.12,0.514271974564,0.00093412399292,0.350758075714,1,s,865.332631826,,,,,,,,,,,,,,,,,,,,,,,,,,,,,,,,,2015_Jul_06_1244,59.8626997063,LearningTask,1,78,
-200,q,200,,,,,,,,,,,,,,,,,1,0,1,0,19,3,79,1,,,,,,,,,,,,,,,,,,,,,,,,,,,,,q,1,0.334201812744,None,0,4.0,linegray.gif,go,,,,,,,,,,,,,,,,,,,,,,,,3.91,0.514331817627,0.000876903533936,0.334201812744,1,q,868.335953951,,,,,,,,,,,,,,,,,,,,,,,,,,,,,,,,,2015_Jul_06_1244,59.8626997063,LearningTask,1,78,
-200,a,-200,,,,,,,,,,,,,,,,,1,0,1,0,20,0,80,3,,,,,,,,,,,,,,,,,,,,,,,,,,,,,a,1,0.384401798248,None,0,1.0,trianglewhite.gif,go,,,,,,,,,,,,,,,,,,,,,,,,0.79,0.514405012131,0.000877141952515,0.384401798248,1,a,871.339233875,,,,,,,,,,,,,,,,,,,,,,,,,,,,,,,,,2015_Jul_06_1244,59.8626997063,LearningTask,1,78,
200,w,200,,,,,,,,,,,,,,,,,1,0,1,0,20,1,81,0,,,,,,,,,,,,,,,,,,,,,,,,,,,,,w,1,0.350947856903,None,0,4.0,linegray.gif,go,,,,,,,,,,,,,,,,,,,,,,,,4.16,0.514113903046,0.000952959060669,0.350947856903,1,w,874.342794895,,,,,,,,,,,,,,,,,,,,,,,,,,,,,,,,,2015_Jul_06_1244,59.8626997063,LearningTask,1,78,
-200,a,-200,,,,,,,,,,,,,,,,,1,0,1,0,20,2,82,3,,,,,,,,,,,,,,,,,,,,,,,,,,,,,a,1,0.400665044785,None,0,2.0,circleblue.gif,stop,,,,,,,,,,,,,,,,,,,,,,,,1.85,0.514449119568,0.000872135162354,0.400665044785,1,a,877.346265793,,,,,,,,,,,,,,,,,,,,,,,,,,,,,,,,,2015_Jul_06_1244,59.8626997063,LearningTask,1,78,
200,s,-200,,,,,,,,,,,,,,,,,1,0,1,0,20,3,83,2,,,,,,,,,,,,,,,,,,,,,,,,,,,,,s,1,0.367532968521,None,0,0.5,diamondmagenta.gif,stop,,,,,,,,,,,,,,,,,,,,,,,,0.58,0.514147043228,0.000882148742676,0.367532968521,1,s,880.349979877,,,,,,,,,,,,,,,,,,,,,,,,,,,,,,,,,2015_Jul_06_1244,59.8626997063,LearningTask,1,78,
-200,a,-200,,,,,,,,,,,,,,,,,1,0,1,0,21,0,84,3,,,,,,,,,,,,,,,,,,,,,,,,,,,,,a,1,0.367202997208,None,0,2.0,crossorange.gif,go,,,,,,,,,,,,,,,,,,,,,,,,1.9,0.513906002045,0.000881910324097,0.367202997208,1,a,883.352880001,,,,,,,,,,,,,,,,,,,,,,,,,,,,,,,,,2015_Jul_06_1244,59.8626997063,LearningTask,1,78,
200,w,200,,,,,,,,,,,,,,,,,1,0,1,0,21,1,85,0,,,,,,,,,,,,,,,,,,,,,,,,,,,,,w,1,0.33451294899,None,0,1.0,hexagongreen.gif,stop,,,,,,,,,,,,,,,,,,,,,,,,0.82,0.514448165894,0.000895023345947,0.33451294899,1,w,886.356400013,,,,,,,,,,,,,,,,,,,,,,,,,,,,,,,,,2015_Jul_06_1244,59.8626997063,LearningTask,1,78,
-200,a,-200,,,,,,,,,,,,,,,,,1,0,1,0,21,2,86,3,,,,,,,,,,,,,,,,,,,,,,,,,,,,,a,1,0.300770998001,None,0,0.5,invertedtriangleyellow.gif,go,,,,,,,,,,,,,,,,,,,,,,,,0.58,0.514095067978,0.000884056091309,0.300770998001,1,a,889.35992384,,,,,,,,,,,,,,,,,,,,,,,,,,,,,,,,,2015_Jul_06_1244,59.8626997063,LearningTask,1,78,
200,s,-200,,,,,,,,,,,,,,,,,1,0,1,0,21,3,87,2,,,,,,,,,,,,,,,,,,,,,,,,,,,,,s,1,0.334167957306,None,0,0.5,invertedtriangleyellow.gif,go,,,,,,,,,,,,,,,,,,,,,,,,0.69,0.514219999313,0.000883102416992,0.334167957306,1,s,892.36290884,,,,,,,,,,,,,,,,,,,,,,,,,,,,,,,,,2015_Jul_06_1244,59.8626997063,LearningTask,1,78,
200,w,200,,,,,,,,,,,,,,,,,1,0,1,0,22,0,88,0,,,,,,,,,,,,,,,,,,,,,,,,,,,,,w,1,0.367666959763,None,0,4.0,linegray.gif,go,,,,,,,,,,,,,,,,,,,,,,,,4.2,0.514219045639,0.00102806091309,0.367666959763,1,w,895.366266012,,,,,,,,,,,,,,,,,,,,,,,,,,,,,,,,,2015_Jul_06_1244,59.8626997063,LearningTask,1,78,
-200,q,200,,,,,,,,,,,,,,,,,1,0,1,0,22,1,89,1,,,,,,,,,,,,,,,,,,,,,,,,,,,,,q,1,0.367429971695,None,0,1.0,hexagongreen.gif,stop,,,,,,,,,,,,,,,,,,,,,,,,0,0.514499187469,0.000895023345947,0.367429971695,1,q,898.369856834,,,,,,,,,,,,,,,,,,,,,,,,,,,,,,,,,2015_Jul_06_1244,59.8626997063,LearningTask,1,78,
-200,q,200,,,,,,,,,,,,,,,,,1,0,1,0,22,2,90,1,,,,,,,,,,,,,,,,,,,,,,,,,,,,,q,1,0.400659799576,None,0,4.0,linegray.gif,go,,,,,,,,,,,,,,,,,,,,,,,,4.22,0.514279127121,0.000921010971069,0.400659799576,1,q,901.373095989,,,,,,,,,,,,,,,,,,,,,,,,,,,,,,,,,2015_Jul_06_1244,59.8626997063,LearningTask,1,78,
200,w,200,,,,,,,,,,,,,,,,,1,0,1,0,22,3,91,0,,,,,,,,,,,,,,,,,,,,,,,,,,,,,w,1,0.301298141479,None,0,0.5,diamondmagenta.gif,stop,,,,,,,,,,,,,,,,,,,,,,,,0.34,0.514053821564,0.000953912734985,0.301298141479,1,w,904.376737833,,,,,,,,,,,,,,,,,,,,,,,,,,,,,,,,,2015_Jul_06_1244,59.8626997063,LearningTask,1,78,
-200,a,-200,,,,,,,,,,,,,,,,,1,0,1,0,23,0,92,3,,,,,,,,,,,,,,,,,,,,,,,,,,,,,a,1,0.351162910461,None,0,2.0,circleblue.gif,stop,,,,,,,,,,,,,,,,,,,,,,,,2.0,0.513871908188,0.000883817672729,0.351162910461,1,a,907.380206823,,,,,,,,,,,,,,,,,,,,,,,,,,,,,,,,,2015_Jul_06_1244,59.8626997063,LearningTask,1,78,
-200,a,-200,,,,,,,,,,,,,,,,,1,0,1,0,23,1,93,3,,,,,,,,,,,,,,,,,,,,,,,,,,,,,a,1,0.334328889847,None,0,1.0,trianglewhite.gif,go,,,,,,,,,,,,,,,,,,,,,,,,1.08,0.513897180557,0.000903129577637,0.334328889847,1,a,910.383144855,,,,,,,,,,,,,,,,,,,,,,,,,,,,,,,,,2015_Jul_06_1244,59.8626997063,LearningTask,1,78,
200,s,-200,,,,,,,,,,,,,,,,,1,0,1,0,23,2,94,2,,,,,,,,,,,,,,,,,,,,,,,,,,,,,s,1,0.350883960724,None,0,2.0,circleblue.gif,stop,,,,,,,,,,,,,,,,,,,,,,,,2.11,0.514159917831,0.000909805297852,0.350883960724,1,s,913.386680841,,,,,,,,,,,,,,,,,,,,,,,,,,,,,,,,,2015_Jul_06_1244,59.8626997063,LearningTask,1,78,
200,w,200,,,,,,,,,,,,,,,,,1,0,1,0,23,3,95,0,,,,,,,,,,,,,,,,,,,,,,,,,,,,,w,1,0.350742101669,None,0,4.0,linegray.gif,go,,,,,,,,,,,,,,,,,,,,,,,,3.96,0.514298915863,0.000892877578735,0.350742101669,1,w,916.389975786,,,,,,,,,,,,,,,,,,,,,,,,,,,,,,,,,2015_Jul_06_1244,59.8626997063,LearningTask,1,78,
200,w,200,,,,,,,,,,,,,,,,,1,0,1,0,24,0,96,0,,,,,,,,,,,,,,,,,,,,,,,,,,,,,w,1,0.400806188583,None,0,1.0,hexagongreen.gif,stop,,,,,,,,,,,,,,,,,,,,,,,,0,0.514377832413,0.000945806503296,0.400806188583,1,w,919.393970966,,,,,,,,,,,,,,,,,,,,,,,,,,,,,,,,,2015_Jul_06_1244,59.8626997063,LearningTask,1,78,
200,s,-200,,,,,,,,,,,,,,,,,1,0,1,0,24,1,97,2,,,,,,,,,,,,,,,,,,,,,,,,,,,,,s,1,0.350298881531,None,0,2.0,crossorange.gif,go,,,,,,,,,,,,,,,,,,,,,,,,0,0.514002084732,0.000875949859619,0.350298881531,1,s,922.396861792,,,,,,,,,,,,,,,,,,,,,,,,,,,,,,,,,2015_Jul_06_1244,59.8626997063,LearningTask,1,78,
-200,q,200,,,,,,,,,,,,,,,,,1,0,1,0,24,2,98,1,,,,,,,,,,,,,,,,,,,,,,,,,,,,,q,1,0.384631156921,None,0,4.0,linegray.gif,go,,,,,,,,,,,,,,,,,,,,,,,,4.01,0.514340877533,0.000877857208252,0.384631156921,1,q,925.400197983,,,,,,,,,,,,,,,,,,,,,,,,,,,,,,,,,2015_Jul_06_1244,59.8626997063,LearningTask,1,78,
-200,a,-200,,,,,,,,,,,,,,,,,1,0,1,0,24,3,99,3,,,,,,,,,,,,,,,,,,,,,,,,,,,,,a,1,0.350787878036,None,0,0.5,invertedtriangleyellow.gif,go,,,,,,,,,,,,,,,,,,,,,,,,0,0.51439499855,0.000877857208252,0.350787878036,1,a,928.404058933,,,,,,,,,,,,,,,,,,,,,,,,,,,,,,,,,2015_Jul_06_1244,59.8626997063,LearningTask,1,78,
,,,,,,,,,,,,,,,,,,,1,0,1,0,,,,,,,,,,,,,,,,,,,,,,,,,,,,,,,,,,,,,,,,,,,,,,,,,,,,,,,,,,,,,,,,,,,,,,,,,,,,,,9,111.725747108,,,,,,,,,,,,,,,,,,,,,,,,2015_Jul_06_1244,59.8626997063,LearningTask,1,78,
-200,a,-200,,,,,,,,,,,,,,,,,2,0,2,0,0,0,0,3,,,,,,,,,,,,,,,,,,,,,,,,,,,,,a,1,0.4177069664,None,0,1.0,hexagongreen.gif,stop,,,,,,,,,,,,,,,,,,,,,,,,1.06,0.509851932526,0.000890970230103,0.4177069664,1,a,1043.81716585,,,,,,,,,,,,,,,,,,,,,,,,,,,,,,,,,2015_Jul_06_1244,59.8626997063,LearningTask,1,78,
200,w,200,,,,,,,,,,,,,,,,,2,0,2,0,0,1,1,0,,,,,,,,,,,,,,,,,,,,,,,,,,,,,w,1,0.350415945053,None,0,4.0,linegray.gif,go,,,,,,,,,,,,,,,,,,,,,,,,4.03,0.513668060303,0.000956058502197,0.350415945053,1,w,1046.81989479,,,,,,,,,,,,,,,,,,,,,,,,,,,,,,,,,2015_Jul_06_1244,59.8626997063,LearningTask,1,78,
-200,a,-200,,,,,,,,,,,,,,,,,2,0,2,0,0,2,2,3,,,,,,,,,,,,,,,,,,,,,,,,,,,,,a,1,0.333781003952,None,0,2.0,circleblue.gif,stop,,,,,,,,,,,,,,,,,,,,,,,,1.8,0.514564990997,0.00114703178406,0.333781003952,1,a,1049.82359886,,,,,,,,,,,,,,,,,,,,,,,,,,,,,,,,,2015_Jul_06_1244,59.8626997063,LearningTask,1,78,
200,s,-200,,,,,,,,,,,,,,,,,2,0,2,0,0,3,3,2,,,,,,,,,,,,,,,,,,,,,,,,,,,,,s,1,0.300722122192,None,0,2.0,crossorange.gif,go,,,,,,,,,,,,,,,,,,,,,,,,0,0.514183998108,0.00088095664978,0.300722122192,1,s,1052.82697701,,,,,,,,,,,,,,,,,,,,,,,,,,,,,,,,,2015_Jul_06_1244,59.8626997063,LearningTask,1,78,
200,w,200,,,,,,,,,,,,,,,,,2,0,2,0,1,0,4,0,,,,,,,,,,,,,,,,,,,,,,,,,,,,,w,1,0.283803939819,None,0,1.0,trianglewhite.gif,go,,,,,,,,,,,,,,,,,,,,,,,,0.81,0.514374017715,0.000883102416992,0.283803939819,1,w,1055.83044386,,,,,,,,,,,,,,,,,,,,,,,,,,,,,,,,,2015_Jul_06_1244,59.8626997063,LearningTask,1,78,
200,w,200,,,,,,,,,,,,,,,,,2,0,2,0,1,1,5,0,,,,,,,,,,,,,,,,,,,,,,,,,,,,,w,1,0.350886106491,None,0,1.0,trianglewhite.gif,go,,,,,,,,,,,,,,,,,,,,,,,,0.91,0.513908863068,0.000891923904419,0.350886106491,1,w,1058.83350801,,,,,,,,,,,,,,,,,,,,,,,,,,,,,,,,,2015_Jul_06_1244,59.8626997063,LearningTask,1,78,
-200,q,200,,,,,,,,,,,,,,,,,2,0,2,0,1,2,6,1,,,,,,,,,,,,,,,,,,,,,,,,,,,,,q,1,0.300744056702,None,0,0.5,invertedtriangleyellow.gif,go,,,,,,,,,,,,,,,,,,,,,,,,0.47,0.514297962189,0.000879049301147,0.300744056702,1,q,1061.83686686,,,,,,,,,,,,,,,,,,,,,,,,,,,,,,,,,2015_Jul_06_1244,59.8626997063,LearningTask,1,78,
-200,q,200,,,,,,,,,,,,,,,,,2,0,2,0,1,3,7,1,,,,,,,,,,,,,,,,,,,,,,,,,,,,,q,1,0.33425784111,None,0,1.0,hexagongreen.gif,stop,,,,,,,,,,,,,,,,,,,,,,,,0.82,0.514243841171,0.00089693069458,0.33425784111,1,q,1064.84028602,,,,,,,,,,,,,,,,,,,,,,,,,,,,,,,,,2015_Jul_06_1244,59.8626997063,LearningTask,1,78,
-200,a,-200,,,,,,,,,,,,,,,,,2,0,2,0,2,0,8,3,,,,,,,,,,,,,,,,,,,,,,,,,,,,,a,1,0.350812911987,None,0,4.0,squarecyan.gif,stop,,,,,,,,,,,,,,,,,,,,,,,,0,0.51415514946,0.000892162322998,0.350812911987,1,a,1067.84371996,,,,,,,,,,,,,,,,,,,,,,,,,,,,,,,,,2015_Jul_06_1244,59.8626997063,LearningTask,1,78,
200,s,-200,,,,,,,,,,,,,,,,,2,0,2,0,2,1,9,2,,,,,,,,,,,,,,,,,,,,,,,,,,,,,s,1,0.3510389328,None,0,0.5,diamondmagenta.gif,stop,,,,,,,,,,,,,,,,,,,,,,,,0.55,0.514510154724,0.000890970230103,0.3510389328,1,s,1070.84717202,,,,,,,,,,,,,,,,,,,,,,,,,,,,,,,,,2015_Jul_06_1244,59.8626997063,LearningTask,1,78,
200,s,-200,,,,,,,,,,,,,,,,,2,0,2,0,2,2,10,2,,,,,,,,,,,,,,,,,,,,,,,,,,,,,s,1,0.333832025528,None,0,1.0,trianglewhite.gif,go,,,,,,,,,,,,,,,,,,,,,,,,0,0.514353990555,0.000870943069458,0.333832025528,1,s,1073.85039687,,,,,,,,,,,,,,,,,,,,,,,,,,,,,,,,,2015_Jul_06_1244,59.8626997063,LearningTask,1,78,
-200,q,200,,,,,,,,,,,,,,,,,2,0,2,0,2,3,11,1,,,,,,,,,,,,,,,,,,,,,,,,,,,,,q,1,0.300812005997,None,0,1.0,hexagongreen.gif,stop,,,,,,,,,,,,,,,,,,,,,,,,0.91,0.514394044876,0.000874996185303,0.300812005997,1,q,1076.85359693,,,,,,,,,,,,,,,,,,,,,,,,,,,,,,,,,2015_Jul_06_1244,59.8626997063,LearningTask,1,78,
200,s,-200,,,,,,,,,,,,,,,,,2,0,2,0,3,0,12,2,,,,,,,,,,,,,,,,,,,,,,,,,,,,,s,1,0.300714015961,None,0,2.0,crossorange.gif,go,,,,,,,,,,,,,,,,,,,,,,,,0,0.514781951904,0.00100493431091,0.300714015961,1,s,1079.85734391,,,,,,,,,,,,,,,,,,,,,,,,,,,,,,,,,2015_Jul_06_1244,59.8626997063,LearningTask,1,78,
200,s,-200,,,,,,,,,,,,,,,,,2,0,2,0,3,1,13,2,,,,,,,,,,,,,,,,,,,,,,,,,,,,,s,1,0.400954961777,None,0,4.0,squarecyan.gif,stop,,,,,,,,,,,,,,,,,,,,,,,,3.92,0.514189958572,0.000870943069458,0.400954961777,1,s,1082.86054492,,,,,,,,,,,,,,,,,,,,,,,,,,,,,,,,,2015_Jul_06_1244,59.8626997063,LearningTask,1,78,
-200,q,200,,,,,,,,,,,,,,,,,2,0,2,0,3,2,14,1,,,,,,,,,,,,,,,,,,,,,,,,,,,,,q,1,0.334225893021,None,0,4.0,squarecyan.gif,stop,,,,,,,,,,,,,,,,,,,,,,,,4.1,0.514617919922,0.000925064086914,0.334225893021,1,q,1085.86392999,,,,,,,,,,,,,,,,,,,,,,,,,,,,,,,,,2015_Jul_06_1244,59.8626997063,LearningTask,1,78,
200,w,200,,,,,,,,,,,,,,,,,2,0,2,0,3,3,15,0,,,,,,,,,,,,,,,,,,,,,,,,,,,,,w,1,0.300937175751,None,0,2.0,crossorange.gif,go,,,,,,,,,,,,,,,,,,,,,,,,2.11,0.513754844666,0.000950813293457,0.300937175751,1,w,1088.86729479,,,,,,,,,,,,,,,,,,,,,,,,,,,,,,,,,2015_Jul_06_1244,59.8626997063,LearningTask,1,78,
-200,a,-200,,,,,,,,,,,,,,,,,2,0,2,0,4,0,16,3,,,,,,,,,,,,,,,,,,,,,,,,,,,,,a,1,0.334297895432,None,0,2.0,crossorange.gif,go,,,,,,,,,,,,,,,,,,,,,,,,1.83,0.514531135559,0.000881910324097,0.334297895432,1,a,1091.87035394,,,,,,,,,,,,,,,,,,,,,,,,,,,,,,,,,2015_Jul_06_1244,59.8626997063,LearningTask,1,78,
-200,q,200,,,,,,,,,,,,,,,,,2,0,2,0,4,1,17,1,,,,,,,,,,,,,,,,,,,,,,,,,,,,,q,1,0.333838939667,None,0,0.5,diamondmagenta.gif,stop,,,,,,,,,,,,,,,,,,,,,,,,0,0.514547109604,0.000935077667236,0.201195955276,0,w,1094.87447786,0.59,0.515035152435,0.000959157943726,0.333838939667,1,q,1097.87790799,,,,,,,,,,,,,,,,,,,,,,,,,,2015_Jul_06_1244,59.8626997063,LearningTask,1,78,
-200,a,-200,,,,,,,,,,,,,,,,,2,0,2,0,4,2,18,3,,,,,,,,,,,,,,,,,,,,,,,,,,,,,a,1,0.367948055267,None,0,2.0,circleblue.gif,stop,,,,,,,,,,,,,,,,,,,,,,,,1.91,0.513705968857,0.000900983810425,0.367948055267,1,a,1100.88140988,,,,,,,,,,,,,,,,,,,,,,,,,,,,,,,,,2015_Jul_06_1244,59.8626997063,LearningTask,1,78,
-200,q,200,,,,,,,,,,,,,,,,,2,0,2,0,4,3,19,1,,,,,,,,,,,,,,,,,,,,,,,,,,,,,q,1,0.317677974701,None,0,0.5,invertedtriangleyellow.gif,go,,,,,,,,,,,,,,,,,,,,,,,,0.61,0.51384305954,0.000885963439941,0.317677974701,1,q,1103.88477397,,,,,,,,,,,,,,,,,,,,,,,,,,,,,,,,,2015_Jul_06_1244,59.8626997063,LearningTask,1,78,
200,w,200,,,,,,,,,,,,,,,,,2,0,2,0,5,0,20,0,,,,,,,,,,,,,,,,,,,,,,,,,,,,,w,1,0.334072113037,None,0,2.0,circleblue.gif,stop,,,,,,,,,,,,,,,,,,,,,,,,1.9,0.513701915741,0.000889778137207,0.334072113037,1,w,1106.88790202,,,,,,,,,,,,,,,,,,,,,,,,,,,,,,,,,2015_Jul_06_1244,59.8626997063,LearningTask,1,78,
200,w,200,,,,,,,,,,,,,,,,,2,0,2,0,5,1,21,0,,,,,,,,,,,,,,,,,,,,,,,,,,,,,w,1,0.38428902626,None,0,4.0,linegray.gif,go,,,,,,,,,,,,,,,,,,,,,,,,3.96,0.513833045959,0.000871896743774,0.38428902626,1,w,1109.89129496,,,,,,,,,,,,,,,,,,,,,,,,,,,,,,,,,2015_Jul_06_1244,59.8626997063,LearningTask,1,78,
-200,a,-200,,,,,,,,,,,,,,,,,2,0,2,0,5,2,22,3,,,,,,,,,,,,,,,,,,,,,,,,,,,,,a,1,0.367877006531,None,0,4.0,linegray.gif,go,,,,,,,,,,,,,,,,,,,,,,,,3.89,0.514092922211,0.000875949859619,0.367877006531,1,a,1112.89451289,,,,,,,,,,,,,,,,,,,,,,,,,,,,,,,,,2015_Jul_06_1244,59.8626997063,LearningTask,1,78,
200,w,200,,,,,,,,,,,,,,,,,2,0,2,0,5,3,23,0,,,,,,,,,,,,,,,,,,,,,,,,,,,,,w,1,0.334196090698,None,0,4.0,linegray.gif,go,,,,,,,,,,,,,,,,,,,,,,,,4.01,0.514358043671,0.000883102416992,0.334196090698,1,w,1115.89776087,,,,,,,,,,,,,,,,,,,,,,,,,,,,,,,,,2015_Jul_06_1244,59.8626997063,LearningTask,1,78,
-200,a,-200,,,,,,,,,,,,,,,,,2,0,2,0,6,0,24,3,,,,,,,,,,,,,,,,,,,,,,,,,,,,,a,1,0.367411851883,None,0,2.0,circleblue.gif,stop,,,,,,,,,,,,,,,,,,,,,,,,0,0.514337062836,0.00100803375244,0.33430814743,0,q,1118.90134692,0,0.515216827393,0.000901937484741,0.367411851883,1,a,1121.90428996,,,,,,,,,,,,,,,,,,,,,,,,,,2015_Jul_06_1244,59.8626997063,LearningTask,1,78,
-200,a,-200,,,,,,,,,,,,,,,,,2,0,2,0,6,1,25,3,,,,,,,,,,,,,,,,,,,,,,,,,,,,,a,1,0.351022005081,None,0,1.0,hexagongreen.gif,stop,,,,,,,,,,,,,,,,,,,,,,,,1.23,0.514544010162,0.000998020172119,0.351022005081,1,a,1124.90759087,,,,,,,,,,,,,,,,,,,,,,,,,,,,,,,,,2015_Jul_06_1244,59.8626997063,LearningTask,1,78,
200,w,200,,,,,,,,,,,,,,,,,2,0,2,0,6,2,26,0,,,,,,,,,,,,,,,,,,,,,,,,,,,,,w,1,0.350639820099,None,0,2.0,crossorange.gif,go,,,,,,,,,,,,,,,,,,,,,,,,1.96,0.514530897141,0.00111699104309,0.350639820099,1,w,1127.91127396,,,,,,,,,,,,,,,,,,,,,,,,,,,,,,,,,2015_Jul_06_1244,59.8626997063,LearningTask,1,78,
-200,a,-200,,,,,,,,,,,,,,,,,2,0,2,0,6,3,27,3,,,,,,,,,,,,,,,,,,,,,,,,,,,,,a,1,0.334007978439,None,0,0.5,diamondmagenta.gif,stop,,,,,,,,,,,,,,,,,,,,,,,,0.27,0.514288187027,0.000881195068359,0.334007978439,1,a,1130.91467285,,,,,,,,,,,,,,,,,,,,,,,,,,,,,,,,,2015_Jul_06_1244,59.8626997063,LearningTask,1,78,
200,s,-200,,,,,,,,,,,,,,,,,2,0,2,0,7,0,28,2,,,,,,,,,,,,,,,,,,,,,,,,,,,,,s,1,0.333879947662,None,0,0.5,invertedtriangleyellow.gif,go,,,,,,,,,,,,,,,,,,,,,,,,0.34,0.514253139496,0.000943183898926,0.333879947662,1,s,1133.91843295,,,,,,,,,,,,,,,,,,,,,,,,,,,,,,,,,2015_Jul_06_1244,59.8626997063,LearningTask,1,78,
200,s,-200,,,,,,,,,,,,,,,,,2,0,2,0,7,1,29,2,,,,,,,,,,,,,,,,,,,,,,,,,,,,,s,1,0.36713385582,None,0,2.0,circleblue.gif,stop,,,,,,,,,,,,,,,,,,,,,,,,2.01,0.514042854309,0.00088906288147,0.36713385582,1,s,1136.92110991,,,,,,,,,,,,,,,,,,,,,,,,,,,,,,,,,2015_Jul_06_1244,59.8626997063,LearningTask,1,78,
-200,a,-200,,,,,,,,,,,,,,,,,2,0,2,0,7,2,30,3,,,,,,,,,,,,,,,,,,,,,,,,,,,,,a,1,0.367166042328,None,0,1.0,trianglewhite.gif,go,,,,,,,,,,,,,,,,,,,,,,,,0,0.514581918716,0.000906944274902,0.367166042328,1,a,1139.92506099,,,,,,,,,,,,,,,,,,,,,,,,,,,,,,,,,2015_Jul_06_1244,59.8626997063,LearningTask,1,78,
-200,a,-200,,,,,,,,,,,,,,,,,2,0,2,0,7,3,31,3,,,,,,,,,,,,,,,,,,,,,,,,,,,,,a,1,0.367616891861,None,0,4.0,linegray.gif,go,,,,,,,,,,,,,,,,,,,,,,,,3.75,0.513651132584,0.00089693069458,0.367616891861,1,a,1142.92837501,,,,,,,,,,,,,,,,,,,,,,,,,,,,,,,,,2015_Jul_06_1244,59.8626997063,LearningTask,1,78,
200,w,200,,,,,,,,,,,,,,,,,2,0,2,0,8,0,32,0,,,,,,,,,,,,,,,,,,,,,,,,,,,,,w,1,0.317502975464,None,0,4.0,squarecyan.gif,stop,,,,,,,,,,,,,,,,,,,,,,,,3.81,0.514051914215,0.000885963439941,0.317502975464,1,w,1145.93145394,,,,,,,,,,,,,,,,,,,,,,,,,,,,,,,,,2015_Jul_06_1244,59.8626997063,LearningTask,1,78,
-200,q,200,,,,,,,,,,,,,,,,,2,0,2,0,8,1,33,1,,,,,,,,,,,,,,,,,,,,,,,,,,,,,q,1,0.367240190506,None,0,2.0,crossorange.gif,go,,,,,,,,,,,,,,,,,,,,,,,,2.22,0.514434814453,0.000880002975464,0.367240190506,1,q,1148.93563294,,,,,,,,,,,,,,,,,,,,,,,,,,,,,,,,,2015_Jul_06_1244,59.8626997063,LearningTask,1,78,
-200,a,-200,,,,,,,,,,,,,,,,,2,0,2,0,8,2,34,3,,,,,,,,,,,,,,,,,,,,,,,,,,,,,a,1,0.334100008011,None,0,0.5,diamondmagenta.gif,stop,,,,,,,,,,,,,,,,,,,,,,,,0.32,0.513514041901,0.000878095626831,0.334100008011,1,a,1151.93865681,,,,,,,,,,,,,,,,,,,,,,,,,,,,,,,,,2015_Jul_06_1244,59.8626997063,LearningTask,1,78,
200,w,200,,,,,,,,,,,,,,,,,2,0,2,0,8,3,35,0,,,,,,,,,,,,,,,,,,,,,,,,,,,,,w,1,0.350656986237,None,0,1.0,trianglewhite.gif,go,,,,,,,,,,,,,,,,,,,,,,,,0.88,0.513598918915,0.000875949859619,0.350656986237,1,w,1154.94188881,,,,,,,,,,,,,,,,,,,,,,,,,,,,,,,,,2015_Jul_06_1244,59.8626997063,LearningTask,1,78,
-200,a,-200,,,,,,,,,,,,,,,,,2,0,2,0,9,0,36,3,,,,,,,,,,,,,,,,,,,,,,,,,,,,,a,1,0.384335041046,None,0,2.0,crossorange.gif,go,,,,,,,,,,,,,,,,,,,,,,,,1.79,0.513839006424,0.000882148742676,0.384335041046,1,a,1157.94565988,,,,,,,,,,,,,,,,,,,,,,,,,,,,,,,,,2015_Jul_06_1244,59.8626997063,LearningTask,1,78,
-200,a,-200,,,,,,,,,,,,,,,,,2,0,2,0,9,1,37,3,,,,,,,,,,,,,,,,,,,,,,,,,,,,,a,1,0.367517948151,None,0,4.0,squarecyan.gif,stop,,,,,,,,,,,,,,,,,,,,,,,,4.04,0.513737916946,0.000867128372192,0.367517948151,1,a,1160.9485538,,,,,,,,,,,,,,,,,,,,,,,,,,,,,,,,,2015_Jul_06_1244,59.8626997063,LearningTask,1,78,
200,w,200,,,,,,,,,,,,,,,,,2,0,2,0,9,2,38,0,,,,,,,,,,,,,,,,,,,,,,,,,,,,,w,1,0.38399887085,None,0,4.0,linegray.gif,go,,,,,,,,,,,,,,,,,,,,,,,,0,0.514225959778,0.000871181488037,0.38399887085,1,w,1163.95162487,,,,,,,,,,,,,,,,,,,,,,,,,,,,,,,,,2015_Jul_06_1244,59.8626997063,LearningTask,1,78,
-200,q,200,,,,,,,,,,,,,,,,,2,0,2,0,9,3,39,1,,,,,,,,,,,,,,,,,,,,,,,,,,,,,q,1,0.350862026215,None,0,2.0,crossorange.gif,go,,,,,,,,,,,,,,,,,,,,,,,,0,0.514408826828,0.000953912734985,0.350862026215,1,q,1166.95530701,,,,,,,,,,,,,,,,,,,,,,,,,,,,,,,,,2015_Jul_06_1244,59.8626997063,LearningTask,1,78,
200,s,-200,,,,,,,,,,,,,,,,,2,0,2,0,10,0,40,2,,,,,,,,,,,,,,,,,,,,,,,,,,,,,s,1,0.384213209152,None,0,2.0,circleblue.gif,stop,,,,,,,,,,,,,,,,,,,,,,,,1.99,0.514230966568,0.000885963439941,0.384213209152,1,s,1169.95853686,,,,,,,,,,,,,,,,,,,,,,,,,,,,,,,,,2015_Jul_06_1244,59.8626997063,LearningTask,1,78,
-200,q,200,,,,,,,,,,,,,,,,,2,0,2,0,10,1,41,1,,,,,,,,,,,,,,,,,,,,,,,,,,,,,q,1,0.350329875946,None,0,0.5,diamondmagenta.gif,stop,,,,,,,,,,,,,,,,,,,,,,,,0.62,0.514765977859,0.000937938690186,0.350329875946,1,q,1172.96219897,,,,,,,,,,,,,,,,,,,,,,,,,,,,,,,,,2015_Jul_06_1244,59.8626997063,LearningTask,1,78,
200,s,-200,,,,,,,,,,,,,,,,,2,0,2,0,10,2,42,2,,,,,,,,,,,,,,,,,,,,,,,,,,,,,s,1,0.517890930176,None,0,1.0,hexagongreen.gif,stop,,,,,,,,,,,,,,,,,,,,,,,,0,0.513680934906,0.000936031341553,0.517890930176,1,s,1175.96526694,,,,,,,,,,,,,,,,,,,,,,,,,,,,,,,,,2015_Jul_06_1244,59.8626997063,LearningTask,1,78,
200,w,200,,,,,,,,,,,,,,,,,2,0,2,0,10,3,43,0,,,,,,,,,,,,,,,,,,,,,,,,,,,,,w,1,0.31746006012,None,0,2.0,crossorange.gif,go,,,,,,,,,,,,,,,,,,,,,,,,2.13,0.514334917068,0.000878810882568,0.31746006012,1,w,1178.96859479,,,,,,,,,,,,,,,,,,,,,,,,,,,,,,,,,2015_Jul_06_1244,59.8626997063,LearningTask,1,78,
200,w,200,,,,,,,,,,,,,,,,,2,0,2,0,11,0,44,0,,,,,,,,,,,,,,,,,,,,,,,,,,,,,w,1,0.317721128464,None,0,0.5,diamondmagenta.gif,stop,,,,,,,,,,,,,,,,,,,,,,,,0.54,0.514219999313,0.000917911529541,0.317721128464,1,w,1181.97199988,,,,,,,,,,,,,,,,,,,,,,,,,,,,,,,,,2015_Jul_06_1244,59.8626997063,LearningTask,1,78,
200,w,200,,,,,,,,,,,,,,,,,2,0,2,0,11,1,45,0,,,,,,,,,,,,,,,,,,,,,,,,,,,,,w,1,0.383965015411,None,0,4.0,squarecyan.gif,stop,,,,,,,,,,,,,,,,,,,,,,,,3.79,0.513979196548,0.000895977020264,0.383965015411,1,w,1184.97521091,,,,,,,,,,,,,,,,,,,,,,,,,,,,,,,,,2015_Jul_06_1244,59.8626997063,LearningTask,1,78,
200,w,200,,,,,,,,,,,,,,,,,2,0,2,0,11,2,46,0,,,,,,,,,,,,,,,,,,,,,,,,,,,,,w,1,0.351068019867,None,0,2.0,circleblue.gif,stop,,,,,,,,,,,,,,,,,,,,,,,,1.87,0.514510154724,0.00088906288147,0.351068019867,1,w,1187.97874594,,,,,,,,,,,,,,,,,,,,,,,,,,,,,,,,,2015_Jul_06_1244,59.8626997063,LearningTask,1,78,
200,w,200,,,,,,,,,,,,,,,,,2,0,2,0,11,3,47,0,,,,,,,,,,,,,,,,,,,,,,,,,,,,,w,1,0.367388010025,None,0,1.0,hexagongreen.gif,stop,,,,,,,,,,,,,,,,,,,,,,,,0,0.514314174652,0.000880002975464,0.367388010025,1,w,1190.98251295,,,,,,,,,,,,,,,,,,,,,,,,,,,,,,,,,2015_Jul_06_1244,59.8626997063,LearningTask,1,78,
200,w,200,,,,,,,,,,,,,,,,,2,0,2,0,12,0,48,0,,,,,,,,,,,,,,,,,,,,,,,,,,,,,w,1,0.250769138336,None,0,0.5,invertedtriangleyellow.gif,go,,,,,,,,,,,,,,,,,,,,,,,,0.39,0.513897895813,0.000888824462891,0.250769138336,1,w,1193.98547983,,,,,,,,,,,,,,,,,,,,,,,,,,,,,,,,,2015_Jul_06_1244,59.8626997063,LearningTask,1,78,
200,w,200,,,,,,,,,,,,,,,,,2,0,2,0,12,1,49,0,,,,,,,,,,,,,,,,,,,,,,,,,,,,,w,1,0.350760936737,None,0,0.5,invertedtriangleyellow.gif,go,,,,,,,,,,,,,,,,,,,,,,,,0.52,0.514397859573,0.000874996185303,0.350760936737,1,w,1196.98871088,,,,,,,,,,,,,,,,,,,,,,,,,,,,,,,,,2015_Jul_06_1244,59.8626997063,LearningTask,1,78,
200,s,-200,,,,,,,,,,,,,,,,,2,0,2,0,12,2,50,2,,,,,,,,,,,,,,,,,,,,,,,,,,,,,s,1,0.366883993149,None,0,1.0,trianglewhite.gif,go,,,,,,,,,,,,,,,,,,,,,,,,0.88,0.514659881592,0.000875949859619,0.366883993149,1,s,1199.99243784,,,,,,,,,,,,,,,,,,,,,,,,,,,,,,,,,2015_Jul_06_1244,59.8626997063,LearningTask,1,78,
200,s,-200,,,,,,,,,,,,,,,,,2,0,2,0,12,3,51,2,,,,,,,,,,,,,,,,,,,,,,,,,,,,,s,1,0.367757081985,None,0,4.0,squarecyan.gif,stop,,,,,,,,,,,,,,,,,,,,,,,,0,0.514283180237,0.000869989395142,0.334236860275,0,w,1202.99581099,4.24,0.51523900032,0.000937223434448,0.367757081985,1,s,1205.99915981,,,,,,,,,,,,,,,,,,,,,,,,,,2015_Jul_06_1244,59.8626997063,LearningTask,1,78,
-200,q,200,,,,,,,,,,,,,,,,,2,0,2,0,13,0,52,1,,,,,,,,,,,,,,,,,,,,,,,,,,,,,q,1,0.40106511116,None,0,0.5,diamondmagenta.gif,stop,,,,,,,,,,,,,,,,,,,,,,,,0.64,0.514147043228,0.000878095626831,0.40106511116,1,q,1209.00247478,,,,,,,,,,,,,,,,,,,,,,,,,,,,,,,,,2015_Jul_06_1244,59.8626997063,LearningTask,1,78,
200,s,-200,,,,,,,,,,,,,,,,,2,0,2,0,13,1,53,2,,,,,,,,,,,,,,,,,,,,,,,,,,,,,s,1,0.384560108185,None,0,0.5,diamondmagenta.gif,stop,,,,,,,,,,,,,,,,,,,,,,,,0.58,0.514358997345,0.000909090042114,0.384560108185,1,s,1212.00553584,,,,,,,,,,,,,,,,,,,,,,,,,,,,,,,,,2015_Jul_06_1244,59.8626997063,LearningTask,1,78,
-200,q,200,,,,,,,,,,,,,,,,,2,0,2,0,13,2,54,1,,,,,,,,,,,,,,,,,,,,,,,,,,,,,q,1,0.36811709404,None,0,0.5,invertedtriangleyellow.gif,go,,,,,,,,,,,,,,,,,,,,,,,,0.32,0.514497041702,0.0012149810791,0.36811709404,1,q,1215.00919986,,,,,,,,,,,,,,,,,,,,,,,,,,,,,,,,,2015_Jul_06_1244,59.8626997063,LearningTask,1,78,
200,w,200,,,,,,,,,,,,,,,,,2,0,2,0,13,3,55,0,,,,,,,,,,,,,,,,,,,,,,,,,,,,,w,1,0.333866834641,None,0,4.0,linegray.gif,go,,,,,,,,,,,,,,,,,,,,,,,,4.11,0.514527797699,0.000870943069458,0.333866834641,1,w,1218.01261401,,,,,,,,,,,,,,,,,,,,,,,,,,,,,,,,,2015_Jul_06_1244,59.8626997063,LearningTask,1,78,
-200,q,200,,,,,,,,,,,,,,,,,2,0,2,0,14,0,56,1,,,,,,,,,,,,,,,,,,,,,,,,,,,,,q,1,0.33381319046,None,0,1.0,hexagongreen.gif,stop,,,,,,,,,,,,,,,,,,,,,,,,1.22,0.514401912689,0.000922918319702,0.33381319046,1,q,1221.01587892,,,,,,,,,,,,,,,,,,,,,,,,,,,,,,,,,2015_Jul_06_1244,59.8626997063,LearningTask,1,78,
200,s,-200,,,,,,,,,,,,,,,,,2,0,2,0,14,1,57,2,,,,,,,,,,,,,,,,,,,,,,,,,,,,,s,1,0.367736101151,None,0,0.5,diamondmagenta.gif,stop,,,,,,,,,,,,,,,,,,,,,,,,0,0.514006137848,0.000909090042114,0.367736101151,1,s,1224.01957893,,,,,,,,,,,,,,,,,,,,,,,,,,,,,,,,,2015_Jul_06_1244,59.8626997063,LearningTask,1,78,
-200,q,200,,,,,,,,,,,,,,,,,2,0,2,0,14,2,58,1,,,,,,,,,,,,,,,,,,,,,,,,,,,,,q,1,0.317629098892,None,0,0.5,invertedtriangleyellow.gif,go,,,,,,,,,,,,,,,,,,,,,,,,0.52,0.513899803162,0.000900983810425,0.317629098892,1,q,1227.02252483,,,,,,,,,,,,,,,,,,,,,,,,,,,,,,,,,2015_Jul_06_1244,59.8626997063,LearningTask,1,78,
200,s,-200,,,,,,,,,,,,,,,,,2,0,2,0,14,3,59,2,,,,,,,,,,,,,,,,,,,,,,,,,,,,,s,1,0.334449052811,None,0,4.0,squarecyan.gif,stop,,,,,,,,,,,,,,,,,,,,,,,,4.15,0.514139890671,0.000891923904419,0.334449052811,1,s,1230.02638984,,,,,,,,,,,,,,,,,,,,,,,,,,,,,,,,,2015_Jul_06_1244,59.8626997063,LearningTask,1,78,
-200,q,200,,,,,,,,,,,,,,,,,2,0,2,0,15,0,60,1,,,,,,,,,,,,,,,,,,,,,,,,,,,,,q,1,0.350383043289,None,0,4.0,linegray.gif,go,,,,,,,,,,,,,,,,,,,,,,,,4.24,0.513895988464,0.000949859619141,0.350383043289,1,q,1233.02947283,,,,,,,,,,,,,,,,,,,,,,,,,,,,,,,,,2015_Jul_06_1244,59.8626997063,LearningTask,1,78,
-200,a,-200,,,,,,,,,,,,,,,,,2,0,2,0,15,1,61,3,,,,,,,,,,,,,,,,,,,,,,,,,,,,,a,1,0.38476395607,None,0,2.0,crossorange.gif,go,,,,,,,,,,,,,,,,,,,,,,,,0,0.514394044876,0.000866889953613,0.351008892059,0,s,1236.03265095,0,0.515555858612,0.000947952270508,0.38476395607,1,a,1239.03657889,,,,,,,,,,,,,,,,,,,,,,,,,,2015_Jul_06_1244,59.8626997063,LearningTask,1,78,
200,w,200,,,,,,,,,,,,,,,,,2,0,2,0,15,2,62,0,,,,,,,,,,,,,,,,,,,,,,,,,,,,,w,1,0.35084104538,None,0,4.0,squarecyan.gif,stop,,,,,,,,,,,,,,,,,,,,,,,,4.14,0.51394200325,0.000874042510986,0.35084104538,1,w,1242.03927279,,,,,,,,,,,,,,,,,,,,,,,,,,,,,,,,,2015_Jul_06_1244,59.8626997063,LearningTask,1,78,
-200,q,200,,,,,,,,,,,,,,,,,2,0,2,0,15,3,63,1,,,,,,,,,,,,,,,,,,,,,,,,,,,,,q,1,0.367424964905,None,0,2.0,crossorange.gif,go,,,,,,,,,,,,,,,,,,,,,,,,1.85,0.514486074448,0.000894069671631,0.367424964905,1,q,1245.04311085,,,,,,,,,,,,,,,,,,,,,,,,,,,,,,,,,2015_Jul_06_1244,59.8626997063,LearningTask,1,78,
200,s,-200,,,,,,,,,,,,,,,,,2,0,2,0,16,0,64,2,,,,,,,,,,,,,,,,,,,,,,,,,,,,,s,1,0.351011991501,None,0,4.0,squarecyan.gif,stop,,,,,,,,,,,,,,,,,,,,,,,,0,0.514081001282,0.000872135162354,0.351011991501,1,s,1248.04637599,,,,,,,,,,,,,,,,,,,,,,,,,,,,,,,,,2015_Jul_06_1244,59.8626997063,LearningTask,1,78,
200,s,-200,,,,,,,,,,,,,,,,,2,0,2,0,16,1,65,2,,,,,,,,,,,,,,,,,,,,,,,,,,,,,s,1,0.367052078247,None,0,2.0,circleblue.gif,stop,,,,,,,,,,,,,,,,,,,,,,,,0,0.514508962631,0.000877857208252,0.367052078247,1,s,1251.04959297,,,,,,,,,,,,,,,,,,,,,,,,,,,,,,,,,2015_Jul_06_1244,59.8626997063,LearningTask,1,78,
200,w,200,,,,,,,,,,,,,,,,,2,0,2,0,16,2,66,0,,,,,,,,,,,,,,,,,,,,,,,,,,,,,w,1,0.417552947998,None,0,0.5,diamondmagenta.gif,stop,,,,,,,,,,,,,,,,,,,,,,,,0.68,0.514453887939,0.00100302696228,0.417552947998,1,w,1254.05348992,,,,,,,,,,,,,,,,,,,,,,,,,,,,,,,,,2015_Jul_06_1244,59.8626997063,LearningTask,1,78,
-200,a,-200,,,,,,,,,,,,,,,,,2,0,2,0,16,3,67,3,,,,,,,,,,,,,,,,,,,,,,,,,,,,,a,1,0.38380408287,None,0,4.0,linegray.gif,go,,,,,,,,,,,,,,,,,,,,,,,,3.78,0.514080047607,0.000874996185303,0.38380408287,1,a,1257.05659294,,,,,,,,,,,,,,,,,,,,,,,,,,,,,,,,,2015_Jul_06_1244,59.8626997063,LearningTask,1,78,
-200,q,200,,,,,,,,,,,,,,,,,2,0,2,0,17,0,68,1,,,,,,,,,,,,,,,,,,,,,,,,,,,,,q,1,0.317437887192,None,0,0.5,diamondmagenta.gif,stop,,,,,,,,,,,,,,,,,,,,,,,,0,0.513860940933,0.000941038131714,0.317437887192,1,q,1260.06001687,,,,,,,,,,,,,,,,,,,,,,,,,,,,,,,,,2015_Jul_06_1244,59.8626997063,LearningTask,1,78,
-200,q,200,,,,,,,,,,,,,,,,,2,0,2,0,17,1,69,1,,,,,,,,,,,,,,,,,,,,,,,,,,,,,q,1,0.367170095444,None,0,2.0,crossorange.gif,go,,,,,,,,,,,,,,,,,,,,,,,,1.85,0.513844013214,0.000953912734985,0.367170095444,1,q,1263.06325102,,,,,,,,,,,,,,,,,,,,,,,,,,,,,,,,,2015_Jul_06_1244,59.8626997063,LearningTask,1,78,
-200,a,-200,,,,,,,,,,,,,,,,,2,0,2,0,17,2,70,3,,,,,,,,,,,,,,,,,,,,,,,,,,,,,a,1,0.384332895279,None,0,4.0,linegray.gif,go,,,,,,,,,,,,,,,,,,,,,,,,4.24,0.514352083206,0.00087308883667,0.384332895279,1,a,1266.06656098,,,,,,,,,,,,,,,,,,,,,,,,,,,,,,,,,2015_Jul_06_1244,59.8626997063,LearningTask,1,78,
200,s,-200,,,,,,,,,,,,,,,,,2,0,2,0,17,3,71,2,,,,,,,,,,,,,,,,,,,,,,,,,,,,,s,1,0.401104211807,None,0,1.0,trianglewhite.gif,go,,,,,,,,,,,,,,,,,,,,,,,,0,0.514117956161,0.000927925109863,0.401104211807,1,s,1269.06977797,,,,,,,,,,,,,,,,,,,,,,,,,,,,,,,,,2015_Jul_06_1244,59.8626997063,LearningTask,1,78,
-200,q,200,,,,,,,,,,,,,,,,,2,0,2,0,18,0,72,1,,,,,,,,,,,,,,,,,,,,,,,,,,,,,q,1,0.300474882126,None,0,4.0,linegray.gif,go,,,,,,,,,,,,,,,,,,,,,,,,3.78,0.514456987381,0.000906944274902,0.300474882126,1,q,1272.07303882,,,,,,,,,,,,,,,,,,,,,,,,,,,,,,,,,2015_Jul_06_1244,59.8626997063,LearningTask,1,78,
200,s,-200,,,,,,,,,,,,,,,,,2,0,2,0,18,1,73,2,,,,,,,,,,,,,,,,,,,,,,,,,,,,,s,1,0.334105014801,None,0,1.0,trianglewhite.gif,go,,,,,,,,,,,,,,,,,,,,,,,,0.91,0.514765977859,0.00088095664978,0.334105014801,1,s,1275.07697487,,,,,,,,,,,,,,,,,,,,,,,,,,,,,,,,,2015_Jul_06_1244,59.8626997063,LearningTask,1,78,
200,w,200,,,,,,,,,,,,,,,,,2,0,2,0,18,2,74,0,,,,,,,,,,,,,,,,,,,,,,,,,,,,,w,1,0.35046005249,None,0,0.5,diamondmagenta.gif,stop,,,,,,,,,,,,,,,,,,,,,,,,0,0.514096021652,0.000882863998413,0.35046005249,1,w,1278.08064699,,,,,,,,,,,,,,,,,,,,,,,,,,,,,,,,,2015_Jul_06_1244,59.8626997063,LearningTask,1,78,
-200,a,-200,,,,,,,,,,,,,,,,,2,0,2,0,18,3,75,3,,,,,,,,,,,,,,,,,,,,,,,,,,,,,a,1,0.350716114044,None,0,1.0,trianglewhite.gif,go,,,,,,,,,,,,,,,,,,,,,,,,1.05,0.513783931732,0.000921010971069,0.350716114044,1,a,1281.08343101,,,,,,,,,,,,,,,,,,,,,,,,,,,,,,,,,2015_Jul_06_1244,59.8626997063,LearningTask,1,78,
200,s,-200,,,,,,,,,,,,,,,,,2,0,2,0,19,0,76,2,,,,,,,,,,,,,,,,,,,,,,,,,,,,,s,1,0.384332180023,None,0,4.0,linegray.gif,go,,,,,,,,,,,,,,,,,,,,,,,,0,0.514324903488,0.00088095664978,0.384332180023,1,s,1284.08718181,,,,,,,,,,,,,,,,,,,,,,,,,,,,,,,,,2015_Jul_06_1244,59.8626997063,LearningTask,1,78,
-200,a,-200,,,,,,,,,,,,,,,,,2,0,2,0,19,1,77,3,,,,,,,,,,,,,,,,,,,,,,,,,,,,,a,1,0.350714921951,None,0,0.5,diamondmagenta.gif,stop,,,,,,,,,,,,,,,,,,,,,,,,0,0.514088153839,0.000883102416992,0.350785970688,0,q,1287.09062886,0,0.514842987061,0.00095009803772,0.350714921951,1,a,1290.09381485,,,,,,,,,,,,,,,,,,,,,,,,,,2015_Jul_06_1244,59.8626997063,LearningTask,1,78,
200,s,-200,,,,,,,,,,,,,,,,,2,0,2,0,19,2,78,2,,,,,,,,,,,,,,,,,,,,,,,,,,,,,s,1,0.383646965027,None,0,0.5,invertedtriangleyellow.gif,go,,,,,,,,,,,,,,,,,,,,,,,,0.52,0.51438498497,0.00103902816772,0.383646965027,1,s,1293.09707284,,,,,,,,,,,,,,,,,,,,,,,,,,,,,,,,,2015_Jul_06_1244,59.8626997063,LearningTask,1,78,
-200,a,-200,,,,,,,,,,,,,,,,,2,0,2,0,19,3,79,3,,,,,,,,,,,,,,,,,,,,,,,,,,,,,a,1,0.317884206772,None,0,2.0,circleblue.gif,stop,,,,,,,,,,,,,,,,,,,,,,,,1.76,0.514044046402,0.000879049301147,0.317884206772,1,a,1296.10036898,,,,,,,,,,,,,,,,,,,,,,,,,,,,,,,,,2015_Jul_06_1244,59.8626997063,LearningTask,1,78,
-200,a,-200,,,,,,,,,,,,,,,,,2,0,2,0,20,0,80,3,,,,,,,,,,,,,,,,,,,,,,,,,,,,,a,1,0.367672920227,None,0,1.0,hexagongreen.gif,stop,,,,,,,,,,,,,,,,,,,,,,,,0.82,0.514361143112,0.000882148742676,0.367672920227,1,a,1299.10386086,,,,,,,,,,,,,,,,,,,,,,,,,,,,,,,,,2015_Jul_06_1244,59.8626997063,LearningTask,1,78,
200,w,200,,,,,,,,,,,,,,,,,2,0,2,0,20,1,81,0,,,,,,,,,,,,,,,,,,,,,,,,,,,,,w,1,0.384269952774,None,0,1.0,trianglewhite.gif,go,,,,,,,,,,,,,,,,,,,,,,,,1.04,0.51370716095,0.000949144363403,0.384269952774,1,w,1302.10692096,,,,,,,,,,,,,,,,,,,,,,,,,,,,,,,,,2015_Jul_06_1244,59.8626997063,LearningTask,1,78,
-200,q,200,,,,,,,,,,,,,,,,,2,0,2,0,20,2,82,1,,,,,,,,,,,,,,,,,,,,,,,,,,,,,q,1,0.417210102081,None,0,0.5,diamondmagenta.gif,stop,,,,,,,,,,,,,,,,,,,,,,,,0.41,0.51472902298,0.000878095626831,0.417210102081,1,q,1305.11084485,,,,,,,,,,,,,,,,,,,,,,,,,,,,,,,,,2015_Jul_06_1244,59.8626997063,LearningTask,1,78,
200,s,-200,,,,,,,,,,,,,,,,,2,0,2,0,20,3,83,2,,,,,,,,,,,,,,,,,,,,,,,,,,,,,s,1,0.417719125748,None,0,1.0,hexagongreen.gif,stop,,,,,,,,,,,,,,,,,,,,,,,,0.86,0.5139939785,0.000935792922974,0.417719125748,1,s,1308.11387682,,,,,,,,,,,,,,,,,,,,,,,,,,,,,,,,,2015_Jul_06_1244,59.8626997063,LearningTask,1,78,
200,s,-200,,,,,,,,,,,,,,,,,2,0,2,0,21,0,84,2,,,,,,,,,,,,,,,,,,,,,,,,,,,,,s,1,0.401497125626,None,0,4.0,linegray.gif,go,,,,,,,,,,,,,,,,,,,,,,,,3.79,0.513957977295,0.000937938690186,0.401497125626,1,s,1311.11708689,,,,,,,,,,,,,,,,,,,,,,,,,,,,,,,,,2015_Jul_06_1244,59.8626997063,LearningTask,1,78,
-200,a,-200,,,,,,,,,,,,,,,,,2,0,2,0,21,1,85,3,,,,,,,,,,,,,,,,,,,,,,,,,,,,,a,1,0.384035110474,None,0,1.0,trianglewhite.gif,go,,,,,,,,,,,,,,,,,,,,,,,,0.86,0.514767885208,0.000874996185303,0.384035110474,1,a,1314.12065196,,,,,,,,,,,,,,,,,,,,,,,,,,,,,,,,,2015_Jul_06_1244,59.8626997063,LearningTask,1,78,
200,s,-200,,,,,,,,,,,,,,,,,2,0,2,0,21,2,86,2,,,,,,,,,,,,,,,,,,,,,,,,,,,,,s,1,0.350982189178,None,0,0.5,invertedtriangleyellow.gif,go,,,,,,,,,,,,,,,,,,,,,,,,0,0.514008045197,0.00119400024414,0.350982189178,1,s,1317.12376499,,,,,,,,,,,,,,,,,,,,,,,,,,,,,,,,,2015_Jul_06_1244,59.8626997063,LearningTask,1,78,
200,s,-200,,,,,,,,,,,,,,,,,2,0,2,0,21,3,87,2,,,,,,,,,,,,,,,,,,,,,,,,,,,,,s,1,0.36731505394,None,0,4.0,squarecyan.gif,stop,,,,,,,,,,,,,,,,,,,,,,,,0,0.514190912247,0.000900030136108,0.36731505394,1,s,1320.12767887,,,,,,,,,,,,,,,,,,,,,,,,,,,,,,,,,2015_Jul_06_1244,59.8626997063,LearningTask,1,78,
200,w,200,,,,,,,,,,,,,,,,,2,0,2,0,22,0,88,0,,,,,,,,,,,,,,,,,,,,,,,,,,,,,w,1,0.43430685997,None,0,2.0,crossorange.gif,go,,,,,,,,,,,,,,,,,,,,,,,,1.84,0.514107942581,0.000898122787476,0.43430685997,1,w,1323.13080287,,,,,,,,,,,,,,,,,,,,,,,,,,,,,,,,,2015_Jul_06_1244,59.8626997063,LearningTask,1,78,
200,s,-200,,,,,,,,,,,,,,,,,2,0,2,0,22,1,89,2,,,,,,,,,,,,,,,,,,,,,,,,,,,,,s,1,0.417627096176,None,0,2.0,circleblue.gif,stop,,,,,,,,,,,,,,,,,,,,,,,,2.21,0.514290094376,0.000879049301147,0.417627096176,1,s,1326.13481283,,,,,,,,,,,,,,,,,,,,,,,,,,,,,,,,,2015_Jul_06_1244,59.8626997063,LearningTask,1,78,
-200,a,-200,,,,,,,,,,,,,,,,,2,0,2,0,22,2,90,3,,,,,,,,,,,,,,,,,,,,,,,,,,,,,a,1,0.384530067444,None,0,2.0,circleblue.gif,stop,,,,,,,,,,,,,,,,,,,,,,,,1.95,0.513428926468,0.000977039337158,0.384530067444,1,a,1329.13795686,,,,,,,,,,,,,,,,,,,,,,,,,,,,,,,,,2015_Jul_06_1244,59.8626997063,LearningTask,1,78,
-200,q,200,,,,,,,,,,,,,,,,,2,0,2,0,22,3,91,1,,,,,,,,,,,,,,,,,,,,,,,,,,,,,q,1,0.384303092957,None,0,1.0,trianglewhite.gif,go,,,,,,,,,,,,,,,,,,,,,,,,0,0.513785123825,0.000933170318604,0.384303092957,1,q,1332.14117599,,,,,,,,,,,,,,,,,,,,,,,,,,,,,,,,,2015_Jul_06_1244,59.8626997063,LearningTask,1,78,
-200,q,200,,,,,,,,,,,,,,,,,2,0,2,0,23,0,92,1,,,,,,,,,,,,,,,,,,,,,,,,,,,,,q,1,0.367585897446,None,0,4.0,linegray.gif,go,,,,,,,,,,,,,,,,,,,,,,,,0,0.514121055603,0.00088095664978,0.367372989655,0,a,1335.14433289,4.2,0.515705108643,0.000958204269409,0.367585897446,1,q,1338.14763188,,,,,,,,,,,,,,,,,,,,,,,,,,2015_Jul_06_1244,59.8626997063,LearningTask,1,78,
-200,q,200,,,,,,,,,,,,,,,,,2,0,2,0,23,1,93,1,,,,,,,,,,,,,,,,,,,,,,,,,,,,,q,1,0.434447050095,None,0,0.5,invertedtriangleyellow.gif,go,,,,,,,,,,,,,,,,,,,,,,,,0.67,0.514403820038,0.00105285644531,0.434447050095,1,q,1341.15091801,,,,,,,,,,,,,,,,,,,,,,,,,,,,,,,,,2015_Jul_06_1244,59.8626997063,LearningTask,1,78,
-200,a,-200,,,,,,,,,,,,,,,,,2,0,2,0,23,2,94,3,,,,,,,,,,,,,,,,,,,,,,,,,,,,,a,1,0.501238822937,None,0,4.0,linegray.gif,go,,,,,,,,,,,,,,,,,,,,,,,,4.1,0.514220952988,0.000916004180908,0.501238822937,1,a,1344.15475392,,,,,,,,,,,,,,,,,,,,,,,,,,,,,,,,,2015_Jul_06_1244,59.8626997063,LearningTask,1,78,
200,w,200,,,,,,,,,,,,,,,,,2,0,2,0,23,3,95,0,,,,,,,,,,,,,,,,,,,,,,,,,,,,,w,1,0.400734901428,None,0,4.0,squarecyan.gif,stop,,,,,,,,,,,,,,,,,,,,,,,,0,0.513955831528,0.000923871994019,0.400734901428,1,w,1347.15801787,,,,,,,,,,,,,,,,,,,,,,,,,,,,,,,,,2015_Jul_06_1244,59.8626997063,LearningTask,1,78,
-200,a,-200,,,,,,,,,,,,,,,,,2,0,2,0,24,0,96,3,,,,,,,,,,,,,,,,,,,,,,,,,,,,,a,1,0.450500965118,None,0,1.0,hexagongreen.gif,stop,,,,,,,,,,,,,,,,,,,,,,,,0.94,0.514009952545,0.000926971435547,0.450500965118,1,a,1350.1611228,,,,,,,,,,,,,,,,,,,,,,,,,,,,,,,,,2015_Jul_06_1244,59.8626997063,LearningTask,1,78,
-200,q,200,,,,,,,,,,,,,,,,,2,0,2,0,24,1,97,1,,,,,,,,,,,,,,,,,,,,,,,,,,,,,q,1,0.367441177368,None,0,1.0,trianglewhite.gif,go,,,,,,,,,,,,,,,,,,,,,,,,0.98,0.514452934265,0.000885009765625,0.367441177368,1,q,1353.1646409,,,,,,,,,,,,,,,,,,,,,,,,,,,,,,,,,2015_Jul_06_1244,59.8626997063,LearningTask,1,78,
-200,q,200,,,,,,,,,,,,,,,,,2,0,2,0,24,2,98,1,,,,,,,,,,,,,,,,,,,,,,,,,,,,,q,1,0.384001016617,None,0,0.5,invertedtriangleyellow.gif,go,,,,,,,,,,,,,,,,,,,,,,,,0.44,0.514183044434,0.000936031341553,0.384001016617,1,q,1356.16774487,,,,,,,,,,,,,,,,,,,,,,,,,,,,,,,,,2015_Jul_06_1244,59.8626997063,LearningTask,1,78,
-200,q,200,,,,,,,,,,,,,,,,,2,0,2,0,24,3,99,1,,,,,,,,,,,,,,,,,,,,,,,,,,,,,q,1,0.450800895691,None,0,2.0,circleblue.gif,stop,,,,,,,,,,,,,,,,,,,,,,,,0,0.514275074005,0.000935077667236,0.450800895691,1,q,1359.1715939,,,,,,,,,,,,,,,,,,,,,,,,,,,,,,,,,2015_Jul_06_1244,59.8626997063,LearningTask,1,78,
,,,,,,,,,,,,,,,,,,,2,0,2,0,,,,,,,,,,,,,,,,,,,,,,,,,,,,,,,,,,,,,,,,,,,,,,,,,,,,,,,,,,,,,,,,,,,,,,,,,,,,,,9,70.2764070034,,,,,,,,,,,,,,,,,,,,,,,,2015_Jul_06_1244,59.8626997063,LearningTask,1,78,
200,w,200,,,,,,,,,,,,,,,,,3,0,3,0,0,0,0,0,,,,,,,,,,,,,,,,,,,,,,,,,,,,,w,1,0.667865991592,None,0,2.0,circleblue.gif,stop,,,,,,,,,,,,,,,,,,,,,,,,2.09,0.510544061661,0.000879049301147,0.667865991592,1,w,1433.35511279,,,,,,,,,,,,,,,,,,,,,,,,,,,,,,,,,2015_Jul_06_1244,59.8626997063,LearningTask,1,78,
