xPos,corrAns,yPos,corrGoResp,yPosGoStim,xPosGoStim,pracTrials.thisRepN,pracTrials.thisTrialN,pracTrials.thisN,pracTrials.thisIndex,ReDoLoopPrac.thisRepN,ReDoLoopPrac.thisTrialN,ReDoLoopPrac.thisN,ReDoLoopPrac.thisIndex,ReDoLoopPrac.thisTrial,pracStopTrials.thisRepN,pracStopTrials.thisTrialN,pracStopTrials.thisN,pracStopTrials.thisIndex,Blocks.thisRepN,Blocks.thisTrialN,Blocks.thisN,Blocks.thisIndex,trials.thisRepN,trials.thisTrialN,trials.thisN,trials.thisIndex,ReDoLoopMain.thisRepN,ReDoLoopMain.thisTrialN,ReDoLoopMain.thisN,ReDoLoopMain.thisIndex,ReDoLoopMain.thisTrial,StopBlocks.thisRepN,StopBlocks.thisTrialN,StopBlocks.thisN,StopBlocks.thisIndex,StopTrials.thisRepN,StopTrials.thisTrialN,StopTrials.thisN,StopTrials.thisIndex,auctionBlocks.thisRepN,auctionBlocks.thisTrialN,auctionBlocks.thisN,auctionBlocks.thisIndex,auctionTrials.thisRepN,auctionTrials.thisTrialN,auctionTrials.thisN,auctionTrials.thisIndex,learningTrialList,learningPracTrialList,stopTrialList,stopPracTrialList,auctionTrialList,ok1.keys,ok1.rt,resp.keys,resp.corr,resp.rt,feedbackResp.keys,feedbackResp.corr,currentReward,currentStimulus,currentStimType,firstPracComputedRewardOutput,firstPracLearningStimOnset,firstPracLearningFixOnset,firstPracPresentationRT,firstPracPresentationAcc,firstPracPresentationResp,firstPracEndTrialTimeStamp,StartTrialTimeStamp,trialType,goStim,stimType,stopStimValue,goResp.keys,goResp.corr,goResp.rt,key_resp_9.keys,key_resp_9.corr,fixStopOnset,goStimOnset,EndTrialTimeStamp,stopSignalOnset,key_resp_3.keys,key_resp_3.rt,firstComputedRewardOutput,firstLearningStimOnset,firstLearningFixOnset,firstPresentationRT,firstPresentationAcc,firstPresentationResp,firstEndTrialTimeStamp,secondComputedRewardOutput,secondLearningStimOnset,secondLearningFixOnset,secondPresentationRT,secondPresentationAcc,secondPresentationResp,secondEndTrialTimeStamp,key_resp_7.keys,key_resp_7.rt,feedbackResp.rt,beginningSSD,EndingSSD,key_resp_9.rt,key_resp_4.keys,key_resp_4.rt,auctionResponse.keys,auctionResponse.rt,auctionStimDuration,auctionStim,auctionAmounts,auctionStimValue,auctionCondition,chosenAuctionAmount,key_resp_5.keys,key_resp_5.rt,shuffledRewardList,chosenReward1,chosenReward2,chosenReward3,chosenReward4,chosenReward5,key_resp_6.keys,key_resp_6.rt,date,frameRate,expName,session,participant,
,,,,,,,,,,,,,,,,,,,,,,,,,,,,,,,,,,,,,,,,,,,,,,,,[],[],[],[],[],9,74.4628551006,,,,,,,,,,,,,,,,,,,,,,,,,,,,,,,,,,,,,,,,,,,,,,,,,,,,,,,,,,,,,,,,,,,,,,,,2015_Jul_08_1003,59.9063905516,LearningTask,1,83,
200,w,200,,,,0,0,0,0,,,,,,,,,,,,,,,,,,,,,,,,,,,,,,,,,,,,,,,,,,,,,,w,1,0.767940044403,None,0,1.0,circlecyan.gif,go,0,0.512317895889,0.03733086586,0.767940044403,1,w,133.881783009,,,,,,,,,,,,,,,,,,,,,,,,,,,,,,,,,,,,,,,,,,,,,,,,,,,,,,,,,2015_Jul_08_1003,59.9063905516,LearningTask,1,83,
200,w,200,,,,0,1,1,4,,,,,,,,,,,,,,,,,,,,,,,,,,,,,,,,,,,,,,,,,,,,,,w,1,0.600857019424,None,0,4.0,invertedtrianglegreen.gif,stop,4.06,0.514694929123,0.0121779441833,0.600857019424,1,w,136.884718895,,,,,,,,,,,,,,,,,,,,,,,,,,,,,,,,,,,,,,,,,,,,,,,,,,,,,,,,,2015_Jul_08_1003,59.9063905516,LearningTask,1,83,
200,s,-200,,,,0,2,2,2,,,,,,,,,,,,,,,,,,,,,,,,,,,,,,,,,,,,,,,,,,,,,,s,1,0.467185020447,None,0,2.0,squareblue.gif,go,1.79,0.515058994293,0.0144040584564,0.467185020447,1,s,139.8880229,,,,,,,,,,,,,,,,,,,,,,,,,,,,,,,,,,,,,,,,,,,,,,,,,,,,,,,,,2015_Jul_08_1003,59.9063905516,LearningTask,1,83,
-200,a,-200,,,,0,3,3,7,,,,,,,,,,,,,,,,,,,,,,,,,,,,,,,,,,,,,,,,,,,,,,a,1,0.584507226944,None,0,4.0,invertedtrianglegreen.gif,stop,0,0.51521897316,0.000893115997314,0.584507226944,1,a,142.891196966,,,,,,,,,,,,,,,,,,,,,,,,,,,,,,,,,,,,,,,,,,,,,,,,,,,,,,,,,2015_Jul_08_1003,59.9063905516,LearningTask,1,83,
-200,q,200,,,,0,4,4,9,,,,,,,,,,,,,,,,,,,,,,,,,,,,,,,,,,,,,,,,,,,,,,q,1,0.433941841125,None,0,4.0,invertedtrianglegreen.gif,stop,3.99,0.51547908783,0.000892877578735,0.433941841125,1,q,145.895097971,,,,,,,,,,,,,,,,,,,,,,,,,,,,,,,,,,,,,,,,,,,,,,,,,,,,,,,,,2015_Jul_08_1003,59.9063905516,LearningTask,1,83,
-200,a,-200,,,,0,5,5,3,,,,,,,,,,,,,,,,,,,,,,,,,,,,,,,,,,,,,,,,,,,,,,a,1,0.517633199692,None,0,0.5,diamondgray.gif,stop,0.3,0.515085935593,0.0094039440155,0.517633199692,1,a,148.898142815,,,,,,,,,,,,,,,,,,,,,,,,,,,,,,,,,,,,,,,,,,,,,,,,,,,,,,,,,2015_Jul_08_1003,59.9063905516,LearningTask,1,83,
200,s,-200,,,,0,6,6,6,,,,,,,,,,,,,,,,,,,,,,,,,,,,,,,,,,,,,,,,,,,,,,s,1,0.484574079514,None,0,2.0,squareblue.gif,go,1.99,0.515305995941,0.0010199546814,0.484574079514,1,s,151.901718855,,,,,,,,,,,,,,,,,,,,,,,,,,,,,,,,,,,,,,,,,,,,,,,,,,,,,,,,,2015_Jul_08_1003,59.9063905516,LearningTask,1,83,
200,w,200,,,,0,7,7,8,,,,,,,,,,,,,,,,,,,,,,,,,,,,,,,,,,,,,,,,,,,,,,w,1,0.401578187943,None,0,1.0,hexagonwhite.gif,stop,0,0.514941930771,0.0430428981781,0.401578187943,1,w,154.904816866,,,,,,,,,,,,,,,,,,,,,,,,,,,,,,,,,,,,,,,,,,,,,,,,,,,,,,,,,2015_Jul_08_1003,59.9063905516,LearningTask,1,83,
-200,q,200,,,,0,8,8,5,,,,,,,,,,,,,,,,,,,,,,,,,,,,,,,,,,,,,,,,,,,,,,q,1,0.384296894073,None,0,2.0,triangleyellow.gif,stop,2.2,0.515187978745,0.00949001312256,0.384296894073,1,q,157.908072948,,,,,,,,,,,,,,,,,,,,,,,,,,,,,,,,,,,,,,,,,,,,,,,,,,,,,,,,,2015_Jul_08_1003,59.9063905516,LearningTask,1,83,
-200,q,200,,,,0,9,9,1,,,,,,,,,,,,,,,,,,,,,,,,,,,,,,,,,,,,,,,,,,,,,,q,1,0.484499931335,None,0,4.0,invertedtrianglegreen.gif,stop,3.8,0.514980077744,0.00113916397095,0.484499931335,1,q,160.911505938,,,,,,,,,,,,,,,,,,,,,,,,,,,,,,,,,,,,,,,,,,,,,,,,,,,,,,,,,2015_Jul_08_1003,59.9063905516,LearningTask,1,83,
,,,z,0,-200,,,,,,,,,,0,0,0,0,,,,,,,,,,,,,,,,,,,,,,,,,,,,,,,,,,,,,,,,,,,,,,,,,,,,209.871600866,go,crossmagenta.gif,go,0.5,z,1,0.567473173141,None,0,0.0178301334381,0.510869979858,212.870352983,,,,,,,,,,,,,,,,,,,,,,,,,,,,,,,,,,,,,,,,,,,,2015_Jul_08_1003,59.9063905516,LearningTask,1,83,
,,,m,0,200,,,,,,,,,,0,1,1,1,,,,,,,,,,,,,,,,,,,,,,,,,,,,,,,,,,,,,,,,,,,,,,,,,,,,212.87074399,stop,hexagonwhite.gif,stop,1.0,m,1,0.434172153473,None,0,0.000960111618042,0.515156984329,215.873163939,0.76521897316,,,,,,,,,,,,,,,,,,,,,,,,,,,,,,,,,,,,,,,,,,,2015_Jul_08_1003,59.9063905516,LearningTask,1,83,
,,,z,0,-200,,,,,,,,,,1,0,2,0,,,,,,,,,,,,,,,,,,,,,,,,,,,,,,,,,,,,,,,,,,,,,,,,,,,,215.87353301,go,lineorange.gif,go,4.0,z,1,0.417516946793,None,0,0.0341949462891,0.515811920166,218.876529932,,,,,,,,,,,,,,,,,,,,,,,,,,,,,,,,,,,,,,,,,,,,2015_Jul_08_1003,59.9063905516,LearningTask,1,83,
,,,z,0,-200,,,,,,,,,,1,1,3,0,,,,,,,,,,,,,,,,,,,,,,,,,,,,,,,,,,,,,,,,,,,,,,,,,,,,218.876922846,go,crossmagenta.gif,go,0.5,z,1,0.401312828064,None,0,0.000948905944824,0.515748977661,221.879691839,,,,,,,,,,,,,,,,,,,,,,,,,,,,,,,,,,,,,,,,,,,,2015_Jul_08_1003,59.9063905516,LearningTask,1,83,
,,,m,0,200,,,,,,,,,,2,0,4,1,,,,,,,,,,,,,,,,,,,,,,,,,,,,,,,,,,,,,,,,,,,,,,,,,,,,221.880059958,stop,triangleyellow.gif,stop,2.0,m,1,0.367882966995,None,0,0.00108289718628,0.516049861908,224.883311987,0.766300916672,,,,,,,,,,,,,,,,,,,,,,,,,,,,,,,,,,,,,,,,,,,2015_Jul_08_1003,59.9063905516,LearningTask,1,83,
,,,m,0,200,,,,,,,,,,2,1,5,1,,,,,,,,,,,,,,,,,,,,,,,,,,,,,,,,,,,,,,,,,,,,,,,,,,,,224.883677006,stop,hexagonwhite.gif,stop,1.0,m,1,0.451248168945,None,0,0.000946044921875,0.515576839447,227.886905909,0.766134023666,,,,,,,,,,,,,,,,,,,,,,,,,,,,,,,,,,,,,,,,,,,2015_Jul_08_1003,59.9063905516,LearningTask,1,83,
,,,m,0,200,,,,,,,,,,3,0,6,1,,,,,,,,,,,,,,,,,,,,,,,,,,,,,,,,,,,,,,,,,,,,,,,,,,,,227.88726902,stop,invertedtrianglegreen.gif,stop,4.0,m,1,0.534273147583,None,0,0.000978946685791,0.516020059586,230.890022993,0.765726089478,,,,,,,,,,,,,,,,,,,,,,,,,,,,,,,,,,,,,,,,,,,2015_Jul_08_1003,59.9063905516,LearningTask,1,83,
,,,z,0,-200,,,,,,,,,,3,1,7,0,,,,,,,,,,,,,,,,,,,,,,,,,,,,,,,,,,,,,,,,,,,,,,,,,,,,230.890388966,stop,diamondgray.gif,stop,0.5,z,1,0.40097784996,None,0,0.00105595588684,0.515865087509,233.893420935,0.766264915466,,,,,,,,,,,,,,,,,,,,,,,,,,,,,,,,,,,,,,,,,,,2015_Jul_08_1003,59.9063905516,LearningTask,1,83,
,,,m,0,200,,,,,,,,,,4,0,8,1,,,,,,,,,,,,,,,,,,,,,,,,,,,,,,,,,,,,,,,,,,,,,,,,,,,,233.893784046,go,lineorange.gif,go,4.0,m,1,0.367222070694,None,0,0.00095009803772,0.515798091888,236.897003889,,,,,,,,,,,,,,,,,,,,,,,,,,,,,,,,,,,,,,,,,,,,2015_Jul_08_1003,59.9063905516,LearningTask,1,83,
,,,z,0,-200,,,,,,,,,,4,1,9,0,,,,,,,,,,,,,,,,,,,,,,,,,,,,,,,,,,,,,,,,,,,,,,,,,,,,236.89741683,stop,hexagonwhite.gif,stop,1.0,z,1,0.317473173141,None,0,0.00098705291748,0.515413045883,239.900360823,0.766000986099,,,,,,,,,,,,,,,,,,,,,,,,,,,,,,,,,,,,,,,,,,,2015_Jul_08_1003,59.9063905516,LearningTask,1,83,
,,,,,,,,,,,,,,,,,,,,,,,,,,,,,,,,,,,,,,,,,,,,,,,,,,,,,,,,,,,,,,,,,,,,,,,,,,,,,,,,,,,,9,92.501760006,,,,,,,,,,,,,,,,,,,,,,,,,,,,,,,,,,,,,,,,,2015_Jul_08_1003,59.9063905516,LearningTask,1,83,
,,,,,,,,,,,,,,,,,,,,,,,,,,,,,,,,,,,,,,,,,,,,,,,,,,,,,9,2.9038438797,,,,,,,,,,,,,,,,,,,,,,,,,,,,,,,,,,,,,,,,,,,,,,,,,,,,,,,,,,,,,,,,,,,,,,,,2015_Jul_08_1003,59.9063905516,LearningTask,1,83,
-200,q,200,,,,,,,,,,,,,,,,,0,0,0,0,0,0,0,1,,,,,,,,,,,,,,,,,,,,,,,,,,,,,q,1,0.534712076187,None,0,4.0,invertedtrianglegreen.gif,stop,,,,,,,,,,,,,,,,,,,,,,,,4.0,0.514346122742,0.000900983810425,0.534712076187,1,q,338.478682995,,,,,,,,,,,,,,,,,,,,,,,,,,,,,,,,,,2015_Jul_08_1003,59.9063905516,LearningTask,1,83,
-200,a,-200,,,,,,,,,,,,,,,,,0,0,0,0,0,1,1,3,,,,,,,,,,,,,,,,,,,,,,,,,,,,,a,1,0.45072388649,None,0,4.0,invertedtrianglegreen.gif,stop,,,,,,,,,,,,,,,,,,,,,,,,4.03,0.514037132263,0.000898122787476,0.45072388649,1,a,341.481624842,,,,,,,,,,,,,,,,,,,,,,,,,,,,,,,,,,2015_Jul_08_1003,59.9063905516,LearningTask,1,83,
-200,a,-200,,,,,,,,,,,,,,,,,0,0,0,0,0,2,2,3,,,,,,,,,,,,,,,,,,,,,,,,,,,,,a,1,0.484302043915,None,0,1.0,circlecyan.gif,go,,,,,,,,,,,,,,,,,,,,,,,,0,0.51469707489,0.000897169113159,0.484302043915,1,a,344.485414982,,,,,,,,,,,,,,,,,,,,,,,,,,,,,,,,,,2015_Jul_08_1003,59.9063905516,LearningTask,1,83,
-200,a,-200,,,,,,,,,,,,,,,,,0,0,0,0,0,3,3,3,,,,,,,,,,,,,,,,,,,,,,,,,,,,,a,1,0.46784901619,None,0,4.0,lineorange.gif,go,,,,,,,,,,,,,,,,,,,,,,,,4.17,0.513543844223,0.000998973846436,0.46784901619,1,a,347.488561869,,,,,,,,,,,,,,,,,,,,,,,,,,,,,,,,,,2015_Jul_08_1003,59.9063905516,LearningTask,1,83,
200,s,-200,,,,,,,,,,,,,,,,,0,0,0,0,1,0,4,2,,,,,,,,,,,,,,,,,,,,,,,,,,,,,s,1,0.501188993454,None,0,2.0,squareblue.gif,go,,,,,,,,,,,,,,,,,,,,,,,,2.07,0.514273881912,0.000900030136108,0.501188993454,1,s,350.491843939,,,,,,,,,,,,,,,,,,,,,,,,,,,,,,,,,,2015_Jul_08_1003,59.9063905516,LearningTask,1,83,
-200,a,-200,,,,,,,,,,,,,,,,,0,0,0,0,1,1,5,3,,,,,,,,,,,,,,,,,,,,,,,,,,,,,a,1,0.468027114868,None,0,2.0,triangleyellow.gif,stop,,,,,,,,,,,,,,,,,,,,,,,,1.99,0.514380931854,0.000900983810425,0.468027114868,1,a,353.495280981,,,,,,,,,,,,,,,,,,,,,,,,,,,,,,,,,,2015_Jul_08_1003,59.9063905516,LearningTask,1,83,
200,s,-200,,,,,,,,,,,,,,,,,0,0,0,0,1,2,6,2,,,,,,,,,,,,,,,,,,,,,,,,,,,,,s,1,0.551490068436,None,0,1.0,hexagonwhite.gif,stop,,,,,,,,,,,,,,,,,,,,,,,,1.19,0.514014959335,0.000941038131714,0.551490068436,1,s,356.498452902,,,,,,,,,,,,,,,,,,,,,,,,,,,,,,,,,,2015_Jul_08_1003,59.9063905516,LearningTask,1,83,
-200,a,-200,,,,,,,,,,,,,,,,,0,0,0,0,1,3,7,3,,,,,,,,,,,,,,,,,,,,,,,,,,,,,a,1,0.384410858154,None,0,2.0,triangleyellow.gif,stop,,,,,,,,,,,,,,,,,,,,,,,,0,0.514400959015,0.000948905944824,0.384410858154,1,a,359.502373934,,,,,,,,,,,,,,,,,,,,,,,,,,,,,,,,,,2015_Jul_08_1003,59.9063905516,LearningTask,1,83,
200,w,200,,,,,,,,,,,,,,,,,0,0,0,0,2,0,8,0,,,,,,,,,,,,,,,,,,,,,,,,,,,,,w,1,0.484603881836,None,0,4.0,lineorange.gif,go,,,,,,,,,,,,,,,,,,,,,,,,4.1,0.51401591301,0.000943899154663,0.484603881836,1,w,362.505424023,,,,,,,,,,,,,,,,,,,,,,,,,,,,,,,,,,2015_Jul_08_1003,59.9063905516,LearningTask,1,83,
-200,q,200,,,,,,,,,,,,,,,,,0,0,0,0,2,1,9,1,,,,,,,,,,,,,,,,,,,,,,,,,,,,,q,1,0.51752614975,None,0,2.0,squareblue.gif,go,,,,,,,,,,,,,,,,,,,,,,,,2.14,0.514405965805,0.00117897987366,0.51752614975,1,q,365.508635044,,,,,,,,,,,,,,,,,,,,,,,,,,,,,,,,,,2015_Jul_08_1003,59.9063905516,LearningTask,1,83,
200,w,200,,,,,,,,,,,,,,,,,0,0,0,0,2,2,10,0,,,,,,,,,,,,,,,,,,,,,,,,,,,,,w,1,0.384919166565,None,0,2.0,squareblue.gif,go,,,,,,,,,,,,,,,,,,,,,,,,2.24,0.513921022415,0.00116395950317,0.384919166565,1,w,368.511996031,,,,,,,,,,,,,,,,,,,,,,,,,,,,,,,,,,2015_Jul_08_1003,59.9063905516,LearningTask,1,83,
200,s,-200,,,,,,,,,,,,,,,,,0,0,0,0,2,3,11,2,,,,,,,,,,,,,,,,,,,,,,,,,,,,,s,1,0.384609937668,None,0,2.0,squareblue.gif,go,,,,,,,,,,,,,,,,,,,,,,,,2.02,0.514415025711,0.000906944274902,0.384609937668,1,s,371.515516043,,,,,,,,,,,,,,,,,,,,,,,,,,,,,,,,,,2015_Jul_08_1003,59.9063905516,LearningTask,1,83,
200,s,-200,,,,,,,,,,,,,,,,,0,0,0,0,3,0,12,2,,,,,,,,,,,,,,,,,,,,,,,,,,,,,s,1,0.400754928589,None,0,1.0,circlecyan.gif,go,,,,,,,,,,,,,,,,,,,,,,,,0.8,0.51420712471,0.000932931900024,0.400754928589,1,s,374.518797874,,,,,,,,,,,,,,,,,,,,,,,,,,,,,,,,,,2015_Jul_08_1003,59.9063905516,LearningTask,1,83,
200,s,-200,,,,,,,,,,,,,,,,,0,0,0,0,3,1,13,2,,,,,,,,,,,,,,,,,,,,,,,,,,,,,s,1,0.41709280014,None,0,2.0,squareblue.gif,go,,,,,,,,,,,,,,,,,,,,,,,,2.14,0.514308929443,0.000982999801636,0.41709280014,1,s,377.522125006,,,,,,,,,,,,,,,,,,,,,,,,,,,,,,,,,,2015_Jul_08_1003,59.9063905516,LearningTask,1,83,
200,s,-200,,,,,,,,,,,,,,,,,0,0,0,0,3,2,14,2,,,,,,,,,,,,,,,,,,,,,,,,,,,,,s,1,0.417455911636,None,0,0.5,diamondgray.gif,stop,,,,,,,,,,,,,,,,,,,,,,,,0.36,0.514479160309,0.000946044921875,0.417455911636,1,s,380.525614977,,,,,,,,,,,,,,,,,,,,,,,,,,,,,,,,,,2015_Jul_08_1003,59.9063905516,LearningTask,1,83,
-200,q,200,,,,,,,,,,,,,,,,,0,0,0,0,3,3,15,1,,,,,,,,,,,,,,,,,,,,,,,,,,,,,q,1,0.434111833572,None,0,0.5,diamondgray.gif,stop,,,,,,,,,,,,,,,,,,,,,,,,0.47,0.514320135117,0.00090217590332,0.434111833572,1,q,383.529426813,,,,,,,,,,,,,,,,,,,,,,,,,,,,,,,,,,2015_Jul_08_1003,59.9063905516,LearningTask,1,83,
200,w,200,,,,,,,,,,,,,,,,,0,0,0,0,4,0,16,0,,,,,,,,,,,,,,,,,,,,,,,,,,,,,w,1,0.450678825378,None,0,4.0,lineorange.gif,go,,,,,,,,,,,,,,,,,,,,,,,,4.07,0.513815879822,0.000935077667236,0.450678825378,1,w,386.532184839,,,,,,,,,,,,,,,,,,,,,,,,,,,,,,,,,,2015_Jul_08_1003,59.9063905516,LearningTask,1,83,
-200,q,200,,,,,,,,,,,,,,,,,0,0,0,0,4,1,17,1,,,,,,,,,,,,,,,,,,,,,,,,,,,,,q,1,0.384691953659,None,0,4.0,lineorange.gif,go,,,,,,,,,,,,,,,,,,,,,,,,4.06,0.51433801651,0.00089693069458,0.384691953659,1,q,389.535763025,,,,,,,,,,,,,,,,,,,,,,,,,,,,,,,,,,2015_Jul_08_1003,59.9063905516,LearningTask,1,83,
-200,a,-200,,,,,,,,,,,,,,,,,0,0,0,0,4,2,18,3,,,,,,,,,,,,,,,,,,,,,,,,,,,,,a,1,0.334332942963,None,0,0.5,crossmagenta.gif,go,,,,,,,,,,,,,,,,,,,,,,,,0.25,0.514086008072,0.000906944274902,0.334332942963,1,a,392.539338827,,,,,,,,,,,,,,,,,,,,,,,,,,,,,,,,,,2015_Jul_08_1003,59.9063905516,LearningTask,1,83,
-200,a,-200,,,,,,,,,,,,,,,,,0,0,0,0,4,3,19,3,,,,,,,,,,,,,,,,,,,,,,,,,,,,,a,1,0.501190900803,None,0,2.0,triangleyellow.gif,stop,,,,,,,,,,,,,,,,,,,,,,,,1.75,0.514136075974,0.000956058502197,0.501190900803,1,a,395.54240489,,,,,,,,,,,,,,,,,,,,,,,,,,,,,,,,,,2015_Jul_08_1003,59.9063905516,LearningTask,1,83,
-200,q,200,,,,,,,,,,,,,,,,,0,0,0,0,5,0,20,1,,,,,,,,,,,,,,,,,,,,,,,,,,,,,q,1,0.450417041779,None,0,4.0,lineorange.gif,go,,,,,,,,,,,,,,,,,,,,,,,,3.97,0.514425992966,0.000899791717529,0.450417041779,1,q,398.545691013,,,,,,,,,,,,,,,,,,,,,,,,,,,,,,,,,,2015_Jul_08_1003,59.9063905516,LearningTask,1,83,
200,w,200,,,,,,,,,,,,,,,,,0,0,0,0,5,1,21,0,,,,,,,,,,,,,,,,,,,,,,,,,,,,,w,1,0.48425412178,None,0,4.0,invertedtrianglegreen.gif,stop,,,,,,,,,,,,,,,,,,,,,,,,4.0,0.514548063278,0.000956058502197,0.48425412178,1,w,401.54942584,,,,,,,,,,,,,,,,,,,,,,,,,,,,,,,,,,2015_Jul_08_1003,59.9063905516,LearningTask,1,83,
-200,q,200,,,,,,,,,,,,,,,,,0,0,0,0,5,2,22,1,,,,,,,,,,,,,,,,,,,,,,,,,,,,,q,1,0.401038885117,None,0,2.0,triangleyellow.gif,stop,,,,,,,,,,,,,,,,,,,,,,,,2.1,0.513884067535,0.000897884368896,0.401038885117,1,q,404.552523851,,,,,,,,,,,,,,,,,,,,,,,,,,,,,,,,,,2015_Jul_08_1003,59.9063905516,LearningTask,1,83,
-200,a,-200,,,,,,,,,,,,,,,,,0,0,0,0,5,3,23,3,,,,,,,,,,,,,,,,,,,,,,,,,,,,,a,1,0.484673976898,None,0,1.0,hexagonwhite.gif,stop,,,,,,,,,,,,,,,,,,,,,,,,1.03,0.514614105225,0.00123310089111,0.484673976898,1,a,407.556059837,,,,,,,,,,,,,,,,,,,,,,,,,,,,,,,,,,2015_Jul_08_1003,59.9063905516,LearningTask,1,83,
-200,q,200,,,,,,,,,,,,,,,,,0,0,0,0,6,0,24,1,,,,,,,,,,,,,,,,,,,,,,,,,,,,,q,1,0.41751408577,None,0,1.0,circlecyan.gif,go,,,,,,,,,,,,,,,,,,,,,,,,1.2,0.514328956604,0.000919818878174,0.41751408577,1,q,410.559639931,,,,,,,,,,,,,,,,,,,,,,,,,,,,,,,,,,2015_Jul_08_1003,59.9063905516,LearningTask,1,83,
-200,a,-200,,,,,,,,,,,,,,,,,0,0,0,0,6,1,25,3,,,,,,,,,,,,,,,,,,,,,,,,,,,,,a,1,0.450543880463,None,0,1.0,circlecyan.gif,go,,,,,,,,,,,,,,,,,,,,,,,,0.87,0.514256954193,0.000898122787476,0.450543880463,1,a,413.562623024,,,,,,,,,,,,,,,,,,,,,,,,,,,,,,,,,,2015_Jul_08_1003,59.9063905516,LearningTask,1,83,
-200,a,-200,,,,,,,,,,,,,,,,,0,0,0,0,6,2,26,3,,,,,,,,,,,,,,,,,,,,,,,,,,,,,a,1,0.450520992279,None,0,2.0,triangleyellow.gif,stop,,,,,,,,,,,,,,,,,,,,,,,,2.13,0.514984130859,0.00093412399292,0.450520992279,1,a,416.565847874,,,,,,,,,,,,,,,,,,,,,,,,,,,,,,,,,,2015_Jul_08_1003,59.9063905516,LearningTask,1,83,
-200,q,200,,,,,,,,,,,,,,,,,0,0,0,0,6,3,27,1,,,,,,,,,,,,,,,,,,,,,,,,,,,,,q,1,0.351222038269,None,0,4.0,invertedtrianglegreen.gif,stop,,,,,,,,,,,,,,,,,,,,,,,,3.78,0.514567136765,0.000908136367798,0.351222038269,1,q,419.569599867,,,,,,,,,,,,,,,,,,,,,,,,,,,,,,,,,,2015_Jul_08_1003,59.9063905516,LearningTask,1,83,
200,w,200,,,,,,,,,,,,,,,,,0,0,0,0,7,0,28,0,,,,,,,,,,,,,,,,,,,,,,,,,,,,,w,1,0.468492031097,None,0,2.0,squareblue.gif,go,,,,,,,,,,,,,,,,,,,,,,,,2.05,0.513889074326,0.00102996826172,0.468492031097,1,w,422.572916985,,,,,,,,,,,,,,,,,,,,,,,,,,,,,,,,,,2015_Jul_08_1003,59.9063905516,LearningTask,1,83,
-200,a,-200,,,,,,,,,,,,,,,,,0,0,0,0,7,1,29,3,,,,,,,,,,,,,,,,,,,,,,,,,,,,,a,1,0.433979034424,None,0,4.0,invertedtrianglegreen.gif,stop,,,,,,,,,,,,,,,,,,,,,,,,3.75,0.513916969299,0.000952959060669,0.433979034424,1,a,425.576161861,,,,,,,,,,,,,,,,,,,,,,,,,,,,,,,,,,2015_Jul_08_1003,59.9063905516,LearningTask,1,83,
200,s,-200,,,,,,,,,,,,,,,,,0,0,0,0,7,2,30,2,,,,,,,,,,,,,,,,,,,,,,,,,,,,,s,1,0.451041936874,None,0,4.0,lineorange.gif,go,,,,,,,,,,,,,,,,,,,,,,,,4.09,0.514575958252,0.000901937484741,0.451041936874,1,s,428.579525948,,,,,,,,,,,,,,,,,,,,,,,,,,,,,,,,,,2015_Jul_08_1003,59.9063905516,LearningTask,1,83,
200,w,200,,,,,,,,,,,,,,,,,0,0,0,0,7,3,31,0,,,,,,,,,,,,,,,,,,,,,,,,,,,,,w,1,0.468101978302,None,0,2.0,triangleyellow.gif,stop,,,,,,,,,,,,,,,,,,,,,,,,2.06,0.514317989349,0.000909090042114,0.468101978302,1,w,431.58366394,,,,,,,,,,,,,,,,,,,,,,,,,,,,,,,,,,2015_Jul_08_1003,59.9063905516,LearningTask,1,83,
-200,q,200,,,,,,,,,,,,,,,,,0,0,0,0,8,0,32,1,,,,,,,,,,,,,,,,,,,,,,,,,,,,,q,1,0.501188993454,None,0,1.0,circlecyan.gif,go,,,,,,,,,,,,,,,,,,,,,,,,1.18,0.513209819794,0.000985860824585,0.501188993454,1,q,434.586699009,,,,,,,,,,,,,,,,,,,,,,,,,,,,,,,,,,2015_Jul_08_1003,59.9063905516,LearningTask,1,83,
200,w,200,,,,,,,,,,,,,,,,,0,0,0,0,8,1,33,0,,,,,,,,,,,,,,,,,,,,,,,,,,,,,w,1,0.434309959412,None,0,0.5,diamondgray.gif,stop,,,,,,,,,,,,,,,,,,,,,,,,0,0.514060020447,0.000905990600586,0.434309959412,1,w,437.589733839,,,,,,,,,,,,,,,,,,,,,,,,,,,,,,,,,,2015_Jul_08_1003,59.9063905516,LearningTask,1,83,
200,w,200,,,,,,,,,,,,,,,,,0,0,0,0,8,2,34,0,,,,,,,,,,,,,,,,,,,,,,,,,,,,,w,1,0.400892972946,None,0,2.0,squareblue.gif,go,,,,,,,,,,,,,,,,,,,,,,,,1.9,0.514163017273,0.000910043716431,0.400892972946,1,w,440.593154907,,,,,,,,,,,,,,,,,,,,,,,,,,,,,,,,,,2015_Jul_08_1003,59.9063905516,LearningTask,1,83,
200,s,-200,,,,,,,,,,,,,,,,,0,0,0,0,8,3,35,2,,,,,,,,,,,,,,,,,,,,,,,,,,,,,s,1,0.50110411644,None,0,4.0,lineorange.gif,go,,,,,,,,,,,,,,,,,,,,,,,,0,0.51394200325,0.00121402740479,0.50110411644,1,s,443.596390963,,,,,,,,,,,,,,,,,,,,,,,,,,,,,,,,,,2015_Jul_08_1003,59.9063905516,LearningTask,1,83,
200,w,200,,,,,,,,,,,,,,,,,0,0,0,0,9,0,36,0,,,,,,,,,,,,,,,,,,,,,,,,,,,,,w,1,0.434807062149,None,0,4.0,invertedtrianglegreen.gif,stop,,,,,,,,,,,,,,,,,,,,,,,,4.17,0.514450073242,0.00104308128357,0.434807062149,1,w,446.600005865,,,,,,,,,,,,,,,,,,,,,,,,,,,,,,,,,,2015_Jul_08_1003,59.9063905516,LearningTask,1,83,
200,s,-200,,,,,,,,,,,,,,,,,0,0,0,0,9,1,37,2,,,,,,,,,,,,,,,,,,,,,,,,,,,,,s,1,0.434594869614,None,0,1.0,hexagonwhite.gif,stop,,,,,,,,,,,,,,,,,,,,,,,,1.11,0.514133930206,0.000929117202759,0.434594869614,1,s,449.603276968,,,,,,,,,,,,,,,,,,,,,,,,,,,,,,,,,,2015_Jul_08_1003,59.9063905516,LearningTask,1,83,
-200,a,-200,,,,,,,,,,,,,,,,,0,0,0,0,9,2,38,3,,,,,,,,,,,,,,,,,,,,,,,,,,,,,a,1,0.483685970306,None,0,2.0,triangleyellow.gif,stop,,,,,,,,,,,,,,,,,,,,,,,,2.09,0.514533996582,0.000902891159058,0.483685970306,1,a,452.606534958,,,,,,,,,,,,,,,,,,,,,,,,,,,,,,,,,,2015_Jul_08_1003,59.9063905516,LearningTask,1,83,
-200,q,200,,,,,,,,,,,,,,,,,0,0,0,0,9,3,39,1,,,,,,,,,,,,,,,,,,,,,,,,,,,,,q,1,0.434402942657,None,0,1.0,hexagonwhite.gif,stop,,,,,,,,,,,,,,,,,,,,,,,,1.14,0.514029026031,0.000986814498901,0.434402942657,1,q,455.610074043,,,,,,,,,,,,,,,,,,,,,,,,,,,,,,,,,,2015_Jul_08_1003,59.9063905516,LearningTask,1,83,
200,w,200,,,,,,,,,,,,,,,,,0,0,0,0,10,0,40,0,,,,,,,,,,,,,,,,,,,,,,,,,,,,,w,1,0.467696905136,None,0,4.0,invertedtrianglegreen.gif,stop,,,,,,,,,,,,,,,,,,,,,,,,4.06,0.514245033264,0.00091290473938,0.467696905136,1,w,458.61344099,,,,,,,,,,,,,,,,,,,,,,,,,,,,,,,,,,2015_Jul_08_1003,59.9063905516,LearningTask,1,83,
-200,a,-200,,,,,,,,,,,,,,,,,0,0,0,0,10,1,41,3,,,,,,,,,,,,,,,,,,,,,,,,,,,,,a,1,0.501167058945,None,0,1.0,circlecyan.gif,go,,,,,,,,,,,,,,,,,,,,,,,,0.98,0.514147043228,0.000905990600586,0.501167058945,1,a,461.61661005,,,,,,,,,,,,,,,,,,,,,,,,,,,,,,,,,,2015_Jul_08_1003,59.9063905516,LearningTask,1,83,
-200,q,200,,,,,,,,,,,,,,,,,0,0,0,0,10,2,42,1,,,,,,,,,,,,,,,,,,,,,,,,,,,,,q,1,0.417140007019,None,0,0.5,crossmagenta.gif,go,,,,,,,,,,,,,,,,,,,,,,,,0.46,0.514391899109,0.00090503692627,0.417140007019,1,q,464.620077848,,,,,,,,,,,,,,,,,,,,,,,,,,,,,,,,,,2015_Jul_08_1003,59.9063905516,LearningTask,1,83,
-200,a,-200,,,,,,,,,,,,,,,,,0,0,0,0,10,3,43,3,,,,,,,,,,,,,,,,,,,,,,,,,,,,,a,1,0.467438936234,None,0,2.0,squareblue.gif,go,,,,,,,,,,,,,,,,,,,,,,,,2.12,0.514519929886,0.000894784927368,0.467438936234,1,a,467.623510838,,,,,,,,,,,,,,,,,,,,,,,,,,,,,,,,,,2015_Jul_08_1003,59.9063905516,LearningTask,1,83,
200,s,-200,,,,,,,,,,,,,,,,,0,0,0,0,11,0,44,2,,,,,,,,,,,,,,,,,,,,,,,,,,,,,s,1,0.384203910828,None,0,0.5,diamondgray.gif,stop,,,,,,,,,,,,,,,,,,,,,,,,0.65,0.51441192627,0.000935792922974,0.384203910828,1,s,470.626960039,,,,,,,,,,,,,,,,,,,,,,,,,,,,,,,,,,2015_Jul_08_1003,59.9063905516,LearningTask,1,83,
-200,a,-200,,,,,,,,,,,,,,,,,0,0,0,0,11,1,45,3,,,,,,,,,,,,,,,,,,,,,,,,,,,,,a,1,0.45112490654,None,0,4.0,invertedtrianglegreen.gif,stop,,,,,,,,,,,,,,,,,,,,,,,,3.81,0.513967990875,0.000935792922974,0.45112490654,1,a,473.629959822,,,,,,,,,,,,,,,,,,,,,,,,,,,,,,,,,,2015_Jul_08_1003,59.9063905516,LearningTask,1,83,
200,w,200,,,,,,,,,,,,,,,,,0,0,0,0,11,2,46,0,,,,,,,,,,,,,,,,,,,,,,,,,,,,,w,1,0.367425918579,None,0,1.0,hexagonwhite.gif,stop,,,,,,,,,,,,,,,,,,,,,,,,0.82,0.514807224274,0.000903129577637,0.367425918579,1,w,476.633644819,,,,,,,,,,,,,,,,,,,,,,,,,,,,,,,,,,2015_Jul_08_1003,59.9063905516,LearningTask,1,83,
-200,a,-200,,,,,,,,,,,,,,,,,0,0,0,0,11,3,47,3,,,,,,,,,,,,,,,,,,,,,,,,,,,,,a,1,0.33425784111,None,0,2.0,squareblue.gif,go,,,,,,,,,,,,,,,,,,,,,,,,1.91,0.514351129532,0.000986099243164,0.33425784111,1,a,479.637497902,,,,,,,,,,,,,,,,,,,,,,,,,,,,,,,,,,2015_Jul_08_1003,59.9063905516,LearningTask,1,83,
-200,a,-200,,,,,,,,,,,,,,,,,0,0,0,0,12,0,48,3,,,,,,,,,,,,,,,,,,,,,,,,,,,,,a,1,0.417513847351,None,0,2.0,squareblue.gif,go,,,,,,,,,,,,,,,,,,,,,,,,1.86,0.513525009155,0.000995874404907,0.417513847351,1,a,482.640523911,,,,,,,,,,,,,,,,,,,,,,,,,,,,,,,,,,2015_Jul_08_1003,59.9063905516,LearningTask,1,83,
-200,q,200,,,,,,,,,,,,,,,,,0,0,0,0,12,1,49,1,,,,,,,,,,,,,,,,,,,,,,,,,,,,,q,1,0.451053142548,None,0,4.0,lineorange.gif,go,,,,,,,,,,,,,,,,,,,,,,,,0,0.514319896698,0.000949859619141,0.451053142548,1,q,485.643620014,,,,,,,,,,,,,,,,,,,,,,,,,,,,,,,,,,2015_Jul_08_1003,59.9063905516,LearningTask,1,83,
-200,a,-200,,,,,,,,,,,,,,,,,0,0,0,0,12,2,50,3,,,,,,,,,,,,,,,,,,,,,,,,,,,,,a,1,0.417684078217,None,0,1.0,circlecyan.gif,go,,,,,,,,,,,,,,,,,,,,,,,,0.78,0.514529943466,0.000903129577637,0.417684078217,1,a,488.646996975,,,,,,,,,,,,,,,,,,,,,,,,,,,,,,,,,,2015_Jul_08_1003,59.9063905516,LearningTask,1,83,
200,s,-200,,,,,,,,,,,,,,,,,0,0,0,0,12,3,51,2,,,,,,,,,,,,,,,,,,,,,,,,,,,,,s,1,0.434607982635,None,0,1.0,hexagonwhite.gif,stop,,,,,,,,,,,,,,,,,,,,,,,,0,0.514145851135,0.000950813293457,0.434607982635,1,s,491.650418997,,,,,,,,,,,,,,,,,,,,,,,,,,,,,,,,,,2015_Jul_08_1003,59.9063905516,LearningTask,1,83,
-200,q,200,,,,,,,,,,,,,,,,,0,0,0,0,13,0,52,1,,,,,,,,,,,,,,,,,,,,,,,,,,,,,q,1,0.467274904251,None,0,1.0,hexagonwhite.gif,stop,,,,,,,,,,,,,,,,,,,,,,,,0.82,0.514539957047,0.00113391876221,0.467274904251,1,q,494.653899908,,,,,,,,,,,,,,,,,,,,,,,,,,,,,,,,,,2015_Jul_08_1003,59.9063905516,LearningTask,1,83,
200,s,-200,,,,,,,,,,,,,,,,,0,0,0,0,13,1,53,2,,,,,,,,,,,,,,,,,,,,,,,,,,,,,s,1,0.417438030243,None,0,0.5,crossmagenta.gif,go,,,,,,,,,,,,,,,,,,,,,,,,0,0.51437497139,0.000907897949219,0.417438030243,1,s,497.657337904,,,,,,,,,,,,,,,,,,,,,,,,,,,,,,,,,,2015_Jul_08_1003,59.9063905516,LearningTask,1,83,
-200,q,200,,,,,,,,,,,,,,,,,0,0,0,0,13,2,54,1,,,,,,,,,,,,,,,,,,,,,,,,,,,,,q,1,0.368165969849,None,0,1.0,hexagonwhite.gif,stop,,,,,,,,,,,,,,,,,,,,,,,,1.22,0.514133930206,0.000955104827881,0.368165969849,1,q,500.660571814,,,,,,,,,,,,,,,,,,,,,,,,,,,,,,,,,,2015_Jul_08_1003,59.9063905516,LearningTask,1,83,
-200,q,200,,,,,,,,,,,,,,,,,0,0,0,0,13,3,55,1,,,,,,,,,,,,,,,,,,,,,,,,,,,,,q,1,0.518000125885,None,0,4.0,lineorange.gif,go,,,,,,,,,,,,,,,,,,,,,,,,0,0.51384806633,0.000997066497803,0.40158700943,0,a,503.663939953,3.94,0.515542030334,0.000954151153564,0.518000125885,1,q,506.667654037,,,,,,,,,,,,,,,,,,,,,,,,,,,2015_Jul_08_1003,59.9063905516,LearningTask,1,83,
-200,a,-200,,,,,,,,,,,,,,,,,0,0,0,0,14,0,56,3,,,,,,,,,,,,,,,,,,,,,,,,,,,,,a,1,0.518037080765,None,0,0.5,diamondgray.gif,stop,,,,,,,,,,,,,,,,,,,,,,,,0.27,0.513912916183,0.000895977020264,0.518037080765,1,a,509.670684814,,,,,,,,,,,,,,,,,,,,,,,,,,,,,,,,,,2015_Jul_08_1003,59.9063905516,LearningTask,1,83,
200,w,200,,,,,,,,,,,,,,,,,0,0,0,0,14,1,57,0,,,,,,,,,,,,,,,,,,,,,,,,,,,,,w,1,0.417732000351,None,0,0.5,diamondgray.gif,stop,,,,,,,,,,,,,,,,,,,,,,,,0.41,0.514385938644,0.000898838043213,0.417732000351,1,w,512.674034834,,,,,,,,,,,,,,,,,,,,,,,,,,,,,,,,,,2015_Jul_08_1003,59.9063905516,LearningTask,1,83,
200,s,-200,,,,,,,,,,,,,,,,,0,0,0,0,14,2,58,2,,,,,,,,,,,,,,,,,,,,,,,,,,,,,s,1,0.450911998749,None,0,2.0,squareblue.gif,go,,,,,,,,,,,,,,,,,,,,,,,,1.78,0.514596939087,0.000881910324097,0.450911998749,1,s,515.677405834,,,,,,,,,,,,,,,,,,,,,,,,,,,,,,,,,,2015_Jul_08_1003,59.9063905516,LearningTask,1,83,
200,w,200,,,,,,,,,,,,,,,,,0,0,0,0,14,3,59,0,,,,,,,,,,,,,,,,,,,,,,,,,,,,,w,1,0.467694997787,None,0,1.0,hexagonwhite.gif,stop,,,,,,,,,,,,,,,,,,,,,,,,1.23,0.514204978943,0.000935792922974,0.467694997787,1,w,518.681311846,,,,,,,,,,,,,,,,,,,,,,,,,,,,,,,,,,2015_Jul_08_1003,59.9063905516,LearningTask,1,83,
200,s,-200,,,,,,,,,,,,,,,,,0,0,0,0,15,0,60,2,,,,,,,,,,,,,,,,,,,,,,,,,,,,,s,1,0.46831703186,None,0,0.5,crossmagenta.gif,go,,,,,,,,,,,,,,,,,,,,,,,,0.72,0.513746023178,0.000962018966675,0.46831703186,1,s,521.684044838,,,,,,,,,,,,,,,,,,,,,,,,,,,,,,,,,,2015_Jul_08_1003,59.9063905516,LearningTask,1,83,
200,s,-200,,,,,,,,,,,,,,,,,0,0,0,0,15,1,61,2,,,,,,,,,,,,,,,,,,,,,,,,,,,,,s,1,0.63399720192,None,0,0.5,diamondgray.gif,stop,,,,,,,,,,,,,,,,,,,,,,,,0.25,0.514669895172,0.000893831253052,0.63399720192,1,s,524.687683821,,,,,,,,,,,,,,,,,,,,,,,,,,,,,,,,,,2015_Jul_08_1003,59.9063905516,LearningTask,1,83,
-200,q,200,,,,,,,,,,,,,,,,,0,0,0,0,15,2,62,1,,,,,,,,,,,,,,,,,,,,,,,,,,,,,q,1,0.400804042816,None,0,2.0,squareblue.gif,go,,,,,,,,,,,,,,,,,,,,,,,,2.13,0.514194011688,0.000902891159058,0.400804042816,1,q,527.691104889,,,,,,,,,,,,,,,,,,,,,,,,,,,,,,,,,,2015_Jul_08_1003,59.9063905516,LearningTask,1,83,
-200,a,-200,,,,,,,,,,,,,,,,,0,0,0,0,15,3,63,3,,,,,,,,,,,,,,,,,,,,,,,,,,,,,a,1,0.417411088943,None,0,2.0,squareblue.gif,go,,,,,,,,,,,,,,,,,,,,,,,,1.84,0.514442920685,0.000961065292358,0.417411088943,1,a,530.694321871,,,,,,,,,,,,,,,,,,,,,,,,,,,,,,,,,,2015_Jul_08_1003,59.9063905516,LearningTask,1,83,
200,w,200,,,,,,,,,,,,,,,,,0,0,0,0,16,0,64,0,,,,,,,,,,,,,,,,,,,,,,,,,,,,,w,1,0.517505884171,None,0,4.0,lineorange.gif,go,,,,,,,,,,,,,,,,,,,,,,,,4.16,0.514408111572,0.000977993011475,0.517505884171,1,w,533.697657824,,,,,,,,,,,,,,,,,,,,,,,,,,,,,,,,,,2015_Jul_08_1003,59.9063905516,LearningTask,1,83,
-200,a,-200,,,,,,,,,,,,,,,,,0,0,0,0,16,1,65,3,,,,,,,,,,,,,,,,,,,,,,,,,,,,,a,1,0.584666013718,None,0,0.5,diamondgray.gif,stop,,,,,,,,,,,,,,,,,,,,,,,,0.32,0.514434099197,0.000890016555786,0.584666013718,1,a,536.701341867,,,,,,,,,,,,,,,,,,,,,,,,,,,,,,,,,,2015_Jul_08_1003,59.9063905516,LearningTask,1,83,
-200,a,-200,,,,,,,,,,,,,,,,,0,0,0,0,16,2,66,3,,,,,,,,,,,,,,,,,,,,,,,,,,,,,a,1,0.518076896667,None,0,0.5,crossmagenta.gif,go,,,,,,,,,,,,,,,,,,,,,,,,0.38,0.51357293129,0.00102090835571,0.518076896667,1,a,539.704522848,,,,,,,,,,,,,,,,,,,,,,,,,,,,,,,,,,2015_Jul_08_1003,59.9063905516,LearningTask,1,83,
-200,a,-200,,,,,,,,,,,,,,,,,0,0,0,0,16,3,67,3,,,,,,,,,,,,,,,,,,,,,,,,,,,,,a,1,0.467557191849,None,0,0.5,crossmagenta.gif,go,,,,,,,,,,,,,,,,,,,,,,,,0.58,0.514116048813,0.0011100769043,0.467557191849,1,a,542.707830906,,,,,,,,,,,,,,,,,,,,,,,,,,,,,,,,,,2015_Jul_08_1003,59.9063905516,LearningTask,1,83,
200,w,200,,,,,,,,,,,,,,,,,0,0,0,0,17,0,68,0,,,,,,,,,,,,,,,,,,,,,,,,,,,,,w,1,0.417489051819,None,0,1.0,circlecyan.gif,go,,,,,,,,,,,,,,,,,,,,,,,,1.21,0.514360904694,0.000895977020264,0.417489051819,1,w,545.711443901,,,,,,,,,,,,,,,,,,,,,,,,,,,,,,,,,,2015_Jul_08_1003,59.9063905516,LearningTask,1,83,
-200,q,200,,,,,,,,,,,,,,,,,0,0,0,0,17,1,69,1,,,,,,,,,,,,,,,,,,,,,,,,,,,,,q,1,0.417422056198,None,0,2.0,triangleyellow.gif,stop,,,,,,,,,,,,,,,,,,,,,,,,1.78,0.514039039612,0.000908136367798,0.417422056198,1,q,548.714756966,,,,,,,,,,,,,,,,,,,,,,,,,,,,,,,,,,2015_Jul_08_1003,59.9063905516,LearningTask,1,83,
200,w,200,,,,,,,,,,,,,,,,,0,0,0,0,17,2,70,0,,,,,,,,,,,,,,,,,,,,,,,,,,,,,w,1,0.500788927078,None,0,1.0,circlecyan.gif,go,,,,,,,,,,,,,,,,,,,,,,,,1.11,0.513615846634,0.000919818878174,0.500788927078,1,w,551.718192816,,,,,,,,,,,,,,,,,,,,,,,,,,,,,,,,,,2015_Jul_08_1003,59.9063905516,LearningTask,1,83,
-200,a,-200,,,,,,,,,,,,,,,,,0,0,0,0,17,3,71,3,,,,,,,,,,,,,,,,,,,,,,,,,,,,,a,1,0.667934179306,None,0,1.0,circlecyan.gif,go,,,,,,,,,,,,,,,,,,,,,,,,0.83,0.514184951782,0.000899076461792,0.667934179306,1,a,554.721390963,,,,,,,,,,,,,,,,,,,,,,,,,,,,,,,,,,2015_Jul_08_1003,59.9063905516,LearningTask,1,83,
200,s,-200,,,,,,,,,,,,,,,,,0,0,0,0,18,0,72,2,,,,,,,,,,,,,,,,,,,,,,,,,,,,,s,1,0.450772047043,None,0,4.0,invertedtrianglegreen.gif,stop,,,,,,,,,,,,,,,,,,,,,,,,3.88,0.514410018921,0.000893115997314,0.450772047043,1,s,557.724653959,,,,,,,,,,,,,,,,,,,,,,,,,,,,,,,,,,2015_Jul_08_1003,59.9063905516,LearningTask,1,83,
200,s,-200,,,,,,,,,,,,,,,,,0,0,0,0,18,1,73,2,,,,,,,,,,,,,,,,,,,,,,,,,,,,,s,1,0.467834234238,None,0,0.5,diamondgray.gif,stop,,,,,,,,,,,,,,,,,,,,,,,,0.51,0.514317035675,0.000962018966675,0.467834234238,1,s,560.728075027,,,,,,,,,,,,,,,,,,,,,,,,,,,,,,,,,,2015_Jul_08_1003,59.9063905516,LearningTask,1,83,
200,w,200,,,,,,,,,,,,,,,,,0,0,0,0,18,2,74,0,,,,,,,,,,,,,,,,,,,,,,,,,,,,,w,1,0.467560052872,None,0,1.0,circlecyan.gif,go,,,,,,,,,,,,,,,,,,,,,,,,0.83,0.51423406601,0.000899076461792,0.467560052872,1,w,563.731459856,,,,,,,,,,,,,,,,,,,,,,,,,,,,,,,,,,2015_Jul_08_1003,59.9063905516,LearningTask,1,83,
200,w,200,,,,,,,,,,,,,,,,,0,0,0,0,18,3,75,0,,,,,,,,,,,,,,,,,,,,,,,,,,,,,w,1,0.518064975739,None,0,1.0,circlecyan.gif,go,,,,,,,,,,,,,,,,,,,,,,,,1.23,0.514216899872,0.000904083251953,0.518064975739,1,w,566.734869003,,,,,,,,,,,,,,,,,,,,,,,,,,,,,,,,,,2015_Jul_08_1003,59.9063905516,LearningTask,1,83,
200,s,-200,,,,,,,,,,,,,,,,,0,0,0,0,19,0,76,2,,,,,,,,,,,,,,,,,,,,,,,,,,,,,s,1,0.417495965958,None,0,2.0,squareblue.gif,go,,,,,,,,,,,,,,,,,,,,,,,,0,0.514154911041,0.000960826873779,0.417495965958,1,s,569.738576889,,,,,,,,,,,,,,,,,,,,,,,,,,,,,,,,,,2015_Jul_08_1003,59.9063905516,LearningTask,1,83,
-200,q,200,,,,,,,,,,,,,,,,,0,0,0,0,19,1,77,1,,,,,,,,,,,,,,,,,,,,,,,,,,,,,q,1,0.551750898361,None,0,4.0,invertedtrianglegreen.gif,stop,,,,,,,,,,,,,,,,,,,,,,,,4.14,0.513894081116,0.000910997390747,0.551750898361,1,q,572.741538048,,,,,,,,,,,,,,,,,,,,,,,,,,,,,,,,,,2015_Jul_08_1003,59.9063905516,LearningTask,1,83,
200,s,-200,,,,,,,,,,,,,,,,,0,0,0,0,19,2,78,2,,,,,,,,,,,,,,,,,,,,,,,,,,,,,s,1,0.450828075409,None,0,1.0,circlecyan.gif,go,,,,,,,,,,,,,,,,,,,,,,,,0.86,0.514508008957,0.000905990600586,0.450828075409,1,s,575.744968891,,,,,,,,,,,,,,,,,,,,,,,,,,,,,,,,,,2015_Jul_08_1003,59.9063905516,LearningTask,1,83,
200,w,200,,,,,,,,,,,,,,,,,0,0,0,0,19,3,79,0,,,,,,,,,,,,,,,,,,,,,,,,,,,,,w,1,0.434679985046,None,0,2.0,squareblue.gif,go,,,,,,,,,,,,,,,,,,,,,,,,1.85,0.514075994492,0.000988006591797,0.434679985046,1,w,578.748306036,,,,,,,,,,,,,,,,,,,,,,,,,,,,,,,,,,2015_Jul_08_1003,59.9063905516,LearningTask,1,83,
-200,q,200,,,,,,,,,,,,,,,,,0,0,0,0,20,0,80,1,,,,,,,,,,,,,,,,,,,,,,,,,,,,,q,1,0.435127973557,None,0,4.0,invertedtrianglegreen.gif,stop,,,,,,,,,,,,,,,,,,,,,,,,3.93,0.514174938202,0.00100994110107,0.435127973557,1,q,581.752347946,,,,,,,,,,,,,,,,,,,,,,,,,,,,,,,,,,2015_Jul_08_1003,59.9063905516,LearningTask,1,83,
200,s,-200,,,,,,,,,,,,,,,,,0,0,0,0,20,1,81,2,,,,,,,,,,,,,,,,,,,,,,,,,,,,,s,1,0.485086917877,None,0,2.0,triangleyellow.gif,stop,,,,,,,,,,,,,,,,,,,,,,,,2.04,0.513600111008,0.000900030136108,0.485086917877,1,s,584.755179882,,,,,,,,,,,,,,,,,,,,,,,,,,,,,,,,,,2015_Jul_08_1003,59.9063905516,LearningTask,1,83,
-200,a,-200,,,,,,,,,,,,,,,,,0,0,0,0,20,2,82,3,,,,,,,,,,,,,,,,,,,,,,,,,,,,,a,1,0.751401185989,None,0,0.5,crossmagenta.gif,go,,,,,,,,,,,,,,,,,,,,,,,,0.43,0.513998031616,0.00092601776123,0.751401185989,1,a,587.758416891,,,,,,,,,,,,,,,,,,,,,,,,,,,,,,,,,,2015_Jul_08_1003,59.9063905516,LearningTask,1,83,
-200,q,200,,,,,,,,,,,,,,,,,0,0,0,0,20,3,83,1,,,,,,,,,,,,,,,,,,,,,,,,,,,,,q,1,0.46745800972,None,0,2.0,squareblue.gif,go,,,,,,,,,,,,,,,,,,,,,,,,2.14,0.514096975327,0.00096607208252,0.46745800972,1,q,590.761934042,,,,,,,,,,,,,,,,,,,,,,,,,,,,,,,,,,2015_Jul_08_1003,59.9063905516,LearningTask,1,83,
200,s,-200,,,,,,,,,,,,,,,,,0,0,0,0,21,0,84,2,,,,,,,,,,,,,,,,,,,,,,,,,,,,,s,1,0.485044956207,None,0,0.5,diamondgray.gif,stop,,,,,,,,,,,,,,,,,,,,,,,,0.7,0.514261960983,0.000895023345947,0.485044956207,1,s,593.765172958,,,,,,,,,,,,,,,,,,,,,,,,,,,,,,,,,,2015_Jul_08_1003,59.9063905516,LearningTask,1,83,
200,s,-200,,,,,,,,,,,,,,,,,0,0,0,0,21,1,85,2,,,,,,,,,,,,,,,,,,,,,,,,,,,,,s,1,0.501136064529,None,0,2.0,squareblue.gif,go,,,,,,,,,,,,,,,,,,,,,,,,1.79,0.514332056046,0.000913143157959,0.501136064529,1,s,596.768573999,,,,,,,,,,,,,,,,,,,,,,,,,,,,,,,,,,2015_Jul_08_1003,59.9063905516,LearningTask,1,83,
-200,q,200,,,,,,,,,,,,,,,,,0,0,0,0,21,2,86,1,,,,,,,,,,,,,,,,,,,,,,,,,,,,,q,1,0.517287015915,None,0,4.0,lineorange.gif,go,,,,,,,,,,,,,,,,,,,,,,,,4.25,0.514288187027,0.000925064086914,0.517287015915,1,q,599.772141933,,,,,,,,,,,,,,,,,,,,,,,,,,,,,,,,,,2015_Jul_08_1003,59.9063905516,LearningTask,1,83,
-200,q,200,,,,,,,,,,,,,,,,,0,0,0,0,21,3,87,1,,,,,,,,,,,,,,,,,,,,,,,,,,,,,q,1,0.451698064804,None,0,4.0,lineorange.gif,go,,,,,,,,,,,,,,,,,,,,,,,,4.24,0.514163017273,0.000900030136108,0.451698064804,1,q,602.775554895,,,,,,,,,,,,,,,,,,,,,,,,,,,,,,,,,,2015_Jul_08_1003,59.9063905516,LearningTask,1,83,
200,w,200,,,,,,,,,,,,,,,,,0,0,0,0,22,0,88,0,,,,,,,,,,,,,,,,,,,,,,,,,,,,,w,1,0.450925827026,None,0,4.0,invertedtrianglegreen.gif,stop,,,,,,,,,,,,,,,,,,,,,,,,4.06,0.514090061188,0.000905990600586,0.450925827026,1,w,605.77895999,,,,,,,,,,,,,,,,,,,,,,,,,,,,,,,,,,2015_Jul_08_1003,59.9063905516,LearningTask,1,83,
-200,q,200,,,,,,,,,,,,,,,,,0,0,0,0,22,1,89,1,,,,,,,,,,,,,,,,,,,,,,,,,,,,,q,1,0.617780923843,None,0,4.0,invertedtrianglegreen.gif,stop,,,,,,,,,,,,,,,,,,,,,,,,4.05,0.513937950134,0.000958919525146,0.617780923843,1,q,608.781903982,,,,,,,,,,,,,,,,,,,,,,,,,,,,,,,,,,2015_Jul_08_1003,59.9063905516,LearningTask,1,83,
200,w,200,,,,,,,,,,,,,,,,,0,0,0,0,22,2,90,0,,,,,,,,,,,,,,,,,,,,,,,,,,,,,w,1,0.417456150055,None,0,0.5,crossmagenta.gif,go,,,,,,,,,,,,,,,,,,,,,,,,0.39,0.514668941498,0.000910043716431,0.417456150055,1,w,611.785624981,,,,,,,,,,,,,,,,,,,,,,,,,,,,,,,,,,2015_Jul_08_1003,59.9063905516,LearningTask,1,83,
-200,q,200,,,,,,,,,,,,,,,,,0,0,0,0,22,3,91,1,,,,,,,,,,,,,,,,,,,,,,,,,,,,,q,1,0.483840942383,None,0,1.0,circlecyan.gif,go,,,,,,,,,,,,,,,,,,,,,,,,0,0.514515161514,0.000944137573242,0.483840942383,1,q,614.788988829,,,,,,,,,,,,,,,,,,,,,,,,,,,,,,,,,,2015_Jul_08_1003,59.9063905516,LearningTask,1,83,
200,s,-200,,,,,,,,,,,,,,,,,0,0,0,0,23,0,92,2,,,,,,,,,,,,,,,,,,,,,,,,,,,,,s,1,0.45051407814,None,0,4.0,invertedtrianglegreen.gif,stop,,,,,,,,,,,,,,,,,,,,,,,,3.96,0.514538049698,0.00097918510437,0.45051407814,1,s,617.792234898,,,,,,,,,,,,,,,,,,,,,,,,,,,,,,,,,,2015_Jul_08_1003,59.9063905516,LearningTask,1,83,
200,w,200,,,,,,,,,,,,,,,,,0,0,0,0,23,1,93,0,,,,,,,,,,,,,,,,,,,,,,,,,,,,,w,1,0.434191942215,None,0,2.0,triangleyellow.gif,stop,,,,,,,,,,,,,,,,,,,,,,,,2.03,0.514271974564,0.000917911529541,0.434191942215,1,w,620.795624018,,,,,,,,,,,,,,,,,,,,,,,,,,,,,,,,,,2015_Jul_08_1003,59.9063905516,LearningTask,1,83,
200,w,200,,,,,,,,,,,,,,,,,0,0,0,0,23,2,94,0,,,,,,,,,,,,,,,,,,,,,,,,,,,,,w,1,0.400705099106,None,0,1.0,hexagonwhite.gif,stop,,,,,,,,,,,,,,,,,,,,,,,,0,0.514485120773,0.000900030136108,0.400705099106,1,w,623.799124002,,,,,,,,,,,,,,,,,,,,,,,,,,,,,,,,,,2015_Jul_08_1003,59.9063905516,LearningTask,1,83,
200,w,200,,,,,,,,,,,,,,,,,0,0,0,0,23,3,95,0,,,,,,,,,,,,,,,,,,,,,,,,,,,,,w,1,0.468079090118,None,0,2.0,squareblue.gif,go,,,,,,,,,,,,,,,,,,,,,,,,0,0.513854026794,0.000902891159058,0.468079090118,1,w,626.802759886,,,,,,,,,,,,,,,,,,,,,,,,,,,,,,,,,,2015_Jul_08_1003,59.9063905516,LearningTask,1,83,
200,s,-200,,,,,,,,,,,,,,,,,0,0,0,0,24,0,96,2,,,,,,,,,,,,,,,,,,,,,,,,,,,,,s,1,0.417535066605,None,0,1.0,hexagonwhite.gif,stop,,,,,,,,,,,,,,,,,,,,,,,,0.91,0.513897180557,0.000984191894531,0.417535066605,1,s,629.805881023,,,,,,,,,,,,,,,,,,,,,,,,,,,,,,,,,,2015_Jul_08_1003,59.9063905516,LearningTask,1,83,
-200,q,200,,,,,,,,,,,,,,,,,0,0,0,0,24,1,97,1,,,,,,,,,,,,,,,,,,,,,,,,,,,,,q,1,0.367321968079,None,0,0.5,crossmagenta.gif,go,,,,,,,,,,,,,,,,,,,,,,,,0.54,0.514217853546,0.00282692909241,0.367321968079,1,q,632.809093952,,,,,,,,,,,,,,,,,,,,,,,,,,,,,,,,,,2015_Jul_08_1003,59.9063905516,LearningTask,1,83,
200,w,200,,,,,,,,,,,,,,,,,0,0,0,0,24,2,98,0,,,,,,,,,,,,,,,,,,,,,,,,,,,,,w,1,0.467584133148,None,0,1.0,hexagonwhite.gif,stop,,,,,,,,,,,,,,,,,,,,,,,,0.91,0.514298915863,0.000899791717529,0.467584133148,1,w,635.812260866,,,,,,,,,,,,,,,,,,,,,,,,,,,,,,,,,,2015_Jul_08_1003,59.9063905516,LearningTask,1,83,
200,s,-200,,,,,,,,,,,,,,,,,0,0,0,0,24,3,99,2,,,,,,,,,,,,,,,,,,,,,,,,,,,,,s,1,0.417689800262,None,0,1.0,hexagonwhite.gif,stop,,,,,,,,,,,,,,,,,,,,,,,,0,0.514165878296,0.000977039337158,0.417689800262,1,s,638.815753937,,,,,,,,,,,,,,,,,,,,,,,,,,,,,,,,,,2015_Jul_08_1003,59.9063905516,LearningTask,1,83,
,,,,,,,,,,,,,,,,,,,0,0,0,0,,,,,,,,,,,,,,,,,,,,,,,,,,,,,,,,,,,,,,,,,,,,,,,,,,,,,,,,,,,,,,,,,,,,,,,,,,,,,,9,12.6019639969,,,,,,,,,,,,,,,,,,,,,,,,,2015_Jul_08_1003,59.9063905516,LearningTask,1,83,
200,w,200,,,,,,,,,,,,,,,,,1,0,1,0,0,0,0,0,,,,,,,,,,,,,,,,,,,,,,,,,,,,,w,1,0.451441049576,None,0,2.0,triangleyellow.gif,stop,,,,,,,,,,,,,,,,,,,,,,,,1.98,0.509996175766,0.000892162322998,0.451441049576,1,w,654.868405819,,,,,,,,,,,,,,,,,,,,,,,,,,,,,,,,,,2015_Jul_08_1003,59.9063905516,LearningTask,1,83,
200,s,-200,,,,,,,,,,,,,,,,,1,0,1,0,0,1,1,2,,,,,,,,,,,,,,,,,,,,,,,,,,,,,s,1,0.417787075043,None,0,0.5,crossmagenta.gif,go,,,,,,,,,,,,,,,,,,,,,,,,0.67,0.51287817955,0.000915050506592,0.417787075043,1,s,657.870576859,,,,,,,,,,,,,,,,,,,,,,,,,,,,,,,,,,2015_Jul_08_1003,59.9063905516,LearningTask,1,83,
-200,q,200,,,,,,,,,,,,,,,,,1,0,1,0,0,2,2,1,,,,,,,,,,,,,,,,,,,,,,,,,,,,,q,1,0.367481946945,None,0,1.0,hexagonwhite.gif,stop,,,,,,,,,,,,,,,,,,,,,,,,0.78,0.514461994171,0.000906944274902,0.367481946945,1,q,660.874061823,,,,,,,,,,,,,,,,,,,,,,,,,,,,,,,,,,2015_Jul_08_1003,59.9063905516,LearningTask,1,83,
200,s,-200,,,,,,,,,,,,,,,,,1,0,1,0,0,3,3,2,,,,,,,,,,,,,,,,,,,,,,,,,,,,,s,1,0.451491832733,None,0,4.0,invertedtrianglegreen.gif,stop,,,,,,,,,,,,,,,,,,,,,,,,3.75,0.514536857605,0.000900030136108,0.451491832733,1,s,663.87735486,,,,,,,,,,,,,,,,,,,,,,,,,,,,,,,,,,2015_Jul_08_1003,59.9063905516,LearningTask,1,83,
200,s,-200,,,,,,,,,,,,,,,,,1,0,1,0,1,0,4,2,,,,,,,,,,,,,,,,,,,,,,,,,,,,,s,1,0.384341001511,None,0,1.0,hexagonwhite.gif,stop,,,,,,,,,,,,,,,,,,,,,,,,0.88,0.514178991318,0.00090503692627,0.384341001511,1,s,666.880692959,,,,,,,,,,,,,,,,,,,,,,,,,,,,,,,,,,2015_Jul_08_1003,59.9063905516,LearningTask,1,83,
200,s,-200,,,,,,,,,,,,,,,,,1,0,1,0,1,1,5,2,,,,,,,,,,,,,,,,,,,,,,,,,,,,,s,1,0.417496919632,None,0,0.5,crossmagenta.gif,go,,,,,,,,,,,,,,,,,,,,,,,,0,0.514352083206,0.000975131988525,0.417496919632,1,s,669.884425879,,,,,,,,,,,,,,,,,,,,,,,,,,,,,,,,,,2015_Jul_08_1003,59.9063905516,LearningTask,1,83,
200,w,200,,,,,,,,,,,,,,,,,1,0,1,0,1,2,6,0,,,,,,,,,,,,,,,,,,,,,,,,,,,,,w,1,0.318112134933,None,0,2.0,triangleyellow.gif,stop,,,,,,,,,,,,,,,,,,,,,,,,2.16,0.513675928116,0.000916957855225,0.318112134933,1,w,672.887634993,,,,,,,,,,,,,,,,,,,,,,,,,,,,,,,,,,2015_Jul_08_1003,59.9063905516,LearningTask,1,83,
200,s,-200,,,,,,,,,,,,,,,,,1,0,1,0,1,3,7,2,,,,,,,,,,,,,,,,,,,,,,,,,,,,,s,1,0.433501958847,None,0,0.5,diamondgray.gif,stop,,,,,,,,,,,,,,,,,,,,,,,,0.41,0.514539957047,0.000894069671631,0.433501958847,1,s,675.890838861,,,,,,,,,,,,,,,,,,,,,,,,,,,,,,,,,,2015_Jul_08_1003,59.9063905516,LearningTask,1,83,
200,w,200,,,,,,,,,,,,,,,,,1,0,1,0,2,0,8,0,,,,,,,,,,,,,,,,,,,,,,,,,,,,,w,1,0.400249004364,None,0,2.0,triangleyellow.gif,stop,,,,,,,,,,,,,,,,,,,,,,,,0,0.514133930206,0.00111198425293,0.400249004364,1,w,678.894184828,,,,,,,,,,,,,,,,,,,,,,,,,,,,,,,,,,2015_Jul_08_1003,59.9063905516,LearningTask,1,83,
200,s,-200,,,,,,,,,,,,,,,,,1,0,1,0,2,1,9,2,,,,,,,,,,,,,,,,,,,,,,,,,,,,,s,1,0.35106086731,None,0,1.0,hexagonwhite.gif,stop,,,,,,,,,,,,,,,,,,,,,,,,0,0.514605045319,0.000907897949219,0.35106086731,1,s,681.897698879,,,,,,,,,,,,,,,,,,,,,,,,,,,,,,,,,,2015_Jul_08_1003,59.9063905516,LearningTask,1,83,
200,s,-200,,,,,,,,,,,,,,,,,1,0,1,0,2,2,10,2,,,,,,,,,,,,,,,,,,,,,,,,,,,,,s,1,0.43425989151,None,0,1.0,circlecyan.gif,go,,,,,,,,,,,,,,,,,,,,,,,,0,0.514127016068,0.000902891159058,0.43425989151,1,s,684.901379824,,,,,,,,,,,,,,,,,,,,,,,,,,,,,,,,,,2015_Jul_08_1003,59.9063905516,LearningTask,1,83,
-200,q,200,,,,,,,,,,,,,,,,,1,0,1,0,2,3,11,1,,,,,,,,,,,,,,,,,,,,,,,,,,,,,q,1,0.551558971405,None,0,4.0,lineorange.gif,go,,,,,,,,,,,,,,,,,,,,,,,,0,0.513365030289,0.000969171524048,0.551558971405,1,q,687.904901981,,,,,,,,,,,,,,,,,,,,,,,,,,,,,,,,,,2015_Jul_08_1003,59.9063905516,LearningTask,1,83,
200,w,200,,,,,,,,,,,,,,,,,1,0,1,0,3,0,12,0,,,,,,,,,,,,,,,,,,,,,,,,,,,,,w,1,0.517668008804,None,0,0.5,diamondgray.gif,stop,,,,,,,,,,,,,,,,,,,,,,,,0,0.5142121315,0.000914096832275,[],0,None,690.90793395,0.25,0.515397071838,0.000959873199463,0.517668008804,1,w,693.911831856,,,0.0253798961639,,,,,,,,,,,,,,,,,,,,,,,,2015_Jul_08_1003,59.9063905516,LearningTask,1,83,
-200,a,-200,,,,,,,,,,,,,,,,,1,0,1,0,3,1,13,3,,,,,,,,,,,,,,,,,,,,,,,,,,,,,a,1,0.584537029266,None,0,4.0,lineorange.gif,go,,,,,,,,,,,,,,,,,,,,,,,,4.19,0.513524770737,0.000906944274902,0.584537029266,1,a,696.914502859,,,,,,,,,,,,,,,,,,,,,,,,,,,,,,,,,,2015_Jul_08_1003,59.9063905516,LearningTask,1,83,
-200,q,200,,,,,,,,,,,,,,,,,1,0,1,0,3,2,14,1,,,,,,,,,,,,,,,,,,,,,,,,,,,,,q,1,0.417684078217,None,0,0.5,crossmagenta.gif,go,,,,,,,,,,,,,,,,,,,,,,,,0.44,0.514310836792,0.000901937484741,0.417684078217,1,q,699.918028831,,,,,,,,,,,,,,,,,,,,,,,,,,,,,,,,,,2015_Jul_08_1003,59.9063905516,LearningTask,1,83,
-200,q,200,,,,,,,,,,,,,,,,,1,0,1,0,3,3,15,1,,,,,,,,,,,,,,,,,,,,,,,,,,,,,q,1,0.418256998062,None,0,4.0,lineorange.gif,go,,,,,,,,,,,,,,,,,,,,,,,,3.88,0.513860940933,0.000902891159058,0.418256998062,1,q,702.921353817,,,,,,,,,,,,,,,,,,,,,,,,,,,,,,,,,,2015_Jul_08_1003,59.9063905516,LearningTask,1,83,
-200,a,-200,,,,,,,,,,,,,,,,,1,0,1,0,4,0,16,3,,,,,,,,,,,,,,,,,,,,,,,,,,,,,a,1,0.467669963837,None,0,1.0,circlecyan.gif,go,,,,,,,,,,,,,,,,,,,,,,,,1.23,0.514611959457,0.000898122787476,0.467669963837,1,a,705.924626827,,,,,,,,,,,,,,,,,,,,,,,,,,,,,,,,,,2015_Jul_08_1003,59.9063905516,LearningTask,1,83,
200,w,200,,,,,,,,,,,,,,,,,1,0,1,0,4,1,17,0,,,,,,,,,,,,,,,,,,,,,,,,,,,,,w,1,0.350844860077,None,0,1.0,circlecyan.gif,go,,,,,,,,,,,,,,,,,,,,,,,,0,0.514294147491,0.000929117202759,0.350844860077,1,w,708.927819967,,,,,,,,,,,,,,,,,,,,,,,,,,,,,,,,,,2015_Jul_08_1003,59.9063905516,LearningTask,1,83,
-200,a,-200,,,,,,,,,,,,,,,,,1,0,1,0,4,2,18,3,,,,,,,,,,,,,,,,,,,,,,,,,,,,,a,1,0.500907897949,None,0,0.5,crossmagenta.gif,go,,,,,,,,,,,,,,,,,,,,,,,,0,0.514581918716,0.000876903533936,0.500907897949,1,a,711.931489944,,,,,,,,,,,,,,,,,,,,,,,,,,,,,,,,,,2015_Jul_08_1003,59.9063905516,LearningTask,1,83,
200,w,200,,,,,,,,,,,,,,,,,1,0,1,0,4,3,19,0,,,,,,,,,,,,,,,,,,,,,,,,,,,,,w,1,0.4512591362,None,0,1.0,circlecyan.gif,go,,,,,,,,,,,,,,,,,,,,,,,,0,0.514292001724,0.000882148742676,0.4512591362,1,w,714.934916019,,,,,,,,,,,,,,,,,,,,,,,,,,,,,,,,,,2015_Jul_08_1003,59.9063905516,LearningTask,1,83,
200,s,-200,,,,,,,,,,,,,,,,,1,0,1,0,5,0,20,2,,,,,,,,,,,,,,,,,,,,,,,,,,,,,s,1,0.551054000854,None,0,0.5,diamondgray.gif,stop,,,,,,,,,,,,,,,,,,,,,,,,0.45,0.51410484314,0.000940799713135,0.551054000854,1,s,717.93827486,,,,,,,,,,,,,,,,,,,,,,,,,,,,,,,,,,2015_Jul_08_1003,59.9063905516,LearningTask,1,83,
-200,q,200,,,,,,,,,,,,,,,,,1,0,1,0,5,1,21,1,,,,,,,,,,,,,,,,,,,,,,,,,,,,,q,1,0.45055603981,None,0,0.5,crossmagenta.gif,go,,,,,,,,,,,,,,,,,,,,,,,,0.41,0.514490127563,0.000885009765625,0.45055603981,1,q,720.941730976,,,,,,,,,,,,,,,,,,,,,,,,,,,,,,,,,,2015_Jul_08_1003,59.9063905516,LearningTask,1,83,
-200,q,200,,,,,,,,,,,,,,,,,1,0,1,0,5,2,22,1,,,,,,,,,,,,,,,,,,,,,,,,,,,,,q,1,0.484133958817,None,0,0.5,diamondgray.gif,stop,,,,,,,,,,,,,,,,,,,,,,,,0.69,0.514213085175,0.000879049301147,0.484133958817,1,q,723.94472599,,,,,,,,,,,,,,,,,,,,,,,,,,,,,,,,,,2015_Jul_08_1003,59.9063905516,LearningTask,1,83,
200,w,200,,,,,,,,,,,,,,,,,1,0,1,0,5,3,23,0,,,,,,,,,,,,,,,,,,,,,,,,,,,,,w,1,0.417953968048,None,0,1.0,hexagonwhite.gif,stop,,,,,,,,,,,,,,,,,,,,,,,,0,0.514242887497,0.000933885574341,0.417953968048,1,w,726.948173046,,,,,,,,,,,,,,,,,,,,,,,,,,,,,,,,,,2015_Jul_08_1003,59.9063905516,LearningTask,1,83,
-200,a,-200,,,,,,,,,,,,,,,,,1,0,1,0,6,0,24,3,,,,,,,,,,,,,,,,,,,,,,,,,,,,,a,1,0.451232194901,None,0,0.5,diamondgray.gif,stop,,,,,,,,,,,,,,,,,,,,,,,,0.54,0.514298915863,0.000879049301147,0.451232194901,1,a,729.951865911,,,,,,,,,,,,,,,,,,,,,,,,,,,,,,,,,,2015_Jul_08_1003,59.9063905516,LearningTask,1,83,
200,w,200,,,,,,,,,,,,,,,,,1,0,1,0,6,1,25,0,,,,,,,,,,,,,,,,,,,,,,,,,,,,,w,1,0.384103059769,None,0,0.5,crossmagenta.gif,go,,,,,,,,,,,,,,,,,,,,,,,,0.48,0.514270067215,0.000876188278198,0.384103059769,1,w,732.95544982,,,,,,,,,,,,,,,,,,,,,,,,,,,,,,,,,,2015_Jul_08_1003,59.9063905516,LearningTask,1,83,
-200,a,-200,,,,,,,,,,,,,,,,,1,0,1,0,6,2,26,3,,,,,,,,,,,,,,,,,,,,,,,,,,,,,a,1,0.517305850983,None,0,2.0,triangleyellow.gif,stop,,,,,,,,,,,,,,,,,,,,,,,,2.24,0.513949871063,0.00119709968567,0.517305850983,1,a,735.958498001,,,,,,,,,,,,,,,,,,,,,,,,,,,,,,,,,,2015_Jul_08_1003,59.9063905516,LearningTask,1,83,
-200,a,-200,,,,,,,,,,,,,,,,,1,0,1,0,6,3,27,3,,,,,,,,,,,,,,,,,,,,,,,,,,,,,a,1,0.534203052521,None,0,2.0,triangleyellow.gif,stop,,,,,,,,,,,,,,,,,,,,,,,,2.12,0.51446390152,0.000874996185303,0.534203052521,1,a,738.961843967,,,,,,,,,,,,,,,,,,,,,,,,,,,,,,,,,,2015_Jul_08_1003,59.9063905516,LearningTask,1,83,
-200,a,-200,,,,,,,,,,,,,,,,,1,0,1,0,7,0,28,3,,,,,,,,,,,,,,,,,,,,,,,,,,,,,a,1,0.501502990723,None,0,2.0,triangleyellow.gif,stop,,,,,,,,,,,,,,,,,,,,,,,,2.25,0.514117002487,0.000898122787476,0.501502990723,1,a,741.965548038,,,,,,,,,,,,,,,,,,,,,,,,,,,,,,,,,,2015_Jul_08_1003,59.9063905516,LearningTask,1,83,
-200,a,-200,,,,,,,,,,,,,,,,,1,0,1,0,7,1,29,3,,,,,,,,,,,,,,,,,,,,,,,,,,,,,a,1,0.550857067108,None,0,1.0,hexagonwhite.gif,stop,,,,,,,,,,,,,,,,,,,,,,,,0,0.513648033142,0.000910043716431,0.550857067108,1,a,744.968533039,,,,,,,,,,,,,,,,,,,,,,,,,,,,,,,,,,2015_Jul_08_1003,59.9063905516,LearningTask,1,83,
200,s,-200,,,,,,,,,,,,,,,,,1,0,1,0,7,2,30,2,,,,,,,,,,,,,,,,,,,,,,,,,,,,,s,1,0.484541893005,None,0,2.0,triangleyellow.gif,stop,,,,,,,,,,,,,,,,,,,,,,,,2.13,0.514503002167,0.000877857208252,0.484541893005,1,s,747.971985817,,,,,,,,,,,,,,,,,,,,,,,,,,,,,,,,,,2015_Jul_08_1003,59.9063905516,LearningTask,1,83,
-200,a,-200,,,,,,,,,,,,,,,,,1,0,1,0,7,3,31,3,,,,,,,,,,,,,,,,,,,,,,,,,,,,,a,1,0.534352064133,None,0,0.5,crossmagenta.gif,go,,,,,,,,,,,,,,,,,,,,,,,,0.34,0.514235019684,0.000879049301147,0.534352064133,1,a,750.975528955,,,,,,,,,,,,,,,,,,,,,,,,,,,,,,,,,,2015_Jul_08_1003,59.9063905516,LearningTask,1,83,
200,w,200,,,,,,,,,,,,,,,,,1,0,1,0,8,0,32,0,,,,,,,,,,,,,,,,,,,,,,,,,,,,,w,1,0.41733789444,None,0,2.0,triangleyellow.gif,stop,,,,,,,,,,,,,,,,,,,,,,,,1.83,0.514110088348,0.000885009765625,0.41733789444,1,w,753.978615046,,,,,,,,,,,,,,,,,,,,,,,,,,,,,,,,,,2015_Jul_08_1003,59.9063905516,LearningTask,1,83,
-200,a,-200,,,,,,,,,,,,,,,,,1,0,1,0,8,1,33,3,,,,,,,,,,,,,,,,,,,,,,,,,,,,,a,1,0.500962018967,None,0,1.0,circlecyan.gif,go,,,,,,,,,,,,,,,,,,,,,,,,1.03,0.51433801651,0.00107097625732,0.500962018967,1,a,756.982549906,,,,,,,,,,,,,,,,,,,,,,,,,,,,,,,,,,2015_Jul_08_1003,59.9063905516,LearningTask,1,83,
-200,q,200,,,,,,,,,,,,,,,,,1,0,1,0,8,2,34,1,,,,,,,,,,,,,,,,,,,,,,,,,,,,,q,1,0.401388883591,None,0,0.5,diamondgray.gif,stop,,,,,,,,,,,,,,,,,,,,,,,,0.45,0.51374578476,0.000877857208252,0.401388883591,1,q,759.985451937,,,,,,,,,,,,,,,,,,,,,,,,,,,,,,,,,,2015_Jul_08_1003,59.9063905516,LearningTask,1,83,
200,s,-200,,,,,,,,,,,,,,,,,1,0,1,0,8,3,35,2,,,,,,,,,,,,,,,,,,,,,,,,,,,,,s,1,0.383795976639,None,0,1.0,hexagonwhite.gif,stop,,,,,,,,,,,,,,,,,,,,,,,,0,0.514378070831,0.000961065292358,0.383795976639,1,s,762.988713026,,,,,,,,,,,,,,,,,,,,,,,,,,,,,,,,,,2015_Jul_08_1003,59.9063905516,LearningTask,1,83,
-200,q,200,,,,,,,,,,,,,,,,,1,0,1,0,9,0,36,1,,,,,,,,,,,,,,,,,,,,,,,,,,,,,q,1,0.384521961212,None,0,2.0,triangleyellow.gif,stop,,,,,,,,,,,,,,,,,,,,,,,,1.84,0.514126062393,0.000937938690186,0.384521961212,1,q,765.9921,,,,,,,,,,,,,,,,,,,,,,,,,,,,,,,,,,2015_Jul_08_1003,59.9063905516,LearningTask,1,83,
200,w,200,,,,,,,,,,,,,,,,,1,0,1,0,9,1,37,0,,,,,,,,,,,,,,,,,,,,,,,,,,,,,w,1,0.400650024414,None,0,4.0,lineorange.gif,go,,,,,,,,,,,,,,,,,,,,,,,,3.81,0.514568805695,0.000876903533936,0.400650024414,1,w,768.99552393,,,,,,,,,,,,,,,,,,,,,,,,,,,,,,,,,,2015_Jul_08_1003,59.9063905516,LearningTask,1,83,
-200,q,200,,,,,,,,,,,,,,,,,1,0,1,0,9,2,38,1,,,,,,,,,,,,,,,,,,,,,,,,,,,,,q,1,0.433901071548,None,0,1.0,hexagonwhite.gif,stop,,,,,,,,,,,,,,,,,,,,,,,,1.07,0.514548063278,0.000883102416992,0.433901071548,1,q,771.998749018,,,,,,,,,,,,,,,,,,,,,,,,,,,,,,,,,,2015_Jul_08_1003,59.9063905516,LearningTask,1,83,
200,s,-200,,,,,,,,,,,,,,,,,1,0,1,0,9,3,39,2,,,,,,,,,,,,,,,,,,,,,,,,,,,,,s,1,0.550867080688,None,0,4.0,invertedtrianglegreen.gif,stop,,,,,,,,,,,,,,,,,,,,,,,,4.13,0.514802932739,0.000934839248657,0.550867080688,1,s,775.002059937,,,,,,,,,,,,,,,,,,,,,,,,,,,,,,,,,,2015_Jul_08_1003,59.9063905516,LearningTask,1,83,
-200,q,200,,,,,,,,,,,,,,,,,1,0,1,0,10,0,40,1,,,,,,,,,,,,,,,,,,,,,,,,,,,,,q,1,0.384072065353,None,0,4.0,invertedtrianglegreen.gif,stop,,,,,,,,,,,,,,,,,,,,,,,,4.2,0.51474905014,0.000883817672729,0.384072065353,1,q,778.005756855,,,,,,,,,,,,,,,,,,,,,,,,,,,,,,,,,,2015_Jul_08_1003,59.9063905516,LearningTask,1,83,
-200,a,-200,,,,,,,,,,,,,,,,,1,0,1,0,10,1,41,3,,,,,,,,,,,,,,,,,,,,,,,,,,,,,a,1,0.450864076614,None,0,4.0,invertedtrianglegreen.gif,stop,,,,,,,,,,,,,,,,,,,,,,,,3.82,0.514183998108,0.000895977020264,0.450864076614,1,a,781.00920105,,,,,,,,,,,,,,,,,,,,,,,,,,,,,,,,,,2015_Jul_08_1003,59.9063905516,LearningTask,1,83,
200,w,200,,,,,,,,,,,,,,,,,1,0,1,0,10,2,42,0,,,,,,,,,,,,,,,,,,,,,,,,,,,,,w,1,0.383950948715,None,0,0.5,diamondgray.gif,stop,,,,,,,,,,,,,,,,,,,,,,,,0.56,0.513851165771,0.000971078872681,0.383950948715,1,w,784.012424946,,,,,,,,,,,,,,,,,,,,,,,,,,,,,,,,,,2015_Jul_08_1003,59.9063905516,LearningTask,1,83,
-200,q,200,,,,,,,,,,,,,,,,,1,0,1,0,10,3,43,1,,,,,,,,,,,,,,,,,,,,,,,,,,,,,q,1,0.551624059677,None,0,4.0,invertedtrianglegreen.gif,stop,,,,,,,,,,,,,,,,,,,,,,,,3.76,0.513998031616,0.000880002975464,0.551624059677,1,q,787.015568972,,,,,,,,,,,,,,,,,,,,,,,,,,,,,,,,,,2015_Jul_08_1003,59.9063905516,LearningTask,1,83,
200,w,200,,,,,,,,,,,,,,,,,1,0,1,0,11,0,44,0,,,,,,,,,,,,,,,,,,,,,,,,,,,,,w,1,0.717456817627,None,0,4.0,lineorange.gif,go,,,,,,,,,,,,,,,,,,,,,,,,3.98,0.51472902298,0.000879049301147,0.717456817627,1,w,790.019753933,,,,,,,,,,,,,,,,,,,,,,,,,,,,,,,,,,2015_Jul_08_1003,59.9063905516,LearningTask,1,83,
200,s,-200,,,,,,,,,,,,,,,,,1,0,1,0,11,1,45,2,,,,,,,,,,,,,,,,,,,,,,,,,,,,,s,1,0.534604072571,None,0,4.0,lineorange.gif,go,,,,,,,,,,,,,,,,,,,,,,,,3.78,0.513458967209,0.000883102416992,0.534604072571,1,s,793.022560835,,,,,,,,,,,,,,,,,,,,,,,,,,,,,,,,,,2015_Jul_08_1003,59.9063905516,LearningTask,1,83,
-200,q,200,,,,,,,,,,,,,,,,,1,0,1,0,11,2,46,1,,,,,,,,,,,,,,,,,,,,,,,,,,,,,q,1,0.434682130814,None,0,0.5,crossmagenta.gif,go,,,,,,,,,,,,,,,,,,,,,,,,0.27,0.514379024506,0.000932931900024,0.434682130814,1,q,796.025720835,,,,,,,,,,,,,,,,,,,,,,,,,,,,,,,,,,2015_Jul_08_1003,59.9063905516,LearningTask,1,83,
200,w,200,,,,,,,,,,,,,,,,,1,0,1,0,11,3,47,0,,,,,,,,,,,,,,,,,,,,,,,,,,,,,w,1,0.400635004044,None,0,0.5,diamondgray.gif,stop,,,,,,,,,,,,,,,,,,,,,,,,0.7,0.514669179916,0.000888109207153,0.400635004044,1,w,799.029295921,,,,,,,,,,,,,,,,,,,,,,,,,,,,,,,,,,2015_Jul_08_1003,59.9063905516,LearningTask,1,83,
200,w,200,,,,,,,,,,,,,,,,,1,0,1,0,12,0,48,0,,,,,,,,,,,,,,,,,,,,,,,,,,,,,w,1,0.451446056366,None,0,0.5,crossmagenta.gif,go,,,,,,,,,,,,,,,,,,,,,,,,0.63,0.514307975769,0.000888109207153,0.451446056366,1,w,802.033264875,,,,,,,,,,,,,,,,,,,,,,,,,,,,,,,,,,2015_Jul_08_1003,59.9063905516,LearningTask,1,83,
-200,a,-200,,,,,,,,,,,,,,,,,1,0,1,0,12,1,49,3,,,,,,,,,,,,,,,,,,,,,,,,,,,,,a,1,0.718132972717,None,0,0.5,crossmagenta.gif,go,,,,,,,,,,,,,,,,,,,,,,,,0.29,0.513226985931,0.00102186203003,0.718132972717,1,a,805.036248922,,,,,,,,,,,,,,,,,,,,,,,,,,,,,,,,,,2015_Jul_08_1003,59.9063905516,LearningTask,1,83,
-200,q,200,,,,,,,,,,,,,,,,,1,0,1,0,12,2,50,1,,,,,,,,,,,,,,,,,,,,,,,,,,,,,q,1,0.484560012817,None,0,0.5,diamondgray.gif,stop,,,,,,,,,,,,,,,,,,,,,,,,0.46,0.513954162598,0.000930070877075,0.484560012817,1,q,808.039470911,,,,,,,,,,,,,,,,,,,,,,,,,,,,,,,,,,2015_Jul_08_1003,59.9063905516,LearningTask,1,83,
200,s,-200,,,,,,,,,,,,,,,,,1,0,1,0,12,3,51,2,,,,,,,,,,,,,,,,,,,,,,,,,,,,,s,1,0.434719800949,None,0,4.0,invertedtrianglegreen.gif,stop,,,,,,,,,,,,,,,,,,,,,,,,4.15,0.514400005341,0.000883817672729,0.434719800949,1,s,811.042724848,,,,,,,,,,,,,,,,,,,,,,,,,,,,,,,,,,2015_Jul_08_1003,59.9063905516,LearningTask,1,83,
200,w,200,,,,,,,,,,,,,,,,,1,0,1,0,13,0,52,0,,,,,,,,,,,,,,,,,,,,,,,,,,,,,w,1,0.367624998093,None,0,1.0,circlecyan.gif,go,,,,,,,,,,,,,,,,,,,,,,,,0.94,0.514214992523,0.0010039806366,0.367624998093,1,w,814.046113968,,,,,,,,,,,,,,,,,,,,,,,,,,,,,,,,,,2015_Jul_08_1003,59.9063905516,LearningTask,1,83,
200,w,200,,,,,,,,,,,,,,,,,1,0,1,0,13,1,53,0,,,,,,,,,,,,,,,,,,,,,,,,,,,,,w,1,0.401443004608,None,0,2.0,squareblue.gif,go,,,,,,,,,,,,,,,,,,,,,,,,2.08,0.514497041702,0.000874996185303,0.401443004608,1,w,817.050019026,,,,,,,,,,,,,,,,,,,,,,,,,,,,,,,,,,2015_Jul_08_1003,59.9063905516,LearningTask,1,83,
-200,a,-200,,,,,,,,,,,,,,,,,1,0,1,0,13,2,54,3,,,,,,,,,,,,,,,,,,,,,,,,,,,,,a,1,0.550939798355,None,0,1.0,hexagonwhite.gif,stop,,,,,,,,,,,,,,,,,,,,,,,,0.89,0.513784885406,0.000881910324097,0.550939798355,1,a,820.053133965,,,,,,,,,,,,,,,,,,,,,,,,,,,,,,,,,,2015_Jul_08_1003,59.9063905516,LearningTask,1,83,
200,s,-200,,,,,,,,,,,,,,,,,1,0,1,0,13,3,55,2,,,,,,,,,,,,,,,,,,,,,,,,,,,,,s,1,0.400546073914,None,0,0.5,crossmagenta.gif,go,,,,,,,,,,,,,,,,,,,,,,,,0.33,0.514198064804,0.000943183898926,0.400546073914,1,s,823.05644393,,,,,,,,,,,,,,,,,,,,,,,,,,,,,,,,,,2015_Jul_08_1003,59.9063905516,LearningTask,1,83,
200,s,-200,,,,,,,,,,,,,,,,,1,0,1,0,14,0,56,2,,,,,,,,,,,,,,,,,,,,,,,,,,,,,s,1,0.484397888184,None,0,4.0,lineorange.gif,go,,,,,,,,,,,,,,,,,,,,,,,,0,0.513995170593,0.000907182693481,0.484397888184,1,s,826.059643984,,,,,,,,,,,,,,,,,,,,,,,,,,,,,,,,,,2015_Jul_08_1003,59.9063905516,LearningTask,1,83,
-200,a,-200,,,,,,,,,,,,,,,,,1,0,1,0,14,1,57,3,,,,,,,,,,,,,,,,,,,,,,,,,,,,,a,1,0.551095962524,None,0,4.0,lineorange.gif,go,,,,,,,,,,,,,,,,,,,,,,,,4.15,0.514231920242,0.00117492675781,0.551095962524,1,a,829.063606024,,,,,,,,,,,,,,,,,,,,,,,,,,,,,,,,,,2015_Jul_08_1003,59.9063905516,LearningTask,1,83,
200,w,200,,,,,,,,,,,,,,,,,1,0,1,0,14,2,58,0,,,,,,,,,,,,,,,,,,,,,,,,,,,,,w,1,0.517663002014,None,0,1.0,circlecyan.gif,go,,,,,,,,,,,,,,,,,,,,,,,,0,0.513401031494,0.000937938690186,0.517663002014,1,w,832.066395044,,,,,,,,,,,,,,,,,,,,,,,,,,,,,,,,,,2015_Jul_08_1003,59.9063905516,LearningTask,1,83,
200,w,200,,,,,,,,,,,,,,,,,1,0,1,0,14,3,59,0,,,,,,,,,,,,,,,,,,,,,,,,,,,,,w,1,0.483889818192,None,0,0.5,diamondgray.gif,stop,,,,,,,,,,,,,,,,,,,,,,,,0.48,0.514678001404,0.00090217590332,0.483889818192,1,w,835.069806814,,,,,,,,,,,,,,,,,,,,,,,,,,,,,,,,,,2015_Jul_08_1003,59.9063905516,LearningTask,1,83,
200,w,200,,,,,,,,,,,,,,,,,1,0,1,0,15,0,60,0,,,,,,,,,,,,,,,,,,,,,,,,,,,,,w,1,0.485006093979,None,0,1.0,circlecyan.gif,go,,,,,,,,,,,,,,,,,,,,,,,,1.16,0.514071941376,0.000890970230103,0.485006093979,1,w,838.073559046,,,,,,,,,,,,,,,,,,,,,,,,,,,,,,,,,,2015_Jul_08_1003,59.9063905516,LearningTask,1,83,
-200,q,200,,,,,,,,,,,,,,,,,1,0,1,0,15,1,61,1,,,,,,,,,,,,,,,,,,,,,,,,,,,,,q,1,0.41725897789,None,0,0.5,diamondgray.gif,stop,,,,,,,,,,,,,,,,,,,,,,,,0.56,0.514271020889,0.000875949859619,0.41725897789,1,q,841.076586962,,,,,,,,,,,,,,,,,,,,,,,,,,,,,,,,,,2015_Jul_08_1003,59.9063905516,LearningTask,1,83,
200,s,-200,,,,,,,,,,,,,,,,,1,0,1,0,15,2,62,2,,,,,,,,,,,,,,,,,,,,,,,,,,,,,s,1,0.367123126984,None,0,2.0,triangleyellow.gif,stop,,,,,,,,,,,,,,,,,,,,,,,,1.77,0.514372110367,0.00098705291748,0.367123126984,1,s,844.079990864,,,,,,,,,,,,,,,,,,,,,,,,,,,,,,,,,,2015_Jul_08_1003,59.9063905516,LearningTask,1,83,
-200,q,200,,,,,,,,,,,,,,,,,1,0,1,0,15,3,63,1,,,,,,,,,,,,,,,,,,,,,,,,,,,,,q,1,0.517884016037,None,0,0.5,crossmagenta.gif,go,,,,,,,,,,,,,,,,,,,,,,,,0.34,0.514112949371,0.000874996185303,0.517884016037,1,q,847.083498001,,,,,,,,,,,,,,,,,,,,,,,,,,,,,,,,,,2015_Jul_08_1003,59.9063905516,LearningTask,1,83,
-200,a,-200,,,,,,,,,,,,,,,,,1,0,1,0,16,0,64,3,,,,,,,,,,,,,,,,,,,,,,,,,,,,,a,1,0.467292070389,None,0,4.0,lineorange.gif,go,,,,,,,,,,,,,,,,,,,,,,,,4.24,0.514219045639,0.000885009765625,0.467292070389,1,a,850.086606979,,,,,,,,,,,,,,,,,,,,,,,,,,,,,,,,,,2015_Jul_08_1003,59.9063905516,LearningTask,1,83,
200,s,-200,,,,,,,,,,,,,,,,,1,0,1,0,16,1,65,2,,,,,,,,,,,,,,,,,,,,,,,,,,,,,s,1,0.484107017517,None,0,4.0,lineorange.gif,go,,,,,,,,,,,,,,,,,,,,,,,,4.05,0.514456033707,0.000947952270508,0.484107017517,1,s,853.089970827,,,,,,,,,,,,,,,,,,,,,,,,,,,,,,,,,,2015_Jul_08_1003,59.9063905516,LearningTask,1,83,
-200,q,200,,,,,,,,,,,,,,,,,1,0,1,0,16,2,66,1,,,,,,,,,,,,,,,,,,,,,,,,,,,,,q,1,0.368390083313,None,0,1.0,circlecyan.gif,go,,,,,,,,,,,,,,,,,,,,,,,,0.81,0.514235019684,0.000894069671631,0.368390083313,1,q,856.093539,,,,,,,,,,,,,,,,,,,,,,,,,,,,,,,,,,2015_Jul_08_1003,59.9063905516,LearningTask,1,83,
200,s,-200,,,,,,,,,,,,,,,,,1,0,1,0,16,3,67,2,,,,,,,,,,,,,,,,,,,,,,,,,,,,,s,1,0.45077419281,None,0,4.0,invertedtrianglegreen.gif,stop,,,,,,,,,,,,,,,,,,,,,,,,4.04,0.514408826828,0.000881910324097,0.45077419281,1,s,859.096542835,,,,,,,,,,,,,,,,,,,,,,,,,,,,,,,,,,2015_Jul_08_1003,59.9063905516,LearningTask,1,83,
200,s,-200,,,,,,,,,,,,,,,,,1,0,1,0,17,0,68,2,,,,,,,,,,,,,,,,,,,,,,,,,,,,,s,1,0.501129865646,None,0,2.0,triangleyellow.gif,stop,,,,,,,,,,,,,,,,,,,,,,,,1.82,0.514245986938,0.000922918319702,0.501129865646,1,s,862.099979877,,,,,,,,,,,,,,,,,,,,,,,,,,,,,,,,,,2015_Jul_08_1003,59.9063905516,LearningTask,1,83,
200,s,-200,,,,,,,,,,,,,,,,,1,0,1,0,17,1,69,2,,,,,,,,,,,,,,,,,,,,,,,,,,,,,s,1,0.484084129333,None,0,1.0,circlecyan.gif,go,,,,,,,,,,,,,,,,,,,,,,,,0,0.514773130417,0.00090503692627,0.484084129333,1,s,865.103574991,,,,,,,,,,,,,,,,,,,,,,,,,,,,,,,,,,2015_Jul_08_1003,59.9063905516,LearningTask,1,83,
-200,q,200,,,,,,,,,,,,,,,,,1,0,1,0,17,2,70,1,,,,,,,,,,,,,,,,,,,,,,,,,,,,,q,1,0.433874130249,None,0,4.0,invertedtrianglegreen.gif,stop,,,,,,,,,,,,,,,,,,,,,,,,4.04,0.514503955841,0.000882863998413,0.433874130249,1,q,868.107511044,,,,,,,,,,,,,,,,,,,,,,,,,,,,,,,,,,2015_Jul_08_1003,59.9063905516,LearningTask,1,83,
-200,a,-200,,,,,,,,,,,,,,,,,1,0,1,0,17,3,71,3,,,,,,,,,,,,,,,,,,,,,,,,,,,,,a,1,0.534127950668,None,0,4.0,invertedtrianglegreen.gif,stop,,,,,,,,,,,,,,,,,,,,,,,,3.87,0.513752937317,0.00088095664978,0.534127950668,1,a,871.110365868,,,,,,,,,,,,,,,,,,,,,,,,,,,,,,,,,,2015_Jul_08_1003,59.9063905516,LearningTask,1,83,
200,w,200,,,,,,,,,,,,,,,,,1,0,1,0,18,0,72,0,,,,,,,,,,,,,,,,,,,,,,,,,,,,,w,1,0.517754793167,None,0,4.0,lineorange.gif,go,,,,,,,,,,,,,,,,,,,,,,,,3.79,0.514308929443,0.000875949859619,0.517754793167,1,w,874.113488913,,,,,,,,,,,,,,,,,,,,,,,,,,,,,,,,,,2015_Jul_08_1003,59.9063905516,LearningTask,1,83,
200,w,200,,,,,,,,,,,,,,,,,1,0,1,0,18,1,73,0,,,,,,,,,,,,,,,,,,,,,,,,,,,,,w,1,0.53462100029,None,0,0.5,crossmagenta.gif,go,,,,,,,,,,,,,,,,,,,,,,,,0.66,0.514357089996,0.000884056091309,0.53462100029,1,w,877.117233992,,,,,,,,,,,,,,,,,,,,,,,,,,,,,,,,,,2015_Jul_08_1003,59.9063905516,LearningTask,1,83,
-200,a,-200,,,,,,,,,,,,,,,,,1,0,1,0,18,2,74,3,,,,,,,,,,,,,,,,,,,,,,,,,,,,,a,1,0.551625967026,None,0,2.0,triangleyellow.gif,stop,,,,,,,,,,,,,,,,,,,,,,,,2.0,0.513514995575,0.000903129577637,0.551625967026,1,a,880.120492935,,,,,,,,,,,,,,,,,,,,,,,,,,,,,,,,,,2015_Jul_08_1003,59.9063905516,LearningTask,1,83,
-200,q,200,,,,,,,,,,,,,,,,,1,0,1,0,18,3,75,1,,,,,,,,,,,,,,,,,,,,,,,,,,,,,q,1,0.501178979874,None,0,1.0,hexagonwhite.gif,stop,,,,,,,,,,,,,,,,,,,,,,,,0,0.514290094376,0.000884056091309,0.501178979874,1,q,883.123729944,,,,,,,,,,,,,,,,,,,,,,,,,,,,,,,,,,2015_Jul_08_1003,59.9063905516,LearningTask,1,83,
-200,q,200,,,,,,,,,,,,,,,,,1,0,1,0,19,0,76,1,,,,,,,,,,,,,,,,,,,,,,,,,,,,,q,1,0.450871944427,None,0,0.5,crossmagenta.gif,go,,,,,,,,,,,,,,,,,,,,,,,,0.31,0.514621973038,0.000888109207153,0.450871944427,1,q,886.127462864,,,,,,,,,,,,,,,,,,,,,,,,,,,,,,,,,,2015_Jul_08_1003,59.9063905516,LearningTask,1,83,
200,w,200,,,,,,,,,,,,,,,,,1,0,1,0,19,1,77,0,,,,,,,,,,,,,,,,,,,,,,,,,,,,,w,1,0.451200962067,None,0,0.5,diamondgray.gif,stop,,,,,,,,,,,,,,,,,,,,,,,,0.39,0.514133930206,0.00088095664978,0.451200962067,1,w,889.130324841,,,,,,,,,,,,,,,,,,,,,,,,,,,,,,,,,,2015_Jul_08_1003,59.9063905516,LearningTask,1,83,
-200,a,-200,,,,,,,,,,,,,,,,,1,0,1,0,19,2,78,3,,,,,,,,,,,,,,,,,,,,,,,,,,,,,a,1,0.517581939697,None,0,2.0,squareblue.gif,go,,,,,,,,,,,,,,,,,,,,,,,,2.19,0.512385845184,0.000921964645386,0.517581939697,1,a,892.134254932,,,,,,,,,,,,,,,,,,,,,,,,,,,,,,,,,,2015_Jul_08_1003,59.9063905516,LearningTask,1,83,
-200,q,200,,,,,,,,,,,,,,,,,1,0,1,0,19,3,79,1,,,,,,,,,,,,,,,,,,,,,,,,,,,,,q,1,0.484315872192,None,0,4.0,lineorange.gif,go,,,,,,,,,,,,,,,,,,,,,,,,4.25,0.513989925385,0.000869989395142,0.484315872192,1,q,895.137370825,,,,,,,,,,,,,,,,,,,,,,,,,,,,,,,,,,2015_Jul_08_1003,59.9063905516,LearningTask,1,83,
-200,a,-200,,,,,,,,,,,,,,,,,1,0,1,0,20,0,80,3,,,,,,,,,,,,,,,,,,,,,,,,,,,,,a,1,0.484204053879,None,0,0.5,crossmagenta.gif,go,,,,,,,,,,,,,,,,,,,,,,,,0.56,0.514378070831,0.000900983810425,0.484204053879,1,a,898.140450954,,,,,,,,,,,,,,,,,,,,,,,,,,,,,,,,,,2015_Jul_08_1003,59.9063905516,LearningTask,1,83,
200,w,200,,,,,,,,,,,,,,,,,1,0,1,0,20,1,81,0,,,,,,,,,,,,,,,,,,,,,,,,,,,,,w,1,0.417752981186,None,0,4.0,invertedtrianglegreen.gif,stop,,,,,,,,,,,,,,,,,,,,,,,,3.78,0.514204978943,0.00108194351196,0.417752981186,1,w,901.144037962,,,,,,,,,,,,,,,,,,,,,,,,,,,,,,,,,,2015_Jul_08_1003,59.9063905516,LearningTask,1,83,
-200,a,-200,,,,,,,,,,,,,,,,,1,0,1,0,20,2,82,3,,,,,,,,,,,,,,,,,,,,,,,,,,,,,a,1,0.717843055725,None,0,1.0,hexagonwhite.gif,stop,,,,,,,,,,,,,,,,,,,,,,,,0.79,0.514400005341,0.000886917114258,0.717843055725,1,a,904.147601843,,,,,,,,,,,,,,,,,,,,,,,,,,,,,,,,,,2015_Jul_08_1003,59.9063905516,LearningTask,1,83,
-200,q,200,,,,,,,,,,,,,,,,,1,0,1,0,20,3,83,1,,,,,,,,,,,,,,,,,,,,,,,,,,,,,q,1,0.450755119324,None,0,1.0,hexagonwhite.gif,stop,,,,,,,,,,,,,,,,,,,,,,,,0,0.514175891876,0.000879049301147,0.450755119324,1,q,907.150599003,,,,,,,,,,,,,,,,,,,,,,,,,,,,,,,,,,2015_Jul_08_1003,59.9063905516,LearningTask,1,83,
-200,a,-200,,,,,,,,,,,,,,,,,1,0,1,0,21,0,84,3,,,,,,,,,,,,,,,,,,,,,,,,,,,,,a,1,0.56729388237,None,0,0.5,crossmagenta.gif,go,,,,,,,,,,,,,,,,,,,,,,,,0.31,0.514513015747,0.000946044921875,0.56729388237,1,a,910.154593945,,,,,,,,,,,,,,,,,,,,,,,,,,,,,,,,,,2015_Jul_08_1003,59.9063905516,LearningTask,1,83,
-200,a,-200,,,,,,,,,,,,,,,,,1,0,1,0,21,1,85,3,,,,,,,,,,,,,,,,,,,,,,,,,,,,,a,1,0.434001207352,None,0,4.0,invertedtrianglegreen.gif,stop,,,,,,,,,,,,,,,,,,,,,,,,4.04,0.513875961304,0.00116801261902,0.434001207352,1,a,913.157579899,,,,,,,,,,,,,,,,,,,,,,,,,,,,,,,,,,2015_Jul_08_1003,59.9063905516,LearningTask,1,83,
200,w,200,,,,,,,,,,,,,,,,,1,0,1,0,21,2,86,0,,,,,,,,,,,,,,,,,,,,,,,,,,,,,w,1,0.601092100143,None,0,1.0,circlecyan.gif,go,,,,,,,,,,,,,,,,,,,,,,,,0.86,0.514206886292,0.000883102416992,0.601092100143,1,w,916.161314011,,,,,,,,,,,,,,,,,,,,,,,,,,,,,,,,,,2015_Jul_08_1003,59.9063905516,LearningTask,1,83,
-200,q,200,,,,,,,,,,,,,,,,,1,0,1,0,21,3,87,1,,,,,,,,,,,,,,,,,,,,,,,,,,,,,q,1,0.551867008209,w,0,1.0,circlecyan.gif,go,,,,,,,,,,,,,,,,,,,,,,,,0.86,0.513798952103,0.000913858413696,0.551867008209,1,q,919.164321899,,,,,,,,,,0.842138051987,,,,,,,,,,,,,,,,,,,,,,,,2015_Jul_08_1003,59.9063905516,LearningTask,1,83,
200,s,-200,,,,,,,,,,,,,,,,,1,0,1,0,22,0,88,2,,,,,,,,,,,,,,,,,,,,,,,,,,,,,s,1,0.53378200531,None,0,1.0,circlecyan.gif,go,,,,,,,,,,,,,,,,,,,,,,,,0.95,0.514598846436,0.000962018966675,0.53378200531,1,s,922.1679039,,,,,,,,,,,,,,,,,,,,,,,,,,,,,,,,,,2015_Jul_08_1003,59.9063905516,LearningTask,1,83,
-200,q,200,,,,,,,,,,,,,,,,,1,0,1,0,22,1,89,1,,,,,,,,,,,,,,,,,,,,,,,,,,,,,q,1,0.467107057571,None,0,2.0,squareblue.gif,go,,,,,,,,,,,,,,,,,,,,,,,,2.11,0.514440059662,0.000876188278198,0.467107057571,1,q,925.171267986,,,,,,,,,,,,,,,,,,,,,,,,,,,,,,,,,,2015_Jul_08_1003,59.9063905516,LearningTask,1,83,
200,w,200,,,,,,,,,,,,,,,,,1,0,1,0,22,2,90,0,,,,,,,,,,,,,,,,,,,,,,,,,,,,,w,1,0.401463985443,None,0,2.0,squareblue.gif,go,,,,,,,,,,,,,,,,,,,,,,,,2.06,0.513768911362,0.000874042510986,0.401463985443,1,w,928.174480915,,,,,,,,,,,,,,,,,,,,,,,,,,,,,,,,,,2015_Jul_08_1003,59.9063905516,LearningTask,1,83,
-200,a,-200,,,,,,,,,,,,,,,,,1,0,1,0,22,3,91,3,,,,,,,,,,,,,,,,,,,,,,,,,,,,,a,1,0.417532920837,None,0,4.0,invertedtrianglegreen.gif,stop,,,,,,,,,,,,,,,,,,,,,,,,3.97,0.514433145523,0.000895023345947,0.417532920837,1,a,931.17772603,,,,,,,,,,,,,,,,,,,,,,,,,,,,,,,,,,2015_Jul_08_1003,59.9063905516,LearningTask,1,83,
200,s,-200,,,,,,,,,,,,,,,,,1,0,1,0,23,0,92,2,,,,,,,,,,,,,,,,,,,,,,,,,,,,,s,1,0.38449716568,None,0,1.0,circlecyan.gif,go,,,,,,,,,,,,,,,,,,,,,,,,0.77,0.514339923859,0.000920057296753,0.38449716568,1,s,934.181490898,,,,,,,,,,,,,,,,,,,,,,,,,,,,,,,,,,2015_Jul_08_1003,59.9063905516,LearningTask,1,83,
200,s,-200,,,,,,,,,,,,,,,,,1,0,1,0,23,1,93,2,,,,,,,,,,,,,,,,,,,,,,,,,,,,,s,1,0.484091997147,None,0,4.0,invertedtrianglegreen.gif,stop,,,,,,,,,,,,,,,,,,,,,,,,0,0.51426410675,0.000890016555786,0.484091997147,1,s,937.184674978,,,,,,,,,,,,,,,,,,,,,,,,,,,,,,,,,,2015_Jul_08_1003,59.9063905516,LearningTask,1,83,
200,s,-200,,,,,,,,,,,,,,,,,1,0,1,0,23,2,94,2,,,,,,,,,,,,,,,,,,,,,,,,,,,,,s,1,0.617238044739,None,0,2.0,triangleyellow.gif,stop,,,,,,,,,,,,,,,,,,,,,,,,2.0,0.514311075211,0.000939130783081,0.617238044739,1,s,940.187829971,,,,,,,,,,,,,,,,,,,,,,,,,,,,,,,,,,2015_Jul_08_1003,59.9063905516,LearningTask,1,83,
-200,a,-200,,,,,,,,,,,,,,,,,1,0,1,0,23,3,95,3,,,,,,,,,,,,,,,,,,,,,,,,,,,,,a,1,0.78414607048,None,0,4.0,lineorange.gif,go,,,,,,,,,,,,,,,,,,,,,,,,4.1,0.514744997025,0.000986099243164,0.78414607048,1,a,943.191395044,,,,,,,,,,,,,,,,,,,,,,,,,,,,,,,,,,2015_Jul_08_1003,59.9063905516,LearningTask,1,83,
-200,a,-200,,,,,,,,,,,,,,,,,1,0,1,0,24,0,96,3,,,,,,,,,,,,,,,,,,,,,,,,,,,,,a,1,0.46769785881,None,0,4.0,invertedtrianglegreen.gif,stop,,,,,,,,,,,,,,,,,,,,,,,,4.24,0.514480113983,0.000887155532837,0.46769785881,1,a,946.194645882,,,,,,,,,,,,,,,,,,,,,,,,,,,,,,,,,,2015_Jul_08_1003,59.9063905516,LearningTask,1,83,
-200,q,200,,,,,,,,,,,,,,,,,1,0,1,0,24,1,97,1,,,,,,,,,,,,,,,,,,,,,,,,,,,,,q,1,0.467945098877,None,0,1.0,circlecyan.gif,go,,,,,,,,,,,,,,,,,,,,,,,,1.07,0.513894081116,0.00099515914917,0.467945098877,1,q,949.197886944,,,,,,,,,,,,,,,,,,,,,,,,,,,,,,,,,,2015_Jul_08_1003,59.9063905516,LearningTask,1,83,
-200,q,200,,,,,,,,,,,,,,,,,1,0,1,0,24,2,98,1,,,,,,,,,,,,,,,,,,,,,,,,,,,,,q,1,0.467558860779,None,0,2.0,squareblue.gif,go,,,,,,,,,,,,,,,,,,,,,,,,2.17,0.514577865601,0.000895023345947,0.467558860779,1,q,952.201367855,,,,,,,,,,,,,,,,,,,,,,,,,,,,,,,,,,2015_Jul_08_1003,59.9063905516,LearningTask,1,83,
200,s,-200,,,,,,,,,,,,,,,,,1,0,1,0,24,3,99,2,,,,,,,,,,,,,,,,,,,,,,,,,,,,,s,1,0.434340953827,None,0,2.0,squareblue.gif,go,,,,,,,,,,,,,,,,,,,,,,,,2.06,0.514497995377,0.00088095664978,0.434340953827,1,s,955.204985857,,,,,,,,,,,,,,,,,,,,,,,,,,,,,,,,,,2015_Jul_08_1003,59.9063905516,LearningTask,1,83,
,,,,,,,,,,,,,,,,,,,1,0,1,0,,,,,,,,,,,,,,,,,,,,,,,,,,,,,,,,,,,,,,,,,,,,,,,,,,,,,,,,,,,,,,,,,,,,,,,,,,,,,,9,39.1331579685,,,,,,,,,,,,,,,,,,,,,,,,,2015_Jul_08_1003,59.9063905516,LearningTask,1,83,
-200,a,-200,,,,,,,,,,,,,,,,,2,0,2,0,0,0,0,3,,,,,,,,,,,,,,,,,,,,,,,,,,,,,a,1,0.617491960526,None,0,0.5,diamondgray.gif,stop,,,,,,,,,,,,,,,,,,,,,,,,0.52,0.509737968445,0.000909090042114,0.617491960526,1,a,998.036702871,,,,,,,,,,,,,,,,,,,,,,,,,,,,,,,,,,2015_Jul_08_1003,59.9063905516,LearningTask,1,83,
-200,q,200,,,,,,,,,,,,,,,,,2,0,2,0,0,1,1,1,,,,,,,,,,,,,,,,,,,,,,,,,,,,,q,1,0.417803049088,None,0,0.5,crossmagenta.gif,go,,,,,,,,,,,,,,,,,,,,,,,,0,0.513673067093,0.000879049301147,0.417803049088,1,q,1001.03969288,,,,,,,,,,,,,,,,,,,,,,,,,,,,,,,,,,2015_Jul_08_1003,59.9063905516,LearningTask,1,83,
-200,q,200,,,,,,,,,,,,,,,,,2,0,2,0,0,2,2,1,,,,,,,,,,,,,,,,,,,,,,,,,,,,,q,1,0.467680931091,None,0,0.5,crossmagenta.gif,go,,,,,,,,,,,,,,,,,,,,,,,,0,0.514477968216,0.000877857208252,0.467680931091,1,q,1004.04375005,,,,,,,,,,,,,,,,,,,,,,,,,,,,,,,,,,2015_Jul_08_1003,59.9063905516,LearningTask,1,83,
-200,a,-200,,,,,,,,,,,,,,,,,2,0,2,0,0,3,3,3,,,,,,,,,,,,,,,,,,,,,,,,,,,,,a,1,0.38419008255,None,0,4.0,lineorange.gif,go,,,,,,,,,,,,,,,,,,,,,,,,4.07,0.513273000717,0.00102210044861,0.38419008255,1,a,1007.04654598,,,,,,,,,,,,,,,,,,,,,,,,,,,,,,,,,,2015_Jul_08_1003,59.9063905516,LearningTask,1,83,
-200,a,-200,,,,,,,,,,,,,,,,,2,0,2,0,1,0,4,3,,,,,,,,,,,,,,,,,,,,,,,,,,,,,a,1,0.467834949493,None,0,2.0,squareblue.gif,go,,,,,,,,,,,,,,,,,,,,,,,,0,0.514079093933,0.000876903533936,0.467834949493,1,a,1010.0497179,,,,,,,,,,,,,,,,,,,,,,,,,,,,,,,,,,2015_Jul_08_1003,59.9063905516,LearningTask,1,83,
200,w,200,,,,,,,,,,,,,,,,,2,0,2,0,1,1,5,0,,,,,,,,,,,,,,,,,,,,,,,,,,,,,w,1,0.534821987152,None,0,4.0,invertedtrianglegreen.gif,stop,,,,,,,,,,,,,,,,,,,,,,,,4.19,0.514290094376,0.000882863998413,0.534821987152,1,w,1013.05341101,,,,,,,,,,,,,,,,,,,,,,,,,,,,,,,,,,2015_Jul_08_1003,59.9063905516,LearningTask,1,83,
-200,a,-200,,,,,,,,,,,,,,,,,2,0,2,0,1,2,6,3,,,,,,,,,,,,,,,,,,,,,,,,,,,,,a,1,0.517766952515,None,0,0.5,diamondgray.gif,stop,,,,,,,,,,,,,,,,,,,,,,,,0.74,0.5137758255,0.000883817672729,0.517766952515,1,a,1016.05646205,,,,,,,,,,,,,,,,,,,,,,,,,,,,,,,,,,2015_Jul_08_1003,59.9063905516,LearningTask,1,83,
200,w,200,,,,,,,,,,,,,,,,,2,0,2,0,1,3,7,0,,,,,,,,,,,,,,,,,,,,,,,,,,,,,w,1,0.634574174881,None,0,4.0,invertedtrianglegreen.gif,stop,,,,,,,,,,,,,,,,,,,,,,,,4.08,0.514577865601,0.000931024551392,0.634574174881,1,w,1019.05993199,,,,,,,,,,,,,,,,,,,,,,,,,,,,,,,,,,2015_Jul_08_1003,59.9063905516,LearningTask,1,83,
200,s,-200,,,,,,,,,,,,,,,,,2,0,2,0,2,0,8,2,,,,,,,,,,,,,,,,,,,,,,,,,,,,,s,1,0.451369047165,None,0,1.0,hexagonwhite.gif,stop,,,,,,,,,,,,,,,,,,,,,,,,0.79,0.514218091965,0.00093412399292,0.451369047165,1,s,1022.06348205,,,,,,,,,,,,,,,,,,,,,,,,,,,,,,,,,,2015_Jul_08_1003,59.9063905516,LearningTask,1,83,
200,w,200,,,,,,,,,,,,,,,,,2,0,2,0,2,1,9,0,,,,,,,,,,,,,,,,,,,,,,,,,,,,,w,1,0.534348964691,None,0,4.0,invertedtrianglegreen.gif,stop,,,,,,,,,,,,,,,,,,,,,,,,3.97,0.514275074005,0.000883102416992,0.534348964691,1,w,1025.06669784,,,,,,,,,,,,,,,,,,,,,,,,,,,,,,,,,,2015_Jul_08_1003,59.9063905516,LearningTask,1,83,
200,w,200,,,,,,,,,,,,,,,,,2,0,2,0,2,2,10,0,,,,,,,,,,,,,,,,,,,,,,,,,,,,,w,1,0.433885097504,None,0,2.0,squareblue.gif,go,,,,,,,,,,,,,,,,,,,,,,,,2.17,0.514450073242,0.00127601623535,0.433885097504,1,w,1028.07012296,,,,,,,,,,,,,,,,,,,,,,,,,,,,,,,,,,2015_Jul_08_1003,59.9063905516,LearningTask,1,83,
200,s,-200,,,,,,,,,,,,,,,,,2,0,2,0,2,3,11,2,,,,,,,,,,,,,,,,,,,,,,,,,,,,,s,1,0.384597063065,None,0,0.5,crossmagenta.gif,go,,,,,,,,,,,,,,,,,,,,,,,,0.75,0.51390004158,0.00088095664978,0.384597063065,1,s,1031.07372403,,,,,,,,,,,,,,,,,,,,,,,,,,,,,,,,,,2015_Jul_08_1003,59.9063905516,LearningTask,1,83,
200,s,-200,,,,,,,,,,,,,,,,,2,0,2,0,3,0,12,2,,,,,,,,,,,,,,,,,,,,,,,,,,,,,s,1,0.400391101837,None,0,4.0,lineorange.gif,go,,,,,,,,,,,,,,,,,,,,,,,,4.2,0.513993024826,0.000878095626831,0.400391101837,1,s,1034.07690096,,,,,,,,,,,,,,,,,,,,,,,,,,,,,,,,,,2015_Jul_08_1003,59.9063905516,LearningTask,1,83,
-200,a,-200,,,,,,,,,,,,,,,,,2,0,2,0,3,1,13,3,,,,,,,,,,,,,,,,,,,,,,,,,,,,,a,1,0.43434214592,None,0,2.0,triangleyellow.gif,stop,,,,,,,,,,,,,,,,,,,,,,,,0,0.514018058777,0.000909090042114,0.43434214592,1,a,1037.08017802,,,,,,,,,,,,,,,,,,,,,,,,,,,,,,,,,,2015_Jul_08_1003,59.9063905516,LearningTask,1,83,
200,s,-200,,,,,,,,,,,,,,,,,2,0,2,0,3,2,14,2,,,,,,,,,,,,,,,,,,,,,,,,,,,,,s,1,0.467420101166,None,0,2.0,squareblue.gif,go,,,,,,,,,,,,,,,,,,,,,,,,2.14,0.514380931854,0.00087308883667,0.467420101166,1,s,1040.08340287,,,,,,,,,,,,,,,,,,,,,,,,,,,,,,,,,,2015_Jul_08_1003,59.9063905516,LearningTask,1,83,
200,w,200,,,,,,,,,,,,,,,,,2,0,2,0,3,3,15,0,,,,,,,,,,,,,,,,,,,,,,,,,,,,,w,1,0.384002923965,None,0,4.0,lineorange.gif,go,,,,,,,,,,,,,,,,,,,,,,,,4.0,0.5146920681,0.00173497200012,0.384002923965,1,w,1043.08670592,,,,,,,,,,,,,,,,,,,,,,,,,,,,,,,,,,2015_Jul_08_1003,59.9063905516,LearningTask,1,83,
200,w,200,,,,,,,,,,,,,,,,,2,0,2,0,4,0,16,0,,,,,,,,,,,,,,,,,,,,,,,,,,,,,w,1,0.468020200729,None,0,0.5,crossmagenta.gif,go,,,,,,,,,,,,,,,,,,,,,,,,0,0.514206886292,0.00092601776123,0.468020200729,1,w,1046.09045887,,,,,,,,,,,,,,,,,,,,,,,,,,,,,,,,,,2015_Jul_08_1003,59.9063905516,LearningTask,1,83,
200,w,200,,,,,,,,,,,,,,,,,2,0,2,0,4,1,17,0,,,,,,,,,,,,,,,,,,,,,,,,,,,,,w,1,0.434267997742,None,0,0.5,crossmagenta.gif,go,,,,,,,,,,,,,,,,,,,,,,,,0.55,0.514265060425,0.000879049301147,0.434267997742,1,w,1049.09360385,,,,,,,,,,,,,,,,,,,,,,,,,,,,,,,,,,2015_Jul_08_1003,59.9063905516,LearningTask,1,83,
-200,q,200,,,,,,,,,,,,,,,,,2,0,2,0,4,2,18,1,,,,,,,,,,,,,,,,,,,,,,,,,,,,,q,1,0.467331886292,None,0,1.0,circlecyan.gif,go,,,,,,,,,,,,,,,,,,,,,,,,0.76,0.514804840088,0.000875949859619,0.467331886292,1,q,1052.09773803,,,,,,,,,,,,,,,,,,,,,,,,,,,,,,,,,,2015_Jul_08_1003,59.9063905516,LearningTask,1,83,
200,s,-200,,,,,,,,,,,,,,,,,2,0,2,0,4,3,19,2,,,,,,,,,,,,,,,,,,,,,,,,,,,,,s,1,0.450897932053,None,0,4.0,lineorange.gif,go,,,,,,,,,,,,,,,,,,,,,,,,4.09,0.513716936111,0.000887870788574,0.450897932053,1,s,1055.10067797,,,,,,,,,,,,,,,,,,,,,,,,,,,,,,,,,,2015_Jul_08_1003,59.9063905516,LearningTask,1,83,
200,s,-200,,,,,,,,,,,,,,,,,2,0,2,0,5,0,20,2,,,,,,,,,,,,,,,,,,,,,,,,,,,,,s,1,0.435149908066,None,0,0.5,diamondgray.gif,stop,,,,,,,,,,,,,,,,,,,,,,,,0.74,0.513864994049,0.000977039337158,0.435149908066,1,s,1058.10399199,,,,,,,,,,,,,,,,,,,,,,,,,,,,,,,,,,2015_Jul_08_1003,59.9063905516,LearningTask,1,83,
-200,q,200,,,,,,,,,,,,,,,,,2,0,2,0,5,1,21,1,,,,,,,,,,,,,,,,,,,,,,,,,,,,,q,1,0.501093864441,None,0,1.0,hexagonwhite.gif,stop,,,,,,,,,,,,,,,,,,,,,,,,0.94,0.513957023621,0.00110793113708,0.501093864441,1,q,1061.10758781,,,,,,,,,,,,,,,,,,,,,,,,,,,,,,,,,,2015_Jul_08_1003,59.9063905516,LearningTask,1,83,
200,s,-200,,,,,,,,,,,,,,,,,2,0,2,0,5,2,22,2,,,,,,,,,,,,,,,,,,,,,,,,,,,,,s,1,0.401108026505,None,0,2.0,triangleyellow.gif,stop,,,,,,,,,,,,,,,,,,,,,,,,1.87,0.513831138611,0.000874042510986,0.401108026505,1,s,1064.11091805,,,,,,,,,,,,,,,,,,,,,,,,,,,,,,,,,,2015_Jul_08_1003,59.9063905516,LearningTask,1,83,
-200,q,200,,,,,,,,,,,,,,,,,2,0,2,0,5,3,23,1,,,,,,,,,,,,,,,,,,,,,,,,,,,,,q,1,0.484590053558,None,0,0.5,diamondgray.gif,stop,,,,,,,,,,,,,,,,,,,,,,,,0,0.51398897171,0.00119686126709,0.484590053558,1,q,1067.11432004,,,,,,,,,,,,,,,,,,,,,,,,,,,,,,,,,,2015_Jul_08_1003,59.9063905516,LearningTask,1,83,
200,w,200,,,,,,,,,,,,,,,,,2,0,2,0,6,0,24,0,,,,,,,,,,,,,,,,,,,,,,,,,,,,,w,1,0.500803947449,None,0,0.5,crossmagenta.gif,go,,,,,,,,,,,,,,,,,,,,,,,,0.43,0.513921022415,0.000897884368896,0.500803947449,1,w,1070.11735702,,,,,,,,,,,,,,,,,,,,,,,,,,,,,,,,,,2015_Jul_08_1003,59.9063905516,LearningTask,1,83,
-200,a,-200,,,,,,,,,,,,,,,,,2,0,2,0,6,1,25,3,,,,,,,,,,,,,,,,,,,,,,,,,,,,,a,1,0.484546899796,None,0,4.0,lineorange.gif,go,,,,,,,,,,,,,,,,,,,,,,,,3.94,0.514352083206,0.000936985015869,0.484546899796,1,a,1073.1207149,,,,,,,,,,,,,,,,,,,,,,,,,,,,,,,,,,2015_Jul_08_1003,59.9063905516,LearningTask,1,83,
200,w,200,,,,,,,,,,,,,,,,,2,0,2,0,6,2,26,0,,,,,,,,,,,,,,,,,,,,,,,,,,,,,w,1,0.417622089386,None,0,2.0,triangleyellow.gif,stop,,,,,,,,,,,,,,,,,,,,,,,,2.05,0.51406788826,0.00105094909668,0.417622089386,1,w,1076.12455297,,,,,,,,,,,,,,,,,,,,,,,,,,,,,,,,,,2015_Jul_08_1003,59.9063905516,LearningTask,1,83,
200,s,-200,,,,,,,,,,,,,,,,,2,0,2,0,6,3,27,2,,,,,,,,,,,,,,,,,,,,,,,,,,,,,s,1,0.450885057449,None,0,0.5,crossmagenta.gif,go,,,,,,,,,,,,,,,,,,,,,,,,0,0.513881921768,0.000936985015869,0.450885057449,1,s,1079.12749004,,,,,,,,,,,,,,,,,,,,,,,,,,,,,,,,,,2015_Jul_08_1003,59.9063905516,LearningTask,1,83,
200,s,-200,,,,,,,,,,,,,,,,,2,0,2,0,7,0,28,2,,,,,,,,,,,,,,,,,,,,,,,,,,,,,s,1,0.400781869888,None,0,2.0,triangleyellow.gif,stop,,,,,,,,,,,,,,,,,,,,,,,,1.85,0.514168024063,0.00092887878418,0.400781869888,1,s,1082.13121295,,,,,,,,,,,,,,,,,,,,,,,,,,,,,,,,,,2015_Jul_08_1003,59.9063905516,LearningTask,1,83,
200,s,-200,,,,,,,,,,,,,,,,,2,0,2,0,7,1,29,2,,,,,,,,,,,,,,,,,,,,,,,,,,,,,s,1,0.484613180161,None,0,2.0,squareblue.gif,go,,,,,,,,,,,,,,,,,,,,,,,,1.76,0.51326084137,0.000888824462891,0.484613180161,1,s,1085.13438797,,,,,,,,,,,,,,,,,,,,,,,,,,,,,,,,,,2015_Jul_08_1003,59.9063905516,LearningTask,1,83,
200,s,-200,,,,,,,,,,,,,,,,,2,0,2,0,7,2,30,2,,,,,,,,,,,,,,,,,,,,,,,,,,,,,s,1,0.417797088623,None,0,0.5,diamondgray.gif,stop,,,,,,,,,,,,,,,,,,,,,,,,0.56,0.513987064362,0.00091290473938,0.417797088623,1,s,1088.13746786,,,,,,,,,,,,,,,,,,,,,,,,,,,,,,,,,,2015_Jul_08_1003,59.9063905516,LearningTask,1,83,
-200,q,200,,,,,,,,,,,,,,,,,2,0,2,0,7,3,31,1,,,,,,,,,,,,,,,,,,,,,,,,,,,,,q,1,0.46798992157,None,0,0.5,crossmagenta.gif,go,,,,,,,,,,,,,,,,,,,,,,,,0.65,0.514287233353,0.000884056091309,0.46798992157,1,q,1091.14153004,,,,,,,,,,,,,,,,,,,,,,,,,,,,,,,,,,2015_Jul_08_1003,59.9063905516,LearningTask,1,83,
200,s,-200,,,,,,,,,,,,,,,,,2,0,2,0,8,0,32,2,,,,,,,,,,,,,,,,,,,,,,,,,,,,,s,1,0.534462928772,None,0,1.0,hexagonwhite.gif,stop,,,,,,,,,,,,,,,,,,,,,,,,1.0,0.513554096222,0.000914096832275,0.534462928772,1,s,1094.14455199,,,,,,,,,,,,,,,,,,,,,,,,,,,,,,,,,,2015_Jul_08_1003,59.9063905516,LearningTask,1,83,
200,w,200,,,,,,,,,,,,,,,,,2,0,2,0,8,1,33,0,,,,,,,,,,,,,,,,,,,,,,,,,,,,,w,1,0.433770895004,None,0,2.0,triangleyellow.gif,stop,,,,,,,,,,,,,,,,,,,,,,,,1.75,0.514456987381,0.000884056091309,0.433770895004,1,w,1097.14763284,,,,,,,,,,,,,,,,,,,,,,,,,,,,,,,,,,2015_Jul_08_1003,59.9063905516,LearningTask,1,83,
-200,q,200,,,,,,,,,,,,,,,,,2,0,2,0,8,2,34,1,,,,,,,,,,,,,,,,,,,,,,,,,,,,,q,1,0.46731710434,None,0,1.0,hexagonwhite.gif,stop,,,,,,,,,,,,,,,,,,,,,,,,1.01,0.51456785202,0.00106191635132,0.46731710434,1,q,1100.15135384,,,,,,,,,,,,,,,,,,,,,,,,,,,,,,,,,,2015_Jul_08_1003,59.9063905516,LearningTask,1,83,
200,w,200,,,,,,,,,,,,,,,,,2,0,2,0,8,3,35,0,,,,,,,,,,,,,,,,,,,,,,,,,,,,,w,1,0.400813102722,None,0,1.0,hexagonwhite.gif,stop,,,,,,,,,,,,,,,,,,,,,,,,1.12,0.514097929001,0.000967979431152,0.400813102722,1,w,1103.154634,,,,,,,,,,,,,,,,,,,,,,,,,,,,,,,,,,2015_Jul_08_1003,59.9063905516,LearningTask,1,83,
-200,a,-200,,,,,,,,,,,,,,,,,2,0,2,0,9,0,36,3,,,,,,,,,,,,,,,,,,,,,,,,,,,,,a,1,0.66799902916,None,0,2.0,squareblue.gif,go,,,,,,,,,,,,,,,,,,,,,,,,1.96,0.513897895813,0.000907897949219,0.66799902916,1,a,1106.157727,,,,,,,,,,,,,,,,,,,,,,,,,,,,,,,,,,2015_Jul_08_1003,59.9063905516,LearningTask,1,83,
-200,a,-200,,,,,,,,,,,,,,,,,2,0,2,0,9,1,37,3,,,,,,,,,,,,,,,,,,,,,,,,,,,,,a,1,0.484698057175,None,0,0.5,diamondgray.gif,stop,,,,,,,,,,,,,,,,,,,,,,,,0,0.514459133148,0.00112104415894,0.484698057175,1,a,1109.16137695,,,,,,,,,,,,,,,,,,,,,,,,,,,,,,,,,,2015_Jul_08_1003,59.9063905516,LearningTask,1,83,
200,s,-200,,,,,,,,,,,,,,,,,2,0,2,0,9,2,38,2,,,,,,,,,,,,,,,,,,,,,,,,,,,,,s,1,0.483905076981,None,0,4.0,lineorange.gif,go,,,,,,,,,,,,,,,,,,,,,,,,3.89,0.51438999176,0.000874042510986,0.483905076981,1,s,1112.16491795,,,,,,,,,,,,,,,,,,,,,,,,,,,,,,,,,,2015_Jul_08_1003,59.9063905516,LearningTask,1,83,
-200,q,200,,,,,,,,,,,,,,,,,2,0,2,0,9,3,39,1,,,,,,,,,,,,,,,,,,,,,,,,,,,,,q,1,0.401386976242,None,0,0.5,diamondgray.gif,stop,,,,,,,,,,,,,,,,,,,,,,,,0.35,0.513568162918,0.000939130783081,0.401386976242,1,q,1115.16835093,,,,,,,,,,,,,,,,,,,,,,,,,,,,,,,,,,2015_Jul_08_1003,59.9063905516,LearningTask,1,83,
200,s,-200,,,,,,,,,,,,,,,,,2,0,2,0,10,0,40,2,,,,,,,,,,,,,,,,,,,,,,,,,,,,,s,1,0.484405994415,None,0,2.0,triangleyellow.gif,stop,,,,,,,,,,,,,,,,,,,,,,,,2.21,0.513742923737,0.000879049301147,0.484405994415,1,s,1118.17132902,,,,,,,,,,,,,,,,,,,,,,,,,,,,,,,,,,2015_Jul_08_1003,59.9063905516,LearningTask,1,83,
-200,q,200,,,,,,,,,,,,,,,,,2,0,2,0,10,1,41,1,,,,,,,,,,,,,,,,,,,,,,,,,,,,,q,1,0.418546915054,None,0,2.0,triangleyellow.gif,stop,,,,,,,,,,,,,,,,,,,,,,,,1.8,0.514110088348,0.000878095626831,0.418546915054,1,q,1121.17474198,,,,,,,,,,,,,,,,,,,,,,,,,,,,,,,,,,2015_Jul_08_1003,59.9063905516,LearningTask,1,83,
-200,a,-200,,,,,,,,,,,,,,,,,2,0,2,0,10,2,42,3,,,,,,,,,,,,,,,,,,,,,,,,,,,,,a,1,0.468549013138,None,0,0.5,crossmagenta.gif,go,,,,,,,,,,,,,,,,,,,,,,,,0.51,0.513952970505,0.000944852828979,0.468549013138,1,a,1124.17789483,,,,,,,,,,,,,,,,,,,,,,,,,,,,,,,,,,2015_Jul_08_1003,59.9063905516,LearningTask,1,83,
200,s,-200,,,,,,,,,,,,,,,,,2,0,2,0,10,3,43,2,,,,,,,,,,,,,,,,,,,,,,,,,,,,,s,1,0.401076793671,None,0,2.0,triangleyellow.gif,stop,,,,,,,,,,,,,,,,,,,,,,,,2.16,0.514691829681,0.000886917114258,0.401076793671,1,s,1127.1818099,,,,,,,,,,,,,,,,,,,,,,,,,,,,,,,,,,2015_Jul_08_1003,59.9063905516,LearningTask,1,83,
-200,a,-200,,,,,,,,,,,,,,,,,2,0,2,0,11,0,44,3,,,,,,,,,,,,,,,,,,,,,,,,,,,,,a,1,0.41729092598,None,0,1.0,hexagonwhite.gif,stop,,,,,,,,,,,,,,,,,,,,,,,,1.17,0.514126062393,0.000880002975464,0.41729092598,1,a,1130.18497205,,,,,,,,,,,,,,,,,,,,,,,,,,,,,,,,,,2015_Jul_08_1003,59.9063905516,LearningTask,1,83,
-200,q,200,,,,,,,,,,,,,,,,,2,0,2,0,11,1,45,1,,,,,,,,,,,,,,,,,,,,,,,,,,,,,q,1,0.417450904846,None,0,0.5,crossmagenta.gif,go,,,,,,,,,,,,,,,,,,,,,,,,0.56,0.51397895813,0.000890970230103,0.417450904846,1,q,1133.18850493,,,,,,,,,,,,,,,,,,,,,,,,,,,,,,,,,,2015_Jul_08_1003,59.9063905516,LearningTask,1,83,
-200,a,-200,,,,,,,,,,,,,,,,,2,0,2,0,11,2,46,3,,,,,,,,,,,,,,,,,,,,,,,,,,,,,a,1,0.451545953751,None,0,0.5,diamondgray.gif,stop,,,,,,,,,,,,,,,,,,,,,,,,0.34,0.513781070709,0.00088095664978,0.451545953751,1,a,1136.19158387,,,,,,,,,,,,,,,,,,,,,,,,,,,,,,,,,,2015_Jul_08_1003,59.9063905516,LearningTask,1,83,
200,s,-200,,,,,,,,,,,,,,,,,2,0,2,0,11,3,47,2,,,,,,,,,,,,,,,,,,,,,,,,,,,,,s,1,0.434110164642,None,0,4.0,invertedtrianglegreen.gif,stop,,,,,,,,,,,,,,,,,,,,,,,,3.76,0.514292001724,0.000890016555786,0.434110164642,1,s,1139.1953609,,,,,,,,,,,,,,,,,,,,,,,,,,,,,,,,,,2015_Jul_08_1003,59.9063905516,LearningTask,1,83,
-200,a,-200,,,,,,,,,,,,,,,,,2,0,2,0,12,0,48,3,,,,,,,,,,,,,,,,,,,,,,,,,,,,,a,1,0.53410410881,None,0,0.5,crossmagenta.gif,go,,,,,,,,,,,,,,,,,,,,,,,,0.29,0.514180898666,0.000897884368896,0.53410410881,1,a,1142.19853497,,,,,,,,,,,,,,,,,,,,,,,,,,,,,,,,,,2015_Jul_08_1003,59.9063905516,LearningTask,1,83,
200,w,200,,,,,,,,,,,,,,,,,2,0,2,0,12,1,49,0,,,,,,,,,,,,,,,,,,,,,,,,,,,,,w,1,0.517874956131,None,0,0.5,diamondgray.gif,stop,,,,,,,,,,,,,,,,,,,,,,,,0.6,0.514271020889,0.000876903533936,0.517874956131,1,w,1145.20175791,,,,,,,,,,,,,,,,,,,,,,,,,,,,,,,,,,2015_Jul_08_1003,59.9063905516,LearningTask,1,83,
200,w,200,,,,,,,,,,,,,,,,,2,0,2,0,12,2,50,0,,,,,,,,,,,,,,,,,,,,,,,,,,,,,w,1,0.48367190361,None,0,2.0,squareblue.gif,go,,,,,,,,,,,,,,,,,,,,,,,,1.88,0.514686107635,0.000954151153564,0.48367190361,1,w,1148.20504904,,,,,,,,,,,,,,,,,,,,,,,,,,,,,,,,,,2015_Jul_08_1003,59.9063905516,LearningTask,1,83,
200,w,200,,,,,,,,,,,,,,,,,2,0,2,0,12,3,51,0,,,,,,,,,,,,,,,,,,,,,,,,,,,,,w,1,0.384817838669,None,0,2.0,triangleyellow.gif,stop,,,,,,,,,,,,,,,,,,,,,,,,0,0.514073133469,0.000879049301147,0.384817838669,1,w,1151.2085669,,,,,,,,,,,,,,,,,,,,,,,,,,,,,,,,,,2015_Jul_08_1003,59.9063905516,LearningTask,1,83,
200,w,200,,,,,,,,,,,,,,,,,2,0,2,0,13,0,52,0,,,,,,,,,,,,,,,,,,,,,,,,,,,,,w,1,0.451011180878,None,0,1.0,hexagonwhite.gif,stop,,,,,,,,,,,,,,,,,,,,,,,,0,0.514213085175,0.00100922584534,0.451011180878,1,w,1154.21167183,,,,,,,,,,,,,,,,,,,,,,,,,,,,,,,,,,2015_Jul_08_1003,59.9063905516,LearningTask,1,83,
200,s,-200,,,,,,,,,,,,,,,,,2,0,2,0,13,1,53,2,,,,,,,,,,,,,,,,,,,,,,,,,,,,,s,1,0.434405088425,None,0,4.0,invertedtrianglegreen.gif,stop,,,,,,,,,,,,,,,,,,,,,,,,3.95,0.51465511322,0.000924110412598,0.434405088425,1,s,1157.215307,,,,,,,,,,,,,,,,,,,,,,,,,,,,,,,,,,2015_Jul_08_1003,59.9063905516,LearningTask,1,83,
200,w,200,,,,,,,,,,,,,,,,,2,0,2,0,13,2,54,0,,,,,,,,,,,,,,,,,,,,,,,,,,,,,w,1,0.434240102768,None,0,2.0,squareblue.gif,go,,,,,,,,,,,,,,,,,,,,,,,,2.15,0.514203071594,0.000878095626831,0.434240102768,1,w,1160.21864986,,,,,,,,,,,,,,,,,,,,,,,,,,,,,,,,,,2015_Jul_08_1003,59.9063905516,LearningTask,1,83,
200,w,200,,,,,,,,,,,,,,,,,2,0,2,0,13,3,55,0,,,,,,,,,,,,,,,,,,,,,,,,,,,,,w,1,0.334644079208,None,0,0.5,diamondgray.gif,stop,,,,,,,,,,,,,,,,,,,,,,,,0.52,0.513827085495,0.000947952270508,0.334644079208,1,w,1163.22188997,,,,,,,,,,,,,,,,,,,,,,,,,,,,,,,,,,2015_Jul_08_1003,59.9063905516,LearningTask,1,83,
-200,q,200,,,,,,,,,,,,,,,,,2,0,2,0,14,0,56,1,,,,,,,,,,,,,,,,,,,,,,,,,,,,,q,1,0.4679210186,None,0,0.5,crossmagenta.gif,go,,,,,,,,,,,,,,,,,,,,,,,,0,0.513999938965,0.00088095664978,0.4679210186,1,q,1166.22539091,,,,,,,,,,,,,,,,,,,,,,,,,,,,,,,,,,2015_Jul_08_1003,59.9063905516,LearningTask,1,83,
-200,q,200,,,,,,,,,,,,,,,,,2,0,2,0,14,1,57,1,,,,,,,,,,,,,,,,,,,,,,,,,,,,,q,1,0.367566823959,None,0,4.0,lineorange.gif,go,,,,,,,,,,,,,,,,,,,,,,,,4.18,0.514492034912,0.00141191482544,0.367566823959,1,q,1169.22868085,,,,,,,,,,,,,,,,,,,,,,,,,,,,,,,,,,2015_Jul_08_1003,59.9063905516,LearningTask,1,83,
200,s,-200,,,,,,,,,,,,,,,,,2,0,2,0,14,2,58,2,,,,,,,,,,,,,,,,,,,,,,,,,,,,,s,1,0.451360225677,None,0,0.5,crossmagenta.gif,go,,,,,,,,,,,,,,,,,,,,,,,,0.67,0.513912916183,0.000914096832275,0.451360225677,1,s,1172.23219991,,,,,,,,,,,,,,,,,,,,,,,,,,,,,,,,,,2015_Jul_08_1003,59.9063905516,LearningTask,1,83,
-200,a,-200,,,,,,,,,,,,,,,,,2,0,2,0,14,3,59,3,,,,,,,,,,,,,,,,,,,,,,,,,,,,,a,1,0.401239156723,None,0,1.0,circlecyan.gif,go,,,,,,,,,,,,,,,,,,,,,,,,0.95,0.514288902283,0.000885963439941,0.401239156723,1,a,1175.23556185,,,,,,,,,,,,,,,,,,,,,,,,,,,,,,,,,,2015_Jul_08_1003,59.9063905516,LearningTask,1,83,
-200,q,200,,,,,,,,,,,,,,,,,2,0,2,0,15,0,60,1,,,,,,,,,,,,,,,,,,,,,,,,,,,,,q,1,0.551050901413,None,0,4.0,invertedtrianglegreen.gif,stop,,,,,,,,,,,,,,,,,,,,,,,,3.9,0.514404058456,0.000883102416992,0.551050901413,1,q,1178.23936582,,,,,,,,,,,,,,,,,,,,,,,,,,,,,,,,,,2015_Jul_08_1003,59.9063905516,LearningTask,1,83,
-200,q,200,,,,,,,,,,,,,,,,,2,0,2,0,15,1,61,1,,,,,,,,,,,,,,,,,,,,,,,,,,,,,q,1,0.451637983322,None,0,2.0,triangleyellow.gif,stop,,,,,,,,,,,,,,,,,,,,,,,,0,0.513797998428,0.000880002975464,0.451637983322,1,q,1181.24236083,,,,,,,,,,,,,,,,,,,,,,,,,,,,,,,,,,2015_Jul_08_1003,59.9063905516,LearningTask,1,83,
-200,a,-200,,,,,,,,,,,,,,,,,2,0,2,0,15,2,62,3,,,,,,,,,,,,,,,,,,,,,,,,,,,,,a,1,0.483638048172,None,0,4.0,lineorange.gif,go,,,,,,,,,,,,,,,,,,,,,,,,0,0.514508008957,0.000875949859619,0.483638048172,1,a,1184.24600196,,,,,,,,,,,,,,,,,,,,,,,,,,,,,,,,,,2015_Jul_08_1003,59.9063905516,LearningTask,1,83,
-200,q,200,,,,,,,,,,,,,,,,,2,0,2,0,15,3,63,1,,,,,,,,,,,,,,,,,,,,,,,,,,,,,q,1,0.483944177628,None,0,2.0,squareblue.gif,go,,,,,,,,,,,,,,,,,,,,,,,,1.83,0.514358043671,0.000938177108765,0.483944177628,1,q,1187.24936104,,,,,,,,,,,,,,,,,,,,,,,,,,,,,,,,,,2015_Jul_08_1003,59.9063905516,LearningTask,1,83,
-200,q,200,,,,,,,,,,,,,,,,,2,0,2,0,16,0,64,1,,,,,,,,,,,,,,,,,,,,,,,,,,,,,q,1,0.550863027573,None,0,4.0,lineorange.gif,go,,,,,,,,,,,,,,,,,,,,,,,,4.18,0.514100074768,0.000879049301147,0.550863027573,1,q,1190.2524569,,,,,,,,,,,,,,,,,,,,,,,,,,,,,,,,,,2015_Jul_08_1003,59.9063905516,LearningTask,1,83,
-200,q,200,,,,,,,,,,,,,,,,,2,0,2,0,16,1,65,1,,,,,,,,,,,,,,,,,,,,,,,,,,,,,q,1,0.417240142822,None,0,4.0,invertedtrianglegreen.gif,stop,,,,,,,,,,,,,,,,,,,,,,,,3.87,0.51454782486,0.000881910324097,0.417240142822,1,q,1193.25576687,,,,,,,,,,,,,,,,,,,,,,,,,,,,,,,,,,2015_Jul_08_1003,59.9063905516,LearningTask,1,83,
200,w,200,,,,,,,,,,,,,,,,,2,0,2,0,16,2,66,0,,,,,,,,,,,,,,,,,,,,,,,,,,,,,w,1,0.417953014374,None,0,0.5,diamondgray.gif,stop,,,,,,,,,,,,,,,,,,,,,,,,0.39,0.514195203781,0.00112318992615,0.417953014374,1,w,1196.25949383,,,,,,,,,,,,,,,,,,,,,,,,,,,,,,,,,,2015_Jul_08_1003,59.9063905516,LearningTask,1,83,
-200,q,200,,,,,,,,,,,,,,,,,2,0,2,0,16,3,67,1,,,,,,,,,,,,,,,,,,,,,,,,,,,,,q,1,0.451761007309,None,0,4.0,lineorange.gif,go,,,,,,,,,,,,,,,,,,,,,,,,3.9,0.513772964478,0.000937938690186,0.451761007309,1,q,1199.26276088,,,,,,,,,,,,,,,,,,,,,,,,,,,,,,,,,,2015_Jul_08_1003,59.9063905516,LearningTask,1,83,
-200,a,-200,,,,,,,,,,,,,,,,,2,0,2,0,17,0,68,3,,,,,,,,,,,,,,,,,,,,,,,,,,,,,a,1,0.451349020004,None,0,4.0,lineorange.gif,go,,,,,,,,,,,,,,,,,,,,,,,,0,0.513974905014,0.00113081932068,0.451349020004,1,a,1202.26615286,,,,,,,,,,,,,,,,,,,,,,,,,,,,,,,,,,2015_Jul_08_1003,59.9063905516,LearningTask,1,83,
-200,q,200,,,,,,,,,,,,,,,,,2,0,2,0,17,1,69,1,,,,,,,,,,,,,,,,,,,,,,,,,,,,,q,1,0.467193841934,None,0,1.0,circlecyan.gif,go,,,,,,,,,,,,,,,,,,,,,,,,0,0.514307975769,0.000892162322998,0.467193841934,1,q,1205.26929688,,,,,,,,,,,,,,,,,,,,,,,,,,,,,,,,,,2015_Jul_08_1003,59.9063905516,LearningTask,1,83,
-200,a,-200,,,,,,,,,,,,,,,,,2,0,2,0,17,2,70,3,,,,,,,,,,,,,,,,,,,,,,,,,,,,,a,1,0.450938940048,None,0,2.0,triangleyellow.gif,stop,,,,,,,,,,,,,,,,,,,,,,,,0,0.514289855957,0.000871896743774,0.450938940048,1,a,1208.27279496,,,,,,,,,,,,,,,,,,,,,,,,,,,,,,,,,,2015_Jul_08_1003,59.9063905516,LearningTask,1,83,
-200,a,-200,,,,,,,,,,,,,,,,,2,0,2,0,17,3,71,3,,,,,,,,,,,,,,,,,,,,,,,,,,,,,a,1,0.468218803406,None,0,2.0,squareblue.gif,go,,,,,,,,,,,,,,,,,,,,,,,,1.79,0.513898134232,0.000932931900024,0.468218803406,1,a,1211.27634597,,,,,,,,,,,,,,,,,,,,,,,,,,,,,,,,,,2015_Jul_08_1003,59.9063905516,LearningTask,1,83,
200,w,200,,,,,,,,,,,,,,,,,2,0,2,0,18,0,72,0,,,,,,,,,,,,,,,,,,,,,,,,,,,,,w,1,0.467321872711,None,0,1.0,circlecyan.gif,go,,,,,,,,,,,,,,,,,,,,,,,,0,0.514142036438,0.000881910324097,0.467321872711,1,w,1214.27946591,,,,,,,,,,,,,,,,,,,,,,,,,,,,,,,,,,2015_Jul_08_1003,59.9063905516,LearningTask,1,83,
200,w,200,,,,,,,,,,,,,,,,,2,0,2,0,18,1,73,0,,,,,,,,,,,,,,,,,,,,,,,,,,,,,w,1,0.501303911209,None,0,0.5,crossmagenta.gif,go,,,,,,,,,,,,,,,,,,,,,,,,0.59,0.514430046082,0.000875949859619,0.501303911209,1,w,1217.282619,,,,,,,,,,,,,,,,,,,,,,,,,,,,,,,,,,2015_Jul_08_1003,59.9063905516,LearningTask,1,83,
200,w,200,,,,,,,,,,,,,,,,,2,0,2,0,18,2,74,0,,,,,,,,,,,,,,,,,,,,,,,,,,,,,w,1,0.450638771057,None,0,4.0,lineorange.gif,go,,,,,,,,,,,,,,,,,,,,,,,,3.89,0.514415979385,0.000981092453003,0.450638771057,1,w,1220.28630686,,,,,,,,,,,,,,,,,,,,,,,,,,,,,,,,,,2015_Jul_08_1003,59.9063905516,LearningTask,1,83,
-200,a,-200,,,,,,,,,,,,,,,,,2,0,2,0,18,3,75,3,,,,,,,,,,,,,,,,,,,,,,,,,,,,,a,1,0.434110879898,None,0,0.5,diamondgray.gif,stop,,,,,,,,,,,,,,,,,,,,,,,,0.5,0.514266014099,0.000879049301147,0.434110879898,1,a,1223.28962803,,,,,,,,,,,,,,,,,,,,,,,,,,,,,,,,,,2015_Jul_08_1003,59.9063905516,LearningTask,1,83,
-200,a,-200,,,,,,,,,,,,,,,,,2,0,2,0,19,0,76,3,,,,,,,,,,,,,,,,,,,,,,,,,,,,,a,1,0.468008995056,None,0,1.0,hexagonwhite.gif,stop,,,,,,,,,,,,,,,,,,,,,,,,1.11,0.514027118683,0.000882148742676,0.468008995056,1,a,1226.29352689,,,,,,,,,,,,,,,,,,,,,,,,,,,,,,,,,,2015_Jul_08_1003,59.9063905516,LearningTask,1,83,
200,w,200,,,,,,,,,,,,,,,,,2,0,2,0,19,1,77,0,,,,,,,,,,,,,,,,,,,,,,,,,,,,,w,1,0.451558113098,None,0,4.0,invertedtrianglegreen.gif,stop,,,,,,,,,,,,,,,,,,,,,,,,3.98,0.513356924057,0.000880002975464,0.451558113098,1,w,1229.29654598,,,,,,,,,,,,,,,,,,,,,,,,,,,,,,,,,,2015_Jul_08_1003,59.9063905516,LearningTask,1,83,
200,s,-200,,,,,,,,,,,,,,,,,2,0,2,0,19,2,78,2,,,,,,,,,,,,,,,,,,,,,,,,,,,,,s,1,0.333643913269,None,0,1.0,circlecyan.gif,go,,,,,,,,,,,,,,,,,,,,,,,,1.02,0.514456987381,0.000880002975464,0.333643913269,1,s,1232.29982591,,,,,,,,,,,,,,,,,,,,,,,,,,,,,,,,,,2015_Jul_08_1003,59.9063905516,LearningTask,1,83,
-200,a,-200,,,,,,,,,,,,,,,,,2,0,2,0,19,3,79,3,,,,,,,,,,,,,,,,,,,,,,,,,,,,,a,1,0.551060914993,None,0,2.0,triangleyellow.gif,stop,,,,,,,,,,,,,,,,,,,,,,,,1.75,0.514396905899,0.000962972640991,0.551060914993,1,a,1235.30336785,,,,,,,,,,,,,,,,,,,,,,,,,,,,,,,,,,2015_Jul_08_1003,59.9063905516,LearningTask,1,83,
200,w,200,,,,,,,,,,,,,,,,,2,0,2,0,20,0,80,0,,,,,,,,,,,,,,,,,,,,,,,,,,,,,w,1,0.500841856003,None,0,2.0,squareblue.gif,go,,,,,,,,,,,,,,,,,,,,,,,,2.19,0.514162778854,0.000875949859619,0.500841856003,1,w,1238.30633497,,,,,,,,,,,,,,,,,,,,,,,,,,,,,,,,,,2015_Jul_08_1003,59.9063905516,LearningTask,1,83,
-200,q,200,,,,,,,,,,,,,,,,,2,0,2,0,20,1,81,1,,,,,,,,,,,,,,,,,,,,,,,,,,,,,q,1,0.401517152786,None,0,1.0,hexagonwhite.gif,stop,,,,,,,,,,,,,,,,,,,,,,,,1.15,0.514142036438,0.000953197479248,0.401517152786,1,q,1241.30968595,,,,,,,,,,,,,,,,,,,,,,,,,,,,,,,,,,2015_Jul_08_1003,59.9063905516,LearningTask,1,83,
-200,a,-200,,,,,,,,,,,,,,,,,2,0,2,0,20,2,82,3,,,,,,,,,,,,,,,,,,,,,,,,,,,,,a,1,0.417672157288,None,0,2.0,triangleyellow.gif,stop,,,,,,,,,,,,,,,,,,,,,,,,2.23,0.514492988586,0.00100994110107,0.417672157288,1,a,1244.31331992,,,,,,,,,,,,,,,,,,,,,,,,,,,,,,,,,,2015_Jul_08_1003,59.9063905516,LearningTask,1,83,
-200,a,-200,,,,,,,,,,,,,,,,,2,0,2,0,20,3,83,3,,,,,,,,,,,,,,,,,,,,,,,,,,,,,a,1,0.467725038528,None,0,2.0,triangleyellow.gif,stop,,,,,,,,,,,,,,,,,,,,,,,,0,0.514547109604,0.000883102416992,0.467725038528,1,a,1247.31680799,,,,,,,,,,,,,,,,,,,,,,,,,,,,,,,,,,2015_Jul_08_1003,59.9063905516,LearningTask,1,83,
200,s,-200,,,,,,,,,,,,,,,,,2,0,2,0,21,0,84,2,,,,,,,,,,,,,,,,,,,,,,,,,,,,,s,1,0.400835990906,None,0,4.0,invertedtrianglegreen.gif,stop,,,,,,,,,,,,,,,,,,,,,,,,4.15,0.513955831528,0.000946998596191,0.400835990906,1,s,1250.31992388,,,,,,,,,,,,,,,,,,,,,,,,,,,,,,,,,,2015_Jul_08_1003,59.9063905516,LearningTask,1,83,
-200,q,200,,,,,,,,,,,,,,,,,2,0,2,0,21,1,85,1,,,,,,,,,,,,,,,,,,,,,,,,,,,,,q,1,0.451195001602,None,0,4.0,lineorange.gif,go,,,,,,,,,,,,,,,,,,,,,,,,4.02,0.514011144638,0.00115704536438,0.451195001602,1,q,1253.32340884,,,,,,,,,,,,,,,,,,,,,,,,,,,,,,,,,,2015_Jul_08_1003,59.9063905516,LearningTask,1,83,
-200,q,200,,,,,,,,,,,,,,,,,2,0,2,0,21,2,86,1,,,,,,,,,,,,,,,,,,,,,,,,,,,,,q,1,0.417927026749,None,0,4.0,lineorange.gif,go,,,,,,,,,,,,,,,,,,,,,,,,0,0.513986825943,0.000877857208252,0.417927026749,1,q,1256.3266139,,,,,,,,,,,,,,,,,,,,,,,,,,,,,,,,,,2015_Jul_08_1003,59.9063905516,LearningTask,1,83,
200,w,200,,,,,,,,,,,,,,,,,2,0,2,0,21,3,87,0,,,,,,,,,,,,,,,,,,,,,,,,,,,,,w,1,0.433923006058,None,0,0.5,diamondgray.gif,stop,,,,,,,,,,,,,,,,,,,,,,,,0.33,0.514510154724,0.00093412399292,0.433923006058,1,w,1259.32999802,,,,,,,,,,,,,,,,,,,,,,,,,,,,,,,,,,2015_Jul_08_1003,59.9063905516,LearningTask,1,83,
200,s,-200,,,,,,,,,,,,,,,,,2,0,2,0,22,0,88,2,,,,,,,,,,,,,,,,,,,,,,,,,,,,,s,1,0.400980949402,None,0,2.0,triangleyellow.gif,stop,,,,,,,,,,,,,,,,,,,,,,,,1.81,0.514272928238,0.000880002975464,0.400980949402,1,s,1262.33405805,,,,,,,,,,,,,,,,,,,,,,,,,,,,,,,,,,2015_Jul_08_1003,59.9063905516,LearningTask,1,83,
200,w,200,,,,,,,,,,,,,,,,,2,0,2,0,22,1,89,0,,,,,,,,,,,,,,,,,,,,,,,,,,,,,w,1,0.467609882355,None,0,2.0,triangleyellow.gif,stop,,,,,,,,,,,,,,,,,,,,,,,,2.1,0.51385307312,0.00097393989563,0.467609882355,1,w,1265.33681798,,,,,,,,,,,,,,,,,,,,,,,,,,,,,,,,,,2015_Jul_08_1003,59.9063905516,LearningTask,1,83,
-200,q,200,,,,,,,,,,,,,,,,,2,0,2,0,22,2,90,1,,,,,,,,,,,,,,,,,,,,,,,,,,,,,q,1,0.451326847076,None,0,1.0,circlecyan.gif,go,,,,,,,,,,,,,,,,,,,,,,,,1.04,0.514101982117,0.000907897949219,0.451326847076,1,q,1268.34063387,,,,,,,,,,,,,,,,,,,,,,,,,,,,,,,,,,2015_Jul_08_1003,59.9063905516,LearningTask,1,83,
-200,a,-200,,,,,,,,,,,,,,,,,2,0,2,0,22,3,91,3,,,,,,,,,,,,,,,,,,,,,,,,,,,,,a,1,0.417915821075,None,0,1.0,hexagonwhite.gif,stop,,,,,,,,,,,,,,,,,,,,,,,,0,0.513570785522,0.000890970230103,0.417915821075,1,a,1271.3433249,,,,,,,,,,,,,,,,,,,,,,,,,,,,,,,,,,2015_Jul_08_1003,59.9063905516,LearningTask,1,83,
-200,q,200,,,,,,,,,,,,,,,,,2,0,2,0,23,0,92,1,,,,,,,,,,,,,,,,,,,,,,,,,,,,,q,1,0.384201049805,None,0,1.0,circlecyan.gif,go,,,,,,,,,,,,,,,,,,,,,,,,1.09,0.514503002167,0.000876903533936,0.384201049805,1,q,1274.34729981,,,,,,,,,,,,,,,,,,,,,,,,,,,,,,,,,,2015_Jul_08_1003,59.9063905516,LearningTask,1,83,
-200,a,-200,,,,,,,,,,,,,,,,,2,0,2,0,23,1,93,3,,,,,,,,,,,,,,,,,,,,,,,,,,,,,a,1,0.534132957458,None,0,1.0,circlecyan.gif,go,,,,,,,,,,,,,,,,,,,,,,,,1.08,0.513987064362,0.00090503692627,0.534132957458,1,a,1277.35035205,,,,,,,,,,,,,,,,,,,,,,,,,,,,,,,,,,2015_Jul_08_1003,59.9063905516,LearningTask,1,83,
-200,a,-200,,,,,,,,,,,,,,,,,2,0,2,0,23,2,94,3,,,,,,,,,,,,,,,,,,,,,,,,,,,,,a,1,0.400781869888,None,0,2.0,triangleyellow.gif,stop,,,,,,,,,,,,,,,,,,,,,,,,2.17,0.514304876328,0.000897884368896,0.400781869888,1,a,1280.35374904,,,,,,,,,,,,,,,,,,,,,,,,,,,,,,,,,,2015_Jul_08_1003,59.9063905516,LearningTask,1,83,
200,s,-200,,,,,,,,,,,,,,,,,2,0,2,0,23,3,95,2,,,,,,,,,,,,,,,,,,,,,,,,,,,,,s,1,0.467615127563,q,0,4.0,lineorange.gif,go,,,,,,,,,,,,,,,,,,,,,,,,4.18,0.514158964157,0.00110483169556,0.467615127563,1,s,1283.35752797,,,,,,,,,,0.857342004776,,,,,,,,,,,,,,,,,,,,,,,,2015_Jul_08_1003,59.9063905516,LearningTask,1,83,
200,s,-200,,,,,,,,,,,,,,,,,2,0,2,0,24,0,96,2,,,,,,,,,,,,,,,,,,,,,,,,,,,,,s,1,0.417778968811,None,0,1.0,circlecyan.gif,go,,,,,,,,,,,,,,,,,,,,,,,,1.09,0.513642072678,0.000878095626831,0.417778968811,1,s,1286.36043286,,,,,,,,,,,,,,,,,,,,,,,,,,,,,,,,,,2015_Jul_08_1003,59.9063905516,LearningTask,1,83,
-200,q,200,,,,,,,,,,,,,,,,,2,0,2,0,24,1,97,1,,,,,,,,,,,,,,,,,,,,,,,,,,,,,q,1,0.667946100235,None,0,4.0,lineorange.gif,go,,,,,,,,,,,,,,,,,,,,,,,,4.22,0.514288902283,0.000943899154663,0.667946100235,1,q,1289.36414695,,,,,,,,,,,,,,,,,,,,,,,,,,,,,,,,,,2015_Jul_08_1003,59.9063905516,LearningTask,1,83,
200,s,-200,,,,,,,,,,,,,,,,,2,0,2,0,24,2,98,2,,,,,,,,,,,,,,,,,,,,,,,,,,,,,s,1,0.433940887451,None,0,1.0,circlecyan.gif,go,,,,,,,,,,,,,,,,,,,,,,,,0.77,0.514116048813,0.000922918319702,0.433940887451,1,s,1292.36718082,,,,,,,,,,,,,,,,,,,,,,,,,,,,,,,,,,2015_Jul_08_1003,59.9063905516,LearningTask,1,83,
200,s,-200,,,,,,,,,,,,,,,,,2,0,2,0,24,3,99,2,,,,,,,,,,,,,,,,,,,,,,,,,,,,,s,1,0.467692136765,None,0,0.5,crossmagenta.gif,go,,,,,,,,,,,,,,,,,,,,,,,,0.28,0.514302015305,0.00088095664978,0.467692136765,1,s,1295.37062097,,,,,,,,,,,,,,,,,,,,,,,,,,,,,,,,,,2015_Jul_08_1003,59.9063905516,LearningTask,1,83,
,,,,,,,,,,,,,,,,,,,2,0,2,0,,,,,,,,,,,,,,,,,,,,,,,,,,,,,,,,,,,,,,,,,,,,,,,,,,,,,,,,,,,,,,,,,,,,,,,,,,,,,,9,41.2374091148,,,,,,,,,,,,,,,,,,,,,,,,,2015_Jul_08_1003,59.9063905516,LearningTask,1,83,
-200,q,200,,,,,,,,,,,,,,,,,3,0,3,0,0,0,0,1,,,,,,,,,,,,,,,,,,,,,,,,,,,,,q,1,0.467917919159,None,0,2.0,triangleyellow.gif,stop,,,,,,,,,,,,,,,,,,,,,,,,2.08,0.510087013245,0.00108194351196,0.467917919159,1,q,1340.37140799,,,,,,,,,,,,,,,,,,,,,,,,,,,,,,,,,,2015_Jul_08_1003,59.9063905516,LearningTask,1,83,
