	xPos	corrAns	yPos	corrGoResp	yPosGoStim	xPosGoStim	pracTrials.thisRepN	pracTrials.thisTrialN	pracTrials.thisN	pracTrials.thisIndex	ReDoLoopPrac.thisRepN	ReDoLoopPrac.thisTrialN	ReDoLoopPrac.thisN	ReDoLoopPrac.thisIndex	ReDoLoopPrac.thisTrial	pracStopTrials.thisRepN	pracStopTrials.thisTrialN	pracStopTrials.thisN	pracStopTrials.thisIndex	Blocks.thisRepN	Blocks.thisTrialN	Blocks.thisN	Blocks.thisIndex	trials.thisRepN	trials.thisTrialN	trials.thisN	trials.thisIndex	ReDoLoopMain.thisRepN	ReDoLoopMain.thisTrialN	ReDoLoopMain.thisN	ReDoLoopMain.thisIndex	ReDoLoopMain.thisTrial	StopBlocks.thisRepN	StopBlocks.thisTrialN	StopBlocks.thisN	StopBlocks.thisIndex	StopTrials.thisRepN	StopTrials.thisTrialN	StopTrials.thisN	StopTrials.thisIndex	auctionBlocks.thisRepN	auctionBlocks.thisTrialN	auctionBlocks.thisN	auctionBlocks.thisIndex	auctionTrials.thisRepN	auctionTrials.thisTrialN	auctionTrials.thisN	auctionTrials.thisIndex	learningTrialList	learningPracTrialList	stopTrialList	stopPracTrialList	auctionTrialList	ok1.keys	ok1.rt	resp.keys	resp.corr	resp.rt	feedbackResp.keys	feedbackResp.corr	currentReward	currentStimulus	currentStimType	firstPracComputedRewardOutput	firstPracLearningStimOnset	firstPracLearningFixOnset	firstPracPresentationRT	firstPracPresentationAcc	firstPracPresentationResp	firstPracEndTrialTimeStamp	secondPracComputedRewardOutput	secondPracLearningStimOnset	secondPracLearningFixOnset	secondPracPresentationRT	secondPracPresentationAcc	secondPracPresentationResp	secondPracEndTrialTimeStamp	StartTrialTimeStamp	trialType	goStim	stimType	stopStimValue	goResp.keys	goResp.corr	goResp.rt	key_resp_9.keys	key_resp_9.corr	fixStopOnset	goStimOnset	stopSignalOnset	EndTrialTimeStamp	key_resp_3.keys	key_resp_3.rt	firstComputedRewardOutput	firstLearningStimOnset	firstLearningFixOnset	firstPresentationRT	firstPresentationAcc	firstPresentationResp	firstEndTrialTimeStamp	secondComputedRewardOutput	secondLearningStimOnset	secondLearningFixOnset	secondPresentationRT	secondPresentationAcc	secondPresentationResp	secondEndTrialTimeStamp	key_resp_7.keys	key_resp_7.rt	thirdComputedRewardOutput	thirdLearningStimOnset	thirdLearningFixOnset	thirdPresentationRT	thirdPresentationAcc	thirdPresentationResp	thirdEndTrialTimeStamp	fourthComputedRewardOutput	fourthLearningStimOnset	fourthLearningFixOnset	fourthPresentationRT	fourthPresentationAcc	fourthPresentationResp	fourthEndTrialTimeStamp	fifthComputedRewardOutput	fifthLearningStimOnset	fifthLearningFixOnset	fifthPresentationRT	fifthPresentationAcc	fifthPresentationResp	fifthEndTrialTimeStamp	feedbackResp.rt	beginningSSD	EndingSSD	key_resp_9.rt	key_resp_4.keys	key_resp_4.rt	auctionResponse.keys	auctionStimDuration	auctionStim	auctionAmounts	auctionStimValue	auctionCondition	chosenAuctionAmount	auctionResponse.rt	key_resp_5.keys	key_resp_5.rt	shuffledRewardList	chosenReward1	chosenReward2	chosenReward3	chosenReward4	chosenReward5	key_resp_6.keys	key_resp_6.rt	date	frameRate	expName	session	participant	Unnamed: 159
0																																																	[]	[]	[]	[]	[]	9.0	102.71621179600001																																																																																																				2015_Jul_08_1018	59.9261621461	LearningTask	1	72	
1	200.0	w	200.0				0.0	0.0	0.0	8.0																																														w	1.0	0.6847400665279999	None	0.0	1.0	trianglemagenta.gif	stop	0.85	0.50695514679	0.026857137680099997	0.6847400665279999	1.0	w	141.23804497700002																																																																																					2015_Jul_08_1018	59.9261621461	LearningTask	1	72	
2	-200.0	q	200.0				0.0	1.0	1.0	5.0																																														q	1.0	0.534219026566	None	0.0	0.5	lineyellow.gif	stop	0.68	0.514253854752	0.00176787376404	0.534219026566	1.0	q	144.240639925																																																																																					2015_Jul_08_1018	59.9261621461	LearningTask	1	72	
3	200.0	w	200.0				0.0	2.0	2.0	0.0																																														w	1.0	0.534570932388	None	0.0	4.0	diamondgreen.gif	stop	4.13	0.5151400566100001	0.0013408660888699997	0.534570932388	1.0	w	147.243981838																																																																																					2015_Jul_08_1018	59.9261621461	LearningTask	1	72	
4	-200.0	q	200.0				0.0	3.0	3.0	1.0																																														q	1.0	0.434699058533	None	0.0	2.0	squarewhite.gif	go	0.0	0.515100002289	0.0448920726776	0.384087085724	0.0	a	150.24736189799998	2.17	0.5159699916839999	0.00118398666382	0.434699058533	1.0	q	153.251476049																																																																														2015_Jul_08_1018	59.9261621461	LearningTask	1	72	
5	-200.0	a	-200.0				0.0	4.0	4.0	7.0																																														a	1.0	0.517822027206	None	0.0	2.0	squarewhite.gif	go	2.02	0.514165878296	0.00108003616333	0.517822027206	1.0	a	156.254607916																																																																																					2015_Jul_08_1018	59.9261621461	LearningTask	1	72	
6	-200.0	a	-200.0				0.0	5.0	5.0	3.0																																														a	1.0	0.483929157257	None	0.0	0.5	lineyellow.gif	stop	0.0	0.514881849289	0.000955820083618	0.483929157257	1.0	a	159.257423878																																																																																					2015_Jul_08_1018	59.9261621461	LearningTask	1	72	
7	-200.0	q	200.0				0.0	6.0	6.0	9.0																																														q	1.0	0.46782922744800004	None	0.0	2.0	crossorange.gif	stop	2.03	0.51485490799	0.00131392478943	0.46782922744800004	1.0	q	162.260782957																																																																																					2015_Jul_08_1018	59.9261621461	LearningTask	1	72	
8	200.0	s	-200.0				0.0	7.0	7.0	2.0																																														s	1.0	0.45075201988200003	None	0.0	4.0	invertedtrianglegray.gif	go	4.1	0.5151331424710001	0.040225982666	0.45075201988200003	1.0	s	165.263984919																																																																																					2015_Jul_08_1018	59.9261621461	LearningTask	1	72	
9	200.0	w	200.0				0.0	8.0	8.0	4.0																																														w	1.0	0.434260845184	None	0.0	1.0	hexagoncyan.gif	go	1.16	0.515104055405	0.036411046981800005	0.434260845184	1.0	w	168.26717996600001																																																																																					2015_Jul_08_1018	59.9261621461	LearningTask	1	72	
10	200.0	s	-200.0				0.0	9.0	9.0	6.0																																														s	1.0	0.384149074554	None	0.0	4.0	diamondgreen.gif	stop	3.8	0.5153770446779999	0.00089693069458	0.384149074554	1.0	s	171.270648003																																																																																					2015_Jul_08_1018	59.9261621461	LearningTask	1	72	
11				m	0.0	200.0										0.0	0.0	0.0	1.0																																																											213.806895971	stop	diamondgreen.gif	stop	4.0	m	1.0	0.43399310111999995	None	0.0	0.0012938976287799999	0.5102119445800001	0.760876893997	216.805171967																																																																2015_Jul_08_1018	59.9261621461	LearningTask	1	72	
12				z	0.0	-200.0										0.0	1.0	1.0	0.0																																																											216.80556798	stop	crossorange.gif	stop	2.0	z	1.0	0.36809587478600003	None	0.0	0.00112795829773	0.515115976334	0.7656788825990001	219.808049917																																																																2015_Jul_08_1018	59.9261621461	LearningTask	1	72	
13				z	0.0	-200.0										1.0	0.0	2.0	0.0																																																											219.808414936	go	hexagoncyan.gif	go	1.0	z	1.0	0.43457698821999996	None	0.0	0.00107502937317	0.515779972076		222.811559916																																																																2015_Jul_08_1018	59.9261621461	LearningTask	1	72	
14				m	0.0	200.0										1.0	1.0	3.0	1.0																																																											222.81192493400002	go	invertedtrianglegray.gif	go	4.0	m	1.0	0.40075302124	None	0.0	0.0009779930114750001	0.515486955643		225.814903021																																																																2015_Jul_08_1018	59.9261621461	LearningTask	1	72	
15				m	0.0	200.0										2.0	0.0	4.0	1.0																																																											225.81532096900003	stop	lineyellow.gif	stop	0.5	m	1.0	0.367453098297	None	0.0	0.0009710788726810001	0.515808105469	0.765888214111	228.818088055																																																																2015_Jul_08_1018	59.9261621461	LearningTask	1	72	
16				z	0.0	-200.0										2.0	1.0	5.0	0.0																																																											228.818455935	stop	lineyellow.gif	stop	0.5	None	0.0		None	0.0	0.00109910964966	0.5158231258389999	0.766273975372	231.821662903																																																																2015_Jul_08_1018	59.9261621461	LearningTask	1	72	
17				z	0.0	-200.0										3.0	0.0	6.0	0.0																																																											231.82207393599998	stop	trianglemagenta.gif	stop	1.0	z	1.0	0.401458978653	None	0.0	0.00095796585083	0.51550412178	0.765774011612	234.82491087900002																																																																2015_Jul_08_1018	59.9261621461	LearningTask	1	72	
18				m	0.0	200.0										3.0	1.0	7.0	1.0																																																											234.825501919	go	circleblue.gif	go	0.5	m	1.0	0.6011140346530001	None	0.0	0.0013921260833699997	0.515248060226		237.82816600799998																																																																2015_Jul_08_1018	59.9261621461	LearningTask	1	72	
19				z	0.0	-200.0										4.0	0.0	8.0	0.0																																																											237.828534842	go	invertedtrianglegray.gif	go	4.0	z	1.0	0.450675964355	None	0.0	0.000997066497803	0.516036987305		240.831574917																																																																2015_Jul_08_1018	59.9261621461	LearningTask	1	72	
20				m	0.0	200.0										4.0	1.0	9.0	1.0																																																											240.831959963	go	squarewhite.gif	go	2.0	m	1.0	0.367568969727	None	0.0	0.000945806503296	0.515550851822		243.83513093																																																																2015_Jul_08_1018	59.9261621461	LearningTask	1	72	
21																																																																																												9.0	58.711923122399995																																																														2015_Jul_08_1018	59.9261621461	LearningTask	1	72	
22																																																						9.0	14.2994551659																																																																																																				2015_Jul_08_1018	59.9261621461	LearningTask	1	72	
23	200.0	w	200.0																	0.0	0.0	0.0	0.0	0.0	0.0	0.0	0.0																													w	1.0	0.400764942169	None	0.0	1.0	trianglemagenta.gif	stop																															1.04	0.508795022964	0.0009541511535639998	0.400764942169	1.0	w	320.004520893																																																							2015_Jul_08_1018	59.9261621461	LearningTask	1	72	
24	200.0	s	-200.0																	0.0	0.0	0.0	0.0	0.0	1.0	1.0	2.0																													s	1.0	0.334521055222	None	0.0	4.0	invertedtrianglegray.gif	go																															3.95	0.513289928436	0.0009031295776369999	0.334521055222	1.0	s	323.007865906																																																							2015_Jul_08_1018	59.9261621461	LearningTask	1	72	
25	-200.0	a	-200.0																	0.0	0.0	0.0	0.0	0.0	2.0	2.0	3.0																													a	1.0	0.384181022644	None	0.0	4.0	diamondgreen.gif	stop																															3.93	0.513670921326	0.0009150505065920001	0.384181022644	1.0	a	326.01175785099997																																																							2015_Jul_08_1018	59.9261621461	LearningTask	1	72	
26	-200.0	a	-200.0																	0.0	0.0	0.0	0.0	0.0	3.0	3.0	3.0																													a	1.0	0.334235191345	None	0.0	1.0	trianglemagenta.gif	stop																															1.19	0.513133049011	0.00093412399292	0.334235191345	1.0	a	329.014107943																																																							2015_Jul_08_1018	59.9261621461	LearningTask	1	72	
27	-200.0	a	-200.0																	0.0	0.0	0.0	0.0	1.0	0.0	4.0	3.0																													a	1.0	0.451025009155	None	0.0	4.0	diamondgreen.gif	stop																															3.77	0.514316082001	0.0009069442749019998	0.451025009155	1.0	a	332.017396927																																																							2015_Jul_08_1018	59.9261621461	LearningTask	1	72	
28	200.0	w	200.0																	0.0	0.0	0.0	0.0	1.0	1.0	5.0	0.0																													w	1.0	0.400623083115	None	0.0	4.0	diamondgreen.gif	stop																															3.75	0.514276981354	0.0008971691131589999	0.400623083115	1.0	w	335.020905018																																																							2015_Jul_08_1018	59.9261621461	LearningTask	1	72	
29	200.0	s	-200.0																	0.0	0.0	0.0	0.0	1.0	2.0	6.0	2.0																													s	1.0	0.384468793869	None	0.0	0.5	lineyellow.gif	stop																															0.0	0.514014959335	0.0009100437164310001	0.384468793869	1.0	s	338.024063826																																																							2015_Jul_08_1018	59.9261621461	LearningTask	1	72	
30	-200.0	q	200.0																	0.0	0.0	0.0	0.0	1.0	3.0	7.0	1.0																													q	1.0	0.35052895545999996	None	0.0	1.0	trianglemagenta.gif	stop																															0.88	0.514322042465	0.0010840892791700002	0.35052895546	1.0	q	341.027832985																																																							2015_Jul_08_1018	59.9261621461	LearningTask	1	72	
31	-200.0	q	200.0																	0.0	0.0	0.0	0.0	2.0	0.0	8.0	1.0																													q	1.0	0.384420871735	None	0.0	1.0	hexagoncyan.gif	go																															0.95	0.5136752128600001	0.000907182693481	0.384420871735	1.0	q	344.030807972																																																							2015_Jul_08_1018	59.9261621461	LearningTask	1	72	
32	-200.0	q	200.0																	0.0	0.0	0.0	0.0	2.0	1.0	9.0	1.0																													q	1.0	0.500965833664	None	0.0	4.0	invertedtrianglegray.gif	go																															4.02	0.514258146286	0.0009779930114750001	0.500965833664	1.0	q	347.034548044																																																							2015_Jul_08_1018	59.9261621461	LearningTask	1	72	
33	200.0	w	200.0																	0.0	0.0	0.0	0.0	2.0	2.0	10.0	0.0																													w	1.0	0.384085893631	None	0.0	1.0	hexagoncyan.gif	go																															0.0	0.513757944107	0.0009489059448239998	0.384085893631	1.0	w	350.03756284699995																																																							2015_Jul_08_1018	59.9261621461	LearningTask	1	72	
34	-200.0	a	-200.0																	0.0	0.0	0.0	0.0	2.0	3.0	11.0	3.0																													a	1.0	0.433357000351	None	0.0	2.0	crossorange.gif	stop																															1.75	0.514581918716	0.0012369155883800002	0.433357000351	1.0	a	353.040591002																																																							2015_Jul_08_1018	59.9261621461	LearningTask	1	72	
35	-200.0	q	200.0																	0.0	0.0	0.0	0.0	3.0	0.0	12.0	1.0																													q	1.0	0.334661960602	None	0.0	1.0	trianglemagenta.gif	stop																															1.18	0.51438498497	0.0008978843688960001	0.334661960602	1.0	q	356.04448294599996																																																							2015_Jul_08_1018	59.9261621461	LearningTask	1	72	
36	-200.0	q	200.0																	0.0	0.0	0.0	0.0	3.0	1.0	13.0	1.0																													q	1.0	0.333925962448	None	0.0	2.0	squarewhite.gif	go																															1.82	0.513458013535	0.0009319782257080001	0.333925962448	1.0	q	359.047508001																																																							2015_Jul_08_1018	59.9261621461	LearningTask	1	72	
37	200.0	s	-200.0																	0.0	0.0	0.0	0.0	3.0	2.0	14.0	2.0																													s	1.0	0.366922855377	None	0.0	4.0	diamondgreen.gif	stop																															3.83	0.514208078384	0.00095009803772	0.366922855377	1.0	s	362.051139832																																																							2015_Jul_08_1018	59.9261621461	LearningTask	1	72	
38	200.0	s	-200.0																	0.0	0.0	0.0	0.0	3.0	3.0	15.0	2.0																													s	1.0	0.467669963837	None	0.0	0.5	circleblue.gif	go																															0.0	0.513994932175	0.00092601776123	0.467669963837	1.0	s	365.05429101																																																							2015_Jul_08_1018	59.9261621461	LearningTask	1	72	
39	-200.0	a	-200.0																	0.0	0.0	0.0	0.0	4.0	0.0	16.0	3.0																													a	1.0	0.36729192733800003	None	0.0	1.0	hexagoncyan.gif	go																															1.17	0.514001131058	0.0009140968322749999	0.367291927338	1.0	a	368.057569981																																																							2015_Jul_08_1018	59.9261621461	LearningTask	1	72	
40	200.0	w	200.0																	0.0	0.0	0.0	0.0	4.0	1.0	17.0	0.0																													w	1.0	0.31757688522300004	None	0.0	1.0	trianglemagenta.gif	stop																															0.78	0.514037132263	0.00092601776123	0.317576885223	1.0	w	371.061136961																																																							2015_Jul_08_1018	59.9261621461	LearningTask	1	72	
41	-200.0	a	-200.0																	0.0	0.0	0.0	0.0	4.0	2.0	18.0	3.0																													a	1.0	0.36771202087399996	None	0.0	2.0	squarewhite.gif	go																															1.85	0.514023065567	0.00095009803772	0.367712020874	1.0	a	374.06511998199994																																																							2015_Jul_08_1018	59.9261621461	LearningTask	1	72	
42	200.0	w	200.0																	0.0	0.0	0.0	0.0	4.0	3.0	19.0	0.0																													w	1.0	0.383908033371	None	0.0	0.5	lineyellow.gif	stop																															0.25	0.513549089432	0.000909090042114	0.383908033371	1.0	w	377.06761694																																																							2015_Jul_08_1018	59.9261621461	LearningTask	1	72	
43	-200.0	q	200.0																	0.0	0.0	0.0	0.0	5.0	0.0	20.0	1.0																													q	1.0	0.33398103714	None	0.0	1.0	trianglemagenta.gif	stop																															1.16	0.514364004135	0.0009350776672360002	0.33398103714	1.0	q	380.07100701300004																																																							2015_Jul_08_1018	59.9261621461	LearningTask	1	72	
44	-200.0	q	200.0																	0.0	0.0	0.0	0.0	5.0	1.0	21.0	1.0																													q	1.0	0.35077381134	None	0.0	4.0	invertedtrianglegray.gif	go																															4.12	0.514803886414	0.0008959770202639998	0.35077381134	1.0	q	383.07436990699995																																																							2015_Jul_08_1018	59.9261621461	LearningTask	1	72	
45	200.0	s	-200.0																	0.0	0.0	0.0	0.0	5.0	2.0	22.0	2.0																													s	1.0	0.317875146866	None	0.0	1.0	trianglemagenta.gif	stop																															1.24	0.514192819595	0.0009109973907470001	0.317875146866	1.0	s	386.077837944																																																							2015_Jul_08_1018	59.9261621461	LearningTask	1	72	
46	-200.0	q	200.0																	0.0	0.0	0.0	0.0	5.0	3.0	23.0	1.0																													q	1.0	0.334211826324	None	0.0	4.0	invertedtrianglegray.gif	go																															4.12	0.5141868591309999	0.00100302696228	0.334211826324	1.0	q	389.081634998																																																							2015_Jul_08_1018	59.9261621461	LearningTask	1	72	
47	-200.0	q	200.0																	0.0	0.0	0.0	0.0	6.0	0.0	24.0	1.0																													q	1.0	0.451370000839	None	0.0	4.0	invertedtrianglegray.gif	go																															0.0	0.513730049133	0.00090503692627	0.451370000839	1.0	q	392.08457183800004																																																							2015_Jul_08_1018	59.9261621461	LearningTask	1	72	
48	200.0	s	-200.0																	0.0	0.0	0.0	0.0	6.0	1.0	25.0	2.0																													s	1.0	0.383947134018	None	0.0	2.0	crossorange.gif	stop																															1.92	0.514322042465	0.0008959770202639998	0.383947134018	1.0	s	395.087918997																																																							2015_Jul_08_1018	59.9261621461	LearningTask	1	72	
49	-200.0	q	200.0																	0.0	0.0	0.0	0.0	6.0	2.0	26.0	1.0																													q	1.0	0.417467832565	None	0.0	2.0	squarewhite.gif	go																															1.84	0.514069795609	0.0009548664093019999	0.417467832565	1.0	q	398.091063023																																																							2015_Jul_08_1018	59.9261621461	LearningTask	1	72	
50	200.0	w	200.0																	0.0	0.0	0.0	0.0	6.0	3.0	27.0	0.0																													w	1.0	0.300230026245	None	0.0	0.5	circleblue.gif	go																															0.6	0.5147261619569999	0.00094199180603	0.300230026245	1.0	w	401.094310045																																																							2015_Jul_08_1018	59.9261621461	LearningTask	1	72	
51	200.0	w	200.0																	0.0	0.0	0.0	0.0	7.0	0.0	28.0	0.0																													w	1.0	0.384813070297	None	0.0	4.0	diamondgreen.gif	stop																															4.25	0.514498949051	0.0009357929229739999	0.384813070297	1.0	w	404.098062992																																																							2015_Jul_08_1018	59.9261621461	LearningTask	1	72	
52	-200.0	q	200.0																	0.0	0.0	0.0	0.0	7.0	1.0	29.0	1.0																													q	1.0	0.300847053528	None	0.0	4.0	invertedtrianglegray.gif	go																															4.15	0.513589143753	0.00103306770325	0.300847053528	1.0	q	407.101459026																																																							2015_Jul_08_1018	59.9261621461	LearningTask	1	72	
53	-200.0	q	200.0																	0.0	0.0	0.0	0.0	7.0	2.0	30.0	1.0																													q	1.0	0.383908033371	None	0.0	1.0	hexagoncyan.gif	go																															0.93	0.514108896255	0.000955820083618	0.383908033371	1.0	q	410.10464000699994																																																							2015_Jul_08_1018	59.9261621461	LearningTask	1	72	
54	-200.0	a	-200.0																	0.0	0.0	0.0	0.0	7.0	3.0	31.0	3.0																													a	1.0	0.36761498451200003	None	0.0	4.0	invertedtrianglegray.gif	go																															3.92	0.5143840312960001	0.000900030136108	0.367614984512	1.0	a	413.107894897																																																							2015_Jul_08_1018	59.9261621461	LearningTask	1	72	
55	200.0	s	-200.0																	0.0	0.0	0.0	0.0	8.0	0.0	32.0	2.0																													s	1.0	0.35102915763899994	None	0.0	2.0	squarewhite.gif	go																															2.11	0.513872861862	0.0009298324584960001	0.351029157639	1.0	s	416.111223936																																																							2015_Jul_08_1018	59.9261621461	LearningTask	1	72	
56	200.0	s	-200.0																	0.0	0.0	0.0	0.0	8.0	1.0	33.0	2.0																													s	1.0	0.434617996216	None	0.0	4.0	diamondgreen.gif	stop																															4.09	0.514278888702	0.0009338855743410001	0.434617996216	1.0	s	419.11460685699996																																																							2015_Jul_08_1018	59.9261621461	LearningTask	1	72	
57	200.0	w	200.0																	0.0	0.0	0.0	0.0	8.0	2.0	34.0	0.0																													w	1.0	0.384323120117	None	0.0	2.0	crossorange.gif	stop																															2.09	0.514276981354	0.0009758472442630001	0.384323120117	1.0	w	422.118396044																																																							2015_Jul_08_1018	59.9261621461	LearningTask	1	72	
58	-200.0	q	200.0																	0.0	0.0	0.0	0.0	8.0	3.0	35.0	1.0																													q	1.0	0.300997018814	None	0.0	0.5	circleblue.gif	go																															0.48	0.513994932175	0.0009169578552250001	0.300997018814	1.0	q	425.121417999																																																							2015_Jul_08_1018	59.9261621461	LearningTask	1	72	
59	200.0	w	200.0																	0.0	0.0	0.0	0.0	9.0	0.0	36.0	0.0																													w	1.0	0.300926923752	None	0.0	2.0	squarewhite.gif	go																															1.79	0.514131069183	0.000890016555786	0.300926923752	1.0	w	428.124707937																																																							2015_Jul_08_1018	59.9261621461	LearningTask	1	72	
60	-200.0	a	-200.0																	0.0	0.0	0.0	0.0	9.0	1.0	37.0	3.0																													a	1.0	0.400636196136	None	0.0	1.0	hexagoncyan.gif	go																															0.0	0.514353990555	0.000977039337158	0.400636196136	1.0	a	431.128088951																																																							2015_Jul_08_1018	59.9261621461	LearningTask	1	72	
61	-200.0	a	-200.0																	0.0	0.0	0.0	0.0	9.0	2.0	38.0	3.0																													a	1.0	0.301017045975	None	0.0	2.0	crossorange.gif	stop																															2.15	0.514236927032	0.000902891159058	0.301017045975	1.0	a	434.13140392300005																																																							2015_Jul_08_1018	59.9261621461	LearningTask	1	72	
62	200.0	s	-200.0																	0.0	0.0	0.0	0.0	9.0	3.0	39.0	2.0																													s	1.0	0.367533922195	None	0.0	4.0	invertedtrianglegray.gif	go																															4.11	0.514477968216	0.00109910964966	0.367533922195	1.0	s	437.13535594900003																																																							2015_Jul_08_1018	59.9261621461	LearningTask	1	72	
63	-200.0	q	200.0																	0.0	0.0	0.0	0.0	10.0	0.0	40.0	1.0																													q	1.0	0.30081987380999997	None	0.0	4.0	invertedtrianglegray.gif	go																															0.0	0.513622999191	0.0009319782257080001	0.30081987381	1.0	q	440.138033867																																																							2015_Jul_08_1018	59.9261621461	LearningTask	1	72	
64	200.0	s	-200.0																	0.0	0.0	0.0	0.0	10.0	1.0	41.0	2.0																													s	1.0	0.384427070618	None	0.0	1.0	hexagoncyan.gif	go																															0.0	0.514456987381	0.0009100437164310001	0.384427070618	1.0	s	443.14156389199997																																																							2015_Jul_08_1018	59.9261621461	LearningTask	1	72	
65	-200.0	a	-200.0																	0.0	0.0	0.0	0.0	10.0	2.0	42.0	3.0																													a	1.0	0.36738109588600004	None	0.0	1.0	hexagoncyan.gif	go																															0.82	0.5140759944919999	0.000977039337158	0.367381095886	1.0	a	446.14479398699996																																																							2015_Jul_08_1018	59.9261621461	LearningTask	1	72	
66	200.0	s	-200.0																	0.0	0.0	0.0	0.0	10.0	3.0	43.0	2.0																													s	1.0	0.23393702507	None	0.0	1.0	trianglemagenta.gif	stop																															0.0	0.514023065567	0.000961065292358	0.350754022598	0.0	w	449.147989035	1.1	0.515650033951	0.0010039806366	0.23393702507	1.0	s	452.15199589699995																																																2015_Jul_08_1018	59.9261621461	LearningTask	1	72	
67	200.0	w	200.0																	0.0	0.0	0.0	0.0	11.0	0.0	44.0	0.0																													w	1.0	0.35032296180699996	None	0.0	2.0	crossorange.gif	stop																															1.94	0.513761997223	0.000900983810425	0.350322961807	1.0	w	455.154881001																																																							2015_Jul_08_1018	59.9261621461	LearningTask	1	72	
68	200.0	s	-200.0																	0.0	0.0	0.0	0.0	11.0	1.0	45.0	2.0																													s	1.0	0.367280960083	None	0.0	4.0	invertedtrianglegray.gif	go																															4.01	0.514364004135	0.000938892364502	0.367280960083	1.0	s	458.158517838																																																							2015_Jul_08_1018	59.9261621461	LearningTask	1	72	
69	200.0	s	-200.0																	0.0	0.0	0.0	0.0	11.0	2.0	46.0	2.0																													s	1.0	0.350565910339	None	0.0	0.5	lineyellow.gif	stop																															0.72	0.514122009277	0.0009129047393799999	0.350565910339	1.0	s	461.161697865																																																							2015_Jul_08_1018	59.9261621461	LearningTask	1	72	
70	-200.0	a	-200.0																	0.0	0.0	0.0	0.0	11.0	3.0	47.0	3.0																													a	1.0	0.351024150848	None	0.0	0.5	lineyellow.gif	stop																															0.74	0.513814926147	0.0009250640869139999	0.351024150848	1.0	a	464.164913893																																																							2015_Jul_08_1018	59.9261621461	LearningTask	1	72	
71	200.0	s	-200.0																	0.0	0.0	0.0	0.0	12.0	0.0	48.0	2.0																													s	1.0	0.350926876068	None	0.0	0.5	circleblue.gif	go																															0.65	0.514085054398	0.00105595588684	0.350926876068	1.0	s	467.168081045																																																							2015_Jul_08_1018	59.9261621461	LearningTask	1	72	
72	200.0	w	200.0																	0.0	0.0	0.0	0.0	12.0	1.0	49.0	0.0																													w	1.0	0.317404031754	None	0.0	1.0	trianglemagenta.gif	stop																															0.88	0.514413833618	0.0009119510650630002	0.317404031754	1.0	w	470.172211885																																																							2015_Jul_08_1018	59.9261621461	LearningTask	1	72	
73	-200.0	q	200.0																	0.0	0.0	0.0	0.0	12.0	2.0	50.0	1.0																													q	1.0	0.33448600769000003	None	0.0	4.0	diamondgreen.gif	stop																															0.0	0.513468027115	0.0009350776672360002	0.33448600769	1.0	q	473.17493701																																																							2015_Jul_08_1018	59.9261621461	LearningTask	1	72	
74	-200.0	q	200.0																	0.0	0.0	0.0	0.0	12.0	3.0	51.0	1.0																													q	1.0	0.40078592300399996	None	0.0	4.0	invertedtrianglegray.gif	go																															4.15	0.514427185059	0.0009160041809079999	0.400785923004	1.0	q	476.178169966																																																							2015_Jul_08_1018	59.9261621461	LearningTask	1	72	
75	200.0	s	-200.0																	0.0	0.0	0.0	0.0	13.0	0.0	52.0	2.0																													s	1.0	0.350937843323	None	0.0	2.0	crossorange.gif	stop																															2.07	0.5143861770629999	0.0009400844573969999	0.350937843323	1.0	s	479.181915045																																																							2015_Jul_08_1018	59.9261621461	LearningTask	1	72	
76	-200.0	a	-200.0																	0.0	0.0	0.0	0.0	13.0	1.0	53.0	3.0																													a	1.0	0.400763988495	None	0.0	0.5	lineyellow.gif	stop																															0.4	0.513989925385	0.0009109973907470001	0.400763988495	1.0	a	482.18491482699994																																																							2015_Jul_08_1018	59.9261621461	LearningTask	1	72	
77	200.0	w	200.0																	0.0	0.0	0.0	0.0	13.0	2.0	54.0	0.0																													w	1.0	0.334087133408	None	0.0	1.0	hexagoncyan.gif	go																															1.16	0.514398813248	0.000959873199463	0.334087133408	1.0	w	485.188295841																																																							2015_Jul_08_1018	59.9261621461	LearningTask	1	72	
78	-200.0	a	-200.0																	0.0	0.0	0.0	0.0	13.0	3.0	55.0	3.0																													a	1.0	0.117760896683	None	0.0	2.0	crossorange.gif	stop																															0.0	0.514580965042	0.0009059906005860001	0.367500066757	0.0	q	488.19181394599997	2.11	0.515601158142	0.000982999801636	0.117760896683	1.0	a	491.19513797800005																																																2015_Jul_08_1018	59.9261621461	LearningTask	1	72	
79	200.0	s	-200.0																	0.0	0.0	0.0	0.0	14.0	0.0	56.0	2.0																													s	1.0	0.334216117859	None	0.0	0.5	circleblue.gif	go																															0.68	0.514059782028	0.000976800918579	0.334216117859	1.0	s	494.19846582400004																																																							2015_Jul_08_1018	59.9261621461	LearningTask	1	72	
80	200.0	s	-200.0																	0.0	0.0	0.0	0.0	14.0	1.0	57.0	2.0																													s	1.0	0.334192037582	None	0.0	0.5	lineyellow.gif	stop																															0.73	0.514266014099	0.0008990764617919999	0.334192037582	1.0	s	497.201705933																																																							2015_Jul_08_1018	59.9261621461	LearningTask	1	72	
81	-200.0	a	-200.0																	0.0	0.0	0.0	0.0	14.0	2.0	58.0	3.0																													a	1.0	0.384184837341	None	0.0	4.0	diamondgreen.gif	stop																															0.0	0.514359951019	0.00090503692627	0.384184837341	1.0	a	500.205811977																																																							2015_Jul_08_1018	59.9261621461	LearningTask	1	72	
82	-200.0	a	-200.0																	0.0	0.0	0.0	0.0	14.0	3.0	59.0	3.0																													a	1.0	0.301342010498	None	0.0	2.0	squarewhite.gif	go																															2.13	0.51296710968	0.0009369850158689999	0.301342010498	1.0	a	503.208668947																																																							2015_Jul_08_1018	59.9261621461	LearningTask	1	72	
83	-200.0	q	200.0																	0.0	0.0	0.0	0.0	15.0	0.0	60.0	1.0																													q	1.0	0.250870943069	None	0.0	2.0	crossorange.gif	stop																															1.96	0.514126062393	0.00094199180603	0.250870943069	1.0	q	506.211806059																																																							2015_Jul_08_1018	59.9261621461	LearningTask	1	72	
84	-200.0	q	200.0																	0.0	0.0	0.0	0.0	15.0	1.0	61.0	1.0																													q	1.0	0.35052108764600004	None	0.0	0.5	circleblue.gif	go																															0.35	0.514509916306	0.000923871994019	0.350521087646	1.0	q	509.215227842																																																							2015_Jul_08_1018	59.9261621461	LearningTask	1	72	
85	200.0	w	200.0																	0.0	0.0	0.0	0.0	15.0	2.0	62.0	0.0																													w	1.0	0.300750017166	None	0.0	4.0	invertedtrianglegray.gif	go																															4.2	0.514069795609	0.000894784927368	0.300750017166	1.0	w	512.218752861																																																							2015_Jul_08_1018	59.9261621461	LearningTask	1	72	
86	-200.0	a	-200.0																	0.0	0.0	0.0	0.0	15.0	3.0	63.0	3.0																													a	1.0	0.385080814362	None	0.0	4.0	diamondgreen.gif	stop																															3.96	0.5138461589810001	0.00090503692627	0.385080814362	1.0	a	515.221765995																																																							2015_Jul_08_1018	59.9261621461	LearningTask	1	72	
87	200.0	w	200.0																	0.0	0.0	0.0	0.0	16.0	0.0	64.0	0.0																													w	1.0	0.351000070572	None	0.0	1.0	trianglemagenta.gif	stop																															0.97	0.51443195343	0.000898838043213	0.351000070572	1.0	w	518.225630999																																																							2015_Jul_08_1018	59.9261621461	LearningTask	1	72	
88	-200.0	a	-200.0																	0.0	0.0	0.0	0.0	16.0	1.0	65.0	3.0																													a	1.0	0.383907079697	None	0.0	0.5	lineyellow.gif	stop																															0.32	0.514095067978	0.0009169578552250001	0.383907079697	1.0	a	521.228610039																																																							2015_Jul_08_1018	59.9261621461	LearningTask	1	72	
89	200.0	w	200.0																	0.0	0.0	0.0	0.0	16.0	2.0	66.0	0.0																													w	1.0	0.25114583969099996	None	0.0	0.5	lineyellow.gif	stop																															0.0	0.5144538879389999	0.000921964645386	0.117000102997	0.0	q	524.231947899	0.7	0.5154068470000001	0.0010039806366	0.251145839691	1.0	w	527.235908985																																																2015_Jul_08_1018	59.9261621461	LearningTask	1	72	
90	-200.0	a	-200.0																	0.0	0.0	0.0	0.0	16.0	3.0	67.0	3.0																													a	1.0	0.31712603569000003	None	0.0	2.0	crossorange.gif	stop																															1.93	0.514461994171	0.0008931159973139998	0.31712603569	1.0	a	530.2386898990001																																																							2015_Jul_08_1018	59.9261621461	LearningTask	1	72	
91	200.0	s	-200.0																	0.0	0.0	0.0	0.0	17.0	0.0	68.0	2.0																													s	1.0	0.31746196746800004	None	0.0	0.5	circleblue.gif	go																															0.27	0.514271020889	0.000942945480347	0.317461967468	1.0	s	533.242035866																																																							2015_Jul_08_1018	59.9261621461	LearningTask	1	72	
92	-200.0	q	200.0																	0.0	0.0	0.0	0.0	17.0	1.0	69.0	1.0																													q	1.0	0.333843946457	None	0.0	0.5	lineyellow.gif	stop																															0.61	0.514625072479	0.0009570121765139998	0.333843946457	1.0	q	536.245713949																																																							2015_Jul_08_1018	59.9261621461	LearningTask	1	72	
93	-200.0	a	-200.0																	0.0	0.0	0.0	0.0	17.0	2.0	70.0	3.0																													a	1.0	0.317034959793	None	0.0	4.0	invertedtrianglegray.gif	go																															3.79	0.514205932617	0.000941038131714	0.317034959793	1.0	a	539.2488999369999																																																							2015_Jul_08_1018	59.9261621461	LearningTask	1	72	
94	200.0	w	200.0																	0.0	0.0	0.0	0.0	17.0	3.0	71.0	0.0																													w	1.0	0.317427873611	None	0.0	1.0	trianglemagenta.gif	stop																															0.0	0.514037132263	0.00105714797974	0.317427873611	1.0	w	542.252099037																																																							2015_Jul_08_1018	59.9261621461	LearningTask	1	72	
95	-200.0	a	-200.0																	0.0	0.0	0.0	0.0	18.0	0.0	72.0	3.0																													a	1.0	0.367152929306	None	0.0	2.0	crossorange.gif	stop																															1.88	0.514300107956	0.0009529590606689998	0.367152929306	1.0	a	545.255297899																																																							2015_Jul_08_1018	59.9261621461	LearningTask	1	72	
96	200.0	s	-200.0																	0.0	0.0	0.0	0.0	18.0	1.0	73.0	2.0																													s	1.0	0.33410501480099997	None	0.0	2.0	squarewhite.gif	go																															0.0	0.514409065247	0.00117301940918	0.334105014801	1.0	s	548.2587988380001																																																							2015_Jul_08_1018	59.9261621461	LearningTask	1	72	
97	200.0	w	200.0																	0.0	0.0	0.0	0.0	18.0	2.0	74.0	0.0																													w	1.0	0.350893974304	None	0.0	0.5	circleblue.gif	go																															0.48	0.514032840729	0.0009360313415529999	0.350893974304	1.0	w	551.262037039																																																							2015_Jul_08_1018	59.9261621461	LearningTask	1	72	
98	200.0	w	200.0																	0.0	0.0	0.0	0.0	18.0	3.0	75.0	0.0																													w	1.0	0.36737203598000007	None	0.0	0.5	circleblue.gif	go																															0.57	0.514622926712	0.0010018348693800001	0.36737203598	1.0	w	554.265888929																																																							2015_Jul_08_1018	59.9261621461	LearningTask	1	72	
99	-200.0	a	-200.0																	0.0	0.0	0.0	0.0	19.0	0.0	76.0	3.0																													a	1.0	0.084300994873	None	0.0	1.0	hexagoncyan.gif	go																															0.0	0.514258146286	0.000913143157959	0.117209911346	0.0	q	557.269012928	1.05	0.515410900116	0.00102591514587	0.084300994873	1.0	a	560.272251844																																																2015_Jul_08_1018	59.9261621461	LearningTask	1	72	
100	-200.0	q	200.0																	0.0	0.0	0.0	0.0	19.0	1.0	77.0	1.0																													q	1.0	0.334591150284	None	0.0	0.5	circleblue.gif	go																															0.48	0.51395201683	0.0009400844573969999	0.334591150284	1.0	q	563.275807858																																																							2015_Jul_08_1018	59.9261621461	LearningTask	1	72	
101	200.0	w	200.0																	0.0	0.0	0.0	0.0	19.0	2.0	78.0	0.0																													w	1.0	0.367906093597	None	0.0	2.0	crossorange.gif	stop																															0.0	0.514003992081	0.0009109973907470001	0.367906093597	1.0	w	566.279402971																																																							2015_Jul_08_1018	59.9261621461	LearningTask	1	72	
102	200.0	s	-200.0																	0.0	0.0	0.0	0.0	19.0	3.0	79.0	2.0																													s	1.0	0.23408198356600002	None	0.0	1.0	hexagoncyan.gif	go																															0.9	0.5137050151820001	0.0009541511535639998	0.234081983566	1.0	s	569.282228947																																																							2015_Jul_08_1018	59.9261621461	LearningTask	1	72	
103	-200.0	q	200.0																	0.0	0.0	0.0	0.0	20.0	0.0	80.0	1.0																													q	1.0	0.367686033249	None	0.0	4.0	diamondgreen.gif	stop																															3.79	0.514364004135	0.0008940696716310001	0.367686033249	1.0	q	572.285506964																																																							2015_Jul_08_1018	59.9261621461	LearningTask	1	72	
104	200.0	w	200.0																	0.0	0.0	0.0	0.0	20.0	1.0	81.0	0.0																													w	1.0	0.334748983383	None	0.0	2.0	squarewhite.gif	go																															2.16	0.514410018921	0.000917911529541	0.334748983383	1.0	w	575.289134979																																																							2015_Jul_08_1018	59.9261621461	LearningTask	1	72	
105	-200.0	a	-200.0																	0.0	0.0	0.0	0.0	20.0	2.0	82.0	3.0																													a	1.0	0.30090713501	None	0.0	2.0	crossorange.gif	stop																															2.05	0.514178991318	0.000900030136108	0.30090713501	1.0	a	578.292392015																																																							2015_Jul_08_1018	59.9261621461	LearningTask	1	72	
106	-200.0	a	-200.0																	0.0	0.0	0.0	0.0	20.0	3.0	83.0	3.0																													a	1.0	0.367804050446	None	0.0	1.0	trianglemagenta.gif	stop																															1.02	0.514233827591	0.0009469985961910001	0.367804050446	1.0	a	581.295547962																																																							2015_Jul_08_1018	59.9261621461	LearningTask	1	72	
107	200.0	w	200.0																	0.0	0.0	0.0	0.0	21.0	0.0	84.0	0.0																													w	1.0	0.333945035934	None	0.0	2.0	crossorange.gif	stop																															1.79	0.5146238803859999	0.000903844833374	0.333945035934	1.0	w	584.2991938590001																																																							2015_Jul_08_1018	59.9261621461	LearningTask	1	72	
108	200.0	w	200.0																	0.0	0.0	0.0	0.0	21.0	1.0	85.0	0.0																													w	1.0	0.367980003357	None	0.0	4.0	invertedtrianglegray.gif	go																															3.86	0.513959884644	0.0009069442749019998	0.367980003357	1.0	w	587.3025128840001																																																							2015_Jul_08_1018	59.9261621461	LearningTask	1	72	
109	200.0	w	200.0																	0.0	0.0	0.0	0.0	21.0	2.0	86.0	0.0																													w	1.0	0.38422703743000003	None	0.0	0.5	lineyellow.gif	stop																															0.26	0.51393699646	0.0011789798736600002	0.38422703743	1.0	w	590.305822849																																																							2015_Jul_08_1018	59.9261621461	LearningTask	1	72	
110	200.0	w	200.0																	0.0	0.0	0.0	0.0	21.0	3.0	87.0	0.0																													w	1.0	0.35125803947400003	None	0.0	2.0	crossorange.gif	stop																															2.15	0.514321088791	0.00090503692627	0.351258039474	1.0	w	593.309068918																																																							2015_Jul_08_1018	59.9261621461	LearningTask	1	72	
111	-200.0	q	200.0																	0.0	0.0	0.0	0.0	22.0	0.0	88.0	1.0																													q	1.0	0.317145109177	None	0.0	2.0	squarewhite.gif	go																															1.85	0.514582872391	0.000921964645386	0.317145109177	1.0	q	596.312422991																																																							2015_Jul_08_1018	59.9261621461	LearningTask	1	72	
112	-200.0	q	200.0																	0.0	0.0	0.0	0.0	22.0	1.0	89.0	1.0																													q	1.0	0.36744403839100004	None	0.0	4.0	invertedtrianglegray.gif	go																															4.04	0.514213085175	0.000948190689087	0.367444038391	1.0	q	599.315904856																																																							2015_Jul_08_1018	59.9261621461	LearningTask	1	72	
113	200.0	s	-200.0																	0.0	0.0	0.0	0.0	22.0	2.0	90.0	2.0																													s	1.0	0.284044027328	None	0.0	1.0	trianglemagenta.gif	stop																															1.16	0.514060974121	0.000938892364502	0.284044027328	1.0	s	602.319236994																																																							2015_Jul_08_1018	59.9261621461	LearningTask	1	72	
114	-200.0	a	-200.0																	0.0	0.0	0.0	0.0	22.0	3.0	91.0	3.0																													a	1.0	0.40106010437	None	0.0	2.0	squarewhite.gif	go																															2.09	0.514424085617	0.000904083251953	0.40106010437	1.0	a	605.322729826																																																							2015_Jul_08_1018	59.9261621461	LearningTask	1	72	
115	200.0	s	-200.0																	0.0	0.0	0.0	0.0	23.0	0.0	92.0	2.0																													s	1.0	0.334404945374	None	0.0	4.0	diamondgreen.gif	stop																															3.97	0.5138080120090001	0.0009360313415529999	0.334404945374	1.0	s	608.325803995																																																							2015_Jul_08_1018	59.9261621461	LearningTask	1	72	
116	200.0	s	-200.0																	0.0	0.0	0.0	0.0	23.0	1.0	93.0	2.0																													s	1.0	0.8680460453030001	None	0.0	0.5	circleblue.gif	go																															0.59	0.514096975327	0.000969886779785	0.868046045303	1.0	s	611.329166889																																																							2015_Jul_08_1018	59.9261621461	LearningTask	1	72	
117	-200.0	a	-200.0																	0.0	0.0	0.0	0.0	23.0	2.0	94.0	3.0																													a	1.0	0.384734869003	None	0.0	2.0	crossorange.gif	stop																															2.07	0.514276981354	0.000907182693481	0.384734869003	1.0	a	614.333246946																																																							2015_Jul_08_1018	59.9261621461	LearningTask	1	72	
118	200.0	s	-200.0																	0.0	0.0	0.0	0.0	23.0	3.0	95.0	2.0																													s	1.0	0.334380865097	None	0.0	4.0	diamondgreen.gif	stop																															3.83	0.513205051422	0.0009150505065920001	0.334380865097	1.0	s	617.336272955																																																							2015_Jul_08_1018	59.9261621461	LearningTask	1	72	
119	200.0	s	-200.0																	0.0	0.0	0.0	0.0	24.0	0.0	96.0	2.0																													s	1.0	0.333706855774	None	0.0	2.0	crossorange.gif	stop																															2.23	0.514382839203	0.000900030136108	0.333706855774	1.0	s	620.339326859																																																							2015_Jul_08_1018	59.9261621461	LearningTask	1	72	
120	-200.0	q	200.0																	0.0	0.0	0.0	0.0	24.0	1.0	97.0	1.0																													q	1.0	0.31730794906599996	None	0.0	1.0	hexagoncyan.gif	go																															0.93	0.5145030021670001	0.00090503692627	0.317307949066	1.0	q	623.342850924																																																							2015_Jul_08_1018	59.9261621461	LearningTask	1	72	
121	200.0	w	200.0																	0.0	0.0	0.0	0.0	24.0	2.0	98.0	0.0																													w	1.0	0.384438991547	None	0.0	0.5	circleblue.gif	go																															0.0	0.514034032822	0.000942945480347	0.384438991547	1.0	w	626.345999956																																																							2015_Jul_08_1018	59.9261621461	LearningTask	1	72	
122	-200.0	q	200.0																	0.0	0.0	0.0	0.0	24.0	3.0	99.0	1.0																													q	1.0	0.367578983307	None	0.0	2.0	squarewhite.gif	go																															2.24	0.514215946198	0.0010449886322	0.367578983307	1.0	q	629.349171877																																																							2015_Jul_08_1018	59.9261621461	LearningTask	1	72	
123																				0.0	0.0	0.0	0.0																																																																																					9.0	17.3390898705																																														2015_Jul_08_1018	59.9261621461	LearningTask	1	72	
124	200.0	s	-200.0																	1.0	0.0	1.0	0.0	0.0	0.0	0.0	2.0																													s	1.0	0.400661945343	None	0.0	1.0	trianglemagenta.gif	stop																															0.78	0.510452985764	0.000913143157959	0.400661945343	1.0	s	650.156659842																																																							2015_Jul_08_1018	59.9261621461	LearningTask	1	72	
125	-200.0	a	-200.0																	1.0	0.0	1.0	0.0	0.0	1.0	1.0	3.0																													a	1.0	0.400761127472	None	0.0	4.0	invertedtrianglegray.gif	go																															3.93	0.513548851013	0.000917911529541	0.400761127472	1.0	a	653.159298897																																																							2015_Jul_08_1018	59.9261621461	LearningTask	1	72	
126	-200.0	q	200.0																	1.0	0.0	1.0	0.0	0.0	2.0	2.0	1.0																													q	1.0	0.367681026459	None	0.0	2.0	crossorange.gif	stop																															1.89	0.51435303688	0.000909805297852	0.367681026459	1.0	q	656.162817955																																																							2015_Jul_08_1018	59.9261621461	LearningTask	1	72	
127	-200.0	a	-200.0																	1.0	0.0	1.0	0.0	0.0	3.0	3.0	3.0																													a	1.0	0.350972175598	None	0.0	4.0	invertedtrianglegray.gif	go																															4.16	0.514050960541	0.000938892364502	0.350972175598	1.0	a	659.166102886																																																							2015_Jul_08_1018	59.9261621461	LearningTask	1	72	
128	-200.0	q	200.0																	1.0	0.0	1.0	0.0	1.0	0.0	4.0	1.0																													q	1.0	0.284203052521	None	0.0	0.5	lineyellow.gif	stop																															0.27	0.513755083084	0.0009760856628420001	0.284203052521	1.0	q	662.169260979																																																							2015_Jul_08_1018	59.9261621461	LearningTask	1	72	
129	200.0	s	-200.0																	1.0	0.0	1.0	0.0	1.0	1.0	5.0	2.0																													s	1.0	0.334136962891	None	0.0	0.5	lineyellow.gif	stop																															0.61	0.514706850052	0.0009019374847410001	0.334136962891	1.0	s	665.172647953																																																							2015_Jul_08_1018	59.9261621461	LearningTask	1	72	
130	-200.0	q	200.0																	1.0	0.0	1.0	0.0	1.0	2.0	6.0	1.0																													q	1.0	0.300467014313	None	0.0	4.0	diamondgreen.gif	stop																															0.0	0.514756917953	0.0009059906005860001	0.300467014313	1.0	q	668.176273823																																																							2015_Jul_08_1018	59.9261621461	LearningTask	1	72	
131	200.0	w	200.0																	1.0	0.0	1.0	0.0	1.0	3.0	7.0	0.0																													w	1.0	0.317868947983	None	0.0	4.0	diamondgreen.gif	stop																															0.0	0.5142819881440001	0.0009160041809079999	0.317868947983	1.0	w	671.179349899																																																							2015_Jul_08_1018	59.9261621461	LearningTask	1	72	
132	200.0	w	200.0																	1.0	0.0	1.0	0.0	2.0	0.0	8.0	0.0																													w	1.0	0.366800069809	None	0.0	1.0	hexagoncyan.gif	go																															1.15	0.514760971069	0.0009031295776369999	0.366800069809	1.0	w	674.182684898																																																							2015_Jul_08_1018	59.9261621461	LearningTask	1	72	
133	200.0	w	200.0																	1.0	0.0	1.0	0.0	2.0	1.0	9.0	0.0																													w	1.0	0.351027965546	None	0.0	1.0	hexagoncyan.gif	go																															1.02	0.514302968979	0.000900030136108	0.351027965546	1.0	w	677.186192036																																																							2015_Jul_08_1018	59.9261621461	LearningTask	1	72	
134	200.0	w	200.0																	1.0	0.0	1.0	0.0	2.0	2.0	10.0	0.0																													w	1.0	0.35021519660899997	None	0.0	4.0	invertedtrianglegray.gif	go																															4.14	0.514247894287	0.0008978843688960001	0.350215196609	1.0	w	680.189339876																																																							2015_Jul_08_1018	59.9261621461	LearningTask	1	72	
135	-200.0	a	-200.0																	1.0	0.0	1.0	0.0	2.0	3.0	11.0	3.0																													a	1.0	0.334026098251	None	0.0	4.0	invertedtrianglegray.gif	go																															4.11	0.5145490169529999	0.00113201141357	0.334026098251	1.0	a	683.193166018																																																							2015_Jul_08_1018	59.9261621461	LearningTask	1	72	
136	200.0	s	-200.0																	1.0	0.0	1.0	0.0	3.0	0.0	12.0	2.0																													s	1.0	0.350644826889	None	0.0	4.0	invertedtrianglegray.gif	go																															4.16	0.514240980148	0.0009119510650630002	0.350644826889	1.0	s	686.196228027																																																							2015_Jul_08_1018	59.9261621461	LearningTask	1	72	
137	-200.0	a	-200.0																	1.0	0.0	1.0	0.0	3.0	1.0	13.0	3.0																													a	1.0	0.40127801895099996	None	0.0	1.0	trianglemagenta.gif	stop																															1.02	0.5143711566929999	0.000896215438843	0.401278018951	1.0	a	689.199395895																																																							2015_Jul_08_1018	59.9261621461	LearningTask	1	72	
138	-200.0	a	-200.0																	1.0	0.0	1.0	0.0	3.0	2.0	14.0	3.0																													a	1.0	0.417890787125	None	0.0	1.0	trianglemagenta.gif	stop																															0.94	0.514172792435	0.0010018348693800001	0.417890787125	1.0	a	692.20278883																																																							2015_Jul_08_1018	59.9261621461	LearningTask	1	72	
139	-200.0	a	-200.0																	1.0	0.0	1.0	0.0	3.0	3.0	15.0	3.0																													a	1.0	0.283923149109	None	0.0	1.0	hexagoncyan.gif	go																															0.0	0.514715909958	0.0008869171142580001	0.283923149109	1.0	a	695.2063529489999																																																							2015_Jul_08_1018	59.9261621461	LearningTask	1	72	
140	200.0	s	-200.0																	1.0	0.0	1.0	0.0	4.0	0.0	16.0	2.0																													s	1.0	0.35109281539899995	None	0.0	0.5	lineyellow.gif	stop																															0.3	0.514128923416	0.00088095664978	0.351092815399	1.0	s	698.209617853																																																							2015_Jul_08_1018	59.9261621461	LearningTask	1	72	
141	200.0	w	200.0																	1.0	0.0	1.0	0.0	4.0	1.0	17.0	0.0																													w	1.0	0.317198991776	None	0.0	1.0	trianglemagenta.gif	stop																															0.89	0.514137983322	0.00095796585083	0.317198991776	1.0	w	701.21312499																																																							2015_Jul_08_1018	59.9261621461	LearningTask	1	72	
142	-200.0	a	-200.0																	1.0	0.0	1.0	0.0	4.0	2.0	18.0	3.0																													a	1.0	0.350921869278	None	0.0	4.0	diamondgreen.gif	stop																															4.15	0.513924837112	0.0009319782257080001	0.350921869278	1.0	a	704.216274023																																																							2015_Jul_08_1018	59.9261621461	LearningTask	1	72	
143	200.0	w	200.0																	1.0	0.0	1.0	0.0	4.0	3.0	19.0	0.0																													w	1.0	0.267230987549	None	0.0	1.0	trianglemagenta.gif	stop																															0.77	0.514415979385	0.0008869171142580001	0.267230987549	1.0	w	707.21993804																																																							2015_Jul_08_1018	59.9261621461	LearningTask	1	72	
144	200.0	s	-200.0																	1.0	0.0	1.0	0.0	5.0	0.0	20.0	2.0																													s	1.0	0.284391880035	None	0.0	1.0	hexagoncyan.gif	go																															1.23	0.513771057129	0.0008990764617919999	0.284391880035	1.0	s	710.223073006																																																							2015_Jul_08_1018	59.9261621461	LearningTask	1	72	
145	-200.0	q	200.0																	1.0	0.0	1.0	0.0	5.0	1.0	21.0	1.0																													q	1.0	0.267619132996	None	0.0	1.0	trianglemagenta.gif	stop																															1.1	0.514148950577	0.000882863998413	0.267619132996	1.0	q	713.2265129089999																																																							2015_Jul_08_1018	59.9261621461	LearningTask	1	72	
146	200.0	w	200.0																	1.0	0.0	1.0	0.0	5.0	2.0	22.0	0.0																													w	1.0	0.350865125656	None	0.0	4.0	diamondgreen.gif	stop																															3.96	0.51443195343	0.0008869171142580001	0.350865125656	1.0	w	716.23029685																																																							2015_Jul_08_1018	59.9261621461	LearningTask	1	72	
147	-200.0	a	-200.0																	1.0	0.0	1.0	0.0	5.0	3.0	23.0	3.0																													a	1.0	0.33424901962299997	None	0.0	4.0	invertedtrianglegray.gif	go																															3.99	0.5136899948120001	0.00112199783325	0.334249019623	1.0	a	719.232847929																																																							2015_Jul_08_1018	59.9261621461	LearningTask	1	72	
148	200.0	s	-200.0																	1.0	0.0	1.0	0.0	6.0	0.0	24.0	2.0																													s	1.0	0.317462921143	None	0.0	2.0	squarewhite.gif	go																															0.0	0.5146141052250001	0.0008790493011469999	0.317462921143	1.0	s	722.2363200189999																																																							2015_Jul_08_1018	59.9261621461	LearningTask	1	72	
149	200.0	s	-200.0																	1.0	0.0	1.0	0.0	6.0	1.0	25.0	2.0																													s	1.0	0.6510970592499999	None	0.0	0.5	circleblue.gif	go																															0.0	0.514164924622	0.0008990764617919999	0.234300851822	0.0	q	725.2398269180001	0.59	0.515443086624	0.000963926315308	0.65109705925	1.0	s	728.243532896																																																2015_Jul_08_1018	59.9261621461	LearningTask	1	72	
150	-200.0	q	200.0																	1.0	0.0	1.0	0.0	6.0	2.0	26.0	1.0																													q	1.0	0.384325027466	None	0.0	2.0	crossorange.gif	stop																															0.0	0.513669967651	0.00094199180603	0.384325027466	1.0	q	731.246722937																																																							2015_Jul_08_1018	59.9261621461	LearningTask	1	72	
151	-200.0	q	200.0																	1.0	0.0	1.0	0.0	6.0	3.0	27.0	1.0																													q	1.0	0.201014041901	None	0.0	0.5	lineyellow.gif	stop																															0.0	0.51437997818	0.000892162322998	0.233840942383	0.0	a	734.2499179839999	0.0	0.515214204788	0.000949144363403	0.201014041901	1.0	q	737.253207922																																																2015_Jul_08_1018	59.9261621461	LearningTask	1	72	
152	200.0	s	-200.0																	1.0	0.0	1.0	0.0	7.0	0.0	28.0	2.0																													s	1.0	0.300933837891	None	0.0	1.0	trianglemagenta.gif	stop																															1.16	0.513942956924	0.0010781288147	0.300933837891	1.0	s	740.256469965																																																							2015_Jul_08_1018	59.9261621461	LearningTask	1	72	
153	200.0	w	200.0																	1.0	0.0	1.0	0.0	7.0	1.0	29.0	0.0																													w	1.0	0.317749977112	None	0.0	0.5	circleblue.gif	go																															0.57	0.514302015305	0.0008840560913089999	0.317749977112	1.0	w	743.2600820060001																																																							2015_Jul_08_1018	59.9261621461	LearningTask	1	72	
154	-200.0	q	200.0																	1.0	0.0	1.0	0.0	7.0	2.0	30.0	1.0																													q	1.0	0.334254980087	None	0.0	0.5	lineyellow.gif	stop																															0.47	0.51406788826	0.000880002975464	0.334254980087	1.0	q	746.2637739180001																																																							2015_Jul_08_1018	59.9261621461	LearningTask	1	72	
155	200.0	w	200.0																	1.0	0.0	1.0	0.0	7.0	3.0	31.0	0.0																													w	1.0	0.317788124084	None	0.0	4.0	diamondgreen.gif	stop																															0.0	0.513155937195	0.0009398460388180001	0.317788124084	1.0	w	749.266814947																																																							2015_Jul_08_1018	59.9261621461	LearningTask	1	72	
156	200.0	s	-200.0																	1.0	0.0	1.0	0.0	8.0	0.0	32.0	2.0																													s	1.0	0.300816059113	None	0.0	0.5	circleblue.gif	go																															0.47	0.5138981342319999	0.0008859634399410001	0.300816059113	1.0	s	752.269904852																																																							2015_Jul_08_1018	59.9261621461	LearningTask	1	72	
157	200.0	s	-200.0																	1.0	0.0	1.0	0.0	8.0	1.0	33.0	2.0																													s	1.0	0.317879915237	None	0.0	4.0	invertedtrianglegray.gif	go																															4.01	0.514293909073	0.000885009765625	0.317879915237	1.0	s	755.27341485																																																							2015_Jul_08_1018	59.9261621461	LearningTask	1	72	
158	-200.0	q	200.0																	1.0	0.0	1.0	0.0	8.0	2.0	34.0	1.0																													q	1.0	0.317352056503	None	0.0	0.5	lineyellow.gif	stop																															0.43	0.513648033142	0.0009291172027589999	0.317352056503	1.0	q	758.276762009																																																							2015_Jul_08_1018	59.9261621461	LearningTask	1	72	
159	-200.0	a	-200.0																	1.0	0.0	1.0	0.0	8.0	3.0	35.0	3.0																													a	1.0	0.26706504821800003	None	0.0	4.0	invertedtrianglegray.gif	go																															4.07	0.5144300460819999	0.00088906288147	0.267065048218	1.0	a	761.280122042																																																							2015_Jul_08_1018	59.9261621461	LearningTask	1	72	
160	200.0	w	200.0																	1.0	0.0	1.0	0.0	9.0	0.0	36.0	0.0																													w	1.0	0.300604820251	None	0.0	2.0	squarewhite.gif	go																															0.0	0.5141639709470001	0.0009391307830810002	0.300604820251	1.0	w	764.2838819030001																																																							2015_Jul_08_1018	59.9261621461	LearningTask	1	72	
161	200.0	w	200.0																	1.0	0.0	1.0	0.0	9.0	1.0	37.0	0.0																													w	1.0	0.350656986237	None	0.0	4.0	diamondgreen.gif	stop																															4.23	0.513824939728	0.0008831024169919999	0.350656986237	1.0	w	767.286638021																																																							2015_Jul_08_1018	59.9261621461	LearningTask	1	72	
162	200.0	w	200.0																	1.0	0.0	1.0	0.0	9.0	2.0	38.0	0.0																													w	1.0	0.4676258564	None	0.0	4.0	diamondgreen.gif	stop																															3.86	0.514354944229	0.0008790493011469999	0.4676258564	1.0	w	770.2900388239999																																																							2015_Jul_08_1018	59.9261621461	LearningTask	1	72	
163	200.0	s	-200.0																	1.0	0.0	1.0	0.0	9.0	3.0	39.0	2.0																													s	1.0	0.35069513320900003	None	0.0	2.0	crossorange.gif	stop																															2.19	0.5142750740049999	0.000890016555786	0.350695133209	1.0	s	773.293319941																																																							2015_Jul_08_1018	59.9261621461	LearningTask	1	72	
164	-200.0	a	-200.0																	1.0	0.0	1.0	0.0	10.0	0.0	40.0	3.0																													a	1.0	0.334086179733	None	0.0	0.5	lineyellow.gif	stop																															0.54	0.514368057251	0.000888109207153	0.334086179733	1.0	a	776.297086																																																							2015_Jul_08_1018	59.9261621461	LearningTask	1	72	
165	-200.0	a	-200.0																	1.0	0.0	1.0	0.0	10.0	1.0	41.0	3.0																													a	1.0	0.30083107948300003	None	0.0	1.0	trianglemagenta.gif	stop																															1.0	0.513591051102	0.00100111961365	0.300831079483	1.0	a	779.300478935																																																							2015_Jul_08_1018	59.9261621461	LearningTask	1	72	
166	200.0	s	-200.0																	1.0	0.0	1.0	0.0	10.0	2.0	42.0	2.0																													s	1.0	0.333765983582	None	0.0	2.0	crossorange.gif	stop																															1.85	0.5142738819120001	0.0008940696716310001	0.333765983582	1.0	s	782.3036079410001																																																							2015_Jul_08_1018	59.9261621461	LearningTask	1	72	
167	-200.0	q	200.0																	1.0	0.0	1.0	0.0	10.0	3.0	43.0	1.0																													q	1.0	0.301163911819	None	0.0	2.0	crossorange.gif	stop																															1.86	0.514209032059	0.000882863998413	0.301163911819	1.0	q	785.306741953																																																							2015_Jul_08_1018	59.9261621461	LearningTask	1	72	
168	-200.0	q	200.0																	1.0	0.0	1.0	0.0	11.0	0.0	44.0	1.0																													q	1.0	0.384748935699	None	0.0	0.5	circleblue.gif	go																															0.66	0.514106035233	0.00105595588684	0.384748935699	1.0	q	788.310351849																																																							2015_Jul_08_1018	59.9261621461	LearningTask	1	72	
169	200.0	s	-200.0																	1.0	0.0	1.0	0.0	11.0	1.0	45.0	2.0																													s	1.0	0.334195137024	None	0.0	1.0	hexagoncyan.gif	go																															0.0	0.514183044434	0.000923871994019	0.334195137024	1.0	s	791.31347394																																																							2015_Jul_08_1018	59.9261621461	LearningTask	1	72	
170	-200.0	q	200.0																	1.0	0.0	1.0	0.0	11.0	2.0	46.0	1.0																													q	1.0	0.367574930191	None	0.0	0.5	lineyellow.gif	stop																															0.28	0.5144309997559999	0.0009720325469970001	0.367574930191	1.0	q	794.317186832																																																							2015_Jul_08_1018	59.9261621461	LearningTask	1	72	
171	-200.0	a	-200.0																	1.0	0.0	1.0	0.0	11.0	3.0	47.0	3.0																													a	1.0	0.417812824249	None	0.0	2.0	squarewhite.gif	go																															0.0	0.5133860111240001	0.00092601776123	0.417812824249	1.0	a	797.320374966																																																							2015_Jul_08_1018	59.9261621461	LearningTask	1	72	
172	200.0	s	-200.0																	1.0	0.0	1.0	0.0	12.0	0.0	48.0	2.0																													s	1.0	0.317331075668	None	0.0	2.0	squarewhite.gif	go																															2.07	0.514132976532	0.0008950233459470001	0.317331075668	1.0	s	800.323461056																																																							2015_Jul_08_1018	59.9261621461	LearningTask	1	72	
173	-200.0	q	200.0																	1.0	0.0	1.0	0.0	12.0	1.0	49.0	1.0																													q	1.0	0.400892972946	None	0.0	4.0	invertedtrianglegray.gif	go																															3.84	0.514462947845	0.0008931159973139998	0.400892972946	1.0	q	803.3271298410001																																																							2015_Jul_08_1018	59.9261621461	LearningTask	1	72	
174	200.0	s	-200.0																	1.0	0.0	1.0	0.0	12.0	2.0	50.0	2.0																													s	1.0	0.301330804825	None	0.0	0.5	lineyellow.gif	stop																															0.0	0.513366937637	0.0009570121765139998	0.301330804825	1.0	s	806.330443859																																																							2015_Jul_08_1018	59.9261621461	LearningTask	1	72	
175	200.0	w	200.0																	1.0	0.0	1.0	0.0	12.0	3.0	51.0	0.0																													w	1.0	0.317505121231	None	0.0	1.0	hexagoncyan.gif	go																															0.78	0.514126062393	0.000928163528442	0.317505121231	1.0	w	809.334133863																																																							2015_Jul_08_1018	59.9261621461	LearningTask	1	72	
176	-200.0	q	200.0																	1.0	0.0	1.0	0.0	13.0	0.0	52.0	1.0																													q	1.0	0.28434896469099996	None	0.0	0.5	lineyellow.gif	stop																															0.56	0.513655900955	0.0008788108825680001	0.284348964691	1.0	q	812.33740592																																																							2015_Jul_08_1018	59.9261621461	LearningTask	1	72	
177	-200.0	a	-200.0																	1.0	0.0	1.0	0.0	13.0	1.0	53.0	3.0																													a	1.0	0.18395304679900001	None	0.0	2.0	squarewhite.gif	go																															0.0	0.5141859054569999	0.0008840560913089999	0.250456094742	0.0	q	815.340447903	2.08	0.515408992767	0.000941038131714	0.183953046799	1.0	a	818.3436830039999																																																2015_Jul_08_1018	59.9261621461	LearningTask	1	72	
178	200.0	w	200.0																	1.0	0.0	1.0	0.0	13.0	2.0	54.0	0.0																													w	1.0	0.318160057068	None	0.0	4.0	diamondgreen.gif	stop																															4.05	0.514069080353	0.0009140968322749999	0.318160057068	1.0	w	821.347269058																																																							2015_Jul_08_1018	59.9261621461	LearningTask	1	72	
179	-200.0	q	200.0																	1.0	0.0	1.0	0.0	13.0	3.0	55.0	1.0																													q	1.0	0.350703001022	None	0.0	1.0	hexagoncyan.gif	go																															1.09	0.514019012451	0.00088906288147	0.350703001022	1.0	q	824.350491047																																																							2015_Jul_08_1018	59.9261621461	LearningTask	1	72	
180	-200.0	a	-200.0																	1.0	0.0	1.0	0.0	14.0	0.0	56.0	3.0																													a	1.0	0.117594003677	None	0.0	1.0	hexagoncyan.gif	go																															0.0	0.514493942261	0.00098705291748	0.217082977295	0.0	s	827.3541140560001	1.23	0.515064954758	0.0009560585021970001	0.117594003677	1.0	a	830.357278824																																																2015_Jul_08_1018	59.9261621461	LearningTask	1	72	
181	200.0	w	200.0																	1.0	0.0	1.0	0.0	14.0	1.0	57.0	0.0																													w	1.0	0.367928981781	None	0.0	4.0	invertedtrianglegray.gif	go																															0.0	0.5141940116879999	0.00088095664978	0.367928981781	1.0	w	833.3604488369999																																																							2015_Jul_08_1018	59.9261621461	LearningTask	1	72	
182	200.0	s	-200.0																	1.0	0.0	1.0	0.0	14.0	2.0	58.0	2.0																													s	1.0	0.301076889038	None	0.0	2.0	crossorange.gif	stop																															2.01	0.514132022858	0.00103902816772	0.301076889038	1.0	s	836.363672018																																																							2015_Jul_08_1018	59.9261621461	LearningTask	1	72	
183	-200.0	a	-200.0																	1.0	0.0	1.0	0.0	14.0	3.0	59.0	3.0																													a	1.0	0.268060922623	None	0.0	1.0	hexagoncyan.gif	go																															1.05	0.514398097992	0.0008931159973139998	0.268060922623	1.0	a	839.367293835																																																							2015_Jul_08_1018	59.9261621461	LearningTask	1	72	
184	200.0	w	200.0																	1.0	0.0	1.0	0.0	15.0	0.0	60.0	0.0																													w	1.0	0.367702007294	None	0.0	1.0	trianglemagenta.gif	stop																															0.84	0.514028787613	0.000908851623535	0.367702007294	1.0	w	842.37055397																																																							2015_Jul_08_1018	59.9261621461	LearningTask	1	72	
185	-200.0	a	-200.0																	1.0	0.0	1.0	0.0	15.0	1.0	61.0	3.0																													a	1.0	0.417233943939	None	0.0	2.0	squarewhite.gif	go																															1.97	0.5142099857329999	0.0009109973907470001	0.417233943939	1.0	a	845.374022961																																																							2015_Jul_08_1018	59.9261621461	LearningTask	1	72	
186	-200.0	q	200.0																	1.0	0.0	1.0	0.0	15.0	2.0	62.0	1.0																													q	1.0	0.334401845932	None	0.0	0.5	lineyellow.gif	stop																															0.61	0.514372825623	0.0008869171142580001	0.334401845932	1.0	q	848.377457857																																																							2015_Jul_08_1018	59.9261621461	LearningTask	1	72	
187	200.0	s	-200.0																	1.0	0.0	1.0	0.0	15.0	3.0	63.0	2.0																													s	1.0	0.317396879196	None	0.0	0.5	circleblue.gif	go																															0.69	0.514108181	0.000930070877075	0.317396879196	1.0	s	851.380821943																																																							2015_Jul_08_1018	59.9261621461	LearningTask	1	72	
188	200.0	w	200.0																	1.0	0.0	1.0	0.0	16.0	0.0	64.0	0.0																													w	1.0	0.367563962936	None	0.0	0.5	lineyellow.gif	stop																															0.41	0.513675928116	0.000942945480347	0.367563962936	1.0	w	854.384074926																																																							2015_Jul_08_1018	59.9261621461	LearningTask	1	72	
189	200.0	s	-200.0																	1.0	0.0	1.0	0.0	16.0	1.0	65.0	2.0																													s	1.0	0.300919055939	None	0.0	1.0	hexagoncyan.gif	go																															0.93	0.514225006104	0.0008869171142580001	0.300919055939	1.0	s	857.387336969																																																							2015_Jul_08_1018	59.9261621461	LearningTask	1	72	
190	200.0	s	-200.0																	1.0	0.0	1.0	0.0	16.0	2.0	66.0	2.0																													s	1.0	0.301151990891	None	0.0	1.0	hexagoncyan.gif	go																															0.77	0.514039039612	0.000892877578735	0.301151990891	1.0	s	860.391370058																																																							2015_Jul_08_1018	59.9261621461	LearningTask	1	72	
191	-200.0	q	200.0																	1.0	0.0	1.0	0.0	16.0	3.0	67.0	1.0																													q	1.0	0.134582042694	None	0.0	2.0	squarewhite.gif	go																															0.0	0.513514041901	0.0008840560913089999	0.25067281723	0.0	a	863.3939599989999	1.89	0.515535116196	0.0009379386901860002	0.134582042694	1.0	q	866.3972768780001																																																2015_Jul_08_1018	59.9261621461	LearningTask	1	72	
192	200.0	w	200.0																	1.0	0.0	1.0	0.0	17.0	0.0	68.0	0.0																													w	1.0	0.317482948303	None	0.0	0.5	circleblue.gif	go																															0.65	0.514389038086	0.0009069442749019998	0.317482948303	1.0	w	869.401104927																																																							2015_Jul_08_1018	59.9261621461	LearningTask	1	72	
193	-200.0	q	200.0																	1.0	0.0	1.0	0.0	17.0	1.0	69.0	1.0																													q	1.0	0.35080099105800006	None	0.0	4.0	diamondgreen.gif	stop																															4.25	0.5140080451969999	0.0008940696716310001	0.350800991058	1.0	q	872.404047966																																																							2015_Jul_08_1018	59.9261621461	LearningTask	1	72	
194	-200.0	a	-200.0																	1.0	0.0	1.0	0.0	17.0	2.0	70.0	3.0																													a	1.0	0.333695888519	None	0.0	2.0	squarewhite.gif	go																															0.0	0.514676809311	0.00115990638733	0.333695888519	1.0	a	875.407778025																																																							2015_Jul_08_1018	59.9261621461	LearningTask	1	72	
195	200.0	w	200.0																	1.0	0.0	1.0	0.0	17.0	3.0	71.0	0.0																													w	1.0	0.38454079628	None	0.0	1.0	trianglemagenta.gif	stop																															0.86	0.513767957687	0.0008821487426760002	0.38454079628	1.0	w	878.410939932																																																							2015_Jul_08_1018	59.9261621461	LearningTask	1	72	
196	-200.0	a	-200.0																	1.0	0.0	1.0	0.0	18.0	0.0	72.0	3.0																													a	1.0	0.367877006531	None	0.0	2.0	crossorange.gif	stop																															1.91	0.5142009258269999	0.0008878707885739998	0.367877006531	1.0	a	881.414175034																																																							2015_Jul_08_1018	59.9261621461	LearningTask	1	72	
197	200.0	s	-200.0																	1.0	0.0	1.0	0.0	18.0	1.0	73.0	2.0																													s	1.0	0.35133790969800005	None	0.0	1.0	hexagoncyan.gif	go																															1.13	0.513862848282	0.00112199783325	0.351337909698	1.0	s	884.4173829560001																																																							2015_Jul_08_1018	59.9261621461	LearningTask	1	72	
198	-200.0	a	-200.0																	1.0	0.0	1.0	0.0	18.0	2.0	74.0	3.0																													a	1.0	0.134252786636	None	0.0	2.0	crossorange.gif	stop																															0.0	0.514573812485	0.0008978843688960001	0.33401799202	0.0	q	887.420925856	0.0	0.51544380188	0.0009570121765139998	0.134252786636	1.0	a	890.4245479110001																																																2015_Jul_08_1018	59.9261621461	LearningTask	1	72	
199	-200.0	a	-200.0																	1.0	0.0	1.0	0.0	18.0	3.0	75.0	3.0																													a	1.0	0.367094993591	None	0.0	4.0	invertedtrianglegray.gif	go																															4.12	0.5142378807069999	0.0009548664093019999	0.367094993591	1.0	a	893.4278328419999																																																							2015_Jul_08_1018	59.9261621461	LearningTask	1	72	
200	-200.0	q	200.0																	1.0	0.0	1.0	0.0	19.0	0.0	76.0	1.0																													q	1.0	0.400771856308	None	0.0	1.0	hexagoncyan.gif	go																															0.92	0.514141798019	0.0008838176727290001	0.400771856308	1.0	q	896.430922985																																																							2015_Jul_08_1018	59.9261621461	LearningTask	1	72	
201	-200.0	a	-200.0																	1.0	0.0	1.0	0.0	19.0	1.0	77.0	3.0																													a	1.0	0.3348300457	None	0.0	2.0	crossorange.gif	stop																															1.76	0.5142841339109999	0.0008790493011469999	0.3348300457	1.0	a	899.4344918730001																																																							2015_Jul_08_1018	59.9261621461	LearningTask	1	72	
202	200.0	w	200.0																	1.0	0.0	1.0	0.0	19.0	2.0	78.0	0.0																													w	1.0	0.334143877029	None	0.0	1.0	hexagoncyan.gif	go																															0.97	0.513633012772	0.000918865203857	0.334143877029	1.0	w	902.4375779630001																																																							2015_Jul_08_1018	59.9261621461	LearningTask	1	72	
203	-200.0	q	200.0																	1.0	0.0	1.0	0.0	19.0	3.0	79.0	1.0																													q	1.0	0.350857019424	None	0.0	1.0	trianglemagenta.gif	stop																															1.05	0.514294862747	0.000881910324097	0.350857019424	1.0	q	905.44133687																																																							2015_Jul_08_1018	59.9261621461	LearningTask	1	72	
204	-200.0	a	-200.0																	1.0	0.0	1.0	0.0	20.0	0.0	80.0	3.0																													a	1.0	0.334626913071	None	0.0	2.0	squarewhite.gif	go																															2.15	0.513607025146	0.000961065292358	0.334626913071	1.0	a	908.444795847																																																							2015_Jul_08_1018	59.9261621461	LearningTask	1	72	
205	200.0	w	200.0																	1.0	0.0	1.0	0.0	20.0	1.0	81.0	0.0																													w	1.0	0.36742687225299997	None	0.0	2.0	squarewhite.gif	go																															2.04	0.513884067535	0.000880002975464	0.367426872253	1.0	w	911.44773984																																																							2015_Jul_08_1018	59.9261621461	LearningTask	1	72	
206	200.0	s	-200.0																	1.0	0.0	1.0	0.0	20.0	2.0	82.0	2.0																													s	1.0	0.333935976028	None	0.0	2.0	squarewhite.gif	go																															1.82	0.514359951019	0.0008728504180910001	0.333935976028	1.0	s	914.451040983																																																							2015_Jul_08_1018	59.9261621461	LearningTask	1	72	
207	-200.0	a	-200.0																	1.0	0.0	1.0	0.0	20.0	3.0	83.0	3.0																													a	1.0	0.48401403427100004	None	0.0	1.0	hexagoncyan.gif	go																															0.0	0.514086961746	0.000931024551392	0.484014034271	1.0	a	917.454874992																																																							2015_Jul_08_1018	59.9261621461	LearningTask	1	72	
208	200.0	w	200.0																	1.0	0.0	1.0	0.0	21.0	0.0	84.0	0.0																													w	1.0	0.284264087677	None	0.0	4.0	invertedtrianglegray.gif	go																															4.15	0.513673067093	0.0008821487426760002	0.284264087677	1.0	w	920.4577660560001																																																							2015_Jul_08_1018	59.9261621461	LearningTask	1	72	
209	-200.0	q	200.0																	1.0	0.0	1.0	0.0	21.0	1.0	85.0	1.0																													q	1.0	0.384412050247	None	0.0	1.0	trianglemagenta.gif	stop																															1.24	0.514246940613	0.0010831356048599998	0.384412050247	1.0	q	923.461607933																																																							2015_Jul_08_1018	59.9261621461	LearningTask	1	72	
210	200.0	s	-200.0																	1.0	0.0	1.0	0.0	21.0	2.0	86.0	2.0																													s	1.0	0.316833019257	None	0.0	4.0	diamondgreen.gif	stop																															0.0	0.514055013657	0.000903844833374	0.316833019257	1.0	s	926.464776039																																																							2015_Jul_08_1018	59.9261621461	LearningTask	1	72	
211	200.0	w	200.0																	1.0	0.0	1.0	0.0	21.0	3.0	87.0	0.0																													w	1.0	0.334406852722	None	0.0	2.0	squarewhite.gif	go																															1.96	0.513715028763	0.0008749961853029999	0.334406852722	1.0	w	929.467811823																																																							2015_Jul_08_1018	59.9261621461	LearningTask	1	72	
212	-200.0	a	-200.0																	1.0	0.0	1.0	0.0	22.0	0.0	88.0	3.0																													a	1.0	0.250981092453	None	0.0	2.0	squarewhite.gif	go																															2.13	0.514046907425	0.00105285644531	0.250981092453	1.0	a	932.4710738660001																																																							2015_Jul_08_1018	59.9261621461	LearningTask	1	72	
213	200.0	s	-200.0																	1.0	0.0	1.0	0.0	22.0	1.0	89.0	2.0																													s	1.0	0.317834854126	None	0.0	2.0	crossorange.gif	stop																															1.94	0.514129161835	0.000885009765625	0.317834854126	1.0	s	935.4747698310001																																																							2015_Jul_08_1018	59.9261621461	LearningTask	1	72	
214	200.0	w	200.0																	1.0	0.0	1.0	0.0	22.0	2.0	90.0	0.0																													w	1.0	0.334192037582	None	0.0	1.0	hexagoncyan.gif	go																															0.94	0.5139930248260001	0.00102305412292	0.334192037582	1.0	w	938.4778089519999																																																							2015_Jul_08_1018	59.9261621461	LearningTask	1	72	
215	-200.0	a	-200.0																	1.0	0.0	1.0	0.0	22.0	3.0	91.0	3.0																													a	1.0	0.418062925339	None	0.0	0.5	circleblue.gif	go																															0.74	0.5140240192409999	0.0009570121765139998	0.418062925339	1.0	a	941.481470823																																																							2015_Jul_08_1018	59.9261621461	LearningTask	1	72	
216	-200.0	q	200.0																	1.0	0.0	1.0	0.0	23.0	0.0	92.0	1.0																													q	1.0	0.31747794151299996	None	0.0	4.0	invertedtrianglegray.gif	go																															3.93	0.514115095139	0.000887155532837	0.317477941513	1.0	q	944.484583855																																																							2015_Jul_08_1018	59.9261621461	LearningTask	1	72	
217	200.0	s	-200.0																	1.0	0.0	1.0	0.0	23.0	1.0	93.0	2.0																													s	1.0	0.26735496520999996	None	0.0	0.5	circleblue.gif	go																															0.34	0.514389038086	0.000904083251953	0.26735496521	1.0	s	947.4880118369999																																																							2015_Jul_08_1018	59.9261621461	LearningTask	1	72	
218	-200.0	q	200.0																	1.0	0.0	1.0	0.0	23.0	2.0	94.0	1.0																													q	1.0	0.36739611625699997	None	0.0	2.0	squarewhite.gif	go																															0.0	0.514068841934	0.000922918319702	0.234345197678	0.0	a	950.49119091	0.0	0.515539884567	0.0009520053863530001	[]	0.0	None	953.495017052			2.11	0.514988899231	0.000940799713135	0.367396116257	1.0	q	956.498864889																																							2015_Jul_08_1018	59.9261621461	LearningTask	1	72	
219	200.0	s	-200.0																	1.0	0.0	1.0	0.0	23.0	3.0	95.0	2.0																													s	1.0	0.350718021393	None	0.0	0.5	lineyellow.gif	stop																															0.0	0.513294935226	0.000900030136108	0.350718021393	1.0	s	959.501153946																																																							2015_Jul_08_1018	59.9261621461	LearningTask	1	72	
220	-200.0	q	200.0																	1.0	0.0	1.0	0.0	24.0	0.0	96.0	1.0																													q	1.0	0.23416900634799998	None	0.0	2.0	squarewhite.gif	go																															2.2	0.5146729946140001	0.0009031295776369999	0.234169006348	1.0	q	962.504621983																																																							2015_Jul_08_1018	59.9261621461	LearningTask	1	72	
221	-200.0	q	200.0																	1.0	0.0	1.0	0.0	24.0	1.0	97.0	1.0																													q	1.0	0.100260019302	None	0.0	4.0	diamondgreen.gif	stop																															0.0	0.5146009922029999	0.000881910324097	0.367783069611	0.0	a	965.5082829	4.03	0.515413045883	0.000965118408203	0.100260019302	1.0	q	968.5113408569999																																																2015_Jul_08_1018	59.9261621461	LearningTask	1	72	
222	200.0	w	200.0																	1.0	0.0	1.0	0.0	24.0	2.0	98.0	0.0																													w	1.0	0.333974123001	None	0.0	0.5	circleblue.gif	go																															0.0	0.514409065247	0.00104713439941	0.333974123001	1.0	w	971.5144310000001																																																							2015_Jul_08_1018	59.9261621461	LearningTask	1	72	
223	-200.0	q	200.0																	1.0	0.0	1.0	0.0	24.0	3.0	99.0	1.0																													q	1.0	0.367819070816	None	0.0	1.0	hexagoncyan.gif	go																															0.83	0.514383077621	0.0008909702301030001	0.367819070816	1.0	q	974.518237829																																																							2015_Jul_08_1018	59.9261621461	LearningTask	1	72	
224																				1.0	0.0	1.0	0.0																																																																																					9.0	45.347204923599996																																														2015_Jul_08_1018	59.9261621461	LearningTask	1	72	
225	-200.0	a	-200.0																	2.0	0.0	2.0	0.0	0.0	0.0	0.0	3.0																													a	1.0	0.38382697105400004	None	0.0	4.0	invertedtrianglegray.gif	go																															4.05	0.5099689960480001	0.00094199180603	0.383826971054	1.0	a	1023.6901989																																																							2015_Jul_08_1018	59.9261621461	LearningTask	1	72	
226	200.0	s	-200.0																	2.0	0.0	2.0	0.0	0.0	1.0	1.0	2.0																													s	1.0	0.300673961639	None	0.0	4.0	invertedtrianglegray.gif	go																															3.89	0.513695955276	0.0008859634399410001	0.300673961639	1.0	s	1026.693326																																																							2015_Jul_08_1018	59.9261621461	LearningTask	1	72	
227	-200.0	a	-200.0																	2.0	0.0	2.0	0.0	0.0	2.0	2.0	3.0																													a	1.0	0.300788164139	None	0.0	4.0	diamondgreen.gif	stop																															4.04	0.513666152954	0.0008780956268310002	0.300788164139	1.0	a	1029.69636703																																																							2015_Jul_08_1018	59.9261621461	LearningTask	1	72	
228	-200.0	a	-200.0																	2.0	0.0	2.0	0.0	0.0	3.0	3.0	3.0																													a	1.0	0.334010124207	None	0.0	0.5	lineyellow.gif	stop																															0.0	0.514345884323	0.00088095664978	0.334010124207	1.0	a	1032.69983387																																																							2015_Jul_08_1018	59.9261621461	LearningTask	1	72	
229	-200.0	a	-200.0																	2.0	0.0	2.0	0.0	1.0	0.0	4.0	3.0																													a	1.0	0.300709962845	None	0.0	2.0	crossorange.gif	stop																															1.78	0.5141651630399999	0.0008821487426760002	0.300709962845	1.0	a	1035.70362782																																																							2015_Jul_08_1018	59.9261621461	LearningTask	1	72	
230	-200.0	a	-200.0																	2.0	0.0	2.0	0.0	1.0	1.0	5.0	3.0																													a	1.0	0.317312955856	None	0.0	0.5	circleblue.gif	go																															0.72	0.513804197311	0.0008831024169919999	0.317312955856	1.0	a	1038.70651484																																																							2015_Jul_08_1018	59.9261621461	LearningTask	1	72	
231	-200.0	q	200.0																	2.0	0.0	2.0	0.0	1.0	2.0	6.0	1.0																													q	1.0	0.317529916763	None	0.0	0.5	circleblue.gif	go																															0.45	0.514282941818	0.0009329319000239999	0.317529916763	1.0	q	1041.70958686																																																							2015_Jul_08_1018	59.9261621461	LearningTask	1	72	
232	-200.0	q	200.0																	2.0	0.0	2.0	0.0	1.0	3.0	7.0	1.0																													q	1.0	0.31706905365	None	0.0	2.0	crossorange.gif	stop																															2.13	0.514760971069	0.0008978843688960001	0.31706905365	1.0	q	1044.71330786																																																							2015_Jul_08_1018	59.9261621461	LearningTask	1	72	
233	200.0	s	-200.0																	2.0	0.0	2.0	0.0	2.0	0.0	8.0	2.0																													s	1.0	0.317341089249	None	0.0	0.5	lineyellow.gif	stop																															0.28	0.514388084412	0.00105810165405	0.317341089249	1.0	s	1047.71660995																																																							2015_Jul_08_1018	59.9261621461	LearningTask	1	72	
234	200.0	w	200.0																	2.0	0.0	2.0	0.0	2.0	1.0	9.0	0.0																													w	1.0	0.467519044876	None	0.0	2.0	squarewhite.gif	go																															1.97	0.51437997818	0.000996112823486	0.467519044876	1.0	w	1050.71965098																																																							2015_Jul_08_1018	59.9261621461	LearningTask	1	72	
235	-200.0	q	200.0																	2.0	0.0	2.0	0.0	2.0	2.0	10.0	1.0																													q	1.0	0.351340055466	None	0.0	0.5	circleblue.gif	go																															0.53	0.514611959457	0.000880002975464	0.351340055466	1.0	q	1053.72320795																																																							2015_Jul_08_1018	59.9261621461	LearningTask	1	72	
236	-200.0	a	-200.0																	2.0	0.0	2.0	0.0	2.0	3.0	11.0	3.0																													a	1.0	0.267623901367	None	0.0	0.5	lineyellow.gif	stop																															0.49	0.5144441127780001	0.0008769035339360002	0.267623901367	1.0	a	1056.72672701																																																							2015_Jul_08_1018	59.9261621461	LearningTask	1	72	
237	200.0	s	-200.0																	2.0	0.0	2.0	0.0	3.0	0.0	12.0	2.0																													s	1.0	0.267598867416	None	0.0	2.0	crossorange.gif	stop																															1.9	0.51348400116	0.0009329319000239999	0.267598867416	1.0	s	1059.73002195																																																							2015_Jul_08_1018	59.9261621461	LearningTask	1	72	
238	-200.0	q	200.0																	2.0	0.0	2.0	0.0	3.0	1.0	13.0	1.0																													q	1.0	0.33383488655099997	None	0.0	2.0	crossorange.gif	stop																															2.12	0.514446973801	0.0009109973907470001	0.333834886551	1.0	q	1062.733428																																																							2015_Jul_08_1018	59.9261621461	LearningTask	1	72	
239	200.0	s	-200.0																	2.0	0.0	2.0	0.0	3.0	2.0	14.0	2.0																													s	1.0	0.317764043808	None	0.0	4.0	diamondgreen.gif	stop																															4.04	0.5138609409329999	0.0009019374847410001	0.317764043808	1.0	s	1065.73657393																																																							2015_Jul_08_1018	59.9261621461	LearningTask	1	72	
240	-200.0	a	-200.0																	2.0	0.0	2.0	0.0	3.0	3.0	15.0	3.0																													a	1.0	0.334068775177	None	0.0	0.5	circleblue.gif	go																															0.52	0.514106035233	0.000922203063965	0.334068775177	1.0	a	1068.74012804																																																							2015_Jul_08_1018	59.9261621461	LearningTask	1	72	
241	-200.0	a	-200.0																	2.0	0.0	2.0	0.0	4.0	0.0	16.0	3.0																													a	1.0	0.233515977859	None	0.0	1.0	hexagoncyan.gif	go																															0.0	0.514452934265	0.0008859634399410001	0.317218065262	0.0	q	1071.74322391	0.81	0.515985965729	0.000942945480347	0.233515977859	1.0	a	1074.74738288																																																2015_Jul_08_1018	59.9261621461	LearningTask	1	72	
242	-200.0	a	-200.0																	2.0	0.0	2.0	0.0	4.0	1.0	17.0	3.0																													a	1.0	0.233983039856	None	0.0	4.0	invertedtrianglegray.gif	go																															0.0	0.513507843018	0.0008959770202639998	0.250998973846	0.0	q	1077.75012183	3.95	0.515357017517	0.0009479522705080001	0.233983039856	1.0	a	1080.75337505																																																2015_Jul_08_1018	59.9261621461	LearningTask	1	72	
243	200.0	w	200.0																	2.0	0.0	2.0	0.0	4.0	2.0	18.0	0.0																													w	1.0	0.350857973099	None	0.0	1.0	hexagoncyan.gif	go																															0.0	0.514277935028	0.0009448528289790001	0.350857973099	1.0	w	1083.75726485																																																							2015_Jul_08_1018	59.9261621461	LearningTask	1	72	
244	200.0	w	200.0																	2.0	0.0	2.0	0.0	4.0	3.0	19.0	0.0																													w	1.0	0.33469581604000004	None	0.0	0.5	circleblue.gif	go																															0.0	0.51347899437	0.0008959770202639998	0.33469581604	1.0	w	1086.76006889																																																							2015_Jul_08_1018	59.9261621461	LearningTask	1	72	
245	200.0	s	-200.0																	2.0	0.0	2.0	0.0	5.0	0.0	20.0	2.0																													s	1.0	0.400746107101	None	0.0	0.5	lineyellow.gif	stop																															0.71	0.514461040497	0.00088906288147	0.400746107101	1.0	s	1089.76329899																																																							2015_Jul_08_1018	59.9261621461	LearningTask	1	72	
246	200.0	s	-200.0																	2.0	0.0	2.0	0.0	5.0	1.0	21.0	2.0																													s	1.0	0.33481192588799996	None	0.0	4.0	diamondgreen.gif	stop																															3.98	0.514455080032	0.0008978843688960001	0.334811925888	1.0	s	1092.76692605																																																							2015_Jul_08_1018	59.9261621461	LearningTask	1	72	
247	200.0	w	200.0																	2.0	0.0	2.0	0.0	5.0	2.0	22.0	0.0																													w	1.0	0.300474882126	None	0.0	1.0	trianglemagenta.gif	stop																															0.91	0.514341115952	0.0009181499481200001	0.300474882126	1.0	w	1095.77023101																																																							2015_Jul_08_1018	59.9261621461	LearningTask	1	72	
248	200.0	w	200.0																	2.0	0.0	2.0	0.0	5.0	3.0	23.0	0.0																													w	1.0	0.184501171112	None	0.0	0.5	lineyellow.gif	stop																															0.0	0.5141630172730001	0.00122499465942	0.217559099197	0.0	q	1098.77372384	0.45	0.515109062195	0.000953197479248	0.184501171112	1.0	w	1101.77686405																																																2015_Jul_08_1018	59.9261621461	LearningTask	1	72	
249	200.0	s	-200.0																	2.0	0.0	2.0	0.0	6.0	0.0	24.0	2.0																													s	1.0	0.350586891174	None	0.0	4.0	diamondgreen.gif	stop																															3.77	0.5144071578980001	0.000928163528442	0.350586891174	1.0	s	1104.78024483																																																							2015_Jul_08_1018	59.9261621461	LearningTask	1	72	
250	-200.0	q	200.0																	2.0	0.0	2.0	0.0	6.0	1.0	25.0	1.0																													q	1.0	0.334112882614	None	0.0	1.0	trianglemagenta.gif	stop																															0.0	0.513911962509	0.000945806503296	0.334112882614	1.0	q	1107.78370905																																																							2015_Jul_08_1018	59.9261621461	LearningTask	1	72	
251	-200.0	q	200.0																	2.0	0.0	2.0	0.0	6.0	2.0	26.0	1.0																													q	1.0	0.300505161285	None	0.0	4.0	invertedtrianglegray.gif	go																															0.0	0.5145850181580001	0.000890016555786	0.300505161285	1.0	q	1110.78671098																																																							2015_Jul_08_1018	59.9261621461	LearningTask	1	72	
252	200.0	s	-200.0																	2.0	0.0	2.0	0.0	6.0	3.0	27.0	2.0																													s	1.0	0.26730990409899996	None	0.0	2.0	squarewhite.gif	go																															0.0	0.514706850052	0.000882863998413	0.167614936829	0.0	q	1113.79023886	0.0	0.515495061874	0.0009739398956299999	0.267309904099	1.0	s	1116.79356194																																																2015_Jul_08_1018	59.9261621461	LearningTask	1	72	
253	200.0	w	200.0																	2.0	0.0	2.0	0.0	7.0	0.0	28.0	0.0																													w	1.0	0.334108114243	None	0.0	1.0	hexagoncyan.gif	go																															0.92	0.5145490169529999	0.0008859634399410001	0.334108114243	1.0	w	1119.79700398																																																							2015_Jul_08_1018	59.9261621461	LearningTask	1	72	
254	-200.0	q	200.0																	2.0	0.0	2.0	0.0	7.0	1.0	29.0	1.0																													q	1.0	0.10067200660700001	None	0.0	2.0	crossorange.gif	stop																															0.0	0.514297962189	0.0008919239044189998	0.267534017563	0.0	a	1122.80049491	2.16	0.515336990356	0.0009629726409910001	0.100672006607	1.0	q	1125.80392098																																																2015_Jul_08_1018	59.9261621461	LearningTask	1	72	
255	-200.0	a	-200.0																	2.0	0.0	2.0	0.0	7.0	2.0	30.0	3.0																													a	1.0	0.30048084259	None	0.0	0.5	lineyellow.gif	stop																															0.37	0.51425409317	0.00088095664978	0.30048084259	1.0	a	1128.80705905																																																							2015_Jul_08_1018	59.9261621461	LearningTask	1	72	
256	200.0	s	-200.0																	2.0	0.0	2.0	0.0	7.0	3.0	31.0	2.0																													s	1.0	0.150380134583	None	0.0	1.0	hexagoncyan.gif	go																															0.0	0.514285802841	0.0008788108825680001	0.334235906601	0.0	w	1131.8107810000001	1.07	0.515116930008	0.000962018966675	0.150380134583	1.0	s	1134.81380105																																																2015_Jul_08_1018	59.9261621461	LearningTask	1	72	
257	200.0	s	-200.0																	2.0	0.0	2.0	0.0	8.0	0.0	32.0	2.0																													s	1.0	0.317224979401	None	0.0	1.0	hexagoncyan.gif	go																															0.85	0.51429605484	0.0009031295776369999	0.317224979401	1.0	s	1137.817343																																																							2015_Jul_08_1018	59.9261621461	LearningTask	1	72	
258	200.0	w	200.0																	2.0	0.0	2.0	0.0	8.0	1.0	33.0	0.0																													w	1.0	0.317268848419	None	0.0	2.0	squarewhite.gif	go																															2.01	0.514380931854	0.0008790493011469999	0.317268848419	1.0	w	1140.82079887																																																							2015_Jul_08_1018	59.9261621461	LearningTask	1	72	
259	200.0	w	200.0																	2.0	0.0	2.0	0.0	8.0	2.0	34.0	0.0																													w	1.0	0.301020145416	None	0.0	1.0	hexagoncyan.gif	go																															0.88	0.514190912247	0.00116491317749	0.301020145416	1.0	w	1143.82395005																																																							2015_Jul_08_1018	59.9261621461	LearningTask	1	72	
260	200.0	s	-200.0																	2.0	0.0	2.0	0.0	8.0	3.0	35.0	2.0																													s	1.0	0.350922107697	None	0.0	1.0	hexagoncyan.gif	go																															0.0	0.514405012131	0.000996112823486	0.350922107697	1.0	s	1146.82726884																																																							2015_Jul_08_1018	59.9261621461	LearningTask	1	72	
261	-200.0	q	200.0																	2.0	0.0	2.0	0.0	9.0	0.0	36.0	1.0																													q	1.0	0.200495004654	None	0.0	2.0	crossorange.gif	stop																															0.0	0.5145180225370001	0.0008990764617919999	0.267322063446	0.0	a	1149.83062887	2.07	0.515572071075	0.000961065292358	0.200495004654	1.0	q	1152.83397603																																																2015_Jul_08_1018	59.9261621461	LearningTask	1	72	
262	-200.0	a	-200.0																	2.0	0.0	2.0	0.0	9.0	1.0	37.0	3.0																													a	1.0	0.25069284439100004	None	0.0	2.0	squarewhite.gif	go																															0.0	0.513921976089	0.000922203063965	0.250692844391	1.0	a	1155.83732891																																																							2015_Jul_08_1018	59.9261621461	LearningTask	1	72	
263	-200.0	q	200.0																	2.0	0.0	2.0	0.0	9.0	2.0	38.0	1.0																													q	1.0	0.350526094437	None	0.0	0.5	lineyellow.gif	stop																															0.33	0.514633178711	0.000892162322998	0.350526094437	1.0	q	1158.84095883																																																							2015_Jul_08_1018	59.9261621461	LearningTask	1	72	
264	200.0	s	-200.0																	2.0	0.0	2.0	0.0	9.0	3.0	39.0	2.0																													s	1.0	0.15074205398600002	None	0.0	1.0	trianglemagenta.gif	stop																															0.0	0.513710021973	0.0009548664093019999	0.250829935074	0.0	w	1161.84413791	0.76	0.515172958374	0.00098705291748	0.150742053986	1.0	s	1164.84734702																																																2015_Jul_08_1018	59.9261621461	LearningTask	1	72	
265	200.0	s	-200.0																	2.0	0.0	2.0	0.0	10.0	0.0	40.0	2.0																													s	1.0	0.40108704567000003	None	0.0	2.0	crossorange.gif	stop																															2.15	0.514275789261	0.000885009765625	0.40108704567	1.0	s	1167.85070801																																																							2015_Jul_08_1018	59.9261621461	LearningTask	1	72	
