	xPos	corrAns	yPos	corrGoResp	yPosGoStim	xPosGoStim	pracTrials.thisRepN	pracTrials.thisTrialN	pracTrials.thisN	pracTrials.thisIndex	ReDoLoopPrac.thisRepN	ReDoLoopPrac.thisTrialN	ReDoLoopPrac.thisN	ReDoLoopPrac.thisIndex	ReDoLoopPrac.thisTrial	pracStopTrials.thisRepN	pracStopTrials.thisTrialN	pracStopTrials.thisN	pracStopTrials.thisIndex	Blocks.thisRepN	Blocks.thisTrialN	Blocks.thisN	Blocks.thisIndex	trials.thisRepN	trials.thisTrialN	trials.thisN	trials.thisIndex	ReDoLoopMain.thisRepN	ReDoLoopMain.thisTrialN	ReDoLoopMain.thisN	ReDoLoopMain.thisIndex	ReDoLoopMain.thisTrial	StopBlocks.thisRepN	StopBlocks.thisTrialN	StopBlocks.thisN	StopBlocks.thisIndex	StopTrials.thisRepN	StopTrials.thisTrialN	StopTrials.thisN	StopTrials.thisIndex	auctionBlocks.thisRepN	auctionBlocks.thisTrialN	auctionBlocks.thisN	auctionBlocks.thisIndex	auctionTrials.thisRepN	auctionTrials.thisTrialN	auctionTrials.thisN	auctionTrials.thisIndex	learningTrialList	learningPracTrialList	stopTrialList	stopPracTrialList	auctionTrialList	ok1.keys	ok1.rt	resp.keys	resp.corr	resp.rt	feedbackResp.keys	feedbackResp.corr	currentReward	currentStimulus	currentStimType	firstPracComputedRewardOutput	firstPracLearningStimOnset	firstPracLearningFixOnset	firstPracPresentationRT	firstPracPresentationAcc	firstPracPresentationResp	firstPracEndTrialTimeStamp	StartTrialTimeStamp	trialType	goStim	stimType	stopStimValue	goResp.keys	goResp.corr	goResp.rt	key_resp_9.keys	key_resp_9.corr	fixStopOnset	goStimOnset	EndTrialTimeStamp	stopSignalOnset	key_resp_3.keys	key_resp_3.rt	firstComputedRewardOutput	firstLearningStimOnset	firstLearningFixOnset	firstPresentationRT	firstPresentationAcc	firstPresentationResp	firstEndTrialTimeStamp	secondComputedRewardOutput	secondLearningStimOnset	secondLearningFixOnset	secondPresentationRT	secondPresentationAcc	secondPresentationResp	secondEndTrialTimeStamp	key_resp_7.keys	key_resp_7.rt	feedbackResp.rt	beginningSSD	EndingSSD	key_resp_4.keys	key_resp_4.rt	auctionResponse.keys	auctionStimDuration	auctionStim	auctionAmounts	auctionStimValue	auctionCondition	chosenAuctionAmount	auctionResponse.rt	key_resp_5.keys	key_resp_5.rt	shuffledRewardList	chosenReward1	chosenReward2	chosenReward3	chosenReward4	chosenReward5	key_resp_6.keys	key_resp_6.rt	date	frameRate	expName	session	participant	Unnamed: 130
0																																																	[]	[]	[]	[]	[]	9.0	41.6577680111																																																																							2015_Jun_25_1141	59.9408923314	LearningTask	1	67	
1	200.0	s	-200.0				0.0	0.0	0.0	2.0																																														s	1.0	0.467799901962	None	0.0	1.0	crosscyan.gif	go	0.0	0.509069919586	0.00319480895996	0.467799901962	1.0	s	69.8160638809																																																								2015_Jun_25_1141	59.9408923314	LearningTask	1	67	
2	-200.0	q	200.0				0.0	1.0	1.0	5.0																																														q	1.0	0.36731100082400003	None	0.0	2.0	circlewhite.gif	go	1.76	0.514312982559	0.00130200386047	0.36731100082400003	1.0	q	72.8184809685																																																								2015_Jun_25_1141	59.9408923314	LearningTask	1	67	
3	-200.0	a	-200.0				0.0	2.0	2.0	3.0																																														a	1.0	0.300612211227	None	0.0	0.5	triangleorange.gif	go	0.29	0.515075922012	0.0009069442749019998	0.300612211227	1.0	a	75.82170796390001																																																								2015_Jun_25_1141	59.9408923314	LearningTask	1	67	
4	-200.0	q	200.0				0.0	3.0	3.0	9.0																																														q	1.0	0.31772518158	None	0.0	0.5	hexagonmagenta.gif	stop	0.57	0.515254020691	0.00130319595337	0.31772518158	1.0	q	78.8255178928																																																								2015_Jun_25_1141	59.9408923314	LearningTask	1	67	
5	200.0	w	200.0				0.0	4.0	4.0	4.0																																														w	1.0	0.31746006012	None	0.0	1.0	crosscyan.gif	go	0.0	0.5147659778589999	0.000907897949219	0.31746006012	1.0	w	81.8286030293																																																								2015_Jun_25_1141	59.9408923314	LearningTask	1	67	
6	200.0	w	200.0				0.0	5.0	5.0	0.0																																														w	1.0	0.31765508651700003	None	0.0	4.0	diamondyellow.gif	go	4.17	0.5151329040529999	0.00129699707031	0.31765508651700003	1.0	w	84.8319919109																																																								2015_Jun_25_1141	59.9408923314	LearningTask	1	67	
7	-200.0	a	-200.0				0.0	6.0	6.0	7.0																																														a	1.0	0.31756401062	None	0.0	4.0	squareblue.gif	stop	0.0	0.514909029007	0.0013239383697500001	0.31756401062	1.0	a	87.8355388641																																																								2015_Jun_25_1141	59.9408923314	LearningTask	1	67	
8	-200.0	q	200.0				0.0	7.0	7.0	1.0																																														q	1.0	0.267351150513	None	0.0	2.0	invertedtrianglegray.gif	stop	2.11	0.514956951141	0.00132703781128	0.267351150513	1.0	q	90.838739872																																																								2015_Jun_25_1141	59.9408923314	LearningTask	1	67	
9	200.0	w	200.0				0.0	8.0	8.0	8.0																																														w	1.0	0.28454399108899997	None	0.0	1.0	crosscyan.gif	go	0.87	0.5152709484100001	0.0008981227874760001	0.28454399108899997	1.0	w	93.8421239853																																																								2015_Jun_25_1141	59.9408923314	LearningTask	1	67	
10	200.0	s	-200.0				0.0	9.0	9.0	6.0																																														s	1.0	0.300899982452	None	0.0	0.5	hexagonmagenta.gif	stop	0.29	0.515068054199	0.000949859619141	0.300899982452	1.0	s	96.845471859																																																								2015_Jun_25_1141	59.9408923314	LearningTask	1	67	
11				z	0.0	-200.0										0.0	0.0	0.0	0.0																																																				140.39862299	go	crosscyan.gif	go	1.0	z	1.0	0.333828926086	None	0.0	0.00133895874023	0.511481046677	143.39757204100002																																											2015_Jun_25_1141	59.9408923314	LearningTask	1	67	
12				z	0.0	-200.0										0.0	1.0	1.0	0.0																																																				143.397969007	stop	linegreen.gif	stop	1.0	z	1.0	0.334313869476	None	0.0	0.00145792961121	0.515478134155	146.401087999	0.765916109085																																										2015_Jun_25_1141	59.9408923314	LearningTask	1	67	
13				m	0.0	200.0										1.0	0.0	2.0	1.0																																																				146.401450872	stop	hexagonmagenta.gif	stop	0.5	None	0.0		None	0.0	0.0009851455688480002	0.515825986862	149.404347897	0.766312122345																																										2015_Jun_25_1141	59.9408923314	LearningTask	1	67	
14				m	0.0	200.0										1.0	1.0	3.0	1.0																																																				149.404739857	stop	invertedtrianglegray.gif	stop	2.0	None	0.0		None	0.0	0.0009758472442630001	0.515995979309	152.407968998	0.7660138607029999																																										2015_Jun_25_1141	59.9408923314	LearningTask	1	67	
15				m	0.0	200.0										2.0	0.0	4.0	1.0																																																				152.408330917	go	triangleorange.gif	go	0.5	m	1.0	0.450361967087	None	0.0	0.0012691020965599998	0.515917062759	155.411098957																																											2015_Jun_25_1141	59.9408923314	LearningTask	1	67	
16				z	0.0	-200.0										2.0	1.0	5.0	0.0																																																				155.411541939	go	crosscyan.gif	go	1.0	z	1.0	0.41761302948	None	0.0	0.000983953475952	0.515885829926	158.414383888																																											2015_Jun_25_1141	59.9408923314	LearningTask	1	67	
17				m	0.0	200.0										3.0	0.0	6.0	1.0																																																				158.414746046	go	diamondyellow.gif	go	4.0	m	1.0	0.517606019974	None	0.0	0.000953912734985	0.515981912613	161.41808295200002																																											2015_Jun_25_1141	59.9408923314	LearningTask	1	67	
18				m	0.0	200.0										3.0	1.0	7.0	1.0																																																				161.418593884	go	crosscyan.gif	go	1.0	m	1.0	0.417443037033	None	0.0	0.00103616714478	0.515393018723	164.421314001																																											2015_Jun_25_1141	59.9408923314	LearningTask	1	67	
19				z	0.0	-200.0										4.0	0.0	8.0	0.0																																																				164.421731949	stop	linegreen.gif	stop	1.0	z	1.0	0.31752705574	None	0.0	0.0009629726409910001	0.5155329704280001	167.42463803299998	0.7659978866580001																																										2015_Jun_25_1141	59.9408923314	LearningTask	1	67	
20				z	0.0	-200.0										4.0	1.0	9.0	0.0																																																				167.425004005	stop	squareblue.gif	stop	4.0	None	0.0		None	0.0	0.000934839248657	0.516003847122	170.42789006200002	0.7666709423070001																																										2015_Jun_25_1141	59.9408923314	LearningTask	1	67	
21																																																																																					9.0	59.441770792																																								2015_Jun_25_1141	59.9408923314	LearningTask	1	67	
22																																																						9.0	2.41894602776																																																																							2015_Jun_25_1141	59.9408923314	LearningTask	1	67	
23	-200.0	q	200.0																	0.0	0.0	0.0	0.0	0.0	0.0	0.0	1.0																													q	1.0	0.267497062683	None	0.0	4.0	squareblue.gif	stop																								4.05	0.509812116623	0.0009140968322749999	0.267497062683	1.0	q	235.43565607099998																																	2015_Jun_25_1141	59.9408923314	LearningTask	1	67	
24	200.0	s	-200.0																	0.0	0.0	0.0	0.0	0.0	1.0	1.0	2.0																													s	1.0	0.317407131195	None	0.0	4.0	squareblue.gif	stop																								3.84	0.514133930206	0.00088095664978	0.317407131195	1.0	s	238.438631058																																	2015_Jun_25_1141	59.9408923314	LearningTask	1	67	
25	200.0	s	-200.0																	0.0	0.0	0.0	0.0	0.0	2.0	2.0	2.0																													s	1.0	0.333958864212	None	0.0	2.0	circlewhite.gif	go																								0.0	0.514298915863	0.0009279251098630001	0.333958864212	1.0	s	241.44190692900003																																	2015_Jun_25_1141	59.9408923314	LearningTask	1	67	
26	-200.0	a	-200.0																	0.0	0.0	0.0	0.0	0.0	3.0	3.0	3.0																													a	1.0	0.300748109818	None	0.0	0.5	hexagonmagenta.gif	stop																								0.0	0.51423406601	0.0009119510650630002	0.300748109818	1.0	a	244.44535493900003																																	2015_Jun_25_1141	59.9408923314	LearningTask	1	67	
27	200.0	s	-200.0																	0.0	0.0	0.0	0.0	1.0	0.0	4.0	2.0																													s	1.0	0.284351110458	None	0.0	4.0	diamondyellow.gif	go																								0.0	0.5142819881440001	0.00092887878418	0.284351110458	1.0	s	247.449069023																																	2015_Jun_25_1141	59.9408923314	LearningTask	1	67	
28	-200.0	q	200.0																	0.0	0.0	0.0	0.0	1.0	1.0	5.0	1.0																													q	1.0	0.283764123917	None	0.0	2.0	invertedtrianglegray.gif	stop																								2.14	0.514081954956	0.00090503692627	0.283764123917	1.0	q	250.45229888																																	2015_Jun_25_1141	59.9408923314	LearningTask	1	67	
29	-200.0	a	-200.0																	0.0	0.0	0.0	0.0	1.0	2.0	6.0	3.0																													a	1.0	0.28430891036999995	None	0.0	4.0	diamondyellow.gif	go																								4.02	0.51414513588	0.000892162322998	0.28430891036999995	1.0	a	253.455529928																																	2015_Jun_25_1141	59.9408923314	LearningTask	1	67	
30	-200.0	q	200.0																	0.0	0.0	0.0	0.0	1.0	3.0	7.0	1.0																													q	1.0	0.251032829285	None	0.0	1.0	crosscyan.gif	go																								1.17	0.5143120288849999	0.000943899154663	0.251032829285	1.0	q	256.459105015																																	2015_Jun_25_1141	59.9408923314	LearningTask	1	67	
31	200.0	w	200.0																	0.0	0.0	0.0	0.0	2.0	0.0	8.0	0.0																													w	1.0	0.283793926239	None	0.0	0.5	hexagonmagenta.gif	stop																								0.0	0.51433300972	0.0009150505065920001	0.283793926239	1.0	w	259.46242690099996																																	2015_Jun_25_1141	59.9408923314	LearningTask	1	67	
32	-200.0	a	-200.0																	0.0	0.0	0.0	0.0	2.0	1.0	9.0	3.0																													a	1.0	0.267025947571	None	0.0	0.5	triangleorange.gif	go																								0.56	0.514348983765	0.00123190879822	0.267025947571	1.0	a	262.465409994																																	2015_Jun_25_1141	59.9408923314	LearningTask	1	67	
33	200.0	s	-200.0																	0.0	0.0	0.0	0.0	2.0	2.0	10.0	2.0																													s	1.0	0.26726603508	None	0.0	0.5	hexagonmagenta.gif	stop																								0.32	0.514557123184	0.0009570121765139998	0.26726603508	1.0	s	265.468873978																																	2015_Jun_25_1141	59.9408923314	LearningTask	1	67	
34	-200.0	a	-200.0																	0.0	0.0	0.0	0.0	2.0	3.0	11.0	3.0																													a	1.0	0.267509937286	None	0.0	4.0	squareblue.gif	stop																								4.0	0.514117956161	0.000922918319702	0.267509937286	1.0	a	268.472338915																																	2015_Jun_25_1141	59.9408923314	LearningTask	1	67	
35	-200.0	q	200.0																	0.0	0.0	0.0	0.0	3.0	0.0	12.0	1.0																													q	1.0	0.23420810699499997	None	0.0	4.0	diamondyellow.gif	go																								4.01	0.5143120288849999	0.00112009048462	0.23420810699499997	1.0	q	271.47575497599996																																	2015_Jun_25_1141	59.9408923314	LearningTask	1	67	
36	200.0	w	200.0																	0.0	0.0	0.0	0.0	3.0	1.0	13.0	0.0																													w	1.0	0.267624855042	None	0.0	2.0	invertedtrianglegray.gif	stop																								2.23	0.513916015625	0.0008940696716310001	0.267624855042	1.0	w	274.479136944																																	2015_Jun_25_1141	59.9408923314	LearningTask	1	67	
37	200.0	s	-200.0																	0.0	0.0	0.0	0.0	3.0	2.0	14.0	2.0																													s	1.0	0.28438496589699996	None	0.0	1.0	linegreen.gif	stop																								0.92	0.514353990555	0.000892877578735	0.28438496589699996	1.0	s	277.48273587200003																																	2015_Jun_25_1141	59.9408923314	LearningTask	1	67	
38	-200.0	q	200.0																	0.0	0.0	0.0	0.0	3.0	3.0	15.0	1.0																													q	1.0	0.234205961227	None	0.0	4.0	diamondyellow.gif	go																								4.09	0.513565778732	0.00095796585083	0.234205961227	1.0	q	280.485949039																																	2015_Jun_25_1141	59.9408923314	LearningTask	1	67	
39	200.0	s	-200.0																	0.0	0.0	0.0	0.0	4.0	0.0	16.0	2.0																													s	1.0	0.30066609382599996	None	0.0	0.5	hexagonmagenta.gif	stop																								0.0	0.514193058014	0.0009760856628420001	0.284183979034	0.0	w	283.488926888	0.49	0.515878915787	0.000908851623535	0.30066609382599996	1.0	s	286.493038893																										2015_Jun_25_1141	59.9408923314	LearningTask	1	67	
40	-200.0	a	-200.0																	0.0	0.0	0.0	0.0	4.0	1.0	17.0	3.0																													a	1.0	0.31730389594999997	None	0.0	4.0	squareblue.gif	stop																								3.92	0.51339507103	0.00103902816772	0.31730389594999997	1.0	a	289.496087074																																	2015_Jun_25_1141	59.9408923314	LearningTask	1	67	
41	-200.0	q	200.0																	0.0	0.0	0.0	0.0	4.0	2.0	18.0	1.0																													q	1.0	0.283736944199	None	0.0	1.0	linegreen.gif	stop																								0.98	0.514499187469	0.0008931159973139998	0.283736944199	1.0	q	292.499333858																																	2015_Jun_25_1141	59.9408923314	LearningTask	1	67	
42	-200.0	a	-200.0																	0.0	0.0	0.0	0.0	4.0	3.0	19.0	3.0																													a	1.0	0.28392004966699996	None	0.0	4.0	squareblue.gif	stop																								4.0	0.514403820038	0.000885009765625	0.28392004966699996	1.0	a	295.503206968																																	2015_Jun_25_1141	59.9408923314	LearningTask	1	67	
43	200.0	w	200.0																	0.0	0.0	0.0	0.0	5.0	0.0	20.0	0.0																													w	1.0	0.267598152161	None	0.0	2.0	circlewhite.gif	go																								1.97	0.513732910156	0.0009169578552250001	0.267598152161	1.0	w	298.506160975																																	2015_Jun_25_1141	59.9408923314	LearningTask	1	67	
44	-200.0	a	-200.0																	0.0	0.0	0.0	0.0	5.0	1.0	21.0	3.0																													a	1.0	0.300951957703	None	0.0	4.0	squareblue.gif	stop																								3.93	0.51428103447	0.00088095664978	0.300951957703	1.0	a	301.509608984																																	2015_Jun_25_1141	59.9408923314	LearningTask	1	67	
45	-200.0	a	-200.0																	0.0	0.0	0.0	0.0	5.0	2.0	22.0	3.0																													a	1.0	0.300489902496	None	0.0	4.0	diamondyellow.gif	go																								0.0	0.514405012131	0.00101113319397	0.300489902496	1.0	a	304.51316905																																	2015_Jun_25_1141	59.9408923314	LearningTask	1	67	
46	-200.0	q	200.0																	0.0	0.0	0.0	0.0	5.0	3.0	23.0	1.0																													q	1.0	0.300749063492	None	0.0	1.0	crosscyan.gif	go																								1.22	0.514126062393	0.0008940696716310001	0.300749063492	1.0	q	307.516207933																																	2015_Jun_25_1141	59.9408923314	LearningTask	1	67	
47	200.0	s	-200.0																	0.0	0.0	0.0	0.0	6.0	0.0	24.0	2.0																													s	1.0	0.267556190491	None	0.0	0.5	triangleorange.gif	go																								0.55	0.514369010925	0.00109481811523	0.267556190491	1.0	s	310.519803047																																	2015_Jun_25_1141	59.9408923314	LearningTask	1	67	
48	-200.0	q	200.0																	0.0	0.0	0.0	0.0	6.0	1.0	25.0	1.0																													q	1.0	0.300822973251	None	0.0	0.5	triangleorange.gif	go																								0.58	0.513983011246	0.000931024551392	0.300822973251	1.0	q	313.522897005																																	2015_Jun_25_1141	59.9408923314	LearningTask	1	67	
49	200.0	s	-200.0																	0.0	0.0	0.0	0.0	6.0	2.0	26.0	2.0																													s	1.0	0.317330121994	None	0.0	0.5	triangleorange.gif	go																								0.66	0.514512062073	0.0008981227874760001	0.317330121994	1.0	s	316.526498079																																	2015_Jun_25_1141	59.9408923314	LearningTask	1	67	
50	200.0	s	-200.0																	0.0	0.0	0.0	0.0	6.0	3.0	27.0	2.0																													s	1.0	0.33365893364	None	0.0	1.0	crosscyan.gif	go																								0.0	0.514097929001	0.0010588169097899998	0.33365893364	1.0	s	319.529978991																																	2015_Jun_25_1141	59.9408923314	LearningTask	1	67	
51	-200.0	a	-200.0																	0.0	0.0	0.0	0.0	7.0	0.0	28.0	3.0																													a	1.0	0.333894968033	None	0.0	1.0	linegreen.gif	stop																								1.0	0.514202833176	0.000890016555786	0.333894968033	1.0	a	322.533171892																																	2015_Jun_25_1141	59.9408923314	LearningTask	1	67	
52	200.0	w	200.0																	0.0	0.0	0.0	0.0	7.0	1.0	29.0	0.0																													w	1.0	0.30061197280900004	None	0.0	2.0	circlewhite.gif	go																								1.99	0.51438498497	0.0009069442749019998	0.30061197280900004	1.0	w	325.536576033																																	2015_Jun_25_1141	59.9408923314	LearningTask	1	67	
53	200.0	w	200.0																	0.0	0.0	0.0	0.0	7.0	2.0	30.0	0.0																													w	1.0	0.317004203796	None	0.0	2.0	invertedtrianglegray.gif	stop																								2.17	0.514447927475	0.000922918319702	0.317004203796	1.0	w	328.53986287099997																																	2015_Jun_25_1141	59.9408923314	LearningTask	1	67	
54	-200.0	q	200.0																	0.0	0.0	0.0	0.0	7.0	3.0	31.0	1.0																													q	1.0	0.300906896591	None	0.0	4.0	squareblue.gif	stop																								4.13	0.514122009277	0.00088906288147	0.300906896591	1.0	q	331.543178082																																	2015_Jun_25_1141	59.9408923314	LearningTask	1	67	
55	200.0	w	200.0																	0.0	0.0	0.0	0.0	8.0	0.0	32.0	0.0																													w	1.0	0.284516096115	None	0.0	0.5	triangleorange.gif	go																								0.57	0.5145039558410001	0.000888824462891	0.284516096115	1.0	w	334.546966076																																	2015_Jun_25_1141	59.9408923314	LearningTask	1	67	
56	200.0	w	200.0																	0.0	0.0	0.0	0.0	8.0	1.0	33.0	0.0																													w	1.0	0.333909034729	None	0.0	1.0	linegreen.gif	stop																								0.98	0.514045953751	0.0009019374847410001	0.333909034729	1.0	w	337.550188065																																	2015_Jun_25_1141	59.9408923314	LearningTask	1	67	
57	-200.0	a	-200.0																	0.0	0.0	0.0	0.0	8.0	2.0	34.0	3.0																													a	1.0	0.30107617378199997	None	0.0	0.5	hexagonmagenta.gif	stop																								0.5	0.514164924622	0.00090503692627	0.30107617378199997	1.0	a	340.553377867																																	2015_Jun_25_1141	59.9408923314	LearningTask	1	67	
58	-200.0	a	-200.0																	0.0	0.0	0.0	0.0	8.0	3.0	35.0	3.0																													a	1.0	0.317542076111	None	0.0	4.0	diamondyellow.gif	go																								0.0	0.514466047287	0.000900030136108	0.317542076111	1.0	a	343.557148933																																	2015_Jun_25_1141	59.9408923314	LearningTask	1	67	
59	-200.0	q	200.0																	0.0	0.0	0.0	0.0	9.0	0.0	36.0	1.0																													q	1.0	0.30116915702799996	None	0.0	1.0	linegreen.gif	stop																								1.07	0.513912916183	0.0009059906005860001	0.30116915702799996	1.0	q	346.56017494199995																																	2015_Jun_25_1141	59.9408923314	LearningTask	1	67	
60	-200.0	a	-200.0																	0.0	0.0	0.0	0.0	9.0	1.0	37.0	3.0																													a	1.0	0.300554990768	None	0.0	1.0	crosscyan.gif	go																								0.0	0.51442694664	0.0009400844573969999	0.300554990768	1.0	a	349.56348896																																	2015_Jun_25_1141	59.9408923314	LearningTask	1	67	
61	200.0	w	200.0																	0.0	0.0	0.0	0.0	9.0	2.0	38.0	0.0																													w	1.0	0.284004926682	None	0.0	4.0	squareblue.gif	stop																								4.16	0.5143120288849999	0.00092601776123	0.284004926682	1.0	w	352.56706595400004																																	2015_Jun_25_1141	59.9408923314	LearningTask	1	67	
62	-200.0	q	200.0																	0.0	0.0	0.0	0.0	9.0	3.0	39.0	1.0																													q	1.0	0.300662994385	None	0.0	1.0	linegreen.gif	stop																								1.12	0.514317035675	0.000902891159058	0.300662994385	1.0	q	355.570291996																																	2015_Jun_25_1141	59.9408923314	LearningTask	1	67	
63	200.0	w	200.0																	0.0	0.0	0.0	0.0	10.0	0.0	40.0	0.0																													w	1.0	0.284198045731	None	0.0	0.5	hexagonmagenta.gif	stop																								0.34	0.514302015305	0.00113010406494	0.284198045731	1.0	w	358.573691845																																	2015_Jun_25_1141	59.9408923314	LearningTask	1	67	
64	200.0	w	200.0																	0.0	0.0	0.0	0.0	10.0	1.0	41.0	0.0																													w	1.0	0.30073094368000003	None	0.0	4.0	diamondyellow.gif	go																								3.87	0.514151096344	0.0009059906005860001	0.30073094368000003	1.0	w	361.57695698699996																																	2015_Jun_25_1141	59.9408923314	LearningTask	1	67	
65	200.0	s	-200.0																	0.0	0.0	0.0	0.0	10.0	2.0	42.0	2.0																													s	1.0	0.31735086441	None	0.0	4.0	diamondyellow.gif	go																								0.0	0.51444196701	0.000892877578735	0.31735086441	1.0	s	364.58044099800003																																	2015_Jun_25_1141	59.9408923314	LearningTask	1	67	
66	200.0	s	-200.0																	0.0	0.0	0.0	0.0	10.0	3.0	43.0	2.0																													s	1.0	0.31761097908	None	0.0	1.0	linegreen.gif	stop																								0.0	0.514058113098	0.0009431838989260002	0.31761097908	1.0	s	367.58378505699994																																	2015_Jun_25_1141	59.9408923314	LearningTask	1	67	
67	-200.0	q	200.0																	0.0	0.0	0.0	0.0	11.0	0.0	44.0	1.0																													q	1.0	0.233922958374	None	0.0	2.0	circlewhite.gif	go																								1.86	0.514181137085	0.000900983810425	0.233922958374	1.0	q	370.587154865																																	2015_Jun_25_1141	59.9408923314	LearningTask	1	67	
68	200.0	s	-200.0																	0.0	0.0	0.0	0.0	11.0	1.0	45.0	2.0																													s	1.0	0.283852100372	None	0.0	4.0	diamondyellow.gif	go																								4.23	0.514516830444	0.000890016555786	0.283852100372	1.0	s	373.59078598																																	2015_Jun_25_1141	59.9408923314	LearningTask	1	67	
69	-200.0	q	200.0																	0.0	0.0	0.0	0.0	11.0	2.0	46.0	1.0																													q	1.0	0.31733202934300003	None	0.0	4.0	diamondyellow.gif	go																								4.18	0.513810873032	0.000951051712036	0.31733202934300003	1.0	q	376.594055891																																	2015_Jun_25_1141	59.9408923314	LearningTask	1	67	
70	-200.0	a	-200.0																	0.0	0.0	0.0	0.0	11.0	3.0	47.0	3.0																													a	1.0	0.284158945084	None	0.0	2.0	circlewhite.gif	go																								0.0	0.514303922653	0.0009129047393799999	0.284158945084	1.0	a	379.597219944																																	2015_Jun_25_1141	59.9408923314	LearningTask	1	67	
71	-200.0	a	-200.0																	0.0	0.0	0.0	0.0	12.0	0.0	48.0	3.0																													a	1.0	0.284422874451	None	0.0	1.0	crosscyan.gif	go																								1.0	0.514467954636	0.000900030136108	0.284422874451	1.0	a	382.60112500199995																																	2015_Jun_25_1141	59.9408923314	LearningTask	1	67	
72	200.0	w	200.0																	0.0	0.0	0.0	0.0	12.0	1.0	49.0	0.0																													w	1.0	0.300522089005	None	0.0	0.5	hexagonmagenta.gif	stop																								0.26	0.513683080673	0.000921964645386	0.300522089005	1.0	w	385.604434013																																	2015_Jun_25_1141	59.9408923314	LearningTask	1	67	
73	-200.0	a	-200.0																	0.0	0.0	0.0	0.0	12.0	2.0	50.0	3.0																													a	1.0	0.300818920135	None	0.0	0.5	hexagonmagenta.gif	stop																								0.53	0.51353597641	0.0012738704681400002	0.300818920135	1.0	a	388.60746789																																	2015_Jun_25_1141	59.9408923314	LearningTask	1	67	
74	200.0	w	200.0																	0.0	0.0	0.0	0.0	12.0	3.0	51.0	0.0																													w	1.0	0.300838947296	None	0.0	0.5	triangleorange.gif	go																								0.29	0.5143840312960001	0.0009360313415529999	0.300838947296	1.0	w	391.611140013																																	2015_Jun_25_1141	59.9408923314	LearningTask	1	67	
75	-200.0	q	200.0																	0.0	0.0	0.0	0.0	13.0	0.0	52.0	1.0																													q	1.0	0.250762224197	None	0.0	1.0	crosscyan.gif	go																								0.0	0.514266014099	0.000900030136108	0.250762224197	1.0	q	394.614248037																																	2015_Jun_25_1141	59.9408923314	LearningTask	1	67	
76	200.0	s	-200.0																	0.0	0.0	0.0	0.0	13.0	1.0	53.0	2.0																													s	1.0	0.30048680305500003	None	0.0	2.0	invertedtrianglegray.gif	stop																								2.07	0.514347076416	0.00110816955566	0.30048680305500003	1.0	s	397.61775589																																	2015_Jun_25_1141	59.9408923314	LearningTask	1	67	
77	200.0	s	-200.0																	0.0	0.0	0.0	0.0	13.0	2.0	54.0	2.0																													s	1.0	0.31754899025	None	0.0	1.0	linegreen.gif	stop																								0.88	0.51392698288	0.000953912734985	0.31754899025	1.0	s	400.62099790599996																																	2015_Jun_25_1141	59.9408923314	LearningTask	1	67	
78	200.0	w	200.0																	0.0	0.0	0.0	0.0	13.0	3.0	55.0	0.0																													w	1.0	0.30096411705	None	0.0	4.0	squareblue.gif	stop																								0.0	0.5143492221829999	0.0026612281799299996	0.30096411705	1.0	w	403.62434697199996																																	2015_Jun_25_1141	59.9408923314	LearningTask	1	67	
79	200.0	s	-200.0																	0.0	0.0	0.0	0.0	14.0	0.0	56.0	2.0																													s	1.0	0.300570964813	None	0.0	0.5	triangleorange.gif	go																								0.67	0.514126062393	0.0010831356048599998	0.300570964813	1.0	s	406.62767195699996																																	2015_Jun_25_1141	59.9408923314	LearningTask	1	67	
80	200.0	w	200.0																	0.0	0.0	0.0	0.0	14.0	1.0	57.0	0.0																													w	1.0	0.283949136734	None	0.0	2.0	circlewhite.gif	go																								1.86	0.514553070068	0.0008990764617919999	0.283949136734	1.0	w	409.631129026																																	2015_Jun_25_1141	59.9408923314	LearningTask	1	67	
81	-200.0	q	200.0																	0.0	0.0	0.0	0.0	14.0	2.0	58.0	1.0																													q	1.0	0.301098108292	None	0.0	1.0	crosscyan.gif	go																								1.24	0.5143229961399999	0.0008859634399410001	0.301098108292	1.0	q	412.63458800300003																																	2015_Jun_25_1141	59.9408923314	LearningTask	1	67	
82	200.0	w	200.0																	0.0	0.0	0.0	0.0	14.0	3.0	59.0	0.0																													w	1.0	0.283699989319	None	0.0	2.0	invertedtrianglegray.gif	stop																								2.18	0.514344930649	0.000902891159058	0.283699989319	1.0	w	415.637940884																																	2015_Jun_25_1141	59.9408923314	LearningTask	1	67	
83	200.0	w	200.0																	0.0	0.0	0.0	0.0	15.0	0.0	60.0	0.0																													w	1.0	0.300784111023	None	0.0	1.0	crosscyan.gif	go																								0.96	0.5141639709470001	0.0009019374847410001	0.300784111023	1.0	w	418.64127206800003																																	2015_Jun_25_1141	59.9408923314	LearningTask	1	67	
84	-200.0	q	200.0																	0.0	0.0	0.0	0.0	15.0	1.0	61.0	1.0																													q	1.0	0.251061916351	None	0.0	4.0	squareblue.gif	stop																								4.13	0.514332056046	0.0008790493011469999	0.251061916351	1.0	q	421.644814014																																	2015_Jun_25_1141	59.9408923314	LearningTask	1	67	
85	200.0	w	200.0																	0.0	0.0	0.0	0.0	15.0	2.0	62.0	0.0																													w	1.0	0.26687002181999997	None	0.0	1.0	crosscyan.gif	go																								0.0	0.5141999721530001	0.000913143157959	0.26687002181999997	1.0	w	424.648125887																																	2015_Jun_25_1141	59.9408923314	LearningTask	1	67	
86	-200.0	a	-200.0																	0.0	0.0	0.0	0.0	15.0	3.0	63.0	3.0																													a	1.0	0.317559957504	None	0.0	1.0	crosscyan.gif	go																								1.25	0.514353990555	0.0008919239044189998	0.317559957504	1.0	a	427.65139484400004																																	2015_Jun_25_1141	59.9408923314	LearningTask	1	67	
87	-200.0	q	200.0																	0.0	0.0	0.0	0.0	16.0	0.0	64.0	1.0																													q	1.0	0.250277996063	None	0.0	1.0	linegreen.gif	stop																								1.14	0.514663934708	0.0009799003601070001	0.250277996063	1.0	q	430.654994965																																	2015_Jun_25_1141	59.9408923314	LearningTask	1	67	
88	-200.0	q	200.0																	0.0	0.0	0.0	0.0	16.0	1.0	65.0	1.0																													q	1.0	0.283972978592	None	0.0	0.5	hexagonmagenta.gif	stop																								0.54	0.513833999634	0.000880002975464	0.283972978592	1.0	q	433.65822100599996																																	2015_Jun_25_1141	59.9408923314	LearningTask	1	67	
89	-200.0	a	-200.0																	0.0	0.0	0.0	0.0	16.0	2.0	66.0	3.0																													a	1.0	0.284105062485	None	0.0	4.0	diamondyellow.gif	go																								4.19	0.514246940613	0.00090503692627	0.284105062485	1.0	a	436.66143798800005																																	2015_Jun_25_1141	59.9408923314	LearningTask	1	67	
90	-200.0	q	200.0																	0.0	0.0	0.0	0.0	16.0	3.0	67.0	1.0																													q	1.0	0.28394985199	None	0.0	2.0	invertedtrianglegray.gif	stop																								1.79	0.5145049095149999	0.00111603736877	0.28394985199	1.0	q	439.665005922																																	2015_Jun_25_1141	59.9408923314	LearningTask	1	67	
91	200.0	s	-200.0																	0.0	0.0	0.0	0.0	17.0	0.0	68.0	2.0																													s	1.0	0.284482002258	None	0.0	0.5	hexagonmagenta.gif	stop																								0.0	0.514199018478	0.0008919239044189998	0.284482002258	1.0	s	442.66823291800006																																	2015_Jun_25_1141	59.9408923314	LearningTask	1	67	
92	200.0	w	200.0																	0.0	0.0	0.0	0.0	17.0	1.0	69.0	0.0																													w	1.0	0.317648887634	None	0.0	0.5	hexagonmagenta.gif	stop																								0.0	0.51459813118	0.0010199546814	0.317648887634	1.0	w	445.671766996																																	2015_Jun_25_1141	59.9408923314	LearningTask	1	67	
93	200.0	w	200.0																	0.0	0.0	0.0	0.0	17.0	2.0	70.0	0.0																													w	1.0	0.267747879028	None	0.0	4.0	diamondyellow.gif	go																								3.81	0.514042139053	0.000913143157959	0.267747879028	1.0	w	448.675065994																																	2015_Jun_25_1141	59.9408923314	LearningTask	1	67	
94	-200.0	a	-200.0																	0.0	0.0	0.0	0.0	17.0	3.0	71.0	3.0																													a	1.0	0.267245054245	None	0.0	0.5	triangleorange.gif	go																								0.45	0.514048099518	0.0009360313415529999	0.267245054245	1.0	a	451.67838907199996																																	2015_Jun_25_1141	59.9408923314	LearningTask	1	67	
95	-200.0	a	-200.0																	0.0	0.0	0.0	0.0	18.0	0.0	72.0	3.0																													a	1.0	0.334141969681	None	0.0	2.0	circlewhite.gif	go																								2.24	0.51411986351	0.000938892364502	0.334141969681	1.0	a	454.681779861																																	2015_Jun_25_1141	59.9408923314	LearningTask	1	67	
96	200.0	w	200.0																	0.0	0.0	0.0	0.0	18.0	1.0	73.0	0.0																													w	1.0	0.300567150116	None	0.0	2.0	circlewhite.gif	go																								2.23	0.514449834824	0.00117301940918	0.300567150116	1.0	w	457.685189962																																	2015_Jun_25_1141	59.9408923314	LearningTask	1	67	
97	-200.0	q	200.0																	0.0	0.0	0.0	0.0	18.0	2.0	74.0	1.0																													q	1.0	0.267291069031	None	0.0	0.5	triangleorange.gif	go																								0.41	0.514441013336	0.0008971691131589999	0.267291069031	1.0	q	460.68863105800006																																	2015_Jun_25_1141	59.9408923314	LearningTask	1	67	
98	200.0	s	-200.0																	0.0	0.0	0.0	0.0	18.0	3.0	75.0	2.0																													s	1.0	0.267562150955	None	0.0	1.0	linegreen.gif	stop																								0.85	0.5139930248260001	0.0009319782257080001	0.267562150955	1.0	s	463.692026854																																	2015_Jun_25_1141	59.9408923314	LearningTask	1	67	
99	-200.0	q	200.0																	0.0	0.0	0.0	0.0	19.0	0.0	76.0	1.0																													q	1.0	0.250847816467	None	0.0	4.0	diamondyellow.gif	go																								4.06	0.514159917831	0.0009601116180419999	0.250847816467	1.0	q	466.695255995																																	2015_Jun_25_1141	59.9408923314	LearningTask	1	67	
100	200.0	w	200.0																	0.0	0.0	0.0	0.0	19.0	1.0	77.0	0.0																													w	1.0	0.30071616172800003	None	0.0	0.5	triangleorange.gif	go																								0.0	0.514358043671	0.0008912086486819999	0.30071616172800003	1.0	w	469.69904804199996																																	2015_Jun_25_1141	59.9408923314	LearningTask	1	67	
101	200.0	w	200.0																	0.0	0.0	0.0	0.0	19.0	2.0	78.0	0.0																													w	1.0	0.31729316711399996	None	0.0	0.5	hexagonmagenta.gif	stop																								0.55	0.513762950897	0.0009069442749019998	0.31729316711399996	1.0	w	472.702338934																																	2015_Jun_25_1141	59.9408923314	LearningTask	1	67	
102	200.0	s	-200.0																	0.0	0.0	0.0	0.0	19.0	3.0	79.0	2.0																													s	1.0	0.267555952072	None	0.0	2.0	invertedtrianglegray.gif	stop																								2.0	0.514109134674	0.0009181499481200001	0.267555952072	1.0	s	475.705451965																																	2015_Jun_25_1141	59.9408923314	LearningTask	1	67	
103	200.0	s	-200.0																	0.0	0.0	0.0	0.0	20.0	0.0	80.0	2.0																													s	1.0	0.33442306518599996	None	0.0	4.0	squareblue.gif	stop																								0.0	0.514348983765	0.00127506256104	0.317585945129	0.0	w	478.709289074	3.76	0.515002012253	0.000962018966675	0.33442306518599996	1.0	s	481.71206402800004																										2015_Jun_25_1141	59.9408923314	LearningTask	1	67	
104	200.0	s	-200.0																	0.0	0.0	0.0	0.0	20.0	1.0	81.0	2.0																													s	1.0	0.31749701499899996	None	0.0	2.0	circlewhite.gif	go																								2.01	0.514806032181	0.0009160041809079999	0.31749701499899996	1.0	s	484.715349913																																	2015_Jun_25_1141	59.9408923314	LearningTask	1	67	
105	-200.0	q	200.0																	0.0	0.0	0.0	0.0	20.0	2.0	82.0	1.0																													q	1.0	0.334434986115	None	0.0	1.0	linegreen.gif	stop																								0.96	0.514519929886	0.000946044921875	0.334434986115	1.0	q	487.71915102																																	2015_Jun_25_1141	59.9408923314	LearningTask	1	67	
106	-200.0	a	-200.0																	0.0	0.0	0.0	0.0	20.0	3.0	83.0	3.0																													a	1.0	0.33353495597800004	None	0.0	0.5	triangleorange.gif	go																								0.47	0.5145051479339999	0.00092601776123	0.33353495597800004	1.0	a	490.72224807699996																																	2015_Jun_25_1141	59.9408923314	LearningTask	1	67	
107	200.0	w	200.0																	0.0	0.0	0.0	0.0	21.0	0.0	84.0	0.0																													w	1.0	0.284228086472	None	0.0	2.0	invertedtrianglegray.gif	stop																								1.76	0.514196872711	0.00115990638733	0.284228086472	1.0	w	493.72566890699994																																	2015_Jun_25_1141	59.9408923314	LearningTask	1	67	
108	200.0	s	-200.0																	0.0	0.0	0.0	0.0	21.0	1.0	85.0	2.0																													s	1.0	0.28376698494	None	0.0	4.0	squareblue.gif	stop																								0.0	0.514671087265	0.0008940696716310001	0.28376698494	1.0	s	496.72905492800004																																	2015_Jun_25_1141	59.9408923314	LearningTask	1	67	
109	-200.0	a	-200.0																	0.0	0.0	0.0	0.0	21.0	2.0	86.0	3.0																													a	1.0	0.33376502990699997	None	0.0	2.0	circlewhite.gif	go																								1.77	0.514729976654	0.0009369850158689999	0.33376502990699997	1.0	a	499.732708931																																	2015_Jun_25_1141	59.9408923314	LearningTask	1	67	
110	-200.0	q	200.0																	0.0	0.0	0.0	0.0	21.0	3.0	87.0	1.0																													q	1.0	0.351199150085	None	0.0	2.0	invertedtrianglegray.gif	stop																								2.23	0.513489961624	0.000934839248657	0.351199150085	1.0	q	502.736021996																																	2015_Jun_25_1141	59.9408923314	LearningTask	1	67	
111	-200.0	a	-200.0																	0.0	0.0	0.0	0.0	22.0	0.0	88.0	3.0																													a	1.0	0.284077882767	None	0.0	0.5	triangleorange.gif	go																								0.59	0.514032125473	0.000900983810425	0.284077882767	1.0	a	505.739156961																																	2015_Jun_25_1141	59.9408923314	LearningTask	1	67	
112	200.0	w	200.0																	0.0	0.0	0.0	0.0	22.0	1.0	89.0	0.0																													w	1.0	0.334288835526	None	0.0	2.0	invertedtrianglegray.gif	stop																								1.99	0.5143198966979999	0.0008931159973139998	0.334288835526	1.0	w	508.74256086300005																																	2015_Jun_25_1141	59.9408923314	LearningTask	1	67	
113	-200.0	a	-200.0																	0.0	0.0	0.0	0.0	22.0	2.0	90.0	3.0																													a	1.0	0.300203800201	None	0.0	1.0	linegreen.gif	stop																								0.82	0.51437997818	0.0009181499481200001	0.300203800201	1.0	a	511.74612903599996																																	2015_Jun_25_1141	59.9408923314	LearningTask	1	67	
114	200.0	s	-200.0																	0.0	0.0	0.0	0.0	22.0	3.0	91.0	2.0																													s	1.0	0.28427410125700003	None	0.0	0.5	triangleorange.gif	go																								0.0	0.514080047607	0.0008990764617919999	0.28427410125700003	1.0	s	514.749424934																																	2015_Jun_25_1141	59.9408923314	LearningTask	1	67	
115	200.0	s	-200.0																	0.0	0.0	0.0	0.0	23.0	0.0	92.0	2.0																													s	1.0	0.351374864578	None	0.0	1.0	linegreen.gif	stop																								0.83	0.514042139053	0.0008959770202639998	0.351374864578	1.0	s	517.753120899																																	2015_Jun_25_1141	59.9408923314	LearningTask	1	67	
116	200.0	w	200.0																	0.0	0.0	0.0	0.0	23.0	1.0	93.0	0.0																													w	1.0	0.33437204361	None	0.0	0.5	hexagonmagenta.gif	stop																								0.75	0.513850927353	0.0009059906005860001	0.33437204361	1.0	w	520.756146908																																	2015_Jun_25_1141	59.9408923314	LearningTask	1	67	
117	200.0	s	-200.0																	0.0	0.0	0.0	0.0	23.0	2.0	94.0	2.0																													s	1.0	0.31744790077199997	None	0.0	1.0	linegreen.gif	stop																								1.0	0.5142600536349999	0.000908851623535	0.31744790077199997	1.0	s	523.7594048980001																																	2015_Jun_25_1141	59.9408923314	LearningTask	1	67	
118	200.0	s	-200.0																	0.0	0.0	0.0	0.0	23.0	3.0	95.0	2.0																													s	1.0	0.317914009094	None	0.0	2.0	invertedtrianglegray.gif	stop																								1.83	0.514367103577	0.00112414360046	0.317914009094	1.0	s	526.763059855																																	2015_Jun_25_1141	59.9408923314	LearningTask	1	67	
119	-200.0	q	200.0																	0.0	0.0	0.0	0.0	24.0	0.0	96.0	1.0																													q	1.0	0.334076881409	None	0.0	4.0	diamondyellow.gif	go																								4.21	0.514191150665	0.0008950233459470001	0.334076881409	1.0	q	529.766299963																																	2015_Jun_25_1141	59.9408923314	LearningTask	1	67	
120	-200.0	a	-200.0																	0.0	0.0	0.0	0.0	24.0	1.0	97.0	3.0																													a	1.0	0.300983905792	None	0.0	0.5	hexagonmagenta.gif	stop																								0.0	0.514115095139	0.00120210647583	0.300983905792	1.0	a	532.7696778769999																																	2015_Jun_25_1141	59.9408923314	LearningTask	1	67	
121	-200.0	q	200.0																	0.0	0.0	0.0	0.0	24.0	2.0	98.0	1.0																													q	1.0	0.317620038986	None	0.0	2.0	circlewhite.gif	go																								2.18	0.514001131058	0.00095009803772	0.317620038986	1.0	q	535.772963047																																	2015_Jun_25_1141	59.9408923314	LearningTask	1	67	
122	-200.0	a	-200.0																	0.0	0.0	0.0	0.0	24.0	3.0	99.0	3.0																													a	1.0	0.333914041519	None	0.0	1.0	crosscyan.gif	go																								1.03	0.514386892319	0.0008978843688960001	0.333914041519	1.0	a	538.776329994																																	2015_Jun_25_1141	59.9408923314	LearningTask	1	67	
123																				0.0	0.0	0.0	0.0																																																																														9.0	9.66579604149																								2015_Jun_25_1141	59.9408923314	LearningTask	1	67	
124	-200.0	q	200.0																	1.0	0.0	1.0	0.0	0.0	0.0	0.0	1.0																													q	1.0	0.651246070862	None	0.0	4.0	diamondyellow.gif	go																								4.25	0.509870052338	0.000888109207153	0.651246070862	1.0	q	551.891592979																																	2015_Jun_25_1141	59.9408923314	LearningTask	1	67	
125	-200.0	q	200.0																	1.0	0.0	1.0	0.0	0.0	1.0	1.0	1.0																													q	1.0	0.334484100342	None	0.0	2.0	circlewhite.gif	go																								2.19	0.513481140137	0.000908136367798	0.334484100342	1.0	q	554.89478898																																	2015_Jun_25_1141	59.9408923314	LearningTask	1	67	
126	-200.0	q	200.0																	1.0	0.0	1.0	0.0	0.0	2.0	2.0	1.0																													q	1.0	0.317176818848	None	0.0	1.0	crosscyan.gif	go																								0.79	0.514316797256	0.00089693069458	0.317176818848	1.0	q	557.897889853																																	2015_Jun_25_1141	59.9408923314	LearningTask	1	67	
127	200.0	s	-200.0																	1.0	0.0	1.0	0.0	0.0	3.0	3.0	2.0																													s	1.0	0.284187078476	None	0.0	0.5	hexagonmagenta.gif	stop																								0.36	0.514126062393	0.0008919239044189998	0.284187078476	1.0	s	560.90130496																																	2015_Jun_25_1141	59.9408923314	LearningTask	1	67	
128	200.0	w	200.0																	1.0	0.0	1.0	0.0	1.0	0.0	4.0	0.0																													w	1.0	0.317683935165	None	0.0	2.0	circlewhite.gif	go																								1.87	0.513938188553	0.000917196273804	0.317683935165	1.0	w	563.90457201																																	2015_Jun_25_1141	59.9408923314	LearningTask	1	67	
129	200.0	w	200.0																	1.0	0.0	1.0	0.0	1.0	1.0	5.0	0.0																													w	1.0	0.35126996040299996	None	0.0	4.0	squareblue.gif	stop																								3.81	0.514413118362	0.0008859634399410001	0.35126996040299996	1.0	w	566.9080219269999																																	2015_Jun_25_1141	59.9408923314	LearningTask	1	67	
130	200.0	s	-200.0																	1.0	0.0	1.0	0.0	1.0	2.0	6.0	2.0																													s	1.0	0.30087518692	None	0.0	2.0	circlewhite.gif	go																								1.86	0.5141398906710001	0.000959873199463	0.30087518692	1.0	s	569.911720991																																	2015_Jun_25_1141	59.9408923314	LearningTask	1	67	
131	200.0	w	200.0																	1.0	0.0	1.0	0.0	1.0	3.0	7.0	0.0																													w	1.0	0.33406496048	None	0.0	0.5	triangleorange.gif	go																								0.0	0.5139210224149999	0.0009047985076900001	0.33406496048	1.0	w	572.9149460790001																																	2015_Jun_25_1141	59.9408923314	LearningTask	1	67	
132	200.0	s	-200.0																	1.0	0.0	1.0	0.0	2.0	0.0	8.0	2.0																													s	1.0	0.31768703460700004	None	0.0	1.0	crosscyan.gif	go																								1.01	0.514147043228	0.00089693069458	0.31768703460700004	1.0	s	575.918144941																																	2015_Jun_25_1141	59.9408923314	LearningTask	1	67	
133	200.0	s	-200.0																	1.0	0.0	1.0	0.0	2.0	1.0	9.0	2.0																													s	1.0	0.31732702255199996	None	0.0	0.5	hexagonmagenta.gif	stop																								0.68	0.514293909073	0.0009720325469970001	0.31732702255199996	1.0	s	578.921529055																																	2015_Jun_25_1141	59.9408923314	LearningTask	1	67	
134	-200.0	a	-200.0																	1.0	0.0	1.0	0.0	2.0	2.0	10.0	3.0																													a	1.0	0.301342010498	None	0.0	4.0	squareblue.gif	stop																								3.95	0.5139110088350001	0.0009129047393799999	0.301342010498	1.0	a	581.92480588																																	2015_Jun_25_1141	59.9408923314	LearningTask	1	67	
135	-200.0	a	-200.0																	1.0	0.0	1.0	0.0	2.0	3.0	11.0	3.0																													a	1.0	0.334285020828	None	0.0	1.0	crosscyan.gif	go																								1.07	0.514220952988	0.000900983810425	0.334285020828	1.0	a	584.928132057																																	2015_Jun_25_1141	59.9408923314	LearningTask	1	67	
136	-200.0	q	200.0																	1.0	0.0	1.0	0.0	3.0	0.0	12.0	1.0																													q	1.0	0.28402519226100004	None	0.0	0.5	hexagonmagenta.gif	stop																								0.34	0.514497041702	0.0009031295776369999	0.28402519226100004	1.0	q	587.93159008																																	2015_Jun_25_1141	59.9408923314	LearningTask	1	67	
137	-200.0	q	200.0																	1.0	0.0	1.0	0.0	3.0	1.0	13.0	1.0																													q	1.0	0.334007978439	None	0.0	4.0	squareblue.gif	stop																								3.91	0.514488935471	0.0008859634399410001	0.334007978439	1.0	q	590.9350099559999																																	2015_Jun_25_1141	59.9408923314	LearningTask	1	67	
138	200.0	w	200.0																	1.0	0.0	1.0	0.0	3.0	2.0	14.0	0.0																													w	1.0	0.334491968155	None	0.0	4.0	squareblue.gif	stop																								3.78	0.514302968979	0.000946044921875	0.334491968155	1.0	w	593.938459873																																	2015_Jun_25_1141	59.9408923314	LearningTask	1	67	
139	-200.0	a	-200.0																	1.0	0.0	1.0	0.0	3.0	3.0	15.0	3.0																													a	1.0	0.33416891098	None	0.0	2.0	circlewhite.gif	go																								1.9	0.514292001724	0.0008990764617919999	0.33416891098	1.0	a	596.94196701																																	2015_Jun_25_1141	59.9408923314	LearningTask	1	67	
140	-200.0	a	-200.0																	1.0	0.0	1.0	0.0	4.0	0.0	16.0	3.0																													a	1.0	0.351082086563	None	0.0	1.0	crosscyan.gif	go																								0.89	0.514162063599	0.0008940696716310001	0.351082086563	1.0	a	599.9450349809999																																	2015_Jun_25_1141	59.9408923314	LearningTask	1	67	
141	-200.0	a	-200.0																	1.0	0.0	1.0	0.0	4.0	1.0	17.0	3.0																													a	1.0	0.350980997086	None	0.0	0.5	triangleorange.gif	go																								0.72	0.5141499042509999	0.0009350776672360002	0.350980997086	1.0	a	602.948518038																																	2015_Jun_25_1141	59.9408923314	LearningTask	1	67	
142	-200.0	a	-200.0																	1.0	0.0	1.0	0.0	4.0	2.0	18.0	3.0																													a	1.0	0.350948810577	None	0.0	1.0	crosscyan.gif	go																								0.0	0.514266967773	0.00087308883667	0.350948810577	1.0	a	605.951919079																																	2015_Jun_25_1141	59.9408923314	LearningTask	1	67	
143	-200.0	a	-200.0																	1.0	0.0	1.0	0.0	4.0	3.0	19.0	3.0																													a	1.0	0.350705862045	None	0.0	4.0	diamondyellow.gif	go																								4.1	0.51446890831	0.00113606452942	0.350705862045	1.0	a	608.955546856																																	2015_Jun_25_1141	59.9408923314	LearningTask	1	67	
144	200.0	w	200.0																	1.0	0.0	1.0	0.0	5.0	0.0	20.0	0.0																													w	1.0	0.317495107651	None	0.0	1.0	crosscyan.gif	go																								0.99	0.513970136642	0.00088095664978	0.317495107651	1.0	w	611.95864296																																	2015_Jun_25_1141	59.9408923314	LearningTask	1	67	
145	200.0	s	-200.0																	1.0	0.0	1.0	0.0	5.0	1.0	21.0	2.0																													s	1.0	0.31791806221	None	0.0	1.0	linegreen.gif	stop																								1.11	0.514346837997	0.0008740425109860002	0.31791806221	1.0	s	614.962276936																																	2015_Jun_25_1141	59.9408923314	LearningTask	1	67	
146	200.0	w	200.0																	1.0	0.0	1.0	0.0	5.0	2.0	22.0	0.0																													w	1.0	0.317661046982	None	0.0	1.0	crosscyan.gif	go																								0.85	0.514023065567	0.0009140968322749999	0.317661046982	1.0	w	617.966042995																																	2015_Jun_25_1141	59.9408923314	LearningTask	1	67	
147	200.0	s	-200.0																	1.0	0.0	1.0	0.0	5.0	3.0	23.0	2.0																													s	1.0	0.317556142807	None	0.0	2.0	invertedtrianglegray.gif	stop																								2.01	0.51354598999	0.0008959770202639998	0.317556142807	1.0	s	620.96884799																																	2015_Jun_25_1141	59.9408923314	LearningTask	1	67	
148	-200.0	a	-200.0																	1.0	0.0	1.0	0.0	6.0	0.0	24.0	3.0																													a	1.0	0.334112882614	None	0.0	4.0	squareblue.gif	stop																								3.93	0.514381170273	0.000981092453003	0.334112882614	1.0	a	623.972115993																																	2015_Jun_25_1141	59.9408923314	LearningTask	1	67	
149	-200.0	a	-200.0																	1.0	0.0	1.0	0.0	6.0	1.0	25.0	3.0																													a	1.0	0.334102869034	None	0.0	0.5	triangleorange.gif	go																								0.27	0.514415979385	0.0008740425109860002	0.334102869034	1.0	a	626.975673914																																	2015_Jun_25_1141	59.9408923314	LearningTask	1	67	
150	200.0	s	-200.0																	1.0	0.0	1.0	0.0	6.0	2.0	26.0	2.0																													s	1.0	0.30060505867	None	0.0	4.0	diamondyellow.gif	go																								3.88	0.514334201813	0.000880002975464	0.30060505867	1.0	s	629.9787158969999																																	2015_Jun_25_1141	59.9408923314	LearningTask	1	67	
151	-200.0	q	200.0																	1.0	0.0	1.0	0.0	6.0	3.0	27.0	1.0																													q	1.0	0.350798130035	None	0.0	2.0	invertedtrianglegray.gif	stop																								2.04	0.514531135559	0.0009391307830810002	0.350798130035	1.0	q	632.982681036																																	2015_Jun_25_1141	59.9408923314	LearningTask	1	67	
152	200.0	w	200.0																	1.0	0.0	1.0	0.0	7.0	0.0	28.0	0.0																													w	1.0	0.33413410186799997	None	0.0	0.5	hexagonmagenta.gif	stop																								0.59	0.514013051987	0.0008859634399410001	0.33413410186799997	1.0	w	635.985635042																																	2015_Jun_25_1141	59.9408923314	LearningTask	1	67	
153	200.0	s	-200.0																	1.0	0.0	1.0	0.0	7.0	1.0	29.0	2.0																													s	1.0	0.317134857178	None	0.0	0.5	hexagonmagenta.gif	stop																								0.61	0.514563083649	0.000882863998413	0.317134857178	1.0	s	638.98912096																																	2015_Jun_25_1141	59.9408923314	LearningTask	1	67	
154	-200.0	q	200.0																	1.0	0.0	1.0	0.0	7.0	2.0	30.0	1.0																													q	1.0	0.300742864609	None	0.0	1.0	linegreen.gif	stop																								0.86	0.514191150665	0.0009181499481200001	0.300742864609	1.0	q	641.99274087																																	2015_Jun_25_1141	59.9408923314	LearningTask	1	67	
155	-200.0	a	-200.0																	1.0	0.0	1.0	0.0	7.0	3.0	31.0	3.0																													a	1.0	0.26761412620499997	None	0.0	4.0	diamondyellow.gif	go																								4.07	0.513922929764	0.000900983810425	0.26761412620499997	1.0	a	644.995835066																																	2015_Jun_25_1141	59.9408923314	LearningTask	1	67	
156	-200.0	a	-200.0																	1.0	0.0	1.0	0.0	8.0	0.0	32.0	3.0																													a	1.0	0.300565004349	None	0.0	4.0	squareblue.gif	stop																								4.0	0.514611005783	0.0011210441589400001	0.300565004349	1.0	a	647.999219894																																	2015_Jun_25_1141	59.9408923314	LearningTask	1	67	
157	200.0	s	-200.0																	1.0	0.0	1.0	0.0	8.0	1.0	33.0	2.0																													s	1.0	0.300476074219	None	0.0	2.0	invertedtrianglegray.gif	stop																								2.21	0.514404058456	0.000909090042114	0.300476074219	1.0	s	651.002542973																																	2015_Jun_25_1141	59.9408923314	LearningTask	1	67	
158	200.0	w	200.0																	1.0	0.0	1.0	0.0	8.0	2.0	34.0	0.0																													w	1.0	0.317551136017	None	0.0	4.0	diamondyellow.gif	go																								0.0	0.514223814011	0.0008759498596189999	0.317551136017	1.0	w	654.0059108730001																																	2015_Jun_25_1141	59.9408923314	LearningTask	1	67	
159	200.0	s	-200.0																	1.0	0.0	1.0	0.0	8.0	3.0	35.0	2.0																													s	1.0	0.317805051804	None	0.0	1.0	crosscyan.gif	go																								1.07	0.514427900314	0.0008749961853029999	0.317805051804	1.0	s	657.009639025																																	2015_Jun_25_1141	59.9408923314	LearningTask	1	67	
160	-200.0	a	-200.0																	1.0	0.0	1.0	0.0	9.0	0.0	36.0	3.0																													a	1.0	0.334042072296	None	0.0	2.0	invertedtrianglegray.gif	stop																								1.88	0.51397395134	0.0008909702301030001	0.334042072296	1.0	a	660.0126678940001																																	2015_Jun_25_1141	59.9408923314	LearningTask	1	67	
161	200.0	w	200.0																	1.0	0.0	1.0	0.0	9.0	1.0	37.0	0.0																													w	1.0	0.33466696739199997	q	0.0	4.0	diamondyellow.gif	go																								4.11	0.514342069626	0.0008981227874760001	0.33466696739199997	1.0	w	663.0160498619999										0.258308172226																							2015_Jun_25_1141	59.9408923314	LearningTask	1	67	
162	-200.0	q	200.0																	1.0	0.0	1.0	0.0	9.0	2.0	38.0	1.0																													q	1.0	0.300556182861	None	0.0	0.5	hexagonmagenta.gif	stop																								0.25	0.51444196701	0.000888109207153	0.300556182861	1.0	q	666.019886017																																	2015_Jun_25_1141	59.9408923314	LearningTask	1	67	
163	-200.0	a	-200.0																	1.0	0.0	1.0	0.0	9.0	3.0	39.0	3.0																													a	1.0	0.284254074097	None	0.0	1.0	crosscyan.gif	go																								1.06	0.513842105865	0.000881195068359	0.284254074097	1.0	a	669.022842884																																	2015_Jun_25_1141	59.9408923314	LearningTask	1	67	
164	-200.0	q	200.0																	1.0	0.0	1.0	0.0	10.0	0.0	40.0	1.0																													q	1.0	0.31718397140500004	None	0.0	1.0	linegreen.gif	stop																								1.12	0.514595031738	0.000869989395142	0.31718397140500004	1.0	q	672.02609086																																	2015_Jun_25_1141	59.9408923314	LearningTask	1	67	
165	-200.0	a	-200.0																	1.0	0.0	1.0	0.0	10.0	1.0	41.0	3.0																													a	1.0	0.300788879395	None	0.0	4.0	diamondyellow.gif	go																								4.12	0.514499902725	0.0008740425109860002	0.300788879395	1.0	a	675.0296559330001																																	2015_Jun_25_1141	59.9408923314	LearningTask	1	67	
166	-200.0	q	200.0																	1.0	0.0	1.0	0.0	10.0	2.0	42.0	1.0																													q	1.0	0.250988960266	None	0.0	0.5	triangleorange.gif	go																								0.0	0.514246940613	0.000865936279297	0.250988960266	1.0	q	678.0330369469999																																	2015_Jun_25_1141	59.9408923314	LearningTask	1	67	
167	200.0	w	200.0																	1.0	0.0	1.0	0.0	10.0	3.0	43.0	0.0																													w	1.0	0.284383058548	None	0.0	0.5	hexagonmagenta.gif	stop																								0.0	0.513967037201	0.00100994110107	0.284383058548	1.0	w	681.0364639759999																																	2015_Jun_25_1141	59.9408923314	LearningTask	1	67	
168	-200.0	q	200.0																	1.0	0.0	1.0	0.0	11.0	0.0	44.0	1.0																													q	1.0	0.31780695915199997	None	0.0	0.5	hexagonmagenta.gif	stop																								0.51	0.5142590999600001	0.000951051712036	0.31780695915199997	1.0	q	684.03975296																																	2015_Jun_25_1141	59.9408923314	LearningTask	1	67	
169	-200.0	q	200.0																	1.0	0.0	1.0	0.0	11.0	1.0	45.0	1.0																													q	1.0	0.30041694641100003	None	0.0	2.0	circlewhite.gif	go																								2.06	0.514283895493	0.000885009765625	0.30041694641100003	1.0	q	687.043146849																																	2015_Jun_25_1141	59.9408923314	LearningTask	1	67	
170	200.0	s	-200.0																	1.0	0.0	1.0	0.0	11.0	2.0	46.0	2.0																													s	1.0	0.317444086075	None	0.0	2.0	circlewhite.gif	go																								1.94	0.5140318870539999	0.000907897949219	0.317444086075	1.0	s	690.0465099810001																																	2015_Jun_25_1141	59.9408923314	LearningTask	1	67	
171	-200.0	a	-200.0																	1.0	0.0	1.0	0.0	11.0	3.0	47.0	3.0																													a	1.0	0.300549983978	None	0.0	1.0	crosscyan.gif	go																								1.15	0.514454841614	0.0008909702301030001	0.300549983978	1.0	a	693.04990387																																	2015_Jun_25_1141	59.9408923314	LearningTask	1	67	
172	200.0	s	-200.0																	1.0	0.0	1.0	0.0	12.0	0.0	48.0	2.0																													s	1.0	0.334319114685	None	0.0	1.0	linegreen.gif	stop																								0.78	0.5143120288849999	0.0008749961853029999	0.334319114685	1.0	s	696.053431988																																	2015_Jun_25_1141	59.9408923314	LearningTask	1	67	
173	-200.0	q	200.0																	1.0	0.0	1.0	0.0	12.0	1.0	49.0	1.0																													q	1.0	0.267510175705	None	0.0	0.5	hexagonmagenta.gif	stop																								0.0	0.513908863068	0.000882863998413	0.267510175705	1.0	q	699.056843042																																	2015_Jun_25_1141	59.9408923314	LearningTask	1	67	
174	200.0	w	200.0																	1.0	0.0	1.0	0.0	12.0	2.0	50.0	0.0																													w	1.0	0.300945997238	None	0.0	0.5	hexagonmagenta.gif	stop																								0.72	0.514183998108	0.000943899154663	0.300945997238	1.0	w	702.06004405																																	2015_Jun_25_1141	59.9408923314	LearningTask	1	67	
175	-200.0	q	200.0																	1.0	0.0	1.0	0.0	12.0	3.0	51.0	1.0																													q	1.0	0.367722988129	None	0.0	1.0	linegreen.gif	stop																								0.0	0.514514923096	0.0008749961853029999	0.367722988129	1.0	q	705.063935995																																	2015_Jun_25_1141	59.9408923314	LearningTask	1	67	
176	200.0	w	200.0																	1.0	0.0	1.0	0.0	13.0	0.0	52.0	0.0																													w	1.0	0.300341129303	None	0.0	0.5	triangleorange.gif	go																								0.37	0.513720989227	0.0008981227874760001	0.300341129303	1.0	w	708.066796064																																	2015_Jun_25_1141	59.9408923314	LearningTask	1	67	
177	-200.0	a	-200.0																	1.0	0.0	1.0	0.0	13.0	1.0	53.0	3.0																													a	1.0	0.300507068634	None	0.0	2.0	circlewhite.gif	go																								1.75	0.514479160309	0.0008990764617919999	0.300507068634	1.0	a	711.0703270439999																																	2015_Jun_25_1141	59.9408923314	LearningTask	1	67	
178	200.0	w	200.0																	1.0	0.0	1.0	0.0	13.0	2.0	54.0	0.0																													w	1.0	0.30097603797899997	None	0.0	2.0	invertedtrianglegray.gif	stop																								2.2	0.514125108719	0.0009379386901860002	0.30097603797899997	1.0	w	714.073718071																																	2015_Jun_25_1141	59.9408923314	LearningTask	1	67	
179	-200.0	a	-200.0																	1.0	0.0	1.0	0.0	13.0	3.0	55.0	3.0																													a	1.0	0.316868066788	None	0.0	4.0	squareblue.gif	stop																								4.08	0.514246940613	0.0008869171142580001	0.316868066788	1.0	a	717.076915026																																	2015_Jun_25_1141	59.9408923314	LearningTask	1	67	
180	-200.0	q	200.0																	1.0	0.0	1.0	0.0	14.0	0.0	56.0	1.0																													q	1.0	0.267426967621	None	0.0	4.0	diamondyellow.gif	go																								3.93	0.514292001724	0.0010008811950700002	0.267426967621	1.0	q	720.080543041																																	2015_Jun_25_1141	59.9408923314	LearningTask	1	67	
181	-200.0	q	200.0																	1.0	0.0	1.0	0.0	14.0	1.0	57.0	1.0																													q	1.0	0.283625125885	None	0.0	1.0	crosscyan.gif	go																								0.76	0.513994932175	0.00096607208252	0.283625125885	1.0	q	723.083680868																																	2015_Jun_25_1141	59.9408923314	LearningTask	1	67	
182	200.0	s	-200.0																	1.0	0.0	1.0	0.0	14.0	2.0	58.0	2.0																													s	1.0	0.317500114441	None	0.0	4.0	diamondyellow.gif	go																								4.15	0.514353990555	0.0008769035339360002	0.317500114441	1.0	s	726.0870058539999																																	2015_Jun_25_1141	59.9408923314	LearningTask	1	67	
183	-200.0	q	200.0																	1.0	0.0	1.0	0.0	14.0	3.0	59.0	1.0																													q	1.0	0.317486047745	None	0.0	1.0	crosscyan.gif	go																								1.12	0.514208078384	0.000921964645386	0.317486047745	1.0	q	729.0903768539999																																	2015_Jun_25_1141	59.9408923314	LearningTask	1	67	
184	200.0	s	-200.0																	1.0	0.0	1.0	0.0	15.0	0.0	60.0	2.0																													s	1.0	0.317422866821	None	0.0	0.5	hexagonmagenta.gif	stop																								0.0	0.514563083649	0.0008831024169919999	0.317422866821	1.0	s	732.093822956																																	2015_Jun_25_1141	59.9408923314	LearningTask	1	67	
185	-200.0	q	200.0																	1.0	0.0	1.0	0.0	15.0	1.0	61.0	1.0																													q	1.0	0.284521102905	None	0.0	1.0	linegreen.gif	stop																								0.88	0.514305114746	0.0008680820465089999	0.284521102905	1.0	q	735.0972929																																	2015_Jun_25_1141	59.9408923314	LearningTask	1	67	
186	-200.0	a	-200.0																	1.0	0.0	1.0	0.0	15.0	2.0	62.0	3.0																													a	1.0	0.317265987396	None	0.0	2.0	invertedtrianglegray.gif	stop																								1.93	0.514378070831	0.000890016555786	0.317265987396	1.0	a	738.100574017																																	2015_Jun_25_1141	59.9408923314	LearningTask	1	67	
187	200.0	w	200.0																	1.0	0.0	1.0	0.0	15.0	3.0	63.0	0.0																													w	1.0	0.317142009735	None	0.0	1.0	linegreen.gif	stop																								0.84	0.514416217804	0.0008761882781980001	0.317142009735	1.0	w	741.103860855																																	2015_Jun_25_1141	59.9408923314	LearningTask	1	67	
188	-200.0	a	-200.0																	1.0	0.0	1.0	0.0	16.0	0.0	64.0	3.0																													a	1.0	0.30086183548	None	0.0	2.0	circlewhite.gif	go																								2.05	0.514381885529	0.0013170242309600002	0.30086183548	1.0	a	744.1076309680001																																	2015_Jun_25_1141	59.9408923314	LearningTask	1	67	
189	200.0	w	200.0																	1.0	0.0	1.0	0.0	16.0	1.0	65.0	0.0																													w	1.0	0.300507068634	None	0.0	1.0	crosscyan.gif	go																								1.01	0.513864994049	0.0008749961853029999	0.300507068634	1.0	w	747.11075592																																	2015_Jun_25_1141	59.9408923314	LearningTask	1	67	
190	200.0	w	200.0																	1.0	0.0	1.0	0.0	16.0	2.0	66.0	0.0																													w	1.0	0.300756216049	None	0.0	2.0	invertedtrianglegray.gif	stop																								1.9	0.514346837997	0.0009019374847410001	0.300756216049	1.0	w	750.1140990260001																																	2015_Jun_25_1141	59.9408923314	LearningTask	1	67	
191	200.0	w	200.0																	1.0	0.0	1.0	0.0	16.0	3.0	67.0	0.0																													w	1.0	0.317111968994	None	0.0	1.0	linegreen.gif	stop																								1.16	0.514519929886	0.00088095664978	0.317111968994	1.0	w	753.117914915																																	2015_Jun_25_1141	59.9408923314	LearningTask	1	67	
192	200.0	s	-200.0																	1.0	0.0	1.0	0.0	17.0	0.0	68.0	2.0																													s	1.0	0.267748832703	None	0.0	2.0	circlewhite.gif	go																								1.97	0.514106988907	0.000873804092407	0.267748832703	1.0	s	756.120821953																																	2015_Jun_25_1141	59.9408923314	LearningTask	1	67	
193	200.0	s	-200.0																	1.0	0.0	1.0	0.0	17.0	1.0	69.0	2.0																													s	1.0	0.300965070724	None	0.0	1.0	crosscyan.gif	go																								1.1	0.514456033707	0.0008749961853029999	0.300965070724	1.0	s	759.124224901																																	2015_Jun_25_1141	59.9408923314	LearningTask	1	67	
194	200.0	s	-200.0																	1.0	0.0	1.0	0.0	17.0	2.0	70.0	2.0																													s	1.0	0.300603151321	None	0.0	4.0	diamondyellow.gif	go																								4.17	0.514322042465	0.000885009765625	0.300603151321	1.0	s	762.1275050639999																																	2015_Jun_25_1141	59.9408923314	LearningTask	1	67	
195	200.0	w	200.0																	1.0	0.0	1.0	0.0	17.0	3.0	71.0	0.0																													w	1.0	0.300508022308	None	0.0	2.0	circlewhite.gif	go																								1.9	0.514379024506	0.0009031295776369999	0.300508022308	1.0	w	765.1309518810001																																	2015_Jun_25_1141	59.9408923314	LearningTask	1	67	
196	200.0	w	200.0																	1.0	0.0	1.0	0.0	18.0	0.0	72.0	0.0																													w	1.0	0.317625045776	None	0.0	1.0	crosscyan.gif	go																								0.82	0.514456987381	0.00110483169556	0.317625045776	1.0	w	768.134422064																																	2015_Jun_25_1141	59.9408923314	LearningTask	1	67	
197	200.0	s	-200.0																	1.0	0.0	1.0	0.0	18.0	1.0	73.0	2.0																													s	1.0	0.31720304489100004	None	0.0	4.0	diamondyellow.gif	go																								3.81	0.51425409317	0.0008761882781980001	0.31720304489100004	1.0	s	771.137768984																																	2015_Jun_25_1141	59.9408923314	LearningTask	1	67	
198	-200.0	q	200.0																	1.0	0.0	1.0	0.0	18.0	2.0	74.0	1.0																													q	1.0	0.284007072449	None	0.0	1.0	crosscyan.gif	go																								1.11	0.514294147491	0.0008721351623539999	0.284007072449	1.0	q	774.1410269739999																																	2015_Jun_25_1141	59.9408923314	LearningTask	1	67	
199	200.0	s	-200.0																	1.0	0.0	1.0	0.0	18.0	3.0	75.0	2.0																													s	1.0	0.30117011070300004	None	0.0	1.0	linegreen.gif	stop																								0.0	0.514143943787	0.0009369850158689999	0.30117011070300004	1.0	s	777.144491911																																	2015_Jun_25_1141	59.9408923314	LearningTask	1	67	
200	-200.0	q	200.0																	1.0	0.0	1.0	0.0	19.0	0.0	76.0	1.0																													q	1.0	0.23425793647799997	None	0.0	2.0	invertedtrianglegray.gif	stop																								0.0	0.514612913132	0.0008759498596189999	0.350956916809	0.0	a	780.148087978	2.0	0.515347957611	0.0009469985961910001	0.23425793647799997	1.0	q	783.1515250210001																										2015_Jun_25_1141	59.9408923314	LearningTask	1	67	
201	200.0	s	-200.0																	1.0	0.0	1.0	0.0	19.0	1.0	77.0	2.0																													s	1.0	0.334201812744	None	0.0	0.5	hexagonmagenta.gif	stop																								0.71	0.513944149017	0.0009160041809079999	0.334201812744	1.0	s	786.154674053																																	2015_Jun_25_1141	59.9408923314	LearningTask	1	67	
202	-200.0	a	-200.0																	1.0	0.0	1.0	0.0	19.0	2.0	78.0	3.0																													a	1.0	0.351315021515	None	0.0	0.5	hexagonmagenta.gif	stop																								0.72	0.51428103447	0.0008749961853029999	0.351315021515	1.0	a	789.1581969260001																																	2015_Jun_25_1141	59.9408923314	LearningTask	1	67	
203	200.0	s	-200.0																	1.0	0.0	1.0	0.0	19.0	3.0	79.0	2.0																													s	1.0	0.317440032959	None	0.0	0.5	hexagonmagenta.gif	stop																								0.0	0.5140681266780001	0.0008821487426760002	0.317440032959	1.0	s	792.1619670389999																																	2015_Jun_25_1141	59.9408923314	LearningTask	1	67	
204	200.0	w	200.0																	1.0	0.0	1.0	0.0	20.0	0.0	80.0	0.0																													w	1.0	0.333727121353	None	0.0	1.0	linegreen.gif	stop																								0.96	0.51381611824	0.0008931159973139998	0.333727121353	1.0	w	795.16483593																																	2015_Jun_25_1141	59.9408923314	LearningTask	1	67	
205	-200.0	a	-200.0																	1.0	0.0	1.0	0.0	20.0	1.0	81.0	3.0																													a	1.0	0.30058693885800003	None	0.0	2.0	circlewhite.gif	go																								1.78	0.514317989349	0.0008759498596189999	0.30058693885800003	1.0	a	798.16812706																																	2015_Jun_25_1141	59.9408923314	LearningTask	1	67	
206	200.0	w	200.0																	1.0	0.0	1.0	0.0	20.0	2.0	82.0	0.0																													w	1.0	0.33446097374	None	0.0	4.0	diamondyellow.gif	go																								3.79	0.514575004578	0.0008709430694580001	0.33446097374	1.0	w	801.171746969																																	2015_Jun_25_1141	59.9408923314	LearningTask	1	67	
207	-200.0	q	200.0																	1.0	0.0	1.0	0.0	20.0	3.0	83.0	1.0																													q	1.0	0.284245014191	None	0.0	2.0	invertedtrianglegray.gif	stop																								0.0	0.5140831470489999	0.0008721351623539999	0.284245014191	1.0	q	804.1749289039999																																	2015_Jun_25_1141	59.9408923314	LearningTask	1	67	
208	200.0	s	-200.0																	1.0	0.0	1.0	0.0	21.0	0.0	84.0	2.0																													s	1.0	0.284044981003	None	0.0	2.0	invertedtrianglegray.gif	stop																								2.05	0.514161109924	0.0009729862213130002	0.284044981003	1.0	s	807.1785218719999																																	2015_Jun_25_1141	59.9408923314	LearningTask	1	67	
209	-200.0	q	200.0																	1.0	0.0	1.0	0.0	21.0	1.0	85.0	1.0																													q	1.0	0.350724935532	None	0.0	0.5	triangleorange.gif	go																								0.25	0.514343976974	0.0008769035339360002	0.350724935532	1.0	q	810.1817169189999																																	2015_Jun_25_1141	59.9408923314	LearningTask	1	67	
210	-200.0	q	200.0																	1.0	0.0	1.0	0.0	21.0	2.0	86.0	1.0																													q	1.0	0.33363103866599997	None	0.0	4.0	diamondyellow.gif	go																								3.79	0.51429605484	0.0008749961853029999	0.33363103866599997	1.0	q	813.18503499																																	2015_Jun_25_1141	59.9408923314	LearningTask	1	67	
211	200.0	w	200.0																	1.0	0.0	1.0	0.0	21.0	3.0	87.0	0.0																													w	1.0	0.334097862244	None	0.0	0.5	triangleorange.gif	go																								0.0	0.514228105545	0.0009200572967529999	0.334097862244	1.0	w	816.188389063																																	2015_Jun_25_1141	59.9408923314	LearningTask	1	67	
212	200.0	w	200.0																	1.0	0.0	1.0	0.0	22.0	0.0	88.0	0.0																													w	1.0	0.300511837006	None	0.0	0.5	hexagonmagenta.gif	stop																								0.29	0.514477968216	0.0008780956268310002	0.300511837006	1.0	w	819.191861868																																	2015_Jun_25_1141	59.9408923314	LearningTask	1	67	
213	200.0	s	-200.0																	1.0	0.0	1.0	0.0	22.0	1.0	89.0	2.0																													s	1.0	0.30117487907400003	None	0.0	2.0	invertedtrianglegray.gif	stop																								1.79	0.5140600204469999	0.0008840560913089999	0.30117487907400003	1.0	s	822.195569992																																	2015_Jun_25_1141	59.9408923314	LearningTask	1	67	
214	-200.0	a	-200.0																	1.0	0.0	1.0	0.0	22.0	2.0	90.0	3.0																													a	1.0	0.31751394271899996	None	0.0	0.5	triangleorange.gif	go																								0.28	0.513885974884	0.000903844833374	0.31751394271899996	1.0	a	825.1987259389999																																	2015_Jun_25_1141	59.9408923314	LearningTask	1	67	
215	200.0	w	200.0																	1.0	0.0	1.0	0.0	22.0	3.0	91.0	0.0																													w	1.0	0.300804138184	None	0.0	2.0	circlewhite.gif	go																								1.86	0.513986110687	0.000900030136108	0.300804138184	1.0	w	828.2020869260001																																	2015_Jun_25_1141	59.9408923314	LearningTask	1	67	
216	200.0	s	-200.0																	1.0	0.0	1.0	0.0	23.0	0.0	92.0	2.0																													s	1.0	0.334592103958	None	0.0	0.5	hexagonmagenta.gif	stop																								0.53	0.51393699646	0.000961065292358	0.334592103958	1.0	s	831.20569396																																	2015_Jun_25_1141	59.9408923314	LearningTask	1	67	
217	-200.0	q	200.0																	1.0	0.0	1.0	0.0	23.0	1.0	93.0	1.0																													q	1.0	0.300818920135	None	0.0	2.0	circlewhite.gif	go																								1.9	0.513768911362	0.000885009765625	0.300818920135	1.0	q	834.208786011																																	2015_Jun_25_1141	59.9408923314	LearningTask	1	67	
218	-200.0	a	-200.0																	1.0	0.0	1.0	0.0	23.0	2.0	94.0	3.0																													a	1.0	0.300872087479	None	0.0	4.0	squareblue.gif	stop																								3.96	0.5142610073089999	0.00088906288147	0.300872087479	1.0	a	837.2121849060001																																	2015_Jun_25_1141	59.9408923314	LearningTask	1	67	
219	-200.0	q	200.0																	1.0	0.0	1.0	0.0	23.0	3.0	95.0	1.0																													q	1.0	0.30045294761700003	None	0.0	2.0	circlewhite.gif	go																								0.0	0.514283180237	0.000890016555786	0.30045294761700003	1.0	q	840.215750933																																	2015_Jun_25_1141	59.9408923314	LearningTask	1	67	
220	200.0	w	200.0																	1.0	0.0	1.0	0.0	24.0	0.0	96.0	0.0																													w	1.0	0.30166387558	None	0.0	2.0	circlewhite.gif	go																								1.88	0.51384305954	0.0008790493011469999	0.30166387558	1.0	w	843.218698025																																	2015_Jun_25_1141	59.9408923314	LearningTask	1	67	
221	-200.0	a	-200.0																	1.0	0.0	1.0	0.0	24.0	1.0	97.0	3.0																													a	1.0	0.31716799735999995	None	0.0	4.0	squareblue.gif	stop																								3.83	0.5145039558410001	0.0008780956268310002	0.31716799735999995	1.0	a	846.222132921																																	2015_Jun_25_1141	59.9408923314	LearningTask	1	67	
222	200.0	s	-200.0																	1.0	0.0	1.0	0.0	24.0	2.0	98.0	2.0																													s	1.0	0.334490060806	None	0.0	4.0	squareblue.gif	stop																								3.99	0.514354944229	0.00086784362793	0.334490060806	1.0	s	849.2258749010001																																	2015_Jun_25_1141	59.9408923314	LearningTask	1	67	
223	-200.0	a	-200.0																	1.0	0.0	1.0	0.0	24.0	3.0	99.0	3.0																													a	1.0	0.317623138428	None	0.0	1.0	crosscyan.gif	go																								0.86	0.5140960216520001	0.00088095664978	0.317623138428	1.0	a	852.2292010780001																																	2015_Jun_25_1141	59.9408923314	LearningTask	1	67	
224																				1.0	0.0	1.0	0.0																																																																														9.0	11.6687259674																								2015_Jun_25_1141	59.9408923314	LearningTask	1	67	
225	200.0	s	-200.0																	2.0	0.0	2.0	0.0	0.0	0.0	0.0	2.0																													s	1.0	0.301177978516	None	0.0	0.5	hexagonmagenta.gif	stop																								0.63	0.5099341869349999	0.000869035720825	0.301177978516	1.0	s	867.59662199																																	2015_Jun_25_1141	59.9408923314	LearningTask	1	67	
226	-200.0	a	-200.0																	2.0	0.0	2.0	0.0	0.0	1.0	1.0	3.0																													a	1.0	0.317569971085	None	0.0	0.5	triangleorange.gif	go																								0.0	0.513554811478	0.0010199546814	0.317569971085	1.0	a	870.5997679230001																																	2015_Jun_25_1141	59.9408923314	LearningTask	1	67	
227	200.0	s	-200.0																	2.0	0.0	2.0	0.0	0.0	2.0	2.0	2.0																													s	1.0	0.317270040512	None	0.0	2.0	circlewhite.gif	go																								2.14	0.514191150665	0.000900983810425	0.317270040512	1.0	s	873.6029639239999																																	2015_Jun_25_1141	59.9408923314	LearningTask	1	67	
228	200.0	w	200.0																	2.0	0.0	2.0	0.0	0.0	3.0	3.0	0.0																													w	1.0	0.26774311065699996	None	0.0	1.0	crosscyan.gif	go																								0.0	0.514414072037	0.0009291172027589999	0.26774311065699996	1.0	w	876.606543064																																	2015_Jun_25_1141	59.9408923314	LearningTask	1	67	
229	200.0	s	-200.0																	2.0	0.0	2.0	0.0	1.0	0.0	4.0	2.0																													s	1.0	0.284549951553	None	0.0	1.0	crosscyan.gif	go																								1.05	0.513817071915	0.0009210109710689999	0.284549951553	1.0	s	879.609894991																																	2015_Jun_25_1141	59.9408923314	LearningTask	1	67	
230	200.0	w	200.0																	2.0	0.0	2.0	0.0	1.0	1.0	5.0	0.0																													w	1.0	0.28403592109700004	None	0.0	4.0	diamondyellow.gif	go																								4.02	0.5141551494600001	0.0008721351623539999	0.28403592109700004	1.0	w	882.613019943																																	2015_Jun_25_1141	59.9408923314	LearningTask	1	67	
231	-200.0	q	200.0																	2.0	0.0	2.0	0.0	1.0	2.0	6.0	1.0																													q	1.0	0.267580032349	None	0.0	1.0	linegreen.gif	stop																								0.94	0.5139570236209999	0.0009520053863530001	0.267580032349	1.0	q	885.616793871																																	2015_Jun_25_1141	59.9408923314	LearningTask	1	67	
232	-200.0	a	-200.0																	2.0	0.0	2.0	0.0	1.0	3.0	7.0	3.0																													a	1.0	0.30066108703600003	None	0.0	0.5	hexagonmagenta.gif	stop																								0.32	0.514019012451	0.0008790493011469999	0.30066108703600003	1.0	a	888.6197998519999																																	2015_Jun_25_1141	59.9408923314	LearningTask	1	67	
233	200.0	s	-200.0																	2.0	0.0	2.0	0.0	2.0	0.0	8.0	2.0																													s	1.0	0.367560863495	None	0.0	1.0	linegreen.gif	stop																								0.97	0.5142381191250001	0.0009601116180419999	0.367560863495	1.0	s	891.623681068																																	2015_Jun_25_1141	59.9408923314	LearningTask	1	67	
234	-200.0	a	-200.0																	2.0	0.0	2.0	0.0	2.0	1.0	9.0	3.0																													a	1.0	0.317404031754	None	0.0	0.5	hexagonmagenta.gif	stop																								0.64	0.513861894608	0.000881910324097	0.317404031754	1.0	a	894.6272728439999																																	2015_Jun_25_1141	59.9408923314	LearningTask	1	67	
235	200.0	s	-200.0																	2.0	0.0	2.0	0.0	2.0	2.0	10.0	2.0																													s	1.0	0.300525903702	None	0.0	0.5	triangleorange.gif	go																								0.65	0.513856172562	0.0008780956268310002	0.300525903702	1.0	s	897.630032063																																	2015_Jun_25_1141	59.9408923314	LearningTask	1	67	
236	200.0	w	200.0																	2.0	0.0	2.0	0.0	2.0	3.0	11.0	0.0																													w	1.0	0.23422908783000004	None	0.0	4.0	squareblue.gif	stop																								0.0	0.514278888702	0.0008630752563480002	0.300849199295	0.0	s	900.633550882	3.9	0.5153548717499999	0.0009329319000239999	0.23422908783000004	1.0	w	903.6372730730001																										2015_Jun_25_1141	59.9408923314	LearningTask	1	67	
237	200.0	s	-200.0																	2.0	0.0	2.0	0.0	3.0	0.0	12.0	2.0																													s	1.0	0.35076713562	None	0.0	1.0	linegreen.gif	stop																								1.17	0.51394701004	0.00087308883667	0.35076713562	1.0	s	906.640187979																																	2015_Jun_25_1141	59.9408923314	LearningTask	1	67	
238	-200.0	a	-200.0																	2.0	0.0	2.0	0.0	3.0	1.0	13.0	3.0																													a	1.0	0.301190853119	None	0.0	2.0	circlewhite.gif	go																								0.0	0.514267206192	0.0009679794311519998	0.301190853119	1.0	a	909.643831015																																	2015_Jun_25_1141	59.9408923314	LearningTask	1	67	
239	-200.0	q	200.0																	2.0	0.0	2.0	0.0	3.0	2.0	14.0	1.0																													q	1.0	0.25099706649799997	None	0.0	2.0	invertedtrianglegray.gif	stop																								2.06	0.513959884644	0.000869035720825	0.25099706649799997	1.0	q	912.64693594																																	2015_Jun_25_1141	59.9408923314	LearningTask	1	67	
240	200.0	s	-200.0																	2.0	0.0	2.0	0.0	3.0	3.0	15.0	2.0																													s	1.0	0.317116975784	None	0.0	2.0	circlewhite.gif	go																								0.0	0.514183044434	0.000912189483643	0.317116975784	1.0	s	915.6506180760001																																	2015_Jun_25_1141	59.9408923314	LearningTask	1	67	
241	-200.0	a	-200.0																	2.0	0.0	2.0	0.0	4.0	0.0	16.0	3.0																													a	1.0	0.284183979034	None	0.0	2.0	invertedtrianglegray.gif	stop																								2.05	0.513849020004	0.0009529590606689998	0.284183979034	1.0	a	918.653650999																																	2015_Jun_25_1141	59.9408923314	LearningTask	1	67	
242	200.0	w	200.0																	2.0	0.0	2.0	0.0	4.0	1.0	17.0	0.0																													w	1.0	0.317250013351	None	0.0	0.5	triangleorange.gif	go																								0.35	0.5144739151	0.0008740425109860002	0.317250013351	1.0	w	921.657075882																																	2015_Jun_25_1141	59.9408923314	LearningTask	1	67	
243	-200.0	q	200.0																	2.0	0.0	2.0	0.0	4.0	2.0	18.0	1.0																													q	1.0	0.284091949463	None	0.0	0.5	hexagonmagenta.gif	stop																								0.45	0.514263153076	0.0009319782257080001	0.284091949463	1.0	q	924.6604309080001																																	2015_Jun_25_1141	59.9408923314	LearningTask	1	67	
244	-200.0	q	200.0																	2.0	0.0	2.0	0.0	4.0	3.0	19.0	1.0																													q	1.0	0.317286014557	None	0.0	0.5	triangleorange.gif	go																								0.61	0.514276981354	0.0008780956268310002	0.317286014557	1.0	q	927.6638739110001																																	2015_Jun_25_1141	59.9408923314	LearningTask	1	67	
245	200.0	w	200.0																	2.0	0.0	2.0	0.0	5.0	0.0	20.0	0.0																													w	1.0	0.250840187073	None	0.0	2.0	circlewhite.gif	go																								2.19	0.514354944229	0.0009160041809079999	0.250840187073	1.0	w	930.667402983																																	2015_Jun_25_1141	59.9408923314	LearningTask	1	67	
246	-200.0	a	-200.0																	2.0	0.0	2.0	0.0	5.0	1.0	21.0	3.0																													a	1.0	0.28399515152	None	0.0	0.5	hexagonmagenta.gif	stop																								0.0	0.514050960541	0.0008780956268310002	0.28399515152	1.0	a	933.670624018																																	2015_Jun_25_1141	59.9408923314	LearningTask	1	67	
247	200.0	w	200.0																	2.0	0.0	2.0	0.0	5.0	2.0	22.0	0.0																													w	1.0	0.284259080887	None	0.0	2.0	circlewhite.gif	go																								1.86	0.513909101486	0.0008912086486819999	0.284259080887	1.0	w	936.673869848																																	2015_Jun_25_1141	59.9408923314	LearningTask	1	67	
248	-200.0	a	-200.0																	2.0	0.0	2.0	0.0	5.0	3.0	23.0	3.0																													a	1.0	0.334635019302	None	0.0	4.0	diamondyellow.gif	go																								4.01	0.514321088791	0.0008702278137210001	0.334635019302	1.0	a	939.6777319910001																																	2015_Jun_25_1141	59.9408923314	LearningTask	1	67	
249	-200.0	a	-200.0																	2.0	0.0	2.0	0.0	6.0	0.0	24.0	3.0																													a	1.0	0.31777310371399997	None	0.0	0.5	triangleorange.gif	go																								0.0	0.513859033585	0.00088906288147	0.31777310371399997	1.0	a	942.6809298989999																																	2015_Jun_25_1141	59.9408923314	LearningTask	1	67	
250	200.0	s	-200.0																	2.0	0.0	2.0	0.0	6.0	1.0	25.0	2.0																													s	1.0	0.317485809326	None	0.0	2.0	invertedtrianglegray.gif	stop																								0.0	0.51406288147	0.0008749961853029999	0.317485809326	1.0	s	945.683986902																																	2015_Jun_25_1141	59.9408923314	LearningTask	1	67	
251	200.0	s	-200.0																	2.0	0.0	2.0	0.0	6.0	2.0	26.0	2.0																													s	1.0	0.33381915092500003	None	0.0	2.0	invertedtrianglegray.gif	stop																								1.83	0.514642953873	0.0008749961853029999	0.33381915092500003	1.0	s	948.687435865																																	2015_Jun_25_1141	59.9408923314	LearningTask	1	67	
252	-200.0	a	-200.0																	2.0	0.0	2.0	0.0	6.0	3.0	27.0	3.0																													a	1.0	0.317505836487	None	0.0	1.0	crosscyan.gif	go																								1.14	0.514323949814	0.0008790493011469999	0.317505836487	1.0	a	951.690722942																																	2015_Jun_25_1141	59.9408923314	LearningTask	1	67	
253	-200.0	a	-200.0																	2.0	0.0	2.0	0.0	7.0	0.0	28.0	3.0																													a	1.0	0.300821781158	None	0.0	4.0	diamondyellow.gif	go																								0.0	0.514351129532	0.0008761882781980001	0.300821781158	1.0	a	954.6940450669999																																	2015_Jun_25_1141	59.9408923314	LearningTask	1	67	
254	200.0	w	200.0																	2.0	0.0	2.0	0.0	7.0	1.0	29.0	0.0																													w	1.0	0.334192991257	None	0.0	4.0	diamondyellow.gif	go																								0.0	0.514442920685	0.00105905532837	0.334192991257	1.0	w	957.697700977																																	2015_Jun_25_1141	59.9408923314	LearningTask	1	67	
255	200.0	s	-200.0																	2.0	0.0	2.0	0.0	7.0	2.0	30.0	2.0																													s	1.0	0.334130048752	None	0.0	1.0	crosscyan.gif	go																								1.19	0.514042139053	0.000877141952515	0.334130048752	1.0	s	960.701290846																																	2015_Jun_25_1141	59.9408923314	LearningTask	1	67	
256	200.0	s	-200.0																	2.0	0.0	2.0	0.0	7.0	3.0	31.0	2.0																													s	1.0	0.334501981735	None	0.0	2.0	invertedtrianglegray.gif	stop																								2.12	0.513809919357	0.00092601776123	0.334501981735	1.0	s	963.7043979169999																																	2015_Jun_25_1141	59.9408923314	LearningTask	1	67	
257	-200.0	q	200.0																	2.0	0.0	2.0	0.0	8.0	0.0	32.0	1.0																													q	1.0	0.31790304184	None	0.0	4.0	squareblue.gif	stop																								3.88	0.5137178897860001	0.00092601776123	0.31790304184	1.0	q	966.707764864																																	2015_Jun_25_1141	59.9408923314	LearningTask	1	67	
258	200.0	s	-200.0																	2.0	0.0	2.0	0.0	8.0	1.0	33.0	2.0																													s	1.0	0.36796498298600006	None	0.0	1.0	linegreen.gif	stop																								0.94	0.514314889908	0.00087308883667	0.36796498298600006	1.0	s	969.711039066																																	2015_Jun_25_1141	59.9408923314	LearningTask	1	67	
259	-200.0	q	200.0																	2.0	0.0	2.0	0.0	8.0	2.0	34.0	1.0																													q	1.0	0.301297903061	None	0.0	0.5	triangleorange.gif	go																								0.39	0.514225006104	0.000921964645386	0.301297903061	1.0	q	972.714838982																																	2015_Jun_25_1141	59.9408923314	LearningTask	1	67	
260	-200.0	q	200.0																	2.0	0.0	2.0	0.0	8.0	3.0	35.0	1.0																													q	1.0	0.301101207733	None	0.0	4.0	diamondyellow.gif	go																								3.99	0.5135989189150001	0.0009019374847410001	0.301101207733	1.0	q	975.717797041																																	2015_Jun_25_1141	59.9408923314	LearningTask	1	67	
261	-200.0	q	200.0																	2.0	0.0	2.0	0.0	9.0	0.0	36.0	1.0																													q	1.0	0.317619085312	None	0.0	4.0	diamondyellow.gif	go																								3.84	0.514542102814	0.00087308883667	0.317619085312	1.0	q	978.7214488980001																																	2015_Jun_25_1141	59.9408923314	LearningTask	1	67	
262	-200.0	a	-200.0																	2.0	0.0	2.0	0.0	9.0	1.0	37.0	3.0																													a	1.0	0.317121982574	None	0.0	4.0	squareblue.gif	stop																								0.0	0.514037132263	0.0008740425109860002	0.317121982574	1.0	a	981.7251410480001																																	2015_Jun_25_1141	59.9408923314	LearningTask	1	67	
263	-200.0	a	-200.0																	2.0	0.0	2.0	0.0	9.0	2.0	38.0	3.0																													a	1.0	0.351233959198	None	0.0	1.0	crosscyan.gif	go																								0.0	0.51350402832	0.000908136367798	0.351233959198	1.0	a	984.727905989																																	2015_Jun_25_1141	59.9408923314	LearningTask	1	67	
264	-200.0	a	-200.0																	2.0	0.0	2.0	0.0	9.0	3.0	39.0	3.0																													a	1.0	0.31769108772300003	None	0.0	4.0	squareblue.gif	stop																								3.91	0.514294862747	0.0009319782257080001	0.31769108772300003	1.0	a	987.731432915																																	2015_Jun_25_1141	59.9408923314	LearningTask	1	67	
265	-200.0	a	-200.0																	2.0	0.0	2.0	0.0	10.0	0.0	40.0	3.0																													a	1.0	0.317651987076	None	0.0	2.0	circlewhite.gif	go																								1.95	0.514195919037	0.000888824462891	0.317651987076	1.0	a	990.7348070139999																																	2015_Jun_25_1141	59.9408923314	LearningTask	1	67	
266	-200.0	q	200.0																	2.0	0.0	2.0	0.0	10.0	1.0	41.0	1.0																													q	1.0	0.250720024109	None	0.0	4.0	squareblue.gif	stop																								3.92	0.514278888702	0.00087308883667	0.250720024109	1.0	q	993.738069057																																	2015_Jun_25_1141	59.9408923314	LearningTask	1	67	
267	200.0	s	-200.0																	2.0	0.0	2.0	0.0	10.0	2.0	42.0	2.0																													s	1.0	0.317115068436	None	0.0	1.0	linegreen.gif	stop																								1.21	0.514439821243	0.0009589195251460001	0.317115068436	1.0	s	996.74208498																																	2015_Jun_25_1141	59.9408923314	LearningTask	1	67	
268	200.0	s	-200.0																	2.0	0.0	2.0	0.0	10.0	3.0	43.0	2.0																													s	1.0	0.350879907608	None	0.0	1.0	linegreen.gif	stop																								0.96	0.5137498378750001	0.0008709430694580001	0.350879907608	1.0	s	999.744967937																																	2015_Jun_25_1141	59.9408923314	LearningTask	1	67	
269	200.0	w	200.0																	2.0	0.0	2.0	0.0	11.0	0.0	44.0	0.0																													w	1.0	0.317670106888	None	0.0	1.0	linegreen.gif	stop																								1.18	0.514127969742	0.0008919239044189998	0.317670106888	1.0	w	1002.7488028999999																																	2015_Jun_25_1141	59.9408923314	LearningTask	1	67	
270	-200.0	q	200.0																	2.0	0.0	2.0	0.0	11.0	1.0	45.0	1.0																													q	1.0	0.284585952759	None	0.0	4.0	squareblue.gif	stop																								4.13	0.5135581493379999	0.000904083251953	0.284585952759	1.0	q	1005.75187707																																	2015_Jun_25_1141	59.9408923314	LearningTask	1	67	
271	200.0	w	200.0																	2.0	0.0	2.0	0.0	11.0	2.0	46.0	0.0																													w	1.0	0.284363985062	None	0.0	4.0	diamondyellow.gif	go																								4.16	0.514092922211	0.0008869171142580001	0.284363985062	1.0	w	1008.75494003																																	2015_Jun_25_1141	59.9408923314	LearningTask	1	67	
272	-200.0	q	200.0																	2.0	0.0	2.0	0.0	11.0	3.0	47.0	1.0																													q	1.0	0.23451089859000002	None	0.0	2.0	circlewhite.gif	go																								0.0	0.514311075211	0.000941038131714	0.267441034317	0.0	a	1011.75832486	2.11	0.51526093483	0.00113105773926	0.23451089859000002	1.0	q	1014.76195908																										2015_Jun_25_1141	59.9408923314	LearningTask	1	67	
273	-200.0	a	-200.0																	2.0	0.0	2.0	0.0	12.0	0.0	48.0	3.0																													a	1.0	0.267467021942	None	0.0	0.5	triangleorange.gif	go																								0.0	0.514065980911	0.0008749961853029999	0.23391699790999998	0.0	w	1017.76497507	0.3	0.515470981598	0.0009441375732419999	0.267467021942	1.0	a	1020.76881003																										2015_Jun_25_1141	59.9408923314	LearningTask	1	67	
274	-200.0	q	200.0																	2.0	0.0	2.0	0.0	12.0	1.0	49.0	1.0																													q	1.0	0.30092310905499997	None	0.0	1.0	linegreen.gif	stop																								0.81	0.5136821269990001	0.000900983810425	0.30092310905499997	1.0	q	1023.77212501																																	2015_Jun_25_1141	59.9408923314	LearningTask	1	67	
275	200.0	w	200.0																	2.0	0.0	2.0	0.0	12.0	2.0	50.0	0.0																													w	1.0	0.26767706870999997	None	0.0	4.0	squareblue.gif	stop																								3.78	0.5141701698300001	0.00087308883667	0.26767706870999997	1.0	w	1026.77546597																																	2015_Jun_25_1141	59.9408923314	LearningTask	1	67	
276	200.0	s	-200.0																	2.0	0.0	2.0	0.0	12.0	3.0	51.0	2.0																													s	1.0	0.317782878876	None	0.0	4.0	squareblue.gif	stop																								4.02	0.514196157455	0.000865936279297	0.317782878876	1.0	s	1029.77938104																																	2015_Jun_25_1141	59.9408923314	LearningTask	1	67	
277	200.0	w	200.0																	2.0	0.0	2.0	0.0	13.0	0.0	52.0	0.0																													w	1.0	0.317462921143	None	0.0	2.0	invertedtrianglegray.gif	stop																								2.07	0.513354063034	0.0008950233459470001	0.317462921143	1.0	w	1032.78241301																																	2015_Jun_25_1141	59.9408923314	LearningTask	1	67	
278	200.0	w	200.0																	2.0	0.0	2.0	0.0	13.0	1.0	53.0	0.0																													w	1.0	0.334218025208	None	0.0	1.0	crosscyan.gif	go																								1.03	0.513761997223	0.00093412399292	0.334218025208	1.0	w	1035.78557801																																	2015_Jun_25_1141	59.9408923314	LearningTask	1	67	
279	200.0	w	200.0																	2.0	0.0	2.0	0.0	13.0	2.0	54.0	0.0																													w	1.0	0.317565202713	None	0.0	4.0	squareblue.gif	stop																								0.0	0.5140910148619999	0.00086498260498	0.317565202713	1.0	w	1038.788831																																	2015_Jun_25_1141	59.9408923314	LearningTask	1	67	
280	200.0	s	-200.0																	2.0	0.0	2.0	0.0	13.0	3.0	55.0	2.0																													s	1.0	0.317739009857	None	0.0	2.0	circlewhite.gif	go																								2.1	0.514280080795	0.0008931159973139998	0.317739009857	1.0	s	1041.79207897																																	2015_Jun_25_1141	59.9408923314	LearningTask	1	67	
281	-200.0	q	200.0																	2.0	0.0	2.0	0.0	14.0	0.0	56.0	1.0																													q	1.0	0.317271947861	None	0.0	2.0	invertedtrianglegray.gif	stop																								1.92	0.514517068863	0.00102996826172	0.317271947861	1.0	q	1044.79603505																																	2015_Jun_25_1141	59.9408923314	LearningTask	1	67	
282	-200.0	q	200.0																	2.0	0.0	2.0	0.0	14.0	1.0	57.0	1.0																													q	1.0	0.351114034653	None	0.0	4.0	squareblue.gif	stop																								3.97	0.513784885406	0.00271797180176	0.351114034653	1.0	q	1047.79899597																																	2015_Jun_25_1141	59.9408923314	LearningTask	1	67	
283	-200.0	q	200.0																	2.0	0.0	2.0	0.0	14.0	2.0	58.0	1.0																													q	1.0	0.33429479599	None	0.0	0.5	triangleorange.gif	go																								0.35	0.514180898666	0.000900983810425	0.33429479599	1.0	q	1050.8023560000001																																	2015_Jun_25_1141	59.9408923314	LearningTask	1	67	
284	200.0	s	-200.0																	2.0	0.0	2.0	0.0	14.0	3.0	59.0	2.0																													s	1.0	0.317559957504	None	0.0	0.5	triangleorange.gif	go																								0.0	0.514039039612	0.0009200572967529999	0.317559957504	1.0	s	1053.80570292																																	2015_Jun_25_1141	59.9408923314	LearningTask	1	67	
285	200.0	w	200.0																	2.0	0.0	2.0	0.0	15.0	0.0	60.0	0.0																													w	1.0	0.31752109527600003	None	0.0	2.0	circlewhite.gif	go																								2.2	0.514258146286	0.000871181488037	0.31752109527600003	1.0	w	1056.80907989																																	2015_Jun_25_1141	59.9408923314	LearningTask	1	67	
286	-200.0	q	200.0																	2.0	0.0	2.0	0.0	15.0	1.0	61.0	1.0																													q	1.0	0.267409801483	None	0.0	4.0	diamondyellow.gif	go																								3.8	0.514110803604	0.0009160041809079999	0.267409801483	1.0	q	1059.81261206																																	2015_Jun_25_1141	59.9408923314	LearningTask	1	67	
287	-200.0	q	200.0																	2.0	0.0	2.0	0.0	15.0	2.0	62.0	1.0																													q	1.0	0.267123937607	None	0.0	1.0	crosscyan.gif	go																								1.02	0.514032125473	0.0008780956268310002	0.267123937607	1.0	q	1062.81615901																																	2015_Jun_25_1141	59.9408923314	LearningTask	1	67	
288	200.0	s	-200.0																	2.0	0.0	2.0	0.0	15.0	3.0	63.0	2.0																													s	1.0	0.317462921143	None	0.0	1.0	crosscyan.gif	go																								1.08	0.5140821933749999	0.0008761882781980001	0.317462921143	1.0	s	1065.81941104																																	2015_Jun_25_1141	59.9408923314	LearningTask	1	67	
289	-200.0	a	-200.0																	2.0	0.0	2.0	0.0	16.0	0.0	64.0	3.0																													a	1.0	0.333976984024	None	0.0	1.0	crosscyan.gif	go																								0.89	0.514164924622	0.0008709430694580001	0.333976984024	1.0	a	1068.82296801																																	2015_Jun_25_1141	59.9408923314	LearningTask	1	67	
290	200.0	s	-200.0																	2.0	0.0	2.0	0.0	16.0	1.0	65.0	2.0																													s	1.0	0.284108877182	None	0.0	0.5	triangleorange.gif	go																								0.31	0.513863801956	0.0008869171142580001	0.284108877182	1.0	s	1071.82610798																																	2015_Jun_25_1141	59.9408923314	LearningTask	1	67	
291	200.0	w	200.0																	2.0	0.0	2.0	0.0	16.0	2.0	66.0	0.0																													w	1.0	0.333832025528	None	0.0	1.0	linegreen.gif	stop																								0.95	0.514256954193	0.000869035720825	0.333832025528	1.0	w	1074.82957697																																	2015_Jun_25_1141	59.9408923314	LearningTask	1	67	
292	200.0	w	200.0																	2.0	0.0	2.0	0.0	16.0	3.0	67.0	0.0																													w	1.0	0.33417487144499997	None	0.0	1.0	crosscyan.gif	go																								1.06	0.514009952545	0.00089693069458	0.33417487144499997	1.0	w	1077.8328619000001																																	2015_Jun_25_1141	59.9408923314	LearningTask	1	67	
