	xPos	corrAns	yPos	corrGoResp	yPosGoStim	xPosGoStim	pracTrials.thisRepN	pracTrials.thisTrialN	pracTrials.thisN	pracTrials.thisIndex	ReDoLoopPrac.thisRepN	ReDoLoopPrac.thisTrialN	ReDoLoopPrac.thisN	ReDoLoopPrac.thisIndex	ReDoLoopPrac.thisTrial	pracStopTrials.thisRepN	pracStopTrials.thisTrialN	pracStopTrials.thisN	pracStopTrials.thisIndex	Blocks.thisRepN	Blocks.thisTrialN	Blocks.thisN	Blocks.thisIndex	trials.thisRepN	trials.thisTrialN	trials.thisN	trials.thisIndex	ReDoLoopMain.thisRepN	ReDoLoopMain.thisTrialN	ReDoLoopMain.thisN	ReDoLoopMain.thisIndex	ReDoLoopMain.thisTrial	StopBlocks.thisRepN	StopBlocks.thisTrialN	StopBlocks.thisN	StopBlocks.thisIndex	StopTrials.thisRepN	StopTrials.thisTrialN	StopTrials.thisN	StopTrials.thisIndex	auctionBlocks.thisRepN	auctionBlocks.thisTrialN	auctionBlocks.thisN	auctionBlocks.thisIndex	auctionTrials.thisRepN	auctionTrials.thisTrialN	auctionTrials.thisN	auctionTrials.thisIndex	learningTrialList	learningPracTrialList	stopTrialList	stopPracTrialList	auctionTrialList	ok1.keys	ok1.rt	resp.keys	resp.corr	feedbackResp.keys	feedbackResp.corr	feedbackResp.rt	currentReward	currentStimulus	currentStimType	firstPracComputedRewardOutput	firstPracLearningStimOnset	firstPracLearningFixOnset	firstPracPresentationRT	firstPracPresentationAcc	firstPracPresentationResp	firstPracEndTrialTimeStamp	resp.rt	secondPracComputedRewardOutput	secondPracLearningStimOnset	secondPracLearningFixOnset	secondPracPresentationRT	secondPracPresentationAcc	secondPracPresentationResp	secondPracEndTrialTimeStamp	StartTrialTimeStamp	trialType	goStim	stimType	stopStimValue	goResp.keys	goResp.corr	goResp.rt	key_resp_9.keys	key_resp_9.corr	fixStopOnset	goStimOnset	EndTrialTimeStamp	stopSignalOnset	key_resp_3.keys	key_resp_3.rt	firstComputedRewardOutput	firstLearningStimOnset	firstLearningFixOnset	firstPresentationRT	firstPresentationAcc	firstPresentationResp	firstEndTrialTimeStamp	secondComputedRewardOutput	secondLearningStimOnset	secondLearningFixOnset	secondPresentationRT	secondPresentationAcc	secondPresentationResp	secondEndTrialTimeStamp	key_resp_7.keys	key_resp_7.rt	thirdComputedRewardOutput	thirdLearningStimOnset	thirdLearningFixOnset	thirdPresentationRT	thirdPresentationAcc	thirdPresentationResp	thirdEndTrialTimeStamp	beginningSSD	EndingSSD	key_resp_9.rt	key_resp_4.keys	key_resp_4.rt	auctionResponse.keys	auctionResponse.rt	auctionStimDuration	auctionStim	auctionAmounts	auctionStimValue	auctionCondition	chosenAuctionAmount	key_resp_5.keys	key_resp_5.rt	shuffledRewardList	chosenReward1	chosenReward2	chosenReward3	chosenReward4	chosenReward5	key_resp_6.keys	key_resp_6.rt	date	frameRate	expName	session	participant	Unnamed: 145
0																																																	[]	[]	[]	[]	[]	9.0	32.7111461163																																																																																						2015_Jun_25_1032	59.7564325402	LearningTask	1	66	
1	-200.0	q	200.0				0.0	0.0	0.0	5.0																																														q	1.0	None	0.0	0.0910699367523	4.0	lineyellow.gif	stop	0.0	0.506857872009	0.006176948547359999	[]	0.0	None	46.8751819134	0.434407949448	3.76	0.515663146973	0.0012419223785399998	0.434407949448	1.0	q	49.8780040741																																																															2015_Jun_25_1032	59.7564325402	LearningTask	1	66	
2	200.0	w	200.0				0.0	1.0	1.0	4.0																																														w	1.0	None	0.0		4.0	lineyellow.gif	stop	4.1	0.515017032623	0.0009298324584960001	0.333935022354	1.0	w	52.880967140200006	0.33393502235399997																																																																						2015_Jun_25_1032	59.7564325402	LearningTask	1	66	
3	-200.0	a	-200.0				0.0	2.0	2.0	3.0																																														a	1.0	None	0.0		2.0	diamondgreen.gif	go	1.76	0.5153310298920001	0.0013179779052700001	0.400714874268	1.0	a	55.8846380711	0.40071487426799995																																																																						2015_Jun_25_1032	59.7564325402	LearningTask	1	66	
4	-200.0	q	200.0				0.0	3.0	3.0	9.0																																														q	1.0	None	0.0		0.5	hexagonwhite.gif	go	0.67	0.514957904816	0.0013129711151099999	0.367340087891	1.0	q	58.8878390789	0.367340087891																																																																						2015_Jun_25_1032	59.7564325402	LearningTask	1	66	
5	200.0	w	200.0				0.0	4.0	4.0	0.0																																														w	1.0	None	0.0		4.0	lineyellow.gif	stop	3.82	0.515093803406	0.0009448528289790001	0.334342002869	1.0	w	61.890981912600004	0.334342002869																																																																						2015_Jun_25_1032	59.7564325402	LearningTask	1	66	
6	200.0	s	-200.0				0.0	5.0	5.0	6.0																																														s	1.0	None	0.0		0.5	squaremagenta.gif	stop	0.51	0.5154941082	0.00130605697632	0.417734861374	1.0	s	64.89452505109999	0.417734861374																																																																						2015_Jun_25_1032	59.7564325402	LearningTask	1	66	
7	-200.0	q	200.0				0.0	6.0	6.0	1.0																																														q	1.0	None	0.0		1.0	invertedtrianglecyan.gif	go	1.21	0.51517701149	0.00128698348999	0.33394408226	1.0	q	67.8979890347	0.33394408226																																																																						2015_Jun_25_1032	59.7564325402	LearningTask	1	66	
8	200.0	w	200.0				0.0	7.0	7.0	8.0																																														w	1.0	None	0.0		4.0	circleblue.gif	go	4.25	0.5149769783020001	0.0013649463653599998	0.301106929779	1.0	w	70.9012720585	0.301106929779																																																																						2015_Jun_25_1032	59.7564325402	LearningTask	1	66	
9	-200.0	a	-200.0				0.0	8.0	8.0	7.0																																														a	1.0	None	0.0		4.0	lineyellow.gif	stop	0.0	0.515053987503	0.000904083251953	0.434345006943	1.0	a	73.9045610428	0.43434500694300004																																																																						2015_Jun_25_1032	59.7564325402	LearningTask	1	66	
10	200.0	s	-200.0				0.0	9.0	9.0	2.0																																														s	1.0	None	0.0		0.5	squaremagenta.gif	stop	0.73	0.5152590274809999	0.0008919239044189998	0.35108590126	1.0	s	76.9083240032	0.35108590126																																																																						2015_Jun_25_1032	59.7564325402	LearningTask	1	66	
11				z	0.0	-200.0										0.0	0.0	0.0	0.0																																																												125.134146929	go	circleblue.gif	go	4.0	z	1.0	0.7179629802699999	None	0.0	0.0013041496276900001	0.510207176208	128.13215994799998																																																		2015_Jun_25_1032	59.7564325402	LearningTask	1	66	
12				z	0.0	-200.0										0.0	1.0	1.0	0.0																																																												128.132637978	go	diamondgreen.gif	go	2.0	z	1.0	0.384091854095	None	0.0	0.000978946685791	0.5152070522309999	131.135239124																																																		2015_Jun_25_1032	59.7564325402	LearningTask	1	66	
13				z	0.0	-200.0										1.0	0.0	2.0	0.0																																																												131.13565707200001	stop	squaremagenta.gif	stop	0.5	z	1.0	0.31727695465100003	None	0.0	0.0011668205261199998	0.515518903732	134.138957024	0.7659327983859999																																																	2015_Jun_25_1032	59.7564325402	LearningTask	1	66	
14				m	0.0	200.0										1.0	1.0	3.0	1.0																																																												134.139322996	go	circleblue.gif	go	4.0	m	1.0	0.350431919098	None	0.0	0.000951051712036	0.515878200531	137.142344952																																																		2015_Jun_25_1032	59.7564325402	LearningTask	1	66	
15				m	0.0	200.0										2.0	0.0	4.0	1.0																																																												137.142756939	go	hexagonwhite.gif	go	0.5	m	1.0	0.384216785431	None	0.0	0.000976800918579	0.515464782715	140.145333052																																																		2015_Jun_25_1032	59.7564325402	LearningTask	1	66	
16				z	0.0	-200.0										2.0	1.0	5.0	0.0																																																												140.145698071	go	invertedtrianglecyan.gif	go	1.0	z	1.0	0.617969989777	None	0.0	0.00103497505188	0.5160429477690001	143.148733139																																																		2015_Jun_25_1032	59.7564325402	LearningTask	1	66	
17				m	0.0	200.0										3.0	0.0	6.0	1.0																																																												143.14909791899998	go	diamondgreen.gif	go	2.0	m	1.0	0.46800303459200004	None	0.0	0.00095009803772	0.515953063965	146.152209044																																																		2015_Jun_25_1032	59.7564325402	LearningTask	1	66	
18				m	0.0	200.0										3.0	1.0	7.0	1.0																																																												146.152650118	stop	lineyellow.gif	stop	4.0	None	0.0		None	0.0	0.0009591579437260001	0.515588998795	149.156034946	0.765822172165																																																	2015_Jun_25_1032	59.7564325402	LearningTask	1	66	
19				z	0.0	-200.0										4.0	0.0	8.0	0.0																																																												149.15644002	go	hexagonwhite.gif	go	0.5	z	1.0	0.467409133911	None	0.0	0.0009560585021970001	0.515501976013	152.15910196299998																																																		2015_Jun_25_1032	59.7564325402	LearningTask	1	66	
20				m	0.0	200.0										4.0	1.0	9.0	1.0																																																												152.159466982	go	hexagonwhite.gif	go	0.5	m	1.0	0.367322921753	None	0.0	0.000962018966675	0.515652179718	155.16224002799999																																																		2015_Jun_25_1032	59.7564325402	LearningTask	1	66	
21																																																																																													9.0	51.765980005299994																																															2015_Jun_25_1032	59.7564325402	LearningTask	1	66	
22																																																						9.0	9.811310052869999																																																																																						2015_Jun_25_1032	59.7564325402	LearningTask	1	66	
23	-200.0	a	-200.0																	0.0	0.0	0.0	0.0	0.0	0.0	0.0	3.0																													a	1.0	None	0.0		0.5	hexagonwhite.gif	go								0.884809970856																								0.74	0.508418083191	0.00101494789124	0.884809970856	1.0	a	219.88649010700001																																								2015_Jun_25_1032	59.7564325402	LearningTask	1	66	
24	-200.0	a	-200.0																	0.0	0.0	0.0	0.0	0.0	1.0	1.0	3.0																													a	1.0	None	0.0		2.0	crossgray.gif	stop								0.43463993072499996																								2.09	0.5130391120910001	0.0012850761413599999	0.434639930725	1.0	a	222.88914299																																								2015_Jun_25_1032	59.7564325402	LearningTask	1	66	
25	-200.0	a	-200.0																	0.0	0.0	0.0	0.0	0.0	2.0	2.0	3.0																													a	1.0	None	0.0		4.0	circleblue.gif	go								0.367303133011																								4.24	0.514337062836	0.0009350776672360002	0.367303133011	1.0	a	225.892754078																																								2015_Jun_25_1032	59.7564325402	LearningTask	1	66	
26	200.0	w	200.0																	0.0	0.0	0.0	0.0	0.0	3.0	3.0	0.0																													w	1.0	None	0.0		4.0	circleblue.gif	go								0.31737303733800004																								3.8	0.514038801193	0.000907897949219	0.317373037338	1.0	w	228.89606213599998																																								2015_Jun_25_1032	59.7564325402	LearningTask	1	66	
27	200.0	w	200.0																	0.0	0.0	0.0	0.0	1.0	0.0	4.0	0.0																													w	1.0	None	0.0		4.0	circleblue.gif	go								0.284077167511																								0.0	0.513894081116	0.000968217849731	0.284077167511	1.0	w	231.899294138																																								2015_Jun_25_1032	59.7564325402	LearningTask	1	66	
28	200.0	w	200.0																	0.0	0.0	0.0	0.0	1.0	1.0	5.0	0.0																													w	1.0	None	0.0		1.0	invertedtrianglecyan.gif	go								0.35108494758599995																								0.78	0.513935089111	0.0009019374847410001	0.351084947586	1.0	w	234.903106928																																								2015_Jun_25_1032	59.7564325402	LearningTask	1	66	
29	200.0	w	200.0																	0.0	0.0	0.0	0.0	1.0	2.0	6.0	0.0																													w	1.0	None	0.0		2.0	diamondgreen.gif	go								0.3343501091																								2.06	0.513839960098	0.0011668205261199998	0.3343501091	1.0	w	237.90629792200002																																								2015_Jun_25_1032	59.7564325402	LearningTask	1	66	
30	200.0	w	200.0																	0.0	0.0	0.0	0.0	1.0	3.0	7.0	0.0																													w	1.0	None	0.0		1.0	invertedtrianglecyan.gif	go								0.35078096389799995																								0.0	0.514099121094	0.000908136367798	0.350780963898	1.0	w	240.909325123																																								2015_Jun_25_1032	59.7564325402	LearningTask	1	66	
31	-200.0	q	200.0																	0.0	0.0	0.0	0.0	2.0	0.0	8.0	1.0																													q	1.0	None	0.0		4.0	lineyellow.gif	stop								0.9017660617829999																								4.03	0.514032840729	0.000903844833374	0.901766061783	1.0	q	243.91267609599998																																								2015_Jun_25_1032	59.7564325402	LearningTask	1	66	
32	-200.0	q	200.0																	0.0	0.0	0.0	0.0	2.0	1.0	9.0	1.0																													q	1.0	None	0.0		2.0	crossgray.gif	stop								0.367557048798																								2.15	0.514532089233	0.000892162322998	0.367557048798	1.0	q	246.91622901																																								2015_Jun_25_1032	59.7564325402	LearningTask	1	66	
33	-200.0	a	-200.0																	0.0	0.0	0.0	0.0	2.0	2.0	10.0	3.0																													a	1.0	None	0.0		1.0	triangleorange.gif	stop								0.401086091995																								1.08	0.5141038894650001	0.0012948513031	0.401086091995	1.0	a	249.91962504400001																																								2015_Jun_25_1032	59.7564325402	LearningTask	1	66	
34	-200.0	q	200.0																	0.0	0.0	0.0	0.0	2.0	3.0	11.0	1.0																													q	1.0	None	0.0		1.0	triangleorange.gif	stop								0.334038972855																								1.12	0.514217853546	0.00095796585083	0.334038972855	1.0	q	252.92291593599998																																								2015_Jun_25_1032	59.7564325402	LearningTask	1	66	
35	-200.0	a	-200.0																	0.0	0.0	0.0	0.0	3.0	0.0	12.0	3.0																													a	1.0	None	0.0		4.0	circleblue.gif	go								0.334331035614																								3.98	0.514390945435	0.000898838043213	0.334331035614	1.0	a	255.92633390400002																																								2015_Jun_25_1032	59.7564325402	LearningTask	1	66	
36	200.0	w	200.0																	0.0	0.0	0.0	0.0	3.0	1.0	13.0	0.0																													w	1.0	None	0.0		0.5	squaremagenta.gif	stop								0.333950042725																								0.61	0.514332056046	0.00088906288147	0.333950042725	1.0	w	258.92970705																																								2015_Jun_25_1032	59.7564325402	LearningTask	1	66	
37	200.0	w	200.0																	0.0	0.0	0.0	0.0	3.0	2.0	14.0	0.0																													w	1.0	None	0.0		0.5	squaremagenta.gif	stop								0.534102201462																								0.7	0.5140378475190001	0.0009489059448239998	0.534102201462	1.0	w	261.932971001																																								2015_Jun_25_1032	59.7564325402	LearningTask	1	66	
38	200.0	s	-200.0																	0.0	0.0	0.0	0.0	3.0	3.0	15.0	2.0																													s	1.0	None	0.0		2.0	diamondgreen.gif	go								0.401031017303																								2.22	0.514111042023	0.0009901523590089998	0.401031017303	1.0	s	264.936465979																																								2015_Jun_25_1032	59.7564325402	LearningTask	1	66	
39	-200.0	q	200.0																	0.0	0.0	0.0	0.0	4.0	0.0	16.0	1.0																													q	1.0	None	0.0		2.0	diamondgreen.gif	go								0.317444086075																								1.9	0.514115810394	0.000978946685791	0.317444086075	1.0	q	267.939768076																																								2015_Jun_25_1032	59.7564325402	LearningTask	1	66	
40	200.0	w	200.0																	0.0	0.0	0.0	0.0	4.0	1.0	17.0	0.0																													w	1.0	None	0.0		4.0	lineyellow.gif	stop								0.31775808334399996																								4.05	0.513919115067	0.000998020172119	0.317758083344	1.0	w	270.943053961																																								2015_Jun_25_1032	59.7564325402	LearningTask	1	66	
41	-200.0	q	200.0																	0.0	0.0	0.0	0.0	4.0	2.0	18.0	1.0																													q	1.0	None	0.0		4.0	circleblue.gif	go								0.317941904068																								4.22	0.514217853546	0.000974893569946	0.317941904068	1.0	q	273.946425915																																								2015_Jun_25_1032	59.7564325402	LearningTask	1	66	
42	200.0	s	-200.0																	0.0	0.0	0.0	0.0	4.0	3.0	19.0	2.0																													s	1.0	None	0.0		4.0	circleblue.gif	go								0.433970928192																								3.82	0.514535903931	0.0008919239044189998	0.433970928192	1.0	s	276.950217009																																								2015_Jun_25_1032	59.7564325402	LearningTask	1	66	
43	200.0	s	-200.0																	0.0	0.0	0.0	0.0	5.0	0.0	20.0	2.0																													s	1.0	None	0.0		1.0	triangleorange.gif	stop								0.434298992157																								0.9	0.5140068531040001	0.0009129047393799999	0.434298992157	1.0	s	279.953179121																																								2015_Jun_25_1032	59.7564325402	LearningTask	1	66	
44	-200.0	q	200.0																	0.0	0.0	0.0	0.0	5.0	1.0	21.0	1.0																													q	1.0	None	0.0		1.0	invertedtrianglecyan.gif	go								0.36705398559600005																								1.24	0.514781951904	0.0009031295776369999	0.367053985596	1.0	q	282.95704698599997																																								2015_Jun_25_1032	59.7564325402	LearningTask	1	66	
45	-200.0	q	200.0																	0.0	0.0	0.0	0.0	5.0	2.0	22.0	1.0																													q	1.0	None	0.0		2.0	diamondgreen.gif	go								0.36778211593599996																								2.0	0.5136258602139999	0.0009479522705080001	0.367782115936	1.0	q	285.960196972																																								2015_Jun_25_1032	59.7564325402	LearningTask	1	66	
46	200.0	w	200.0																	0.0	0.0	0.0	0.0	5.0	3.0	23.0	0.0																													w	1.0	None	0.0		2.0	crossgray.gif	stop								0.317994117737																								0.0	0.514256954193	0.000892877578735	0.317994117737	1.0	w	288.963386059																																								2015_Jun_25_1032	59.7564325402	LearningTask	1	66	
47	-200.0	q	200.0																	0.0	0.0	0.0	0.0	6.0	0.0	24.0	1.0																													q	1.0	None	0.0		1.0	invertedtrianglecyan.gif	go								0.36790108680699996																								1.21	0.5141270160679999	0.00107312202454	0.367901086807	1.0	q	291.966959953																																								2015_Jun_25_1032	59.7564325402	LearningTask	1	66	
48	200.0	s	-200.0																	0.0	0.0	0.0	0.0	6.0	1.0	25.0	2.0																													s	1.0	None	0.0		2.0	diamondgreen.gif	go								0.40073895454400005																								2.13	0.514027118683	0.00094199180603	0.400738954544	1.0	s	294.97046995200003																																								2015_Jun_25_1032	59.7564325402	LearningTask	1	66	
49	200.0	s	-200.0																	0.0	0.0	0.0	0.0	6.0	2.0	26.0	2.0																													s	1.0	None	0.0		2.0	crossgray.gif	stop								0.45103096962																								0.0	0.513870954514	0.0010008811950700002	0.45103096962	1.0	s	297.97355413400004																																								2015_Jun_25_1032	59.7564325402	LearningTask	1	66	
50	-200.0	q	200.0																	0.0	0.0	0.0	0.0	6.0	3.0	27.0	1.0																													q	1.0	None	0.0		0.5	squaremagenta.gif	stop								0.41772413253799995																								0.3	0.514045953751	0.0009448528289790001	0.417724132538	1.0	q	300.976815939																																								2015_Jun_25_1032	59.7564325402	LearningTask	1	66	
51	-200.0	q	200.0																	0.0	0.0	0.0	0.0	7.0	0.0	28.0	1.0																													q	1.0	None	0.0		2.0	diamondgreen.gif	go								0.35089588165299995																								1.95	0.514387130737	0.0009191036224369998	0.350895881653	1.0	q	303.980204105																																								2015_Jun_25_1032	59.7564325402	LearningTask	1	66	
52	200.0	w	200.0																	0.0	0.0	0.0	0.0	7.0	1.0	29.0	0.0																													w	1.0	None	0.0		1.0	invertedtrianglecyan.gif	go								0.250850915909																								0.75	0.514461994171	0.0009109973907470001	0.250850915909	1.0	w	306.983608007																																								2015_Jun_25_1032	59.7564325402	LearningTask	1	66	
53	-200.0	q	200.0																	0.0	0.0	0.0	0.0	7.0	2.0	30.0	1.0																													q	1.0	None	0.0		1.0	invertedtrianglecyan.gif	go								0.318055868149																								0.8	0.513976097107	0.0009140968322749999	0.318055868149	1.0	q	309.98749709099997																																								2015_Jun_25_1032	59.7564325402	LearningTask	1	66	
54	200.0	s	-200.0																	0.0	0.0	0.0	0.0	7.0	3.0	31.0	2.0																													s	1.0	None	0.0		0.5	hexagonwhite.gif	go								0.400537967682																								0.0	0.513997077942	0.0009858608245850002	0.400537967682	1.0	s	312.990447998																																								2015_Jun_25_1032	59.7564325402	LearningTask	1	66	
55	200.0	w	200.0																	0.0	0.0	0.0	0.0	8.0	0.0	32.0	0.0																													w	1.0	None	0.0		2.0	crossgray.gif	stop								0.28423404693599996																								1.83	0.514292955399	0.000907182693481	0.284234046936	1.0	w	315.993979931																																								2015_Jun_25_1032	59.7564325402	LearningTask	1	66	
56	-200.0	q	200.0																	0.0	0.0	0.0	0.0	8.0	1.0	33.0	1.0																													q	1.0	None	0.0		0.5	squaremagenta.gif	stop								0.284422874451																								0.34	0.5139060020449999	0.0009019374847410001	0.284422874451	1.0	q	318.997143984																																								2015_Jun_25_1032	59.7564325402	LearningTask	1	66	
57	-200.0	a	-200.0																	0.0	0.0	0.0	0.0	8.0	2.0	34.0	3.0																													a	1.0	None	0.0		1.0	invertedtrianglecyan.gif	go								0.41764783859300003																								1.09	0.514118909836	0.000926971435547	0.417647838593	1.0	a	322.000519991																																								2015_Jun_25_1032	59.7564325402	LearningTask	1	66	
58	200.0	s	-200.0																	0.0	0.0	0.0	0.0	8.0	3.0	35.0	2.0																													s	1.0	None	0.0		4.0	circleblue.gif	go								0.41771793365500004																								0.0	0.514410018921	0.0008931159973139998	0.417717933655	1.0	s	325.004589081																																								2015_Jun_25_1032	59.7564325402	LearningTask	1	66	
59	200.0	w	200.0																	0.0	0.0	0.0	0.0	9.0	0.0	36.0	0.0																													w	1.0	None	0.0		1.0	triangleorange.gif	stop								0.300755023956																								1.17	0.513411045074	0.0009169578552250001	0.300755023956	1.0	w	328.007323027																																								2015_Jun_25_1032	59.7564325402	LearningTask	1	66	
60	-200.0	a	-200.0																	0.0	0.0	0.0	0.0	9.0	1.0	37.0	3.0																													a	1.0	None	0.0		2.0	diamondgreen.gif	go								0.417484045029																								2.14	0.514235019684	0.0009140968322749999	0.417484045029	1.0	a	331.010638952																																								2015_Jun_25_1032	59.7564325402	LearningTask	1	66	
61	-200.0	q	200.0																	0.0	0.0	0.0	0.0	9.0	2.0	38.0	1.0																													q	1.0	None	0.0		4.0	circleblue.gif	go								0.300507068634																								4.13	0.514351844788	0.000903844833374	0.300507068634	1.0	q	334.01407003400004																																								2015_Jun_25_1032	59.7564325402	LearningTask	1	66	
62	200.0	s	-200.0																	0.0	0.0	0.0	0.0	9.0	3.0	39.0	2.0																													s	1.0	None	0.0		1.0	invertedtrianglecyan.gif	go								0.350760936737																								1.23	0.514137983322	0.000909090042114	0.350760936737	1.0	s	337.017538071																																								2015_Jun_25_1032	59.7564325402	LearningTask	1	66	
63	-200.0	q	200.0																	0.0	0.0	0.0	0.0	10.0	0.0	40.0	1.0																													q	1.0	None	0.0		2.0	diamondgreen.gif	go								0.367294788361																								1.79	0.514372825623	0.00110292434692	0.367294788361	1.0	q	340.020976067																																								2015_Jun_25_1032	59.7564325402	LearningTask	1	66	
64	-200.0	a	-200.0																	0.0	0.0	0.0	0.0	10.0	1.0	41.0	3.0																													a	1.0	None	0.0		2.0	diamondgreen.gif	go								0.36755514144900003																								1.9	0.514204978943	0.0008909702301030001	0.367555141449	1.0	a	343.02412009200003																																								2015_Jun_25_1032	59.7564325402	LearningTask	1	66	
65	200.0	s	-200.0																	0.0	0.0	0.0	0.0	10.0	2.0	42.0	2.0																													s	1.0	None	0.0		2.0	crossgray.gif	stop								0.367300987244																								2.01	0.514435052872	0.00090217590332	0.367300987244	1.0	s	346.02784013699994																																								2015_Jun_25_1032	59.7564325402	LearningTask	1	66	
66	-200.0	q	200.0																	0.0	0.0	0.0	0.0	10.0	3.0	43.0	1.0																													q	1.0	None	0.0		2.0	diamondgreen.gif	go								0.317516803741																								2.1	0.513636112213	0.0010070800781199999	0.317516803741	1.0	q	349.030869007																																								2015_Jun_25_1032	59.7564325402	LearningTask	1	66	
67	-200.0	a	-200.0																	0.0	0.0	0.0	0.0	11.0	0.0	44.0	3.0																													a	1.0	None	0.0		0.5	squaremagenta.gif	stop								0.38434195518500003																								0.0	0.514470815659	0.0009570121765139998	0.384341955185	1.0	a	352.03474593199996																																								2015_Jun_25_1032	59.7564325402	LearningTask	1	66	
68	200.0	w	200.0																	0.0	0.0	0.0	0.0	11.0	1.0	45.0	0.0																													w	1.0	None	0.0		2.0	diamondgreen.gif	go								0.300854921341																								1.99	0.513979911804	0.000900983810425	0.300854921341	1.0	w	355.03776311900003																																								2015_Jun_25_1032	59.7564325402	LearningTask	1	66	
69	-200.0	a	-200.0																	0.0	0.0	0.0	0.0	11.0	2.0	46.0	3.0																													a	1.0	None	0.0		1.0	invertedtrianglecyan.gif	go								0.333759069443																								1.24	0.514019012451	0.00092601776123	0.333759069443	1.0	a	358.041095972																																								2015_Jun_25_1032	59.7564325402	LearningTask	1	66	
70	200.0	s	-200.0																	0.0	0.0	0.0	0.0	11.0	3.0	47.0	2.0																													s	1.0	None	0.0		0.5	hexagonwhite.gif	go								0.401074886322																								0.57	0.514183998108	0.00125288963318	0.401074886322	1.0	s	361.04426503199994																																								2015_Jun_25_1032	59.7564325402	LearningTask	1	66	
71	200.0	w	200.0																	0.0	0.0	0.0	0.0	12.0	0.0	48.0	0.0																													w	1.0	None	0.0		0.5	hexagonwhite.gif	go								0.45074295997599995																								0.35	0.5145049095149999	0.000900983810425	0.450742959976	1.0	w	364.047940969																																								2015_Jun_25_1032	59.7564325402	LearningTask	1	66	
72	200.0	s	-200.0																	0.0	0.0	0.0	0.0	12.0	1.0	49.0	2.0																													s	1.0	None	0.0		2.0	crossgray.gif	stop								0.383800983429																								1.86	0.513839960098	0.0009379386901860002	0.383800983429	1.0	s	367.051243067																																								2015_Jun_25_1032	59.7564325402	LearningTask	1	66	
73	200.0	s	-200.0																	0.0	0.0	0.0	0.0	12.0	2.0	50.0	2.0																													s	1.0	None	0.0		4.0	lineyellow.gif	stop								0.384078979492																								4.13	0.51424407959	0.0009129047393799999	0.384078979492	1.0	s	370.054753065																																								2015_Jun_25_1032	59.7564325402	LearningTask	1	66	
74	200.0	s	-200.0																	0.0	0.0	0.0	0.0	12.0	3.0	51.0	2.0																													s	1.0	None	0.0		2.0	crossgray.gif	stop								0.367659091949																								2.06	0.514317989349	0.0008978843688960001	0.367659091949	1.0	s	373.058108091																																								2015_Jun_25_1032	59.7564325402	LearningTask	1	66	
75	-200.0	q	200.0																	0.0	0.0	0.0	0.0	13.0	0.0	52.0	1.0																													q	1.0	None	0.0		0.5	squaremagenta.gif	stop								0.317469120026																								0.72	0.514115095139	0.000917196273804	0.317469120026	1.0	q	376.06121802300004																																								2015_Jun_25_1032	59.7564325402	LearningTask	1	66	
76	-200.0	a	-200.0																	0.0	0.0	0.0	0.0	13.0	1.0	53.0	3.0																													a	1.0	None	0.0		0.5	hexagonwhite.gif	go								0.35103607177699997																								0.51	0.51433801651	0.0009160041809079999	0.351036071777	1.0	a	379.06470704099996																																								2015_Jun_25_1032	59.7564325402	LearningTask	1	66	
77	200.0	w	200.0																	0.0	0.0	0.0	0.0	13.0	2.0	54.0	0.0																													w	1.0	None	0.0		1.0	triangleorange.gif	stop								0.40106892585799997																								1.07	0.5142390728	0.0009129047393799999	0.401068925858	1.0	w	382.068087101																																								2015_Jun_25_1032	59.7564325402	LearningTask	1	66	
78	200.0	s	-200.0																	0.0	0.0	0.0	0.0	13.0	3.0	55.0	2.0																													s	1.0	None	0.0		2.0	crossgray.gif	stop								0.384128808975																								2.22	0.514601945877	0.000900030136108	0.384128808975	1.0	s	385.071558952																																								2015_Jun_25_1032	59.7564325402	LearningTask	1	66	
79	-200.0	a	-200.0																	0.0	0.0	0.0	0.0	14.0	0.0	56.0	3.0																													a	1.0	None	0.0		1.0	invertedtrianglecyan.gif	go								0.38421797752400005																								0.0	0.514033794403	0.0011467933654800001	0.384217977524	1.0	a	388.07482600199995																																								2015_Jun_25_1032	59.7564325402	LearningTask	1	66	
80	200.0	s	-200.0																	0.0	0.0	0.0	0.0	14.0	1.0	57.0	2.0																													s	1.0	None	0.0		2.0	diamondgreen.gif	go								0.384697914124																								0.0	0.514300107956	0.0009450912475589999	0.384697914124	1.0	s	391.07815814																																								2015_Jun_25_1032	59.7564325402	LearningTask	1	66	
81	200.0	w	200.0																	0.0	0.0	0.0	0.0	14.0	2.0	58.0	0.0																													w	1.0	None	0.0		1.0	invertedtrianglecyan.gif	go								0.317831039429																								0.77	0.514310836792	0.000922918319702	0.317831039429	1.0	w	394.08150410699994																																								2015_Jun_25_1032	59.7564325402	LearningTask	1	66	
82	200.0	w	200.0																	0.0	0.0	0.0	0.0	14.0	3.0	59.0	0.0																													w	1.0	None	0.0		4.0	lineyellow.gif	stop								0.33426809310899996																								4.22	0.513960838318	0.0009369850158689999	0.334268093109	1.0	w	397.08467412																																								2015_Jun_25_1032	59.7564325402	LearningTask	1	66	
83	-200.0	a	-200.0																	0.0	0.0	0.0	0.0	15.0	0.0	60.0	3.0																													a	1.0	None	0.0		4.0	lineyellow.gif	stop								0.35092401504500004																								0.0	0.514415025711	0.0009400844573969999	0.350924015045	1.0	a	400.088278055																																								2015_Jun_25_1032	59.7564325402	LearningTask	1	66	
84	-200.0	q	200.0																	0.0	0.0	0.0	0.0	15.0	1.0	61.0	1.0																													q	1.0	None	0.0		4.0	lineyellow.gif	stop								0.333927154541																								4.19	0.51432800293	0.0009241104125980002	0.333927154541	1.0	q	403.091876984																																								2015_Jun_25_1032	59.7564325402	LearningTask	1	66	
85	200.0	s	-200.0																	0.0	0.0	0.0	0.0	15.0	2.0	62.0	2.0																													s	1.0	None	0.0		0.5	hexagonwhite.gif	go								0.334181070328																								0.48	0.51385307312	0.0009169578552250001	0.334181070328	1.0	s	406.094974995																																								2015_Jun_25_1032	59.7564325402	LearningTask	1	66	
86	-200.0	q	200.0																	0.0	0.0	0.0	0.0	15.0	3.0	63.0	1.0																													q	1.0	None	0.0		2.0	crossgray.gif	stop								0.334626913071																								2.03	0.514189958572	0.000964879989624	0.334626913071	1.0	q	409.098428011																																								2015_Jun_25_1032	59.7564325402	LearningTask	1	66	
87	-200.0	a	-200.0																	0.0	0.0	0.0	0.0	16.0	0.0	64.0	3.0																													a	1.0	None	0.0		2.0	diamondgreen.gif	go								0.35082793235799997																								2.14	0.514205932617	0.0009400844573969999	0.350827932358	1.0	a	412.10217499699996																																								2015_Jun_25_1032	59.7564325402	LearningTask	1	66	
88	200.0	s	-200.0																	0.0	0.0	0.0	0.0	16.0	1.0	65.0	2.0																													s	1.0	None	0.0		0.5	squaremagenta.gif	stop								0.38444209098800003																								0.67	0.513885974884	0.000890016555786	0.384442090988	1.0	s	415.105186939																																								2015_Jun_25_1032	59.7564325402	LearningTask	1	66	
89	200.0	s	-200.0																	0.0	0.0	0.0	0.0	16.0	2.0	66.0	2.0																													s	1.0	None	0.0		0.5	hexagonwhite.gif	go								0.367490053177																								0.68	0.5142819881440001	0.0009047985076900001	0.367490053177	1.0	s	418.108765125																																								2015_Jun_25_1032	59.7564325402	LearningTask	1	66	
90	200.0	s	-200.0																	0.0	0.0	0.0	0.0	16.0	3.0	67.0	2.0																													s	1.0	None	0.0		4.0	circleblue.gif	go								0.367727041245																								3.75	0.514106988907	0.0009279251098630001	0.367727041245	1.0	s	421.11196398699997																																								2015_Jun_25_1032	59.7564325402	LearningTask	1	66	
91	-200.0	a	-200.0																	0.0	0.0	0.0	0.0	17.0	0.0	68.0	3.0																													a	1.0	None	0.0		4.0	circleblue.gif	go								0.517874956131																								4.15	0.514050960541	0.000921964645386	0.517874956131	1.0	a	424.115517139																																								2015_Jun_25_1032	59.7564325402	LearningTask	1	66	
92	200.0	s	-200.0																	0.0	0.0	0.0	0.0	17.0	1.0	69.0	2.0																													s	1.0	None	0.0		4.0	lineyellow.gif	stop								0.433872938156																								4.14	0.5143339633940001	0.0011498928070099999	0.433872938156	1.0	s	427.119107962																																								2015_Jun_25_1032	59.7564325402	LearningTask	1	66	
93	-200.0	a	-200.0																	0.0	0.0	0.0	0.0	17.0	2.0	70.0	3.0																													a	1.0	None	0.0		4.0	circleblue.gif	go								0.33414816856400004																								0.0	0.513918161392	0.000909090042114	0.350382804871	0.0	w	430.12203097300005	0.0	0.5155830383300001	0.00096607208252	0.334148168564	1.0	a	433.12589502300006																																	2015_Jun_25_1032	59.7564325402	LearningTask	1	66	
94	200.0	w	200.0																	0.0	0.0	0.0	0.0	17.0	3.0	71.0	0.0																													w	1.0	None	0.0		0.5	squaremagenta.gif	stop								0.38405203819300004																								0.32	0.513448953629	0.0009589195251460001	0.384052038193	1.0	w	436.128730059																																								2015_Jun_25_1032	59.7564325402	LearningTask	1	66	
95	-200.0	a	-200.0																	0.0	0.0	0.0	0.0	18.0	0.0	72.0	3.0																													a	1.0	None	0.0		2.0	diamondgreen.gif	go								0.317555904388																								1.75	0.514250040054	0.000902891159058	0.317555904388	1.0	a	439.13199210199997																																								2015_Jun_25_1032	59.7564325402	LearningTask	1	66	
96	200.0	w	200.0																	0.0	0.0	0.0	0.0	18.0	1.0	73.0	0.0																													w	1.0	None	0.0		4.0	circleblue.gif	go								0.417588949203																								3.78	0.5148019790649999	0.0009100437164310001	0.417588949203	1.0	w	442.135302067																																								2015_Jun_25_1032	59.7564325402	LearningTask	1	66	
97	200.0	w	200.0																	0.0	0.0	0.0	0.0	18.0	2.0	74.0	0.0																													w	1.0	None	0.0		2.0	diamondgreen.gif	go								0.38387799263000005																								1.96	0.514670848846	0.0009489059448239998	0.38387799263	1.0	w	445.138996124																																								2015_Jun_25_1032	59.7564325402	LearningTask	1	66	
98	-200.0	a	-200.0																	0.0	0.0	0.0	0.0	18.0	3.0	75.0	3.0																													a	1.0	None	0.0		2.0	crossgray.gif	stop								0.383994102478																								1.79	0.514127969742	0.0009601116180419999	0.383994102478	1.0	a	448.142265081																																								2015_Jun_25_1032	59.7564325402	LearningTask	1	66	
99	200.0	w	200.0																	0.0	0.0	0.0	0.0	19.0	0.0	76.0	0.0																													w	1.0	None	0.0		0.5	squaremagenta.gif	stop								0.31728911399799997																								0.0	0.514295101166	0.0008931159973139998	0.317289113998	1.0	w	451.146105051																																								2015_Jun_25_1032	59.7564325402	LearningTask	1	66	
100	-200.0	q	200.0																	0.0	0.0	0.0	0.0	19.0	1.0	77.0	1.0																													q	1.0	None	0.0		2.0	diamondgreen.gif	go								0.351271152496																								0.0	0.513338088989	0.0009059906005860001	0.351144075394	0.0	a	454.149012089	2.06	0.515275001526	0.000993013381958	0.351271152496	1.0	q	457.152696133																																	2015_Jun_25_1032	59.7564325402	LearningTask	1	66	
101	200.0	s	-200.0																	0.0	0.0	0.0	0.0	19.0	2.0	78.0	2.0																													s	1.0	None	0.0		4.0	circleblue.gif	go								0.40026593208300004																								4.1	0.514285087585	0.000900030136108	0.400265932083	1.0	s	460.15629196199995																																								2015_Jun_25_1032	59.7564325402	LearningTask	1	66	
102	200.0	s	-200.0																	0.0	0.0	0.0	0.0	19.0	3.0	79.0	2.0																													s	1.0	None	0.0		0.5	hexagonwhite.gif	go								0.400944948196																								0.49	0.513734817505	0.000969886779785	0.400944948196	1.0	s	463.159269094																																								2015_Jun_25_1032	59.7564325402	LearningTask	1	66	
103	-200.0	q	200.0																	0.0	0.0	0.0	0.0	20.0	0.0	80.0	1.0																													q	1.0	None	0.0		4.0	lineyellow.gif	stop								0.334095001221																								4.09	0.514074087143	0.0009760856628420001	0.334095001221	1.0	q	466.162545919																																								2015_Jun_25_1032	59.7564325402	LearningTask	1	66	
104	200.0	w	200.0																	0.0	0.0	0.0	0.0	20.0	1.0	81.0	0.0																													w	1.0	None	0.0		0.5	hexagonwhite.gif	go								0.33427810668900004																								0.0	0.5143339633940001	0.000908851623535	0.334278106689	1.0	w	469.16599202199995																																								2015_Jun_25_1032	59.7564325402	LearningTask	1	66	
105	-200.0	a	-200.0																	0.0	0.0	0.0	0.0	20.0	2.0	82.0	3.0																													a	1.0	None	0.0		1.0	invertedtrianglecyan.gif	go								0.41768598556500003																								0.0	0.514032125473	0.00089693069458	0.434535980225	0.0	q	472.16937494300004	0.88	0.515433073044	0.00102019309998	0.417685985565	1.0	a	475.17257499699997																																	2015_Jun_25_1032	59.7564325402	LearningTask	1	66	
106	-200.0	q	200.0																	0.0	0.0	0.0	0.0	20.0	3.0	83.0	1.0																													q	1.0	None	0.0		0.5	hexagonwhite.gif	go								0.517525911331																								0.41	0.514502048492	0.000907897949219	0.517525911331	1.0	q	478.176073074																																								2015_Jun_25_1032	59.7564325402	LearningTask	1	66	
107	200.0	w	200.0																	0.0	0.0	0.0	0.0	21.0	0.0	84.0	0.0																													w	1.0	None	0.0		4.0	lineyellow.gif	stop								0.350677967072																								4.25	0.514327049255	0.000903844833374	0.350677967072	1.0	w	481.179435015																																								2015_Jun_25_1032	59.7564325402	LearningTask	1	66	
108	200.0	s	-200.0																	0.0	0.0	0.0	0.0	21.0	1.0	85.0	2.0																													s	1.0	None	0.0		0.5	squaremagenta.gif	stop								0.46813511848399997																								0.31	0.514075040817	0.000942945480347	0.468135118484	1.0	s	484.182569981																																								2015_Jun_25_1032	59.7564325402	LearningTask	1	66	
109	-200.0	q	200.0																	0.0	0.0	0.0	0.0	21.0	2.0	86.0	1.0																													q	1.0	None	0.0		2.0	diamondgreen.gif	go								0.33456707000700003																								1.97	0.514400005341	0.0010008811950700002	0.334567070007	1.0	q	487.18680191																																								2015_Jun_25_1032	59.7564325402	LearningTask	1	66	
110	-200.0	a	-200.0																	0.0	0.0	0.0	0.0	21.0	3.0	87.0	3.0																													a	1.0	None	0.0		1.0	triangleorange.gif	stop								0.434334039688																								1.14	0.513494968414	0.000903844833374	0.434334039688	1.0	a	490.189743042																																								2015_Jun_25_1032	59.7564325402	LearningTask	1	66	
111	-200.0	a	-200.0																	0.0	0.0	0.0	0.0	22.0	0.0	88.0	3.0																													a	1.0	None	0.0		2.0	crossgray.gif	stop								0.41754388809199994																								1.81	0.5138750076290001	0.0009210109710689999	0.417543888092	1.0	a	493.19292092300003																																								2015_Jun_25_1032	59.7564325402	LearningTask	1	66	
112	-200.0	a	-200.0																	0.0	0.0	0.0	0.0	22.0	1.0	89.0	3.0																													a	1.0	None	0.0		1.0	invertedtrianglecyan.gif	go								0.568037986755																								0.0	0.514241933823	0.000963926315308	0.568037986755	1.0	a	496.196097136																																								2015_Jun_25_1032	59.7564325402	LearningTask	1	66	
113	-200.0	a	-200.0																	0.0	0.0	0.0	0.0	22.0	2.0	90.0	3.0																													a	1.0	None	0.0		2.0	crossgray.gif	stop								0.41783881187399996																								1.97	0.514532804489	0.000903844833374	0.417838811874	1.0	a	499.20023298300003																																								2015_Jun_25_1032	59.7564325402	LearningTask	1	66	
114	-200.0	a	-200.0																	0.0	0.0	0.0	0.0	22.0	3.0	91.0	3.0																													a	1.0	None	0.0		0.5	squaremagenta.gif	stop								0.500995874405																								0.45	0.5130879879	0.000888824462891	0.500995874405	1.0	a	502.203103065																																								2015_Jun_25_1032	59.7564325402	LearningTask	1	66	
115	-200.0	q	200.0																	0.0	0.0	0.0	0.0	23.0	0.0	92.0	1.0																													q	1.0	None	0.0		1.0	invertedtrianglecyan.gif	go								0.6347260475159999																								0.0	0.51433801651	0.0009100437164310001	0.634726047516	1.0	q	505.206447124																																								2015_Jun_25_1032	59.7564325402	LearningTask	1	66	
116	200.0	s	-200.0																	0.0	0.0	0.0	0.0	23.0	1.0	93.0	2.0																													s	1.0	None	0.0		0.5	hexagonwhite.gif	go								0.451137065887																								0.47	0.514168977737	0.000909090042114	0.451137065887	1.0	s	508.209950924																																								2015_Jun_25_1032	59.7564325402	LearningTask	1	66	
117	200.0	w	200.0																	0.0	0.0	0.0	0.0	23.0	2.0	94.0	0.0																													w	1.0	None	0.0		4.0	circleblue.gif	go								0.38416695594800004																								0.0	0.514266014099	0.0009331703186039999	0.384166955948	1.0	w	511.213272095																																								2015_Jun_25_1032	59.7564325402	LearningTask	1	66	
118	200.0	s	-200.0																	0.0	0.0	0.0	0.0	23.0	3.0	95.0	2.0																													s	1.0	None	0.0		4.0	circleblue.gif	go								0.500406980515																								0.0	0.514211893082	0.00137996673584	0.500406980515	1.0	s	514.21645999																																								2015_Jun_25_1032	59.7564325402	LearningTask	1	66	
119	-200.0	q	200.0																	0.0	0.0	0.0	0.0	24.0	0.0	96.0	1.0																													q	1.0	None	0.0		0.5	squaremagenta.gif	stop								0.450584888458																								0.4	0.51446890831	0.000902891159058	0.450584888458	1.0	q	517.21997714																																								2015_Jun_25_1032	59.7564325402	LearningTask	1	66	
120	-200.0	a	-200.0																	0.0	0.0	0.0	0.0	24.0	1.0	97.0	3.0																													a	1.0	None	0.0		0.5	hexagonwhite.gif	go								0.40143680572499996																								0.31	0.514280080795	0.000902891159058	0.401436805725	1.0	a	520.223233938																																								2015_Jun_25_1032	59.7564325402	LearningTask	1	66	
121	200.0	w	200.0																	0.0	0.0	0.0	0.0	24.0	2.0	98.0	0.0																													w	1.0	None	0.0		2.0	crossgray.gif	stop								0.40087890625																								2.03	0.51425409317	0.00106310844421	0.40087890625	1.0	w	523.2266020769999																																								2015_Jun_25_1032	59.7564325402	LearningTask	1	66	
122	-200.0	q	200.0																	0.0	0.0	0.0	0.0	24.0	3.0	99.0	1.0																													q	1.0	None	0.0		2.0	crossgray.gif	stop								0.401005029678																								0.0	0.5143349170679999	0.000909090042114	0.401005029678	1.0	q	526.229910135																																								2015_Jun_25_1032	59.7564325402	LearningTask	1	66	
123																				0.0	0.0	0.0	0.0																																																																																						9.0	2.17171311378																															2015_Jun_25_1032	59.7564325402	LearningTask	1	66	
124	-200.0	a	-200.0																	1.0	0.0	1.0	0.0	0.0	0.0	0.0	3.0																													a	1.0	None	0.0		1.0	triangleorange.gif	stop								0.48420715331999997																								1.06	0.5096590518949999	0.0009570121765139998	0.48420715332	1.0	a	531.870203018																																								2015_Jun_25_1032	59.7564325402	LearningTask	1	66	
125	200.0	w	200.0																	1.0	0.0	1.0	0.0	0.0	1.0	1.0	0.0																													w	1.0	None	0.0		0.5	hexagonwhite.gif	go								0.334244966507																								0.3	0.513833045959	0.000900030136108	0.334244966507	1.0	w	534.873106956																																								2015_Jun_25_1032	59.7564325402	LearningTask	1	66	
126	200.0	s	-200.0																	1.0	0.0	1.0	0.0	0.0	2.0	2.0	2.0																													s	1.0	None	0.0		1.0	invertedtrianglecyan.gif	go								0.35114717483499996																								0.77	0.514051914215	0.0009298324584960001	0.351147174835	1.0	s	537.876914024																																								2015_Jun_25_1032	59.7564325402	LearningTask	1	66	
127	200.0	s	-200.0																	1.0	0.0	1.0	0.0	0.0	3.0	3.0	2.0																													s	1.0	None	0.0		4.0	circleblue.gif	go								0.400479078293																								4.2	0.514071941376	0.0009191036224369998	0.400479078293	1.0	s	540.879800081																																								2015_Jun_25_1032	59.7564325402	LearningTask	1	66	
128	200.0	w	200.0																	1.0	0.0	1.0	0.0	1.0	0.0	4.0	0.0																													w	1.0	None	0.0		2.0	crossgray.gif	stop								0.284013986588																								2.24	0.51434803009	0.0008959770202639998	0.284013986588	1.0	w	543.883532047																																								2015_Jun_25_1032	59.7564325402	LearningTask	1	66	
129	200.0	s	-200.0																	1.0	0.0	1.0	0.0	1.0	1.0	5.0	2.0																													s	1.0	None	0.0		2.0	diamondgreen.gif	go								0.35071516037																								0.0	0.513920068741	0.0009012222290039999	0.35071516037	1.0	s	546.886846066																																								2015_Jun_25_1032	59.7564325402	LearningTask	1	66	
130	-200.0	q	200.0																	1.0	0.0	1.0	0.0	1.0	2.0	6.0	1.0																													q	1.0	None	0.0		1.0	triangleorange.gif	stop								0.40122103691100003																								1.11	0.513561964035	0.0009169578552250001	0.401221036911	1.0	q	549.889992952																																								2015_Jun_25_1032	59.7564325402	LearningTask	1	66	
131	-200.0	a	-200.0																	1.0	0.0	1.0	0.0	1.0	3.0	7.0	3.0																													a	1.0	None	0.0		0.5	squaremagenta.gif	stop								0.751049995422																								0.48	0.514210939407	0.0008959770202639998	0.751049995422	1.0	a	552.893599033																																								2015_Jun_25_1032	59.7564325402	LearningTask	1	66	
132	200.0	s	-200.0																	1.0	0.0	1.0	0.0	2.0	0.0	8.0	2.0																													s	1.0	None	0.0		4.0	lineyellow.gif	stop								0.46771812438999993																								0.0	0.514175891876	0.0009047985076900001	0.46771812439	1.0	s	555.896882057																																								2015_Jun_25_1032	59.7564325402	LearningTask	1	66	
133	-200.0	q	200.0																	1.0	0.0	1.0	0.0	2.0	1.0	9.0	1.0																													q	1.0	None	0.0		1.0	triangleorange.gif	stop								0.367244005203																								0.0	0.514236927032	0.00090503692627	0.367244005203	1.0	q	558.9001610280001																																								2015_Jun_25_1032	59.7564325402	LearningTask	1	66	
134	-200.0	q	200.0																	1.0	0.0	1.0	0.0	2.0	2.0	10.0	1.0																													q	1.0	None	0.0		4.0	circleblue.gif	go								0.38466501236																								4.03	0.514211177826	0.000930070877075	0.38466501236	1.0	q	561.90349102																																								2015_Jun_25_1032	59.7564325402	LearningTask	1	66	
135	200.0	w	200.0																	1.0	0.0	1.0	0.0	2.0	3.0	11.0	0.0																													w	1.0	None	0.0		2.0	crossgray.gif	stop								0.28399014473																								0.0	0.5143098831180001	0.0008978843688960001	0.28399014473	1.0	w	564.906881094																																								2015_Jun_25_1032	59.7564325402	LearningTask	1	66	
136	200.0	s	-200.0																	1.0	0.0	1.0	0.0	3.0	0.0	12.0	2.0																													s	1.0	None	0.0		1.0	triangleorange.gif	stop								0.467621088028																								0.98	0.514274835587	0.0009338855743410001	0.467621088028	1.0	s	567.910618067																																								2015_Jun_25_1032	59.7564325402	LearningTask	1	66	
137	200.0	s	-200.0																	1.0	0.0	1.0	0.0	3.0	1.0	13.0	2.0																													s	1.0	None	0.0		1.0	invertedtrianglecyan.gif	go								0.400740861893																								1.22	0.513808965683	0.0010049343109099999	0.400740861893	1.0	s	570.913764																																								2015_Jun_25_1032	59.7564325402	LearningTask	1	66	
138	-200.0	a	-200.0																	1.0	0.0	1.0	0.0	3.0	2.0	14.0	3.0																													a	1.0	None	0.0		1.0	triangleorange.gif	stop								0.400825977325																								0.0	0.514198064804	0.0008950233459470001	0.417940139771	0.0	q	573.9169831280001	0.83	0.515502929688	0.0009760856628420001	0.400825977325	1.0	a	576.92050004																																	2015_Jun_25_1032	59.7564325402	LearningTask	1	66	
139	200.0	s	-200.0																	1.0	0.0	1.0	0.0	3.0	3.0	15.0	2.0																													s	1.0	None	0.0		0.5	squaremagenta.gif	stop								0.434386014938																								0.7	0.513718128204	0.0008981227874760001	0.434386014938	1.0	s	579.923730135																																								2015_Jun_25_1032	59.7564325402	LearningTask	1	66	
140	200.0	s	-200.0																	1.0	0.0	1.0	0.0	4.0	0.0	16.0	2.0																													s	1.0	None	0.0		0.5	hexagonwhite.gif	go								0.484250068665																								0.37	0.514199018478	0.000885009765625	0.484250068665	1.0	s	582.927279949																																								2015_Jun_25_1032	59.7564325402	LearningTask	1	66	
141	-200.0	a	-200.0																	1.0	0.0	1.0	0.0	4.0	1.0	17.0	3.0																													a	1.0	None	0.0		1.0	invertedtrianglecyan.gif	go								0.401273965836																								0.84	0.513794898987	0.000882863998413	0.401273965836	1.0	a	585.930380106																																								2015_Jun_25_1032	59.7564325402	LearningTask	1	66	
142	-200.0	a	-200.0																	1.0	0.0	1.0	0.0	4.0	2.0	18.0	3.0																													a	1.0	None	0.0		4.0	lineyellow.gif	stop								0.41749501228299996																								3.8	0.514090061188	0.0009109973907470001	0.417495012283	1.0	a	588.9338889119999																																								2015_Jun_25_1032	59.7564325402	LearningTask	1	66	
143	200.0	s	-200.0																	1.0	0.0	1.0	0.0	4.0	3.0	19.0	2.0																													s	1.0	None	0.0		1.0	triangleorange.gif	stop								0.467412948608																								1.25	0.514329910278	0.0008769035339360002	0.467412948608	1.0	s	591.937513113																																								2015_Jun_25_1032	59.7564325402	LearningTask	1	66	
144	200.0	w	200.0																	1.0	0.0	1.0	0.0	5.0	0.0	20.0	0.0																													w	1.0	None	0.0		1.0	invertedtrianglecyan.gif	go								0.38419723510700005																								1.23	0.513814926147	0.0008840560913089999	0.384197235107	1.0	w	594.940877914																																								2015_Jun_25_1032	59.7564325402	LearningTask	1	66	
145	200.0	w	200.0																	1.0	0.0	1.0	0.0	5.0	1.0	21.0	0.0																													w	1.0	None	0.0		0.5	hexagonwhite.gif	go								0.417382955551																								0.44	0.513931035995	0.000912189483643	0.417382955551	1.0	w	597.9442429540001																																								2015_Jun_25_1032	59.7564325402	LearningTask	1	66	
146	200.0	w	200.0																	1.0	0.0	1.0	0.0	5.0	2.0	22.0	0.0																													w	1.0	None	0.0		0.5	hexagonwhite.gif	go								0.384382009506																								0.45	0.514152050018	0.000882863998413	0.384382009506	1.0	w	600.947344065																																								2015_Jun_25_1032	59.7564325402	LearningTask	1	66	
147	-200.0	q	200.0																	1.0	0.0	1.0	0.0	5.0	3.0	23.0	1.0																													q	1.0	None	0.0		4.0	lineyellow.gif	stop								0.300982952118																								3.81	0.514292001724	0.000882863998413	0.300982952118	1.0	q	603.950760126																																								2015_Jun_25_1032	59.7564325402	LearningTask	1	66	
148	-200.0	q	200.0																	1.0	0.0	1.0	0.0	6.0	0.0	24.0	1.0																													q	1.0	None	0.0		2.0	diamondgreen.gif	go								0.367904901505																								1.83	0.514286994934	0.0008821487426760002	0.367904901505	1.0	q	606.95392108																																								2015_Jun_25_1032	59.7564325402	LearningTask	1	66	
149	200.0	w	200.0																	1.0	0.0	1.0	0.0	6.0	1.0	25.0	0.0																													w	1.0	None	0.0		2.0	crossgray.gif	stop								0.300915002823																								2.02	0.514336109161	0.000974178314209	0.300915002823	1.0	w	609.95797801																																								2015_Jun_25_1032	59.7564325402	LearningTask	1	66	
150	-200.0	a	-200.0																	1.0	0.0	1.0	0.0	6.0	2.0	26.0	3.0																													a	1.0	None	0.0		2.0	crossgray.gif	stop								0.367635011673																								2.12	0.513875961304	0.000888109207153	0.367635011673	1.0	a	612.960919142																																								2015_Jun_25_1032	59.7564325402	LearningTask	1	66	
151	200.0	w	200.0																	1.0	0.0	1.0	0.0	6.0	3.0	27.0	0.0																													w	1.0	w	1.0	0.6913800239560001	2.0	crossgray.gif	stop								0.30064702034																								2.1	0.514406919479	0.000946044921875	0.30064702034	1.0	w	615.9643480780001																																								2015_Jun_25_1032	59.7564325402	LearningTask	1	66	
152	200.0	s	-200.0																	1.0	0.0	1.0	0.0	7.0	0.0	28.0	2.0																													s	1.0	None	0.0		2.0	crossgray.gif	stop								0.40084195136999995																								2.25	0.51393699646	0.0009129047393799999	0.40084195137	1.0	s	618.967602968																																								2015_Jun_25_1032	59.7564325402	LearningTask	1	66	
153	200.0	s	-200.0																	1.0	0.0	1.0	0.0	7.0	1.0	29.0	2.0																													s	1.0	None	0.0		0.5	hexagonwhite.gif	go								0.417940139771																								0.29	0.514302968979	0.000885009765625	0.417940139771	1.0	s	621.970770121																																								2015_Jun_25_1032	59.7564325402	LearningTask	1	66	
154	-200.0	q	200.0																	1.0	0.0	1.0	0.0	7.0	2.0	30.0	1.0																													q	1.0	None	0.0		0.5	hexagonwhite.gif	go								0.36797404289200003																								0.29	0.514255046844	0.00095796585083	0.367974042892	1.0	q	624.974548101																																								2015_Jun_25_1032	59.7564325402	LearningTask	1	66	
155	-200.0	q	200.0																	1.0	0.0	1.0	0.0	7.0	3.0	31.0	1.0																													q	1.0	None	0.0		4.0	circleblue.gif	go								0.367706775665																								3.89	0.513605833054	0.000900983810425	0.367706775665	1.0	q	627.977689981																																								2015_Jun_25_1032	59.7564325402	LearningTask	1	66	
156	200.0	s	-200.0																	1.0	0.0	1.0	0.0	8.0	0.0	32.0	2.0																													s	1.0	None	0.0		0.5	squaremagenta.gif	stop								0.48458981514																								0.0	0.514466047287	0.0008780956268310002	0.48458981514	1.0	s	630.981140137																																								2015_Jun_25_1032	59.7564325402	LearningTask	1	66	
157	-200.0	a	-200.0																	1.0	0.0	1.0	0.0	8.0	1.0	33.0	3.0																													a	1.0	None	0.0		1.0	invertedtrianglecyan.gif	go								0.5511260032649999																								0.95	0.5143120288849999	0.000885009765625	0.551126003265	1.0	a	633.98470211																																								2015_Jun_25_1032	59.7564325402	LearningTask	1	66	
158	-200.0	a	-200.0																	1.0	0.0	1.0	0.0	8.0	2.0	34.0	3.0																													a	1.0	None	0.0		2.0	diamondgreen.gif	go								0.484393119812																								2.02	0.513886928558	0.000882863998413	0.484393119812	1.0	a	636.987837076																																								2015_Jun_25_1032	59.7564325402	LearningTask	1	66	
159	-200.0	a	-200.0																	1.0	0.0	1.0	0.0	8.0	3.0	35.0	3.0																													a	1.0	None	0.0		4.0	lineyellow.gif	stop								0.484263896942																								3.88	0.514254808426	0.0008859634399410001	0.484263896942	1.0	a	639.991528988																																								2015_Jun_25_1032	59.7564325402	LearningTask	1	66	
160	200.0	w	200.0																	1.0	0.0	1.0	0.0	9.0	0.0	36.0	0.0																													w	1.0	None	0.0		0.5	hexagonwhite.gif	go								0.58433008194																								0.0	0.514303922653	0.000880002975464	0.58433008194	1.0	w	642.994760036																																								2015_Jun_25_1032	59.7564325402	LearningTask	1	66	
161	-200.0	q	200.0																	1.0	0.0	1.0	0.0	9.0	1.0	37.0	1.0																													q	1.0	None	0.0		4.0	lineyellow.gif	stop								0.350874900818																								3.89	0.514039039612	0.0009799003601070001	0.350874900818	1.0	q	645.997880936																																								2015_Jun_25_1032	59.7564325402	LearningTask	1	66	
162	200.0	w	200.0																	1.0	0.0	1.0	0.0	9.0	2.0	38.0	0.0																													w	1.0	None	0.0		4.0	circleblue.gif	go								0.300502061844																								4.25	0.514534950256	0.0008790493011469999	0.300502061844	1.0	w	649.001307011																																								2015_Jun_25_1032	59.7564325402	LearningTask	1	66	
163	-200.0	a	-200.0																	1.0	0.0	1.0	0.0	9.0	3.0	39.0	3.0																													a	1.0	None	0.0		4.0	lineyellow.gif	stop								0.46752095222499995																								4.01	0.514377117157	0.0008769035339360002	0.467520952225	1.0	a	652.00468111																																								2015_Jun_25_1032	59.7564325402	LearningTask	1	66	
164	-200.0	q	200.0																	1.0	0.0	1.0	0.0	10.0	0.0	40.0	1.0																													q	1.0	None	0.0		0.5	squaremagenta.gif	stop								0.400824069977																								0.53	0.514325857162	0.0008997917175289999	0.400824069977	1.0	q	655.007949114																																								2015_Jun_25_1032	59.7564325402	LearningTask	1	66	
165	-200.0	q	200.0																	1.0	0.0	1.0	0.0	10.0	1.0	41.0	1.0																													q	1.0	None	0.0		2.0	diamondgreen.gif	go								0.434485912323																								2.02	0.5143940448759999	0.0009629726409910001	0.434485912323	1.0	q	658.011543989																																								2015_Jun_25_1032	59.7564325402	LearningTask	1	66	
166	-200.0	q	200.0																	1.0	0.0	1.0	0.0	10.0	2.0	42.0	1.0																													q	1.0	None	0.0		2.0	crossgray.gif	stop								0.400640010834																								1.75	0.514280080795	0.000881195068359	0.400640010834	1.0	q	661.015047073																																								2015_Jun_25_1032	59.7564325402	LearningTask	1	66	
167	200.0	s	-200.0																	1.0	0.0	1.0	0.0	10.0	3.0	43.0	2.0																													s	1.0	None	0.0		4.0	lineyellow.gif	stop								0.484443902969																								3.93	0.514086008072	0.000931024551392	0.484443902969	1.0	s	664.018082142																																								2015_Jun_25_1032	59.7564325402	LearningTask	1	66	
168	-200.0	q	200.0																	1.0	0.0	1.0	0.0	11.0	0.0	44.0	1.0																													q	1.0	None	0.0		1.0	triangleorange.gif	stop								0.31752204894999997																								0.91	0.51407289505	0.0009329319000239999	0.31752204895	1.0	q	667.021559954																																								2015_Jun_25_1032	59.7564325402	LearningTask	1	66	
169	-200.0	q	200.0																	1.0	0.0	1.0	0.0	11.0	1.0	45.0	1.0																													q	1.0	None	0.0		0.5	hexagonwhite.gif	go								0.33431410789500005																								0.48	0.514235019684	0.0008950233459470001	0.334314107895	1.0	q	670.024887085																																								2015_Jun_25_1032	59.7564325402	LearningTask	1	66	
170	200.0	w	200.0																	1.0	0.0	1.0	0.0	11.0	2.0	46.0	0.0																													w	1.0	None	0.0		4.0	lineyellow.gif	stop								0.534591913223																								0.0	0.514118909836	0.000917911529541	0.534591913223	1.0	w	673.028360128																																								2015_Jun_25_1032	59.7564325402	LearningTask	1	66	
171	200.0	w	200.0																	1.0	0.0	1.0	0.0	11.0	3.0	47.0	0.0																													w	1.0	None	0.0		0.5	squaremagenta.gif	stop								0.484198093414																								0.57	0.514100074768	0.0008981227874760001	0.484198093414	1.0	w	676.0317780969999																																								2015_Jun_25_1032	59.7564325402	LearningTask	1	66	
172	-200.0	a	-200.0																	1.0	0.0	1.0	0.0	12.0	0.0	48.0	3.0																													a	1.0	None	0.0		2.0	diamondgreen.gif	go								0.46751594543499997																								1.93	0.514372110367	0.0008869171142580001	0.467515945435	1.0	a	679.0350739959999																																								2015_Jun_25_1032	59.7564325402	LearningTask	1	66	
173	200.0	w	200.0																	1.0	0.0	1.0	0.0	12.0	1.0	49.0	0.0																													w	1.0	None	0.0		0.5	squaremagenta.gif	stop								0.334301948547																								0.43	0.514253854752	0.000881910324097	0.334301948547	1.0	w	682.0388140680001																																								2015_Jun_25_1032	59.7564325402	LearningTask	1	66	
174	-200.0	q	200.0																	1.0	0.0	1.0	0.0	12.0	2.0	50.0	1.0																													q	1.0	None	0.0		2.0	crossgray.gif	stop								0.31791710853599997																								1.96	0.5138020515439999	0.00088906288147	0.317917108536	1.0	q	685.041902065																																								2015_Jun_25_1032	59.7564325402	LearningTask	1	66	
175	200.0	s	-200.0																	1.0	0.0	1.0	0.0	12.0	3.0	51.0	2.0																													s	1.0	None	0.0		1.0	triangleorange.gif	stop								0.40091490745499997																								0.93	0.514027118683	0.000930070877075	0.400914907455	1.0	s	688.045467138																																								2015_Jun_25_1032	59.7564325402	LearningTask	1	66	
176	200.0	s	-200.0																	1.0	0.0	1.0	0.0	13.0	0.0	52.0	2.0																													s	1.0	None	0.0		2.0	diamondgreen.gif	go								0.400822877884																								0.0	0.514101982117	0.0008718967437739999	0.400822877884	1.0	s	691.048763037																																								2015_Jun_25_1032	59.7564325402	LearningTask	1	66	
177	-200.0	a	-200.0																	1.0	0.0	1.0	0.0	13.0	1.0	53.0	3.0																													a	1.0	None	0.0		2.0	crossgray.gif	stop								0.401229143143																								0.0	0.5142390728	0.0008790493011469999	0.401229143143	1.0	a	694.0519430639999																																								2015_Jun_25_1032	59.7564325402	LearningTask	1	66	
178	-200.0	a	-200.0																	1.0	0.0	1.0	0.0	13.0	2.0	54.0	3.0																													a	1.0	None	0.0		1.0	triangleorange.gif	stop								0.38436603546099996																								0.0	0.514348983765	0.0008878707885739998	0.367965936661	0.0	q	697.0553479189999	0.78	0.515475034714	0.0009679794311519998	0.384366035461	1.0	a	700.05875802																																	2015_Jun_25_1032	59.7564325402	LearningTask	1	66	
179	200.0	w	200.0																	1.0	0.0	1.0	0.0	13.0	3.0	55.0	0.0																													w	1.0	None	0.0		4.0	lineyellow.gif	stop								0.35074496269199995																								4.14	0.514196157455	0.00106501579285	0.350744962692	1.0	w	703.062139034																																								2015_Jun_25_1032	59.7564325402	LearningTask	1	66	
180	200.0	w	200.0																	1.0	0.0	1.0	0.0	14.0	0.0	56.0	0.0																													w	1.0	None	0.0		4.0	lineyellow.gif	stop								0.40071105956999997																								3.97	0.514143943787	0.00111103057861	0.40071105957	1.0	w	706.065578938																																								2015_Jun_25_1032	59.7564325402	LearningTask	1	66	
181	-200.0	a	-200.0																	1.0	0.0	1.0	0.0	14.0	1.0	57.0	3.0																													a	1.0	None	0.0		2.0	crossgray.gif	stop								0.40098690986599994																								2.03	0.514299154282	0.000904083251953	0.400986909866	1.0	a	709.0688560010001																																								2015_Jun_25_1032	59.7564325402	LearningTask	1	66	
182	200.0	w	200.0																	1.0	0.0	1.0	0.0	14.0	2.0	58.0	0.0																													w	1.0	None	0.0		1.0	triangleorange.gif	stop								0.45116186142																								1.24	0.514302968979	0.0009469985961910001	0.45116186142	1.0	w	712.072103977																																								2015_Jun_25_1032	59.7564325402	LearningTask	1	66	
183	-200.0	a	-200.0																	1.0	0.0	1.0	0.0	14.0	3.0	59.0	3.0																													a	1.0	None	0.0		0.5	squaremagenta.gif	stop								0.434321165085																								0.0	0.514423847198	0.000907897949219	0.417861223221	0.0	q	715.0755329130001	0.39	0.515427827835	0.0009369850158689999	0.434321165085	1.0	a	718.079210043																																	2015_Jun_25_1032	59.7564325402	LearningTask	1	66	
184	-200.0	q	200.0																	1.0	0.0	1.0	0.0	15.0	0.0	60.0	1.0																													q	1.0	None	0.0		1.0	invertedtrianglecyan.gif	go								0.45104598999																								0.92	0.514286994934	0.0008859634399410001	0.45104598999	1.0	q	721.082459927																																								2015_Jun_25_1032	59.7564325402	LearningTask	1	66	
185	200.0	w	200.0																	1.0	0.0	1.0	0.0	15.0	1.0	61.0	0.0																													w	1.0	None	0.0		2.0	diamondgreen.gif	go								0.383921861649																								2.13	0.514054059982	0.000913858413696	0.383921861649	1.0	w	724.085685015																																								2015_Jun_25_1032	59.7564325402	LearningTask	1	66	
186	200.0	s	-200.0																	1.0	0.0	1.0	0.0	15.0	2.0	62.0	2.0																													s	1.0	None	0.0		1.0	triangleorange.gif	stop								0.567784070969																								0.88	0.5142970085140001	0.000882863998413	0.567784070969	1.0	s	727.089045048																																								2015_Jun_25_1032	59.7564325402	LearningTask	1	66	
187	-200.0	q	200.0																	1.0	0.0	1.0	0.0	15.0	3.0	63.0	1.0																													q	1.0	None	0.0		0.5	hexagonwhite.gif	go								0.33427786827100003																								0.34	0.514173984528	0.0009019374847410001	0.334277868271	1.0	q	730.092812061																																								2015_Jun_25_1032	59.7564325402	LearningTask	1	66	
188	-200.0	q	200.0																	1.0	0.0	1.0	0.0	16.0	0.0	64.0	1.0																													q	1.0	None	0.0		1.0	triangleorange.gif	stop								0.400851011276																								0.9	0.513871908188	0.0008859634399410001	0.400851011276	1.0	q	733.095880032																																								2015_Jun_25_1032	59.7564325402	LearningTask	1	66	
189	200.0	w	200.0																	1.0	0.0	1.0	0.0	16.0	1.0	65.0	0.0																													w	1.0	None	0.0		4.0	lineyellow.gif	stop								0.400843858719																								4.13	0.5142688751219999	0.00116181373596	0.400843858719	1.0	w	736.099344969																																								2015_Jun_25_1032	59.7564325402	LearningTask	1	66	
190	-200.0	a	-200.0																	1.0	0.0	1.0	0.0	16.0	2.0	66.0	3.0																													a	1.0	None	0.0		2.0	diamondgreen.gif	go								0.784540891647																								1.76	0.514146089554	0.0008859634399410001	0.784540891647	1.0	a	739.102656126																																								2015_Jun_25_1032	59.7564325402	LearningTask	1	66	
191	200.0	w	200.0																	1.0	0.0	1.0	0.0	16.0	3.0	67.0	0.0																													w	1.0	None	0.0		1.0	triangleorange.gif	stop								0.46767091751100004																								0.9	0.514205932617	0.00092887878418	0.467670917511	1.0	w	742.105857134																																								2015_Jun_25_1032	59.7564325402	LearningTask	1	66	
192	-200.0	a	-200.0																	1.0	0.0	1.0	0.0	17.0	0.0	68.0	3.0																													a	1.0	None	0.0		2.0	diamondgreen.gif	go								0.5678451061249999																								1.85	0.514252901077	0.0009670257568360001	0.567845106125	1.0	a	745.1096460819999																																								2015_Jun_25_1032	59.7564325402	LearningTask	1	66	
193	200.0	s	-200.0																	1.0	0.0	1.0	0.0	17.0	1.0	69.0	2.0																													s	1.0	None	0.0		4.0	circleblue.gif	go								0.48448419570900003																								0.0	0.514051914215	0.0008940696716310001	0.484484195709	1.0	s	748.1127939219999																																								2015_Jun_25_1032	59.7564325402	LearningTask	1	66	
194	-200.0	q	200.0																	1.0	0.0	1.0	0.0	17.0	2.0	70.0	1.0																													q	1.0	None	0.0		2.0	crossgray.gif	stop								0.40096402168300005																								0.0	0.5140299797060001	0.000955820083618	0.400964021683	1.0	q	751.11663413																																								2015_Jun_25_1032	59.7564325402	LearningTask	1	66	
195	-200.0	a	-200.0																	1.0	0.0	1.0	0.0	17.0	3.0	71.0	3.0																													a	1.0	None	0.0		4.0	circleblue.gif	go								0.48399114608800003																								0.0	0.513628959656	0.0009109973907470001	0.483991146088	1.0	a	754.119518042																																								2015_Jun_25_1032	59.7564325402	LearningTask	1	66	
196	200.0	w	200.0																	1.0	0.0	1.0	0.0	18.0	0.0	72.0	0.0																													w	1.0	None	0.0		0.5	hexagonwhite.gif	go								0.300904989243																								0.27	0.514369010925	0.0008840560913089999	0.300904989243	1.0	w	757.12285614																																								2015_Jun_25_1032	59.7564325402	LearningTask	1	66	
197	-200.0	a	-200.0																	1.0	0.0	1.0	0.0	18.0	1.0	73.0	3.0																													a	1.0	None	0.0		1.0	invertedtrianglecyan.gif	go								0.6678678989410001																								1.13	0.514112949371	0.0010049343109099999	0.667867898941	1.0	a	760.126250982																																								2015_Jun_25_1032	59.7564325402	LearningTask	1	66	
198	-200.0	q	200.0																	1.0	0.0	1.0	0.0	18.0	2.0	74.0	1.0																													q	1.0	None	0.0		4.0	circleblue.gif	go								0.734531879425																								4.16	0.5142138004300001	0.00102400779724	0.734531879425	1.0	q	763.1296260360001																																								2015_Jun_25_1032	59.7564325402	LearningTask	1	66	
199	-200.0	a	-200.0																	1.0	0.0	1.0	0.0	18.0	3.0	75.0	3.0																													a	1.0	None	0.0		2.0	crossgray.gif	stop								0.484286785126																								0.0	0.514287948608	0.0010621547699	0.484286785126	1.0	a	766.13300395																																								2015_Jun_25_1032	59.7564325402	LearningTask	1	66	
200	-200.0	a	-200.0																	1.0	0.0	1.0	0.0	19.0	0.0	76.0	3.0																													a	1.0	None	0.0		0.5	hexagonwhite.gif	go								0.5009138584139999																								0.73	0.5142691135409999	0.000907897949219	0.500913858414	1.0	a	769.136552095																																								2015_Jun_25_1032	59.7564325402	LearningTask	1	66	
201	-200.0	a	-200.0																	1.0	0.0	1.0	0.0	19.0	1.0	77.0	3.0																													a	1.0	None	0.0		2.0	crossgray.gif	stop								0.43407106399499995																								0.0	0.514049053192	0.000970125198364	0.434071063995	1.0	a	772.139673948																																								2015_Jun_25_1032	59.7564325402	LearningTask	1	66	
202	200.0	s	-200.0																	1.0	0.0	1.0	0.0	19.0	2.0	78.0	2.0																													s	1.0	None	0.0		4.0	circleblue.gif	go								0.534473180771																								0.0	0.514344930649	0.0008950233459470001	0.534473180771	1.0	s	775.143507957																																								2015_Jun_25_1032	59.7564325402	LearningTask	1	66	
203	-200.0	q	200.0																	1.0	0.0	1.0	0.0	19.0	3.0	79.0	1.0																													q	1.0	None	0.0		2.0	crossgray.gif	stop								0.384265184402																								2.04	0.5141191482540001	0.0008790493011469999	0.384265184402	1.0	q	778.146713018																																								2015_Jun_25_1032	59.7564325402	LearningTask	1	66	
204	-200.0	q	200.0																	1.0	0.0	1.0	0.0	20.0	0.0	80.0	1.0																													q	1.0	None	0.0		4.0	lineyellow.gif	stop								0.38462185859700004																								4.16	0.514073848724	0.0008749961853029999	0.384621858597	1.0	q	781.149934053																																								2015_Jun_25_1032	59.7564325402	LearningTask	1	66	
205	200.0	s	-200.0																	1.0	0.0	1.0	0.0	20.0	1.0	81.0	2.0																													s	1.0	None	0.0		4.0	lineyellow.gif	stop								0.484224081039																								4.1	0.51437497139	0.0008821487426760002	0.484224081039	1.0	s	784.15331912																																								2015_Jun_25_1032	59.7564325402	LearningTask	1	66	
206	-200.0	a	-200.0																	1.0	0.0	1.0	0.0	20.0	2.0	82.0	3.0																													a	1.0	None	0.0		0.5	squaremagenta.gif	stop								0.584192037582																								0.0	0.514302015305	0.0008780956268310002	0.584192037582	1.0	a	787.156494141																																								2015_Jun_25_1032	59.7564325402	LearningTask	1	66	
207	200.0	w	200.0																	1.0	0.0	1.0	0.0	20.0	3.0	83.0	0.0																													w	1.0	None	0.0		4.0	circleblue.gif	go								0.36724519729599997																								4.25	0.514482975006	0.0008919239044189998	0.367245197296	1.0	w	790.1602211000001																																								2015_Jun_25_1032	59.7564325402	LearningTask	1	66	
208	200.0	w	200.0																	1.0	0.0	1.0	0.0	21.0	0.0	84.0	0.0																													w	1.0	None	0.0		4.0	lineyellow.gif	stop								0.3674659729																								3.88	0.5140068531040001	0.0010600090026900001	0.3674659729	1.0	w	793.1635470389999																																								2015_Jun_25_1032	59.7564325402	LearningTask	1	66	
209	200.0	s	-200.0																	1.0	0.0	1.0	0.0	21.0	1.0	85.0	2.0																													s	1.0	None	0.0		1.0	triangleorange.gif	stop								0.45099210739100004																								0.78	0.5141630172730001	0.00088095664978	0.450992107391	1.0	s	796.166729927																																								2015_Jun_25_1032	59.7564325402	LearningTask	1	66	
210	200.0	s	-200.0																	1.0	0.0	1.0	0.0	21.0	2.0	86.0	2.0																													s	1.0	None	0.0		1.0	triangleorange.gif	stop								0.53465294838																								0.79	0.51433801651	0.0009119510650630002	0.53465294838	1.0	s	799.1700680260001																																								2015_Jun_25_1032	59.7564325402	LearningTask	1	66	
211	200.0	w	200.0																	1.0	0.0	1.0	0.0	21.0	3.0	87.0	0.0																													w	1.0	None	0.0		1.0	invertedtrianglecyan.gif	go								0.317899942398																								1.03	0.514261960983	0.0009140968322749999	0.317899942398	1.0	w	802.17364502																																								2015_Jun_25_1032	59.7564325402	LearningTask	1	66	
212	-200.0	a	-200.0																	1.0	0.0	1.0	0.0	22.0	0.0	88.0	3.0																													a	1.0	None	0.0		2.0	diamondgreen.gif	go								0.43429398536700003																								0.0	0.514312982559	0.000885009765625	0.434293985367	1.0	a	805.1770989889999																																								2015_Jun_25_1032	59.7564325402	LearningTask	1	66	
213	-200.0	q	200.0																	1.0	0.0	1.0	0.0	22.0	1.0	89.0	1.0																													q	1.0	None	0.0		1.0	triangleorange.gif	stop								0.301321029663																								1.03	0.513576984406	0.0008838176727290001	0.301321029663	1.0	q	808.180182934																																								2015_Jun_25_1032	59.7564325402	LearningTask	1	66	
214	200.0	s	-200.0																	1.0	0.0	1.0	0.0	22.0	2.0	90.0	2.0																													s	1.0	None	0.0		4.0	lineyellow.gif	stop								0.5509121418																								3.83	0.514202833176	0.0008919239044189998	0.5509121418	1.0	s	811.183658123																																								2015_Jun_25_1032	59.7564325402	LearningTask	1	66	
215	-200.0	q	200.0																	1.0	0.0	1.0	0.0	22.0	3.0	91.0	1.0																													q	1.0	None	0.0		0.5	squaremagenta.gif	stop								0.40073394775399995																								0.66	0.51432800293	0.0008940696716310001	0.400733947754	1.0	q	814.1870400910001																																								2015_Jun_25_1032	59.7564325402	LearningTask	1	66	
216	200.0	w	200.0																	1.0	0.0	1.0	0.0	23.0	0.0	92.0	0.0																													w	1.0	None	0.0		1.0	invertedtrianglecyan.gif	go								0.367864847183																								0.99	0.514074087143	0.0008790493011469999	0.367864847183	1.0	w	817.190758944																																								2015_Jun_25_1032	59.7564325402	LearningTask	1	66	
217	-200.0	a	-200.0																	1.0	0.0	1.0	0.0	23.0	1.0	93.0	3.0																													a	1.0	None	0.0		0.5	squaremagenta.gif	stop								0.384302854538																								0.33	0.513703107834	0.00088095664978	0.384302854538	1.0	a	820.193751097																																								2015_Jun_25_1032	59.7564325402	LearningTask	1	66	
218	200.0	w	200.0																	1.0	0.0	1.0	0.0	23.0	2.0	94.0	0.0																													w	1.0	None	0.0		4.0	lineyellow.gif	stop								0.300904035568																								3.75	0.5143561363220001	0.00088095664978	0.300904035568	1.0	w	823.197191																																								2015_Jun_25_1032	59.7564325402	LearningTask	1	66	
219	200.0	s	-200.0																	1.0	0.0	1.0	0.0	23.0	3.0	95.0	2.0																													s	1.0	None	0.0		0.5	squaremagenta.gif	stop								0.38388705253600003																								0.0	0.5143048763279999	0.000877857208252	0.383887052536	1.0	s	826.20059514																																								2015_Jun_25_1032	59.7564325402	LearningTask	1	66	
220	200.0	s	-200.0																	1.0	0.0	1.0	0.0	24.0	0.0	96.0	2.0																													s	1.0	None	0.0		0.5	hexagonwhite.gif	go								0.38436603546099996																								0.42	0.514072179794	0.0009250640869139999	0.384366035461	1.0	s	829.2037711139999																																								2015_Jun_25_1032	59.7564325402	LearningTask	1	66	
221	-200.0	q	200.0																	1.0	0.0	1.0	0.0	24.0	1.0	97.0	1.0																													q	1.0	None	0.0		1.0	triangleorange.gif	stop								0.384021043777																								1.02	0.514469861984	0.0010077953338599999	0.384021043777	1.0	q	832.20779109																																								2015_Jun_25_1032	59.7564325402	LearningTask	1	66	
222	200.0	s	-200.0																	1.0	0.0	1.0	0.0	24.0	2.0	98.0	2.0																													s	1.0	None	0.0		1.0	invertedtrianglecyan.gif	go								0.551093101501																								1.0	0.513658046722	0.000885009765625	0.551093101501	1.0	s	835.2106659410001																																								2015_Jun_25_1032	59.7564325402	LearningTask	1	66	
223	-200.0	q	200.0																	1.0	0.0	1.0	0.0	24.0	3.0	99.0	1.0																													q	1.0	None	0.0		4.0	circleblue.gif	go								0.317540884018																								3.96	0.514310121536	0.0009191036224369998	0.317540884018	1.0	q	838.214045048																																								2015_Jun_25_1032	59.7564325402	LearningTask	1	66	
224																				1.0	0.0	1.0	0.0																																																																																						9.0	1.37503314018																															2015_Jun_25_1032	59.7564325402	LearningTask	1	66	
225	200.0	s	-200.0																	2.0	0.0	2.0	0.0	0.0	0.0	0.0	2.0																													s	1.0	None	0.0		1.0	invertedtrianglecyan.gif	go								0.401162147522																								1.24	0.510092020035	0.000880002975464	0.401162147522	1.0	s	843.303529978																																								2015_Jun_25_1032	59.7564325402	LearningTask	1	66	
226	200.0	s	-200.0																	2.0	0.0	2.0	0.0	0.0	1.0	1.0	2.0																													s	1.0	None	0.0		4.0	circleblue.gif	go								0.350549221039																								0.0	0.51358795166	0.0009319782257080001	0.350549221039	1.0	s	846.3065850730001																																								2015_Jun_25_1032	59.7564325402	LearningTask	1	66	
227	200.0	s	-200.0																	2.0	0.0	2.0	0.0	0.0	2.0	2.0	2.0																													s	1.0	None	0.0		2.0	diamondgreen.gif	go								0.534354925156																								0.0	0.514300107956	0.0008790493011469999	0.534354925156	1.0	s	849.3097951410001																																								2015_Jun_25_1032	59.7564325402	LearningTask	1	66	
228	-200.0	a	-200.0																	2.0	0.0	2.0	0.0	0.0	3.0	3.0	3.0																													a	1.0	None	0.0		4.0	circleblue.gif	go								0.45080304145800004																								4.11	0.514316082001	0.000880002975464	0.450803041458	1.0	a	852.31367898																																								2015_Jun_25_1032	59.7564325402	LearningTask	1	66	
229	-200.0	a	-200.0																	2.0	0.0	2.0	0.0	1.0	0.0	4.0	3.0																													a	1.0	None	0.0		4.0	lineyellow.gif	stop								0.417924165726																								4.15	0.513371944427	0.00092601776123	0.417924165726	1.0	a	855.31673193																																								2015_Jun_25_1032	59.7564325402	LearningTask	1	66	
230	-200.0	q	200.0																	2.0	0.0	2.0	0.0	1.0	1.0	5.0	1.0																													q	1.0	None	0.0		4.0	circleblue.gif	go								0.350941896439																								0.0	0.514085054398	0.0008759498596189999	0.350941896439	1.0	q	858.320173025																																								2015_Jun_25_1032	59.7564325402	LearningTask	1	66	
231	-200.0	a	-200.0																	2.0	0.0	2.0	0.0	1.0	2.0	6.0	3.0																													a	1.0	None	0.0		2.0	diamondgreen.gif	go								0.35070681571999995																								1.83	0.51411485672	0.0008790493011469999	0.35070681572	1.0	a	861.32347703																																								2015_Jun_25_1032	59.7564325402	LearningTask	1	66	
232	-200.0	a	-200.0																	2.0	0.0	2.0	0.0	1.0	3.0	7.0	3.0																													a	1.0	None	0.0		2.0	crossgray.gif	stop								0.40073800087																								1.87	0.514225006104	0.0008859634399410001	0.40073800087	1.0	a	864.326604128																																								2015_Jun_25_1032	59.7564325402	LearningTask	1	66	
233	-200.0	q	200.0																	2.0	0.0	2.0	0.0	2.0	0.0	8.0	1.0																													q	1.0	None	0.0		0.5	squaremagenta.gif	stop								0.38400888443000003																								0.38	0.514312982559	0.000941038131714	0.38400888443	1.0	q	867.329967976																																								2015_Jun_25_1032	59.7564325402	LearningTask	1	66	
234	200.0	w	200.0																	2.0	0.0	2.0	0.0	2.0	1.0	9.0	0.0																													w	1.0	None	0.0		1.0	invertedtrianglecyan.gif	go								0.300502061844																								0.83	0.514724969864	0.00088095664978	0.300502061844	1.0	w	870.3337109089999																																								2015_Jun_25_1032	59.7564325402	LearningTask	1	66	
235	200.0	w	200.0																	2.0	0.0	2.0	0.0	2.0	2.0	10.0	0.0																													w	1.0	None	0.0		1.0	triangleorange.gif	stop								0.384301900864																								1.14	0.51397895813	0.000880002975464	0.384301900864	1.0	w	873.336748123																																								2015_Jun_25_1032	59.7564325402	LearningTask	1	66	
236	200.0	w	200.0																	2.0	0.0	2.0	0.0	2.0	3.0	11.0	0.0																													w	1.0	None	0.0		1.0	triangleorange.gif	stop								0.383915901184																								0.78	0.5146961212160001	0.00113010406494	0.383915901184	1.0	w	876.340199947																																								2015_Jun_25_1032	59.7564325402	LearningTask	1	66	
237	-200.0	a	-200.0																	2.0	0.0	2.0	0.0	3.0	0.0	12.0	3.0																													a	1.0	None	0.0		0.5	squaremagenta.gif	stop								0.43419098854099997																								0.32	0.514378070831	0.00087308883667	0.434190988541	1.0	a	879.3436920639999																																								2015_Jun_25_1032	59.7564325402	LearningTask	1	66	
238	200.0	s	-200.0																	2.0	0.0	2.0	0.0	3.0	1.0	13.0	2.0																													s	1.0	None	0.0		0.5	hexagonwhite.gif	go								0.36723589897200004																								0.6	0.513805866241	0.000931024551392	0.367235898972	1.0	s	882.347140074																																								2015_Jun_25_1032	59.7564325402	LearningTask	1	66	
239	-200.0	a	-200.0																	2.0	0.0	2.0	0.0	3.0	2.0	14.0	3.0																													a	1.0	None	0.0		1.0	triangleorange.gif	stop								0.401098966599																								0.92	0.513675928116	0.0009250640869139999	0.401098966599	1.0	a	885.350497007																																								2015_Jun_25_1032	59.7564325402	LearningTask	1	66	
240	-200.0	q	200.0																	2.0	0.0	2.0	0.0	3.0	3.0	15.0	1.0																													q	1.0	None	0.0		0.5	hexagonwhite.gif	go								0.367879152298																								0.62	0.513822078705	0.0009591579437260001	0.367879152298	1.0	q	888.353699923																																								2015_Jun_25_1032	59.7564325402	LearningTask	1	66	
241	200.0	w	200.0																	2.0	0.0	2.0	0.0	4.0	0.0	16.0	0.0																													w	1.0	None	0.0		0.5	squaremagenta.gif	stop								0.367892980576																								0.62	0.514440059662	0.0008740425109860002	0.367892980576	1.0	w	891.357302904																																								2015_Jun_25_1032	59.7564325402	LearningTask	1	66	
242	200.0	s	-200.0																	2.0	0.0	2.0	0.0	4.0	1.0	17.0	2.0																													s	1.0	None	0.0		4.0	circleblue.gif	go								0.384771108627																								3.86	0.513762950897	0.0009100437164310001	0.384771108627	1.0	s	894.3604791160001																																								2015_Jun_25_1032	59.7564325402	LearningTask	1	66	
243	200.0	s	-200.0																	2.0	0.0	2.0	0.0	4.0	2.0	18.0	2.0																													s	1.0	None	0.0		4.0	lineyellow.gif	stop								0.401237010956																								4.1	0.514267921448	0.0008749961853029999	0.401237010956	1.0	s	897.363734007																																								2015_Jun_25_1032	59.7564325402	LearningTask	1	66	
244	200.0	s	-200.0																	2.0	0.0	2.0	0.0	4.0	3.0	19.0	2.0																													s	1.0	None	0.0		4.0	circleblue.gif	go								0.401210069656																								3.8	0.514137983322	0.000951051712036	0.401210069656	1.0	s	900.36798811																																								2015_Jun_25_1032	59.7564325402	LearningTask	1	66	
245	200.0	s	-200.0																	2.0	0.0	2.0	0.0	5.0	0.0	20.0	2.0																													s	1.0	None	0.0		0.5	squaremagenta.gif	stop								0.400720834732																								0.73	0.5136899948120001	0.0008759498596189999	0.400720834732	1.0	s	903.370656967																																								2015_Jun_25_1032	59.7564325402	LearningTask	1	66	
246	-200.0	q	200.0																	2.0	0.0	2.0	0.0	5.0	1.0	21.0	1.0																													q	1.0	None	0.0		1.0	triangleorange.gif	stop								0.36729001998899996																								1.11	0.5142509937290001	0.0009248256683350001	0.367290019989	1.0	q	906.3738789560001																																								2015_Jun_25_1032	59.7564325402	LearningTask	1	66	
247	-200.0	q	200.0																	2.0	0.0	2.0	0.0	5.0	2.0	22.0	1.0																													q	1.0	None	0.0		4.0	lineyellow.gif	stop								0.41760492324799997																								3.97	0.5144741535189999	0.0009250640869139999	0.417604923248	1.0	q	909.3775069710001																																								2015_Jun_25_1032	59.7564325402	LearningTask	1	66	
248	-200.0	q	200.0																	2.0	0.0	2.0	0.0	5.0	3.0	23.0	1.0																													q	1.0	None	0.0		4.0	lineyellow.gif	stop								0.450942993164																								0.0	0.514037132263	0.000877141952515	0.450942993164	1.0	q	912.3806650639999																																								2015_Jun_25_1032	59.7564325402	LearningTask	1	66	
249	200.0	w	200.0																	2.0	0.0	2.0	0.0	6.0	0.0	24.0	0.0																													w	1.0	None	0.0		4.0	circleblue.gif	go								0.384155988693																								4.12	0.514403104782	0.00100421905518	0.384155988693	1.0	w	915.383844137																																								2015_Jun_25_1032	59.7564325402	LearningTask	1	66	
250	200.0	w	200.0																	2.0	0.0	2.0	0.0	6.0	1.0	25.0	0.0																													w	1.0	None	0.0		0.5	hexagonwhite.gif	go								0.31765794754																								0.37	0.514811992645	0.0008840560913089999	0.31765794754	1.0	w	918.3876409530001																																								2015_Jun_25_1032	59.7564325402	LearningTask	1	66	
251	200.0	s	-200.0																	2.0	0.0	2.0	0.0	6.0	2.0	26.0	2.0																													s	1.0	None	0.0		2.0	diamondgreen.gif	go								0.45092201232900003																								2.13	0.514267921448	0.0008840560913089999	0.450922012329	1.0	s	921.3908529280001																																								2015_Jun_25_1032	59.7564325402	LearningTask	1	66	
252	-200.0	q	200.0																	2.0	0.0	2.0	0.0	6.0	3.0	27.0	1.0																													q	1.0	None	0.0		0.5	squaremagenta.gif	stop								0.400198936462																								0.73	0.514521121979	0.00098705291748	0.400198936462	1.0	q	924.3940351010001																																								2015_Jun_25_1032	59.7564325402	LearningTask	1	66	
253	-200.0	a	-200.0																	2.0	0.0	2.0	0.0	7.0	0.0	28.0	3.0																													a	1.0	None	0.0		1.0	triangleorange.gif	stop								0.551045894623																								0.76	0.514594078064	0.0008769035339360002	0.551045894623	1.0	a	927.3975551130001																																								2015_Jun_25_1032	59.7564325402	LearningTask	1	66	
254	200.0	w	200.0																	2.0	0.0	2.0	0.0	7.0	1.0	29.0	0.0																													w	1.0	None	0.0		0.5	squaremagenta.gif	stop								0.367640972137																								0.26	0.51433801651	0.0009369850158689999	0.367640972137	1.0	w	930.401180983																																								2015_Jun_25_1032	59.7564325402	LearningTask	1	66	
255	-200.0	q	200.0																	2.0	0.0	2.0	0.0	7.0	2.0	30.0	1.0																													q	1.0	None	0.0		1.0	triangleorange.gif	stop								0.30055809020999996																								1.19	0.5140249729159999	0.000926971435547	0.30055809021	1.0	q	933.40447998																																								2015_Jun_25_1032	59.7564325402	LearningTask	1	66	
256	-200.0	a	-200.0																	2.0	0.0	2.0	0.0	7.0	3.0	31.0	3.0																													a	1.0	None	0.0		4.0	lineyellow.gif	stop								0.41761493682899997																								3.86	0.514144182205	0.0009150505065920001	0.417614936829	1.0	a	936.407752037																																								2015_Jun_25_1032	59.7564325402	LearningTask	1	66	
257	-200.0	q	200.0																	2.0	0.0	2.0	0.0	8.0	0.0	32.0	1.0																													q	1.0	None	0.0		1.0	triangleorange.gif	stop								0.3176009655																								1.01	0.514290094376	0.0008790493011469999	0.3176009655	1.0	q	939.411381006																																								2015_Jun_25_1032	59.7564325402	LearningTask	1	66	
258	200.0	s	-200.0																	2.0	0.0	2.0	0.0	8.0	1.0	33.0	2.0																													s	1.0	None	0.0		2.0	diamondgreen.gif	go								0.367767810822																								2.03	0.513680934906	0.0008959770202639998	0.367767810822	1.0	s	942.414586067																																								2015_Jun_25_1032	59.7564325402	LearningTask	1	66	
259	200.0	s	-200.0																	2.0	0.0	2.0	0.0	8.0	2.0	34.0	2.0																													s	1.0	None	0.0		0.5	hexagonwhite.gif	go								0.418065071106																								0.0	0.514158010483	0.000882863998413	0.418065071106	1.0	s	945.417881012																																								2015_Jun_25_1032	59.7564325402	LearningTask	1	66	
260	-200.0	a	-200.0																	2.0	0.0	2.0	0.0	8.0	3.0	35.0	3.0																													a	1.0	None	0.0		0.5	squaremagenta.gif	stop								0.5182039737699999																								0.35	0.514168024063	0.0008728504180910001	0.51820397377	1.0	a	948.4218249319999																																								2015_Jun_25_1032	59.7564325402	LearningTask	1	66	
261	-200.0	a	-200.0																	2.0	0.0	2.0	0.0	9.0	0.0	36.0	3.0																													a	1.0	None	0.0		0.5	squaremagenta.gif	stop								0.500899791718																								0.34	0.51374578476	0.000926971435547	0.500899791718	1.0	a	951.424610138																																								2015_Jun_25_1032	59.7564325402	LearningTask	1	66	
262	200.0	s	-200.0																	2.0	0.0	2.0	0.0	9.0	1.0	37.0	2.0																													s	1.0	None	0.0		4.0	circleblue.gif	go								0.40109705924999994																								0.0	0.5143430233	0.000880002975464	0.40109705925	1.0	s	954.427859068																																								2015_Jun_25_1032	59.7564325402	LearningTask	1	66	
263	-200.0	q	200.0																	2.0	0.0	2.0	0.0	9.0	2.0	38.0	1.0																													q	1.0	None	0.0		0.5	squaremagenta.gif	stop								0.467697143555																								0.68	0.51444196701	0.0008790493011469999	0.467697143555	1.0	q	957.431474924																																								2015_Jun_25_1032	59.7564325402	LearningTask	1	66	
264	-200.0	q	200.0																	2.0	0.0	2.0	0.0	9.0	3.0	39.0	1.0																													q	1.0	None	0.0		1.0	invertedtrianglecyan.gif	go								0.434552907944																								1.1	0.5142819881440001	0.00088095664978	0.434552907944	1.0	q	960.434818029																																								2015_Jun_25_1032	59.7564325402	LearningTask	1	66	
265	200.0	w	200.0																	2.0	0.0	2.0	0.0	10.0	0.0	40.0	0.0																													w	1.0	None	0.0		0.5	squaremagenta.gif	stop								0.384308099747																								0.0	0.5138700008389999	0.00113105773926	0.384308099747	1.0	w	963.43829608																																								2015_Jun_25_1032	59.7564325402	LearningTask	1	66	
266	200.0	w	200.0																	2.0	0.0	2.0	0.0	10.0	1.0	41.0	0.0																													w	1.0	None	0.0		2.0	crossgray.gif	stop								0.450896978378																								0.0	0.514139175415	0.0008840560913089999	0.450896978378	1.0	w	966.441643																																								2015_Jun_25_1032	59.7564325402	LearningTask	1	66	
267	200.0	w	200.0																	2.0	0.0	2.0	0.0	10.0	2.0	42.0	0.0																													w	1.0	None	0.0		1.0	invertedtrianglecyan.gif	go								0.450723171234																								0.82	0.513964891434	0.0008869171142580001	0.450723171234	1.0	w	969.444888115																																								2015_Jun_25_1032	59.7564325402	LearningTask	1	66	
268	-200.0	q	200.0																	2.0	0.0	2.0	0.0	10.0	3.0	43.0	1.0																													q	1.0	None	0.0		4.0	lineyellow.gif	stop								0.45102691650399995																								4.24	0.513948917389	0.0009398460388180001	0.451026916504	1.0	q	972.448626995																																								2015_Jun_25_1032	59.7564325402	LearningTask	1	66	
269	200.0	w	200.0																	2.0	0.0	2.0	0.0	11.0	0.0	44.0	0.0																													w	1.0	None	0.0		2.0	crossgray.gif	stop								0.33457493782																								2.23	0.513775110245	0.000877141952515	0.33457493782	1.0	w	975.451780081																																								2015_Jun_25_1032	59.7564325402	LearningTask	1	66	
270	-200.0	a	-200.0																	2.0	0.0	2.0	0.0	11.0	1.0	45.0	3.0																													a	1.0	None	0.0		1.0	invertedtrianglecyan.gif	go								0.550863981247																								0.99	0.514321088791	0.000885009765625	0.550863981247	1.0	a	978.455003023																																								2015_Jun_25_1032	59.7564325402	LearningTask	1	66	
271	200.0	s	-200.0																	2.0	0.0	2.0	0.0	11.0	2.0	46.0	2.0																													s	1.0	None	0.0		0.5	hexagonwhite.gif	go								0.417439937592																								0.36	0.514095067978	0.0009360313415529999	0.417439937592	1.0	s	981.45837903																																								2015_Jun_25_1032	59.7564325402	LearningTask	1	66	
272	200.0	s	-200.0																	2.0	0.0	2.0	0.0	11.0	3.0	47.0	2.0																													s	1.0	None	0.0		4.0	lineyellow.gif	stop								0.384305953979																								4.13	0.514437913895	0.0008769035339360002	0.384305953979	1.0	s	984.4619889260001																																								2015_Jun_25_1032	59.7564325402	LearningTask	1	66	
273	-200.0	q	200.0																	2.0	0.0	2.0	0.0	12.0	0.0	48.0	1.0																													q	1.0	None	0.0		0.5	squaremagenta.gif	stop								0.935082912445																								0.38	0.514060974121	0.0008749961853029999	0.935082912445	1.0	q	987.4661180969999																																								2015_Jun_25_1032	59.7564325402	LearningTask	1	66	
274	200.0	w	200.0																	2.0	0.0	2.0	0.0	12.0	1.0	49.0	0.0																													w	1.0	None	0.0		4.0	circleblue.gif	go								0.634174108505																								4.21	0.5136020183560001	0.00089693069458	0.634174108505	1.0	w	990.468500137																																								2015_Jun_25_1032	59.7564325402	LearningTask	1	66	
275	-200.0	q	200.0																	2.0	0.0	2.0	0.0	12.0	2.0	50.0	1.0																													q	1.0	None	0.0		2.0	crossgray.gif	stop								0.567665815353																								2.25	0.514230966568	0.0008821487426760002	0.567665815353	1.0	q	993.4719519619999																																								2015_Jun_25_1032	59.7564325402	LearningTask	1	66	
276	-200.0	a	-200.0																	2.0	0.0	2.0	0.0	12.0	3.0	51.0	3.0																													a	1.0	None	0.0		2.0	crossgray.gif	stop								0.467601060867																								1.81	0.514199018478	0.00088095664978	0.467601060867	1.0	a	996.4755630489999																																								2015_Jun_25_1032	59.7564325402	LearningTask	1	66	
277	200.0	s	-200.0																	2.0	0.0	2.0	0.0	13.0	0.0	52.0	2.0																													s	1.0	None	0.0		4.0	circleblue.gif	go								0.417959928513																								3.88	0.5140299797060001	0.000881910324097	0.417959928513	1.0	s	999.4785411360001																																								2015_Jun_25_1032	59.7564325402	LearningTask	1	66	
278	200.0	w	200.0																	2.0	0.0	2.0	0.0	13.0	1.0	53.0	0.0																													w	1.0	None	0.0		2.0	crossgray.gif	stop								0.35099482536300003																								2.07	0.514396190643	0.0009241104125980002	0.350994825363	1.0	w	1002.48235297																																								2015_Jun_25_1032	59.7564325402	LearningTask	1	66	
279	-200.0	q	200.0																	2.0	0.0	2.0	0.0	13.0	2.0	54.0	1.0																													q	1.0	None	0.0		1.0	invertedtrianglecyan.gif	go								0.434267044067																								0.75	0.5139260292050001	0.00092601776123	0.434267044067	1.0	q	1005.48555899																																								2015_Jun_25_1032	59.7564325402	LearningTask	1	66	
