	xPos	corrAns	yPos	corrGoResp	yPosGoStim	xPosGoStim	pracTrials.thisRepN	pracTrials.thisTrialN	pracTrials.thisN	pracTrials.thisIndex	ReDoLoopPrac.thisRepN	ReDoLoopPrac.thisTrialN	ReDoLoopPrac.thisN	ReDoLoopPrac.thisIndex	ReDoLoopPrac.thisTrial	pracStopTrials.thisRepN	pracStopTrials.thisTrialN	pracStopTrials.thisN	pracStopTrials.thisIndex	Blocks.thisRepN	Blocks.thisTrialN	Blocks.thisN	Blocks.thisIndex	trials.thisRepN	trials.thisTrialN	trials.thisN	trials.thisIndex	ReDoLoopMain.thisRepN	ReDoLoopMain.thisTrialN	ReDoLoopMain.thisN	ReDoLoopMain.thisIndex	ReDoLoopMain.thisTrial	StopBlocks.thisRepN	StopBlocks.thisTrialN	StopBlocks.thisN	StopBlocks.thisIndex	StopTrials.thisRepN	StopTrials.thisTrialN	StopTrials.thisN	StopTrials.thisIndex	auctionBlocks.thisRepN	auctionBlocks.thisTrialN	auctionBlocks.thisN	auctionBlocks.thisIndex	auctionTrials.thisRepN	auctionTrials.thisTrialN	auctionTrials.thisN	auctionTrials.thisIndex	learningTrialList	learningPracTrialList	stopTrialList	stopPracTrialList	auctionTrialList	ok1.keys	ok1.rt	resp.keys	resp.corr	resp.rt	feedbackResp.keys	feedbackResp.corr	currentReward	currentStimulus	currentStimType	firstPracComputedRewardOutput	firstPracLearningStimOnset	firstPracLearningFixOnset	firstPracPresentationRT	firstPracPresentationAcc	firstPracPresentationResp	firstPracEndTrialTimeStamp	StartTrialTimeStamp	trialType	goStim	stimType	stopStimValue	goResp.keys	goResp.corr	goResp.rt	key_resp_9.keys	key_resp_9.corr	fixStopOnset	goStimOnset	stopSignalOnset	EndTrialTimeStamp	key_resp_3.keys	key_resp_3.rt	firstComputedRewardOutput	firstLearningStimOnset	firstLearningFixOnset	firstPresentationRT	firstPresentationAcc	firstPresentationResp	firstEndTrialTimeStamp	key_resp_7.keys	key_resp_7.rt	feedbackResp.rt	secondComputedRewardOutput	secondLearningStimOnset	secondLearningFixOnset	secondPresentationRT	secondPresentationAcc	secondPresentationResp	secondEndTrialTimeStamp	beginningSSD	EndingSSD	key_resp_4.keys	key_resp_4.rt	auctionResponse.keys	auctionResponse.rt	auctionStimDuration	auctionStim	auctionAmounts	auctionStimValue	auctionCondition	chosenAuctionAmount	key_resp_5.keys	key_resp_5.rt	shuffledRewardList	chosenReward1	chosenReward2	chosenReward3	chosenReward4	chosenReward5	key_resp_6.keys	key_resp_6.rt	date	frameRate	expName	session	participant	Unnamed: 130
0																																																	[]	[]	[]	[]	[]	9.0	45.527287960100004																																																																							2015_Jun_24_1125	59.9516876449	LearningTask	1	63	
1	200.0	s	-200.0				0.0	0.0	0.0	2.0																																														s	1.0	0.6344509124759999	None	0.0	1.0	crossblue.gif	go	1.19	0.508907079697	0.0165820121765	0.6344509124759999	1.0	s	85.5009899139																																																								2015_Jun_24_1125	59.9516876449	LearningTask	1	63	
2	-200.0	a	-200.0				0.0	1.0	1.0	7.0																																														a	1.0	0.401067972183	None	0.0	2.0	circlecyan.gif	go	0.0	0.514940977097	0.00135087966919	0.401067972183	1.0	a	88.5041348934																																																								2015_Jun_24_1125	59.9516876449	LearningTask	1	63	
3	-200.0	a	-200.0				0.0	2.0	2.0	3.0																																														a	1.0	0.400760889053	None	0.0	1.0	crossblue.gif	go	0.0	0.515196084976	0.0009150505065920001	0.400760889053	1.0	a	91.507322073																																																								2015_Jun_24_1125	59.9516876449	LearningTask	1	63	
4	200.0	w	200.0				0.0	3.0	3.0	0.0																																														w	1.0	0.517951965332	None	0.0	0.5	diamondwhite.gif	go	0.0	0.515114068985	0.00142002105713	0.517951965332	1.0	w	94.5109479427																																																								2015_Jun_24_1125	59.9516876449	LearningTask	1	63	
5	200.0	w	200.0				0.0	4.0	4.0	4.0																																														w	1.0	0.46785902977	None	0.0	4.0	lineorange.gif	go	4.12	0.5151469707490001	0.00131583213806	0.46785902977	1.0	w	97.51412296299999																																																								2015_Jun_24_1125	59.9516876449	LearningTask	1	63	
6	200.0	s	-200.0				0.0	5.0	5.0	6.0																																														s	1.0	0.484185934067	None	0.0	1.0	trianglegreen.gif	stop	1.18	0.515204191208	0.0012891292572	0.484185934067	1.0	s	100.517373085																																																								2015_Jun_24_1125	59.9516876449	LearningTask	1	63	
7	-200.0	q	200.0				0.0	6.0	6.0	9.0																																														q	1.0	0.40086793899499995	None	0.0	2.0	invertedtriangleyellow.gif	stop	1.95	0.5151450634	0.0018420219421400002	0.40086793899499995	1.0	q	103.520752907																																																								2015_Jun_24_1125	59.9516876449	LearningTask	1	63	
8	200.0	w	200.0				0.0	7.0	7.0	8.0																																														w	1.0	0.417367935181	None	0.0	4.0	lineorange.gif	go	3.76	0.515306949615	0.0008978843688960001	0.417367935181	1.0	w	106.524252892																																																								2015_Jun_24_1125	59.9516876449	LearningTask	1	63	
9	-200.0	q	200.0				0.0	8.0	8.0	5.0																																														q	1.0	0.41770505905199995	None	0.0	0.5	hexagongray.gif	stop	0.31	0.515153884888	0.00130796432495	0.41770505905199995	1.0	q	109.52763509799999																																																								2015_Jun_24_1125	59.9516876449	LearningTask	1	63	
10	-200.0	q	200.0				0.0	9.0	9.0	1.0																																														q	1.0	0.417237997055	None	0.0	2.0	invertedtriangleyellow.gif	stop	1.98	0.51535320282	0.000970125198364	0.417237997055	1.0	q	112.531053066																																																								2015_Jun_24_1125	59.9516876449	LearningTask	1	63	
11				m	0.0	200.0										0.0	0.0	0.0	1.0																																																				182.752227068	stop	hexagongray.gif	stop	0.5	m	1.0	0.501021146774	None	0.0	0.00139689445496	0.5062980651860001	0.7565078735349999	185.74688506099997																																										2015_Jun_24_1125	59.9516876449	LearningTask	1	63	
12				z	0.0	-200.0										0.0	1.0	1.0	0.0																																																				185.747278929	stop	squaremagenta.gif	stop	4.0	z	1.0	0.334286928177	None	0.0	0.0013928413391099998	0.514993906021	0.76539683342	188.749483109																																										2015_Jun_24_1125	59.9516876449	LearningTask	1	63	
13				z	0.0	-200.0										1.0	0.0	2.0	0.0																																																				188.749841928	go	crossblue.gif	go	1.0	z	1.0	0.41774106025700003	None	0.0	0.0009338855743410001	0.516052007675		191.753113985																																										2015_Jun_24_1125	59.9516876449	LearningTask	1	63	
14				m	0.0	200.0										1.0	1.0	3.0	1.0																																																				191.75355100599998	go	crossblue.gif	go	1.0	m	1.0	0.43440103530900004	None	0.0	0.0009400844573969999	0.5157020092010001		194.75641202900002																																										2015_Jun_24_1125	59.9516876449	LearningTask	1	63	
15				z	0.0	-200.0										2.0	0.0	4.0	0.0																																																				194.756771088	stop	squaremagenta.gif	stop	4.0	None	0.0		None	0.0	0.00122499465942	0.515765190125	0.7662169933319999	197.759929895																																										2015_Jun_24_1125	59.9516876449	LearningTask	1	63	
16				z	0.0	-200.0										2.0	1.0	5.0	0.0																																																				197.760335922	go	lineorange.gif	go	4.0	z	1.0	0.617627859116	None	0.0	0.0009441375732419999	0.515679121017		200.76333999599998																																										2015_Jun_24_1125	59.9516876449	LearningTask	1	63	
17				z	0.0	-200.0										3.0	0.0	6.0	0.0																																																				200.76370406200002	stop	hexagongray.gif	stop	0.5	None	0.0		None	0.0	0.0009541511535639998	0.516036987305	0.76602101326	203.7663939																																										2015_Jun_24_1125	59.9516876449	LearningTask	1	63	
18				m	0.0	200.0										3.0	1.0	7.0	1.0																																																				203.766834021	stop	hexagongray.gif	stop	0.5	None	0.0		None	0.0	0.00103092193604	0.515980005264	0.766331911087	206.769996881																																										2015_Jun_24_1125	59.9516876449	LearningTask	1	63	
19				m	0.0	200.0										4.0	0.0	8.0	1.0																																																				206.77035903900003	stop	squaremagenta.gif	stop	4.0	None	0.0		None	0.0	0.000964879989624	0.51580786705	0.766130924225	209.77336406700002																																										2015_Jun_24_1125	59.9516876449	LearningTask	1	63	
20				m	0.0	200.0										4.0	1.0	9.0	1.0																																																				209.773725033	go	circlecyan.gif	go	2.0	m	1.0	0.41716885566699996	None	0.0	0.0009469985961910001	0.516010046005		212.776802063																																										2015_Jun_24_1125	59.9516876449	LearningTask	1	63	
21																																																																																					9.0	46.4942831993																																								2015_Jun_24_1125	59.9516876449	LearningTask	1	63	
22																																																						9.0	5.22280192375																																																																							2015_Jun_24_1125	59.9516876449	LearningTask	1	63	
23	200.0	s	-200.0																	0.0	0.0	0.0	0.0	0.0	0.0	0.0	2.0																													s	1.0	0.36770987510700004	None	0.0	2.0	invertedtriangleyellow.gif	stop																								2.08	0.504762172699	0.0009751319885249999	0.36770987510700004	1.0	s	267.672889948																																	2015_Jun_24_1125	59.9516876449	LearningTask	1	63	
24	-200.0	a	-200.0																	0.0	0.0	0.0	0.0	0.0	1.0	1.0	3.0																													a	1.0	0.333705186844	None	0.0	2.0	circlecyan.gif	go																								2.08	0.514220952988	0.000943899154663	0.333705186844	1.0	a	270.67641902																																	2015_Jun_24_1125	59.9516876449	LearningTask	1	63	
25	200.0	s	-200.0																	0.0	0.0	0.0	0.0	0.0	2.0	2.0	2.0																													s	1.0	0.351142168045	None	0.0	0.5	diamondwhite.gif	go																								0.32	0.513719081879	0.0009062290191649999	0.351142168045	1.0	s	273.679269075																																	2015_Jun_24_1125	59.9516876449	LearningTask	1	63	
26	-200.0	a	-200.0																	0.0	0.0	0.0	0.0	0.0	3.0	3.0	3.0																													a	1.0	0.334733009338	None	0.0	2.0	circlecyan.gif	go																								1.78	0.5142841339109999	0.0009350776672360002	0.334733009338	1.0	a	276.682401896																																	2015_Jun_24_1125	59.9516876449	LearningTask	1	63	
27	200.0	w	200.0																	0.0	0.0	0.0	0.0	1.0	0.0	4.0	0.0																													w	1.0	0.351000070572	None	0.0	0.5	hexagongray.gif	stop																								0.52	0.5144948959350001	0.00105285644531	0.351000070572	1.0	w	279.686172009																																	2015_Jun_24_1125	59.9516876449	LearningTask	1	63	
28	-200.0	a	-200.0																	0.0	0.0	0.0	0.0	1.0	1.0	5.0	3.0																													a	1.0	0.350486040115	None	0.0	0.5	hexagongray.gif	stop																								0.55	0.514437913895	0.0009109973907470001	0.350486040115	1.0	a	282.689387083																																	2015_Jun_24_1125	59.9516876449	LearningTask	1	63	
29	200.0	w	200.0																	0.0	0.0	0.0	0.0	1.0	2.0	6.0	0.0																													w	1.0	0.38433909416199996	None	0.0	2.0	circlecyan.gif	go																								2.08	0.514363050461	0.0011990070342999999	0.38433909416199996	1.0	w	285.692822933																																	2015_Jun_24_1125	59.9516876449	LearningTask	1	63	
30	-200.0	a	-200.0																	0.0	0.0	0.0	0.0	1.0	3.0	7.0	3.0																													a	1.0	0.41734910011299997	None	0.0	0.5	diamondwhite.gif	go																								0.6	0.514235019684	0.0008859634399410001	0.41734910011299997	1.0	a	288.695851088																																	2015_Jun_24_1125	59.9516876449	LearningTask	1	63	
31	200.0	w	200.0																	0.0	0.0	0.0	0.0	2.0	0.0	8.0	0.0																													w	1.0	0.451349973679	None	0.0	2.0	circlecyan.gif	go																								2.25	0.5144591331480001	0.0009181499481200001	0.451349973679	1.0	w	291.69937491400003																																	2015_Jun_24_1125	59.9516876449	LearningTask	1	63	
32	-200.0	q	200.0																	0.0	0.0	0.0	0.0	2.0	1.0	9.0	1.0																													q	1.0	0.450998067856	None	0.0	4.0	lineorange.gif	go																								3.83	0.514182806015	0.0009479522705080001	0.450998067856	1.0	q	294.70283508299997																																	2015_Jun_24_1125	59.9516876449	LearningTask	1	63	
33	-200.0	q	200.0																	0.0	0.0	0.0	0.0	2.0	2.0	10.0	1.0																													q	1.0	0.350857019424	None	0.0	2.0	invertedtriangleyellow.gif	stop																								2.01	0.514396905899	0.000890016555786	0.350857019424	1.0	q	297.706413031																																	2015_Jun_24_1125	59.9516876449	LearningTask	1	63	
34	200.0	w	200.0																	0.0	0.0	0.0	0.0	2.0	3.0	11.0	0.0																													w	1.0	0.35092401504500004	None	0.0	1.0	crossblue.gif	go																								0.98	0.5142819881440001	0.0008990764617919999	0.35092401504500004	1.0	w	300.709536076																																	2015_Jun_24_1125	59.9516876449	LearningTask	1	63	
35	-200.0	q	200.0																	0.0	0.0	0.0	0.0	3.0	0.0	12.0	1.0																													q	1.0	0.35092401504500004	None	0.0	4.0	squaremagenta.gif	stop																								3.94	0.514074087143	0.000931024551392	0.35092401504500004	1.0	q	303.712956905																																	2015_Jun_24_1125	59.9516876449	LearningTask	1	63	
36	-200.0	a	-200.0																	0.0	0.0	0.0	0.0	3.0	1.0	13.0	3.0																													a	1.0	0.401079177856	None	0.0	4.0	lineorange.gif	go																								4.2	0.514386892319	0.00088906288147	0.401079177856	1.0	a	306.716178894																																	2015_Jun_24_1125	59.9516876449	LearningTask	1	63	
37	-200.0	a	-200.0																	0.0	0.0	0.0	0.0	3.0	2.0	14.0	3.0																													a	1.0	0.384656906128	None	0.0	4.0	lineorange.gif	go																								3.98	0.514531135559	0.0008950233459470001	0.384656906128	1.0	a	309.72017908099997																																	2015_Jun_24_1125	59.9516876449	LearningTask	1	63	
38	200.0	w	200.0																	0.0	0.0	0.0	0.0	3.0	3.0	15.0	0.0																													w	1.0	0.350938796997	None	0.0	2.0	invertedtriangleyellow.gif	stop																								2.01	0.513738155365	0.00102400779724	0.350938796997	1.0	w	312.723184109																																	2015_Jun_24_1125	59.9516876449	LearningTask	1	63	
39	-200.0	q	200.0																	0.0	0.0	0.0	0.0	4.0	0.0	16.0	1.0																													q	1.0	0.401215076447	None	0.0	0.5	diamondwhite.gif	go																								0.25	0.5142760276789999	0.0008869171142580001	0.401215076447	1.0	q	315.72646904																																	2015_Jun_24_1125	59.9516876449	LearningTask	1	63	
40	-200.0	a	-200.0																	0.0	0.0	0.0	0.0	4.0	1.0	17.0	3.0																													a	1.0	0.400503158569	None	0.0	0.5	hexagongray.gif	stop																								0.3	0.5145790576929999	0.0009450912475589999	0.400503158569	1.0	a	318.730170965																																	2015_Jun_24_1125	59.9516876449	LearningTask	1	63	
41	200.0	s	-200.0																	0.0	0.0	0.0	0.0	4.0	2.0	18.0	2.0																													s	1.0	0.467742919922	None	0.0	1.0	trianglegreen.gif	stop																								0.99	0.5139780044560001	0.0008919239044189998	0.467742919922	1.0	s	321.733412027																																	2015_Jun_24_1125	59.9516876449	LearningTask	1	63	
42	200.0	s	-200.0																	0.0	0.0	0.0	0.0	4.0	3.0	19.0	2.0																													s	1.0	0.367938995361	None	0.0	1.0	crossblue.gif	go																								0.85	0.51401591301	0.0009679794311519998	0.367938995361	1.0	s	324.73639392900003																																	2015_Jun_24_1125	59.9516876449	LearningTask	1	63	
43	200.0	s	-200.0																	0.0	0.0	0.0	0.0	5.0	0.0	20.0	2.0																													s	1.0	0.40128707885700005	None	0.0	1.0	trianglegreen.gif	stop																								1.13	0.514393091202	0.0009391307830810002	0.40128707885700005	1.0	s	327.739983082																																	2015_Jun_24_1125	59.9516876449	LearningTask	1	63	
44	-200.0	q	200.0																	0.0	0.0	0.0	0.0	5.0	1.0	21.0	1.0																													q	1.0	0.367730855942	None	0.0	2.0	circlecyan.gif	go																								0.0	0.514231920242	0.000900030136108	0.367730855942	1.0	q	330.743192911																																	2015_Jun_24_1125	59.9516876449	LearningTask	1	63	
45	200.0	s	-200.0																	0.0	0.0	0.0	0.0	5.0	2.0	22.0	2.0																													s	1.0	0.367385864258	None	0.0	4.0	squaremagenta.gif	stop																								0.0	0.514271020889	0.000949859619141	0.367385864258	1.0	s	333.74665308																																	2015_Jun_24_1125	59.9516876449	LearningTask	1	63	
46	200.0	s	-200.0																	0.0	0.0	0.0	0.0	5.0	3.0	23.0	2.0																													s	1.0	0.400547981262	None	0.0	0.5	hexagongray.gif	stop																								0.5	0.5144588947300001	0.000898838043213	0.400547981262	1.0	s	336.750102997																																	2015_Jun_24_1125	59.9516876449	LearningTask	1	63	
47	200.0	s	-200.0																	0.0	0.0	0.0	0.0	6.0	0.0	24.0	2.0																													s	1.0	0.334259033203	None	0.0	0.5	hexagongray.gif	stop																								0.32	0.5143778324130001	0.0009047985076900001	0.334259033203	1.0	s	339.753629923																																	2015_Jun_24_1125	59.9516876449	LearningTask	1	63	
48	-200.0	a	-200.0																	0.0	0.0	0.0	0.0	6.0	1.0	25.0	3.0																													a	1.0	0.317838907242	None	0.0	1.0	trianglegreen.gif	stop																								1.12	0.513642072678	0.0009369850158689999	0.317838907242	1.0	a	342.75686287900004																																	2015_Jun_24_1125	59.9516876449	LearningTask	1	63	
49	200.0	s	-200.0																	0.0	0.0	0.0	0.0	6.0	2.0	26.0	2.0																													s	1.0	0.384093046188	None	0.0	4.0	lineorange.gif	go																								4.13	0.513976097107	0.000885009765625	0.384093046188	1.0	s	345.76011705400003																																	2015_Jun_24_1125	59.9516876449	LearningTask	1	63	
50	200.0	w	200.0																	0.0	0.0	0.0	0.0	6.0	3.0	27.0	0.0																													w	1.0	0.38441991806000003	None	0.0	1.0	crossblue.gif	go																								1.1	0.51446890831	0.0008959770202639998	0.38441991806000003	1.0	w	348.76354599																																	2015_Jun_24_1125	59.9516876449	LearningTask	1	63	
51	200.0	w	200.0																	0.0	0.0	0.0	0.0	7.0	0.0	28.0	0.0																													w	1.0	0.384191036224	None	0.0	0.5	diamondwhite.gif	go																								0.3	0.513957977295	0.0009298324584960001	0.384191036224	1.0	w	351.76688790300005																																	2015_Jun_24_1125	59.9516876449	LearningTask	1	63	
52	200.0	s	-200.0																	0.0	0.0	0.0	0.0	7.0	1.0	29.0	2.0																													s	1.0	0.350908041	None	0.0	4.0	squaremagenta.gif	stop																								3.89	0.514351844788	0.00111198425293	0.350908041	1.0	s	354.770303965																																	2015_Jun_24_1125	59.9516876449	LearningTask	1	63	
53	200.0	s	-200.0																	0.0	0.0	0.0	0.0	7.0	2.0	30.0	2.0																													s	1.0	0.351190090179	None	0.0	2.0	circlecyan.gif	go																								1.77	0.5143098831180001	0.00089693069458	0.351190090179	1.0	s	357.774117947																																	2015_Jun_24_1125	59.9516876449	LearningTask	1	63	
54	-200.0	q	200.0																	0.0	0.0	0.0	0.0	7.0	3.0	31.0	1.0																													q	1.0	0.40092301368699995	None	0.0	1.0	trianglegreen.gif	stop																								0.0	0.513827085495	0.0009019374847410001	0.40092301368699995	1.0	q	360.77707696																																	2015_Jun_24_1125	59.9516876449	LearningTask	1	63	
55	200.0	s	-200.0																	0.0	0.0	0.0	0.0	8.0	0.0	32.0	2.0																													s	1.0	0.401319026947	None	0.0	2.0	invertedtriangleyellow.gif	stop																								1.88	0.514271020889	0.0008971691131589999	0.401319026947	1.0	s	363.780391932																																	2015_Jun_24_1125	59.9516876449	LearningTask	1	63	
56	200.0	s	-200.0																	0.0	0.0	0.0	0.0	8.0	1.0	33.0	2.0																													s	1.0	0.38406705856299994	None	0.0	2.0	invertedtriangleyellow.gif	stop																								2.22	0.5142819881440001	0.0009279251098630001	0.38406705856299994	1.0	s	366.783847094																																	2015_Jun_24_1125	59.9516876449	LearningTask	1	63	
57	-200.0	a	-200.0																	0.0	0.0	0.0	0.0	8.0	2.0	34.0	3.0																													a	1.0	0.367478847504	None	0.0	1.0	trianglegreen.gif	stop																								1.02	0.514372110367	0.0009031295776369999	0.367478847504	1.0	a	369.787029982																																	2015_Jun_24_1125	59.9516876449	LearningTask	1	63	
58	-200.0	q	200.0																	0.0	0.0	0.0	0.0	8.0	3.0	35.0	1.0																													q	1.0	0.48416304588299997	None	0.0	0.5	hexagongray.gif	stop																								0.38	0.514528989792	0.00104284286499	0.48416304588299997	1.0	q	372.790678024																																	2015_Jun_24_1125	59.9516876449	LearningTask	1	63	
59	-200.0	q	200.0																	0.0	0.0	0.0	0.0	9.0	0.0	36.0	1.0																													q	1.0	0.5511901378630001	None	0.0	0.5	diamondwhite.gif	go																								0.65	0.513917922974	0.0009298324584960001	0.5511901378630001	1.0	q	375.79409909199995																																	2015_Jun_24_1125	59.9516876449	LearningTask	1	63	
60	-200.0	a	-200.0																	0.0	0.0	0.0	0.0	9.0	1.0	37.0	3.0																													a	1.0	0.434249162674	None	0.0	0.5	diamondwhite.gif	go																								0.26	0.514243841171	0.0008959770202639998	0.434249162674	1.0	a	378.797272921																																	2015_Jun_24_1125	59.9516876449	LearningTask	1	63	
61	-200.0	a	-200.0																	0.0	0.0	0.0	0.0	9.0	2.0	38.0	3.0																													a	1.0	0.418161153793	None	0.0	4.0	lineorange.gif	go																								0.0	0.514155864716	0.00105595588684	0.418161153793	1.0	a	381.800647974																																	2015_Jun_24_1125	59.9516876449	LearningTask	1	63	
62	200.0	w	200.0																	0.0	0.0	0.0	0.0	9.0	3.0	39.0	0.0																													w	1.0	0.41726398468000003	None	0.0	2.0	invertedtriangleyellow.gif	stop																								0.0	0.514437913895	0.0008990764617919999	0.41726398468000003	1.0	w	384.804019928																																	2015_Jun_24_1125	59.9516876449	LearningTask	1	63	
63	-200.0	a	-200.0																	0.0	0.0	0.0	0.0	10.0	0.0	40.0	3.0																													a	1.0	0.367010116577	None	0.0	2.0	circlecyan.gif	go																								2.1	0.514694929123	0.0009169578552250001	0.367010116577	1.0	a	387.807492971																																	2015_Jun_24_1125	59.9516876449	LearningTask	1	63	
64	-200.0	a	-200.0																	0.0	0.0	0.0	0.0	10.0	1.0	41.0	3.0																													a	1.0	0.384725093842	None	0.0	1.0	trianglegreen.gif	stop																								0.8	0.513955116272	0.000948190689087	0.384725093842	1.0	a	390.81078195599997																																	2015_Jun_24_1125	59.9516876449	LearningTask	1	63	
65	200.0	s	-200.0																	0.0	0.0	0.0	0.0	10.0	2.0	42.0	2.0																													s	1.0	0.36742401123	None	0.0	0.5	diamondwhite.gif	go																								0.0	0.514365911484	0.000892877578735	0.36742401123	1.0	s	393.81414508800003																																	2015_Jun_24_1125	59.9516876449	LearningTask	1	63	
66	-200.0	a	-200.0																	0.0	0.0	0.0	0.0	10.0	3.0	43.0	3.0																													a	1.0	0.35096883773800003	None	0.0	4.0	squaremagenta.gif	stop																								3.85	0.514344930649	0.000904083251953	0.35096883773800003	1.0	a	396.817568064																																	2015_Jun_24_1125	59.9516876449	LearningTask	1	63	
67	200.0	w	200.0																	0.0	0.0	0.0	0.0	11.0	0.0	44.0	0.0																													w	1.0	0.367634057999	None	0.0	1.0	crossblue.gif	go																								0.86	0.514066934586	0.000928163528442	0.367634057999	1.0	w	399.821181059																																	2015_Jun_24_1125	59.9516876449	LearningTask	1	63	
68	200.0	s	-200.0																	0.0	0.0	0.0	0.0	11.0	1.0	45.0	2.0																													s	1.0	0.350896120071	None	0.0	2.0	invertedtriangleyellow.gif	stop																								1.94	0.514116048813	0.0009019374847410001	0.350896120071	1.0	s	402.82461190199996																																	2015_Jun_24_1125	59.9516876449	LearningTask	1	63	
69	-200.0	q	200.0																	0.0	0.0	0.0	0.0	11.0	2.0	46.0	1.0																													q	1.0	0.48469305038500005	None	0.0	4.0	squaremagenta.gif	stop																								3.79	0.514059066772	0.000998020172119	0.48469305038500005	1.0	q	405.82819104199996																																	2015_Jun_24_1125	59.9516876449	LearningTask	1	63	
70	-200.0	q	200.0																	0.0	0.0	0.0	0.0	11.0	3.0	47.0	1.0																													q	1.0	0.45089387893700006	None	0.0	4.0	lineorange.gif	go																								3.97	0.513795137405	0.000909090042114	0.45089387893700006	1.0	q	408.831110954																																	2015_Jun_24_1125	59.9516876449	LearningTask	1	63	
71	-200.0	a	-200.0																	0.0	0.0	0.0	0.0	12.0	0.0	48.0	3.0																													a	1.0	0.451143026352	None	0.0	1.0	crossblue.gif	go																								1.25	0.5142138004300001	0.000922918319702	0.451143026352	1.0	a	411.83435201599997																																	2015_Jun_24_1125	59.9516876449	LearningTask	1	63	
72	-200.0	q	200.0																	0.0	0.0	0.0	0.0	12.0	1.0	49.0	1.0																													q	1.0	0.350857973099	None	0.0	0.5	diamondwhite.gif	go																								0.34	0.5142300128939999	0.0009570121765139998	0.350857973099	1.0	q	414.83780789400004																																	2015_Jun_24_1125	59.9516876449	LearningTask	1	63	
73	200.0	w	200.0																	0.0	0.0	0.0	0.0	12.0	2.0	50.0	0.0																													w	1.0	0.350945949554	None	0.0	4.0	squaremagenta.gif	stop																								3.81	0.5140080451969999	0.0010159015655499999	0.350945949554	1.0	w	417.841212034																																	2015_Jun_24_1125	59.9516876449	LearningTask	1	63	
74	-200.0	q	200.0																	0.0	0.0	0.0	0.0	12.0	3.0	51.0	1.0																													q	1.0	0.350682020187	None	0.0	0.5	diamondwhite.gif	go																								0.0	0.5143561363220001	0.00118803977966	0.350682020187	1.0	q	420.844530106																																	2015_Jun_24_1125	59.9516876449	LearningTask	1	63	
75	200.0	w	200.0																	0.0	0.0	0.0	0.0	13.0	0.0	52.0	0.0																													w	1.0	0.350646018982	None	0.0	0.5	diamondwhite.gif	go																								0.3	0.514685869217	0.000892877578735	0.350646018982	1.0	w	423.84772300699996																																	2015_Jun_24_1125	59.9516876449	LearningTask	1	63	
76	200.0	w	200.0																	0.0	0.0	0.0	0.0	13.0	1.0	53.0	0.0																													w	1.0	0.35109305381800004	None	0.0	2.0	circlecyan.gif	go																								0.0	0.514562129974	0.00114107131958	0.35109305381800004	1.0	w	426.851193905																																	2015_Jun_24_1125	59.9516876449	LearningTask	1	63	
77	-200.0	a	-200.0																	0.0	0.0	0.0	0.0	13.0	2.0	54.0	3.0																													a	1.0	0.33433508873	None	0.0	2.0	circlecyan.gif	go																								1.75	0.514342069626	0.000941038131714	0.33433508873	1.0	a	429.854824066																																	2015_Jun_24_1125	59.9516876449	LearningTask	1	63	
78	200.0	w	200.0																	0.0	0.0	0.0	0.0	13.0	3.0	55.0	0.0																													w	1.0	0.35125803947400003	None	0.0	1.0	crossblue.gif	go																								0.82	0.514117956161	0.0009019374847410001	0.35125803947400003	1.0	w	432.85808897																																	2015_Jun_24_1125	59.9516876449	LearningTask	1	63	
79	-200.0	q	200.0																	0.0	0.0	0.0	0.0	14.0	0.0	56.0	1.0																													q	1.0	0.384507894516	None	0.0	1.0	crossblue.gif	go																								0.0	0.51416683197	0.000892877578735	0.384507894516	1.0	q	435.861411095																																	2015_Jun_24_1125	59.9516876449	LearningTask	1	63	
80	-200.0	a	-200.0																	0.0	0.0	0.0	0.0	14.0	1.0	57.0	3.0																													a	1.0	0.384779930115	None	0.0	1.0	trianglegreen.gif	stop																								0.81	0.513940095901	0.000900030136108	0.384779930115	1.0	a	438.86490988699995																																	2015_Jun_24_1125	59.9516876449	LearningTask	1	63	
81	-200.0	q	200.0																	0.0	0.0	0.0	0.0	14.0	2.0	58.0	1.0																													q	1.0	0.33418893814100004	None	0.0	0.5	hexagongray.gif	stop																								0.41	0.514290094376	0.0009109973907470001	0.33418893814100004	1.0	q	441.86829900699996																																	2015_Jun_24_1125	59.9516876449	LearningTask	1	63	
82	-200.0	a	-200.0																	0.0	0.0	0.0	0.0	14.0	3.0	59.0	3.0																													a	1.0	0.38434720039399994	None	0.0	0.5	hexagongray.gif	stop																								0.3	0.514158964157	0.0008981227874760001	0.38434720039399994	1.0	a	444.871890068																																	2015_Jun_24_1125	59.9516876449	LearningTask	1	63	
83	200.0	s	-200.0																	0.0	0.0	0.0	0.0	15.0	0.0	60.0	2.0																													s	1.0	0.351207017899	None	0.0	0.5	hexagongray.gif	stop																								0.56	0.513977050781	0.000917911529541	0.351207017899	1.0	s	447.87495803800005																																	2015_Jun_24_1125	59.9516876449	LearningTask	1	63	
84	200.0	s	-200.0																	0.0	0.0	0.0	0.0	15.0	1.0	61.0	2.0																													s	1.0	0.367350101471	None	0.0	4.0	squaremagenta.gif	stop																								4.15	0.514432907104	0.000882863998413	0.367350101471	1.0	s	450.878201962																																	2015_Jun_24_1125	59.9516876449	LearningTask	1	63	
85	-200.0	a	-200.0																	0.0	0.0	0.0	0.0	15.0	2.0	62.0	3.0																													a	1.0	0.350673913956	None	0.0	4.0	squaremagenta.gif	stop																								3.91	0.514626979828	0.000923871994019	0.350673913956	1.0	a	453.88193988800003																																	2015_Jun_24_1125	59.9516876449	LearningTask	1	63	
86	-200.0	a	-200.0																	0.0	0.0	0.0	0.0	15.0	3.0	63.0	3.0																													a	1.0	0.318004131317	None	0.0	0.5	diamondwhite.gif	go																								0.51	0.513958930969	0.000892877578735	0.318004131317	1.0	a	456.88504290599997																																	2015_Jun_24_1125	59.9516876449	LearningTask	1	63	
87	-200.0	q	200.0																	0.0	0.0	0.0	0.0	16.0	0.0	64.0	1.0																													q	1.0	0.36794090270999996	None	0.0	2.0	invertedtriangleyellow.gif	stop																								0.0	0.514429092407	0.00105690956116	0.36794090270999996	1.0	q	459.888127089																																	2015_Jun_24_1125	59.9516876449	LearningTask	1	63	
88	200.0	w	200.0																	0.0	0.0	0.0	0.0	16.0	1.0	65.0	0.0																													w	1.0	0.367714166641	None	0.0	1.0	crossblue.gif	go																								0.8	0.5143718719479999	0.0010008811950700002	0.367714166641	1.0	w	462.891782045																																	2015_Jun_24_1125	59.9516876449	LearningTask	1	63	
89	-200.0	q	200.0																	0.0	0.0	0.0	0.0	16.0	2.0	66.0	1.0																													q	1.0	0.43459320068400004	None	0.0	2.0	circlecyan.gif	go																								1.9	0.514270067215	0.0008971691131589999	0.43459320068400004	1.0	q	465.895173073																																	2015_Jun_24_1125	59.9516876449	LearningTask	1	63	
90	-200.0	a	-200.0																	0.0	0.0	0.0	0.0	16.0	3.0	67.0	3.0																													a	1.0	0.35067510604900004	None	0.0	4.0	lineorange.gif	go																								3.82	0.514241933823	0.0012278556823699998	0.35067510604900004	1.0	a	468.898465872																																	2015_Jun_24_1125	59.9516876449	LearningTask	1	63	
91	200.0	s	-200.0																	0.0	0.0	0.0	0.0	17.0	0.0	68.0	2.0																													s	1.0	0.4681661129	None	0.0	2.0	invertedtriangleyellow.gif	stop																								2.14	0.514344930649	0.000900030136108	0.4681661129	1.0	s	471.901921034																																	2015_Jun_24_1125	59.9516876449	LearningTask	1	63	
92	-200.0	q	200.0																	0.0	0.0	0.0	0.0	17.0	1.0	69.0	1.0																													q	1.0	0.384018182755	None	0.0	0.5	hexagongray.gif	stop																								0.64	0.514534950256	0.000900983810425	0.384018182755	1.0	q	474.90540099099996																																	2015_Jun_24_1125	59.9516876449	LearningTask	1	63	
93	200.0	w	200.0																	0.0	0.0	0.0	0.0	17.0	2.0	70.0	0.0																													w	1.0	0.367281913757	None	0.0	1.0	trianglegreen.gif	stop																								0.98	0.51437497139	0.000918865203857	0.367281913757	1.0	w	477.908740997																																	2015_Jun_24_1125	59.9516876449	LearningTask	1	63	
94	-200.0	a	-200.0																	0.0	0.0	0.0	0.0	17.0	3.0	71.0	3.0																													a	1.0	0.317846059799	None	0.0	2.0	invertedtriangleyellow.gif	stop																								0.0	0.513977050781	0.0008940696716310001	0.317846059799	1.0	a	480.911917925																																	2015_Jun_24_1125	59.9516876449	LearningTask	1	63	
95	200.0	w	200.0																	0.0	0.0	0.0	0.0	18.0	0.0	72.0	0.0																													w	1.0	0.350898981094	None	0.0	1.0	crossblue.gif	go																								0.0	0.514506101608	0.0008909702301030001	0.350898981094	1.0	w	483.915616989																																	2015_Jun_24_1125	59.9516876449	LearningTask	1	63	
96	200.0	w	200.0																	0.0	0.0	0.0	0.0	18.0	1.0	73.0	0.0																													w	1.0	0.36736702918999997	None	0.0	0.5	diamondwhite.gif	go																								0.0	0.514047861099	0.0009059906005860001	0.36736702918999997	1.0	w	486.919018984																																	2015_Jun_24_1125	59.9516876449	LearningTask	1	63	
97	200.0	s	-200.0																	0.0	0.0	0.0	0.0	18.0	2.0	74.0	2.0																													s	1.0	0.384399175644	None	0.0	2.0	invertedtriangleyellow.gif	stop																								1.91	0.514034032822	0.000890016555786	0.384399175644	1.0	s	489.922301054																																	2015_Jun_24_1125	59.9516876449	LearningTask	1	63	
98	-200.0	a	-200.0																	0.0	0.0	0.0	0.0	18.0	3.0	75.0	3.0																													a	1.0	0.417703151703	None	0.0	1.0	trianglegreen.gif	stop																								0.0	0.514081954956	0.00090503692627	0.417703151703	1.0	a	492.92593693699996																																	2015_Jun_24_1125	59.9516876449	LearningTask	1	63	
99	200.0	s	-200.0																	0.0	0.0	0.0	0.0	19.0	0.0	76.0	2.0																													s	1.0	0.43416309356700006	None	0.0	4.0	lineorange.gif	go																								4.16	0.51395201683	0.0009469985961910001	0.43416309356700006	1.0	s	495.929111004																																	2015_Jun_24_1125	59.9516876449	LearningTask	1	63	
100	200.0	s	-200.0																	0.0	0.0	0.0	0.0	19.0	1.0	77.0	2.0																													s	1.0	0.351199150085	None	0.0	2.0	invertedtriangleyellow.gif	stop																								0.0	0.514123916626	0.0009279251098630001	0.351199150085	1.0	s	498.93216490699996																																	2015_Jun_24_1125	59.9516876449	LearningTask	1	63	
101	-200.0	a	-200.0																	0.0	0.0	0.0	0.0	19.0	2.0	78.0	3.0																													a	1.0	0.367602109909	None	0.0	4.0	lineorange.gif	go																								3.89	0.514286994934	0.0009779930114750001	0.367602109909	1.0	a	501.935669899																																	2015_Jun_24_1125	59.9516876449	LearningTask	1	63	
102	200.0	w	200.0																	0.0	0.0	0.0	0.0	19.0	3.0	79.0	0.0																													w	1.0	0.367451906204	None	0.0	2.0	circlecyan.gif	go																								2.12	0.514230966568	0.000900983810425	0.367451906204	1.0	w	504.939007998																																	2015_Jun_24_1125	59.9516876449	LearningTask	1	63	
103	-200.0	q	200.0																	0.0	0.0	0.0	0.0	20.0	0.0	80.0	1.0																													q	1.0	0.38416504859899997	None	0.0	0.5	diamondwhite.gif	go																								0.0	0.514777898788	0.000999927520752	0.38416504859899997	1.0	q	507.942496061																																	2015_Jun_24_1125	59.9516876449	LearningTask	1	63	
104	200.0	s	-200.0																	0.0	0.0	0.0	0.0	20.0	1.0	81.0	2.0																													s	1.0	0.367883205414	None	0.0	1.0	trianglegreen.gif	stop																								0.0	0.514005899429	0.000908851623535	0.367883205414	1.0	s	510.945667982																																	2015_Jun_24_1125	59.9516876449	LearningTask	1	63	
105	-200.0	a	-200.0																	0.0	0.0	0.0	0.0	20.0	2.0	82.0	3.0																													a	1.0	0.367531061172	None	0.0	0.5	hexagongray.gif	stop																								0.58	0.5145850181580001	0.000904083251953	0.367531061172	1.0	a	513.94917202																																	2015_Jun_24_1125	59.9516876449	LearningTask	1	63	
106	-200.0	q	200.0																	0.0	0.0	0.0	0.0	20.0	3.0	83.0	1.0																													q	1.0	0.401000022888	None	0.0	4.0	squaremagenta.gif	stop																								4.19	0.5140168666839999	0.0009570121765139998	0.401000022888	1.0	q	516.952449083																																	2015_Jun_24_1125	59.9516876449	LearningTask	1	63	
107	-200.0	q	200.0																	0.0	0.0	0.0	0.0	21.0	0.0	84.0	1.0																													q	1.0	0.567692041397	None	0.0	2.0	invertedtriangleyellow.gif	stop																								2.06	0.514543056488	0.0008950233459470001	0.567692041397	1.0	q	519.955976963																																	2015_Jun_24_1125	59.9516876449	LearningTask	1	63	
108	200.0	w	200.0																	0.0	0.0	0.0	0.0	21.0	1.0	85.0	0.0																													w	1.0	0.634927988052	None	0.0	1.0	crossblue.gif	go																								0.97	0.514262914658	0.0008919239044189998	0.634927988052	1.0	w	522.9590549469999																																	2015_Jun_24_1125	59.9516876449	LearningTask	1	63	
109	200.0	s	-200.0																	0.0	0.0	0.0	0.0	21.0	2.0	86.0	2.0																													s	1.0	0.384160041809	None	0.0	1.0	trianglegreen.gif	stop																								1.13	0.514634847641	0.000907897949219	0.384160041809	1.0	s	525.9626879690001																																	2015_Jun_24_1125	59.9516876449	LearningTask	1	63	
110	200.0	s	-200.0																	0.0	0.0	0.0	0.0	21.0	3.0	87.0	2.0																													s	1.0	0.35126805305500003	None	0.0	1.0	trianglegreen.gif	stop																								1.16	0.514355182648	0.000900030136108	0.35126805305500003	1.0	s	528.965919018																																	2015_Jun_24_1125	59.9516876449	LearningTask	1	63	
111	-200.0	q	200.0																	0.0	0.0	0.0	0.0	22.0	0.0	88.0	1.0																													q	1.0	0.368052005768	None	0.0	2.0	circlecyan.gif	go																								2.03	0.514437198639	0.0008931159973139998	0.368052005768	1.0	q	531.969832897																																	2015_Jun_24_1125	59.9516876449	LearningTask	1	63	
112	200.0	s	-200.0																	0.0	0.0	0.0	0.0	22.0	1.0	89.0	2.0																													s	1.0	0.351020812988	None	0.0	1.0	crossblue.gif	go																								0.92	0.513929843903	0.0008919239044189998	0.351020812988	1.0	s	534.972984076																																	2015_Jun_24_1125	59.9516876449	LearningTask	1	63	
113	-200.0	q	200.0																	0.0	0.0	0.0	0.0	22.0	2.0	90.0	1.0																													q	1.0	0.351160049438	None	0.0	1.0	trianglegreen.gif	stop																								0.99	0.5142600536349999	0.000900983810425	0.351160049438	1.0	q	537.97617507																																	2015_Jun_24_1125	59.9516876449	LearningTask	1	63	
114	200.0	w	200.0																	0.0	0.0	0.0	0.0	22.0	3.0	91.0	0.0																													w	1.0	0.367129087448	None	0.0	2.0	circlecyan.gif	go																								2.16	0.5144460201259999	0.0009119510650630002	0.367129087448	1.0	w	540.979911089																																	2015_Jun_24_1125	59.9516876449	LearningTask	1	63	
115	-200.0	q	200.0																	0.0	0.0	0.0	0.0	23.0	0.0	92.0	1.0																													q	1.0	0.40099501609800003	None	0.0	1.0	crossblue.gif	go																								0.0	0.513969182968	0.000885009765625	0.40099501609800003	1.0	q	543.982913017																																	2015_Jun_24_1125	59.9516876449	LearningTask	1	63	
116	200.0	w	200.0																	0.0	0.0	0.0	0.0	23.0	1.0	93.0	0.0																													w	1.0	0.417752981186	None	0.0	1.0	crossblue.gif	go																								1.14	0.5142819881440001	0.0008950233459470001	0.417752981186	1.0	w	546.986061096																																	2015_Jun_24_1125	59.9516876449	LearningTask	1	63	
117	200.0	w	200.0																	0.0	0.0	0.0	0.0	23.0	2.0	94.0	0.0																													w	1.0	0.5014100074769999	None	0.0	4.0	lineorange.gif	go																								4.14	0.5143408775330001	0.00101184844971	0.5014100074769999	1.0	w	549.989655018																																	2015_Jun_24_1125	59.9516876449	LearningTask	1	63	
118	200.0	w	200.0																	0.0	0.0	0.0	0.0	23.0	3.0	95.0	0.0																													w	1.0	0.417919874191	None	0.0	1.0	trianglegreen.gif	stop																								1.06	0.514381170273	0.000888109207153	0.417919874191	1.0	w	552.992995977																																	2015_Jun_24_1125	59.9516876449	LearningTask	1	63	
119	200.0	w	200.0																	0.0	0.0	0.0	0.0	24.0	0.0	96.0	0.0																													w	1.0	0.38411593437200003	None	0.0	1.0	crossblue.gif	go																								0.98	0.514403104782	0.00113010406494	0.38411593437200003	1.0	w	555.996402025																																	2015_Jun_24_1125	59.9516876449	LearningTask	1	63	
120	-200.0	q	200.0																	0.0	0.0	0.0	0.0	24.0	1.0	97.0	1.0																													q	1.0	0.433174133301	None	0.0	4.0	squaremagenta.gif	stop																								3.84	0.5148890018460001	0.000896215438843	0.433174133301	1.0	q	558.999733925																																	2015_Jun_24_1125	59.9516876449	LearningTask	1	63	
121	-200.0	q	200.0																	0.0	0.0	0.0	0.0	24.0	2.0	98.0	1.0																													q	1.0	0.367383003235	None	0.0	0.5	diamondwhite.gif	go																								0.47	0.514526844025	0.0008919239044189998	0.367383003235	1.0	q	562.003117085																																	2015_Jun_24_1125	59.9516876449	LearningTask	1	63	
122	200.0	w	200.0																	0.0	0.0	0.0	0.0	24.0	3.0	99.0	0.0																													w	1.0	0.333647966385	None	0.0	2.0	circlecyan.gif	go																								2.18	0.514111042023	0.0009369850158689999	0.333647966385	1.0	w	565.007189989																																	2015_Jun_24_1125	59.9516876449	LearningTask	1	63	
123																				0.0	0.0	0.0	0.0																																																																							9.0	11.206474065799998																															2015_Jun_24_1125	59.9516876449	LearningTask	1	63	
124	-200.0	q	200.0																	1.0	0.0	1.0	0.0	0.0	0.0	0.0	1.0																													q	1.0	0.367678880692	None	0.0	0.5	hexagongray.gif	stop																								0.0	0.510033130646	0.00101208686829	0.367678880692	1.0	q	579.556796074																																	2015_Jun_24_1125	59.9516876449	LearningTask	1	63	
125	200.0	s	-200.0																	1.0	0.0	1.0	0.0	0.0	1.0	1.0	2.0																													s	1.0	0.36712312698399996	None	0.0	2.0	circlecyan.gif	go																								2.1	0.513962984085	0.000890016555786	0.36712312698399996	1.0	s	582.559529066																																	2015_Jun_24_1125	59.9516876449	LearningTask	1	63	
126	200.0	s	-200.0																	1.0	0.0	1.0	0.0	0.0	2.0	2.0	2.0																													s	1.0	0.35089802742	None	0.0	1.0	trianglegreen.gif	stop																								1.18	0.5142087936399999	0.00111889839172	0.35089802742	1.0	s	585.56298995																																	2015_Jun_24_1125	59.9516876449	LearningTask	1	63	
127	-200.0	a	-200.0																	1.0	0.0	1.0	0.0	0.0	3.0	3.0	3.0																													a	1.0	0.48457908630400004	None	0.0	1.0	crossblue.gif	go																								0.0	0.514225006104	0.0009248256683350001	0.48457908630400004	1.0	a	588.566514015																																	2015_Jun_24_1125	59.9516876449	LearningTask	1	63	
128	-200.0	q	200.0																	1.0	0.0	1.0	0.0	1.0	0.0	4.0	1.0																													q	1.0	0.500971078873	None	0.0	2.0	circlecyan.gif	go																								2.1	0.514019012451	0.000938177108765	0.500971078873	1.0	q	591.569633007																																	2015_Jun_24_1125	59.9516876449	LearningTask	1	63	
129	200.0	w	200.0																	1.0	0.0	1.0	0.0	1.0	1.0	5.0	0.0																													w	1.0	0.50081205368	None	0.0	4.0	lineorange.gif	go																								0.0	0.5143609046940001	0.0009479522705080001	0.50081205368	1.0	w	594.5732309819999																																	2015_Jun_24_1125	59.9516876449	LearningTask	1	63	
130	-200.0	q	200.0																	1.0	0.0	1.0	0.0	1.0	2.0	6.0	1.0																													q	1.0	0.401063919067	None	0.0	2.0	invertedtriangleyellow.gif	stop																								0.0	0.513694047928	0.000934839248657	0.401063919067	1.0	q	597.576457977																																	2015_Jun_24_1125	59.9516876449	LearningTask	1	63	
131	200.0	w	200.0																	1.0	0.0	1.0	0.0	1.0	3.0	7.0	0.0																													w	1.0	0.367777109146	None	0.0	4.0	lineorange.gif	go																								4.05	0.514106035233	0.0009119510650630002	0.367777109146	1.0	w	600.579783916																																	2015_Jun_24_1125	59.9516876449	LearningTask	1	63	
132	-200.0	q	200.0																	1.0	0.0	1.0	0.0	2.0	0.0	8.0	1.0																													q	1.0	0.417682886124	None	0.0	4.0	squaremagenta.gif	stop																								4.1	0.514169931412	0.0008869171142580001	0.417682886124	1.0	q	603.583084106																																	2015_Jun_24_1125	59.9516876449	LearningTask	1	63	
133	-200.0	q	200.0																	1.0	0.0	1.0	0.0	2.0	1.0	9.0	1.0																													q	1.0	0.367774009705	None	0.0	4.0	lineorange.gif	go																								4.22	0.513918161392	0.00133299827576	0.367774009705	1.0	q	606.5866229530001																																	2015_Jun_24_1125	59.9516876449	LearningTask	1	63	
134	200.0	s	-200.0																	1.0	0.0	1.0	0.0	2.0	2.0	10.0	2.0																													s	1.0	0.434634208679	None	0.0	1.0	crossblue.gif	go																								1.12	0.514196872711	0.00132989883423	0.434634208679	1.0	s	609.59051609																																	2015_Jun_24_1125	59.9516876449	LearningTask	1	63	
135	-200.0	a	-200.0																	1.0	0.0	1.0	0.0	2.0	3.0	11.0	3.0																													a	1.0	0.400507926941	None	0.0	0.5	diamondwhite.gif	go																								0.0	0.513981103897	0.0012619495391800002	0.400507926941	1.0	a	612.593421936																																	2015_Jun_24_1125	59.9516876449	LearningTask	1	63	
136	200.0	s	-200.0																	1.0	0.0	1.0	0.0	3.0	0.0	12.0	2.0																													s	1.0	0.367805957794	None	0.0	2.0	circlecyan.gif	go																								1.82	0.514288902283	0.00164198875427	0.367805957794	1.0	s	615.596936941																																	2015_Jun_24_1125	59.9516876449	LearningTask	1	63	
137	-200.0	a	-200.0																	1.0	0.0	1.0	0.0	3.0	1.0	13.0	3.0																													a	1.0	0.351103067398	None	0.0	2.0	invertedtriangleyellow.gif	stop																								0.0	0.514041900635	0.0013990402221700001	0.351103067398	1.0	a	618.600128889																																	2015_Jun_24_1125	59.9516876449	LearningTask	1	63	
138	200.0	s	-200.0																	1.0	0.0	1.0	0.0	3.0	2.0	14.0	2.0																													s	1.0	0.35075783729599996	None	0.0	4.0	squaremagenta.gif	stop																								4.11	0.514243125916	0.0009069442749019998	0.35075783729599996	1.0	s	621.603425026																																	2015_Jun_24_1125	59.9516876449	LearningTask	1	63	
139	200.0	w	200.0																	1.0	0.0	1.0	0.0	3.0	3.0	15.0	0.0																													w	1.0	0.400780200958	None	0.0	2.0	invertedtriangleyellow.gif	stop																								0.0	0.514349937439	0.00103306770325	0.400780200958	1.0	w	624.606721878																																	2015_Jun_24_1125	59.9516876449	LearningTask	1	63	
140	-200.0	q	200.0																	1.0	0.0	1.0	0.0	4.0	0.0	16.0	1.0																													q	1.0	0.43453001976000005	None	0.0	2.0	circlecyan.gif	go																								1.86	0.514685153961	0.000900030136108	0.43453001976000005	1.0	q	627.6102709769999																																	2015_Jun_24_1125	59.9516876449	LearningTask	1	63	
141	200.0	s	-200.0																	1.0	0.0	1.0	0.0	4.0	1.0	17.0	2.0																													s	1.0	0.40170907974200004	None	0.0	4.0	lineorange.gif	go																								4.2	0.514107942581	0.0008990764617919999	0.40170907974200004	1.0	s	630.613589048																																	2015_Jun_24_1125	59.9516876449	LearningTask	1	63	
142	-200.0	q	200.0																	1.0	0.0	1.0	0.0	4.0	2.0	18.0	1.0																													q	1.0	0.400471925735	None	0.0	2.0	invertedtriangleyellow.gif	stop																								0.0	0.5142171382899999	0.0009629726409910001	0.417557954788	0.0	a	633.616955996			0.15919709205600002	0.0	0.5158131122590001	0.0009670257568360001	0.400471925735	1.0	q	636.620445967																							2015_Jun_24_1125	59.9516876449	LearningTask	1	63	
143	200.0	w	200.0																	1.0	0.0	1.0	0.0	4.0	3.0	19.0	0.0																													w	1.0	0.40121412277199997	None	0.0	0.5	hexagongray.gif	stop																								0.37	0.513900995255	0.00141596794128	0.40121412277199997	1.0	w	639.623724937																																	2015_Jun_24_1125	59.9516876449	LearningTask	1	63	
144	200.0	w	200.0																	1.0	0.0	1.0	0.0	5.0	0.0	20.0	0.0																													w	1.0	0.417546987534	None	0.0	1.0	trianglegreen.gif	stop																								0.0	0.51393699646	0.0012910366058299998	0.417546987534	1.0	w	642.627104998																																	2015_Jun_24_1125	59.9516876449	LearningTask	1	63	
145	-200.0	q	200.0																	1.0	0.0	1.0	0.0	5.0	1.0	21.0	1.0																													q	1.0	0.38437914848300003	None	0.0	0.5	diamondwhite.gif	go																								0.34	0.514456033707	0.0008978843688960001	0.38437914848300003	1.0	q	645.630486012																																	2015_Jun_24_1125	59.9516876449	LearningTask	1	63	
146	-200.0	a	-200.0																	1.0	0.0	1.0	0.0	5.0	2.0	22.0	3.0																													a	1.0	0.40107011795	None	0.0	0.5	hexagongray.gif	stop																								0.74	0.514365911484	0.0008878707885739998	0.40107011795	1.0	a	648.633997917																																	2015_Jun_24_1125	59.9516876449	LearningTask	1	63	
147	200.0	w	200.0																	1.0	0.0	1.0	0.0	5.0	3.0	23.0	0.0																													w	1.0	0.351548910141	None	0.0	2.0	invertedtriangleyellow.gif	stop																								1.84	0.5136170387269999	0.0008940696716310001	0.351548910141	1.0	w	651.6372439859999																																	2015_Jun_24_1125	59.9516876449	LearningTask	1	63	
148	200.0	w	200.0																	1.0	0.0	1.0	0.0	6.0	0.0	24.0	0.0																													w	1.0	0.48417496681199995	None	0.0	4.0	lineorange.gif	go																								4.24	0.514907121658	0.0008790493011469999	0.48417496681199995	1.0	w	654.640568972																																	2015_Jun_24_1125	59.9516876449	LearningTask	1	63	
149	-200.0	a	-200.0																	1.0	0.0	1.0	0.0	6.0	1.0	25.0	3.0																													a	1.0	0.43421006202699997	None	0.0	4.0	squaremagenta.gif	stop																								3.75	0.514318943024	0.00086498260498	0.43421006202699997	1.0	a	657.644450903																																	2015_Jun_24_1125	59.9516876449	LearningTask	1	63	
150	200.0	w	200.0																	1.0	0.0	1.0	0.0	6.0	2.0	26.0	0.0																													w	1.0	0.451132059097	None	0.0	1.0	trianglegreen.gif	stop																								1.18	0.5132470130919999	0.0009191036224369998	0.451132059097	1.0	w	660.647315979																																	2015_Jun_24_1125	59.9516876449	LearningTask	1	63	
151	200.0	s	-200.0																	1.0	0.0	1.0	0.0	6.0	3.0	27.0	2.0																													s	1.0	0.36729192733800003	None	0.0	4.0	squaremagenta.gif	stop																								4.23	0.514730215073	0.0009059906005860001	0.36729192733800003	1.0	s	663.6507658959999																																	2015_Jun_24_1125	59.9516876449	LearningTask	1	63	
152	200.0	w	200.0																	1.0	0.0	1.0	0.0	7.0	0.0	28.0	0.0																													w	1.0	0.434303045273	None	0.0	2.0	invertedtriangleyellow.gif	stop																								1.8	0.514344930649	0.0008780956268310002	0.434303045273	1.0	w	666.654196024																																	2015_Jun_24_1125	59.9516876449	LearningTask	1	63	
153	200.0	s	-200.0																	1.0	0.0	1.0	0.0	7.0	1.0	29.0	2.0																													s	1.0	0.401052951813	None	0.0	2.0	circlecyan.gif	go																								2.0	0.5142760276789999	0.0008950233459470001	0.401052951813	1.0	s	669.657440901																																	2015_Jun_24_1125	59.9516876449	LearningTask	1	63	
154	-200.0	a	-200.0																	1.0	0.0	1.0	0.0	7.0	2.0	30.0	3.0																													a	1.0	0.534411907196	None	0.0	0.5	diamondwhite.gif	go																								0.37	0.514219999313	0.0009629726409910001	0.534411907196	1.0	a	672.661200047																																	2015_Jun_24_1125	59.9516876449	LearningTask	1	63	
155	-200.0	a	-200.0																	1.0	0.0	1.0	0.0	7.0	3.0	31.0	3.0																													a	1.0	0.40137314796400003	None	0.0	1.0	crossblue.gif	go																								0.0	0.5140450000760001	0.0008859634399410001	0.40137314796400003	1.0	a	675.664300919																																	2015_Jun_24_1125	59.9516876449	LearningTask	1	63	
156	200.0	s	-200.0																	1.0	0.0	1.0	0.0	8.0	0.0	32.0	2.0																													s	1.0	0.467517852783	None	0.0	4.0	squaremagenta.gif	stop																								3.95	0.51442694664	0.0008780956268310002	0.467517852783	1.0	s	678.6675519940001																																	2015_Jun_24_1125	59.9516876449	LearningTask	1	63	
157	200.0	s	-200.0																	1.0	0.0	1.0	0.0	8.0	1.0	33.0	2.0																													s	1.0	0.417587041855	None	0.0	0.5	diamondwhite.gif	go																								0.65	0.514065027237	0.00106406211853	0.417587041855	1.0	s	681.670872927																																	2015_Jun_24_1125	59.9516876449	LearningTask	1	63	
158	200.0	s	-200.0																	1.0	0.0	1.0	0.0	8.0	2.0	34.0	2.0																													s	1.0	0.383746862411	None	0.0	1.0	trianglegreen.gif	stop																								1.03	0.514629125595	0.00112795829773	0.383746862411	1.0	s	684.674283028																																	2015_Jun_24_1125	59.9516876449	LearningTask	1	63	
159	200.0	w	200.0																	1.0	0.0	1.0	0.0	8.0	3.0	35.0	0.0																													w	1.0	0.36785912513700003	None	0.0	4.0	squaremagenta.gif	stop																								3.78	0.5141999721530001	0.0008721351623539999	0.36785912513700003	1.0	w	687.678519964																																	2015_Jun_24_1125	59.9516876449	LearningTask	1	63	
160	-200.0	q	200.0																	1.0	0.0	1.0	0.0	9.0	0.0	36.0	1.0																													q	1.0	0.433668851852	None	0.0	4.0	lineorange.gif	go																								0.0	0.51355099678	0.000880002975464	0.433668851852	1.0	q	690.681219101																																	2015_Jun_24_1125	59.9516876449	LearningTask	1	63	
161	200.0	w	200.0																	1.0	0.0	1.0	0.0	9.0	1.0	37.0	0.0																													w	1.0	0.384444952011	None	0.0	2.0	circlecyan.gif	go																								1.93	0.5142228603360001	0.0008840560913089999	0.384444952011	1.0	w	693.6844649310001																																	2015_Jun_24_1125	59.9516876449	LearningTask	1	63	
162	-200.0	a	-200.0																	1.0	0.0	1.0	0.0	9.0	2.0	38.0	3.0																													a	1.0	0.434079170227	None	0.0	2.0	circlecyan.gif	go																								0.0	0.514492034912	0.0009191036224369998	0.434079170227	1.0	a	696.688235998																																	2015_Jun_24_1125	59.9516876449	LearningTask	1	63	
163	200.0	w	200.0																	1.0	0.0	1.0	0.0	9.0	3.0	39.0	0.0																													w	1.0	0.417828083038	None	0.0	0.5	hexagongray.gif	stop																								0.0	0.513586044312	0.0009129047393799999	0.417828083038	1.0	w	699.691308975																																	2015_Jun_24_1125	59.9516876449	LearningTask	1	63	
164	-200.0	q	200.0																	1.0	0.0	1.0	0.0	10.0	0.0	40.0	1.0																													q	1.0	0.434255123138	None	0.0	0.5	hexagongray.gif	stop																								0.0	0.5141248703	0.000892877578735	0.434255123138	1.0	q	702.69444108																																	2015_Jun_24_1125	59.9516876449	LearningTask	1	63	
165	-200.0	a	-200.0																	1.0	0.0	1.0	0.0	10.0	1.0	41.0	3.0																													a	1.0	0.467653036118	None	0.0	1.0	crossblue.gif	go																								1.08	0.514865159988	0.0008931159973139998	0.467653036118	1.0	a	705.698113918																																	2015_Jun_24_1125	59.9516876449	LearningTask	1	63	
166	-200.0	q	200.0																	1.0	0.0	1.0	0.0	10.0	2.0	42.0	1.0																													q	1.0	0.434540987015	None	0.0	1.0	trianglegreen.gif	stop																								0.0	0.514656066895	0.0008919239044189998	0.434540987015	1.0	q	708.7012519839999																																	2015_Jun_24_1125	59.9516876449	LearningTask	1	63	
167	200.0	w	200.0																	1.0	0.0	1.0	0.0	10.0	3.0	43.0	0.0																													w	1.0	0.41760015487700003	None	0.0	1.0	trianglegreen.gif	stop																								0.9	0.514780044556	0.0009140968322749999	0.41760015487700003	1.0	w	711.7048480510001																																	2015_Jun_24_1125	59.9516876449	LearningTask	1	63	
168	-200.0	a	-200.0																	1.0	0.0	1.0	0.0	11.0	0.0	44.0	3.0																													a	1.0	0.534514904022	None	0.0	2.0	circlecyan.gif	go																								1.88	0.514295816422	0.000877857208252	0.534514904022	1.0	a	714.708180904																																	2015_Jun_24_1125	59.9516876449	LearningTask	1	63	
169	-200.0	a	-200.0																	1.0	0.0	1.0	0.0	11.0	1.0	45.0	3.0																													a	1.0	0.601157903671	None	0.0	0.5	diamondwhite.gif	go																								0.56	0.514363050461	0.0008831024169919999	0.601157903671	1.0	a	717.7113530639999																																	2015_Jun_24_1125	59.9516876449	LearningTask	1	63	
170	-200.0	q	200.0																	1.0	0.0	1.0	0.0	11.0	2.0	46.0	1.0																													q	1.0	0.46819210052500004	None	0.0	2.0	invertedtriangleyellow.gif	stop																								0.0	0.51406288147	0.0010249614715599998	0.46819210052500004	1.0	q	720.7149829860001																																	2015_Jun_24_1125	59.9516876449	LearningTask	1	63	
171	200.0	s	-200.0																	1.0	0.0	1.0	0.0	11.0	3.0	47.0	2.0																													s	1.0	0.467882871628	None	0.0	2.0	invertedtriangleyellow.gif	stop																								1.79	0.514034032822	0.000877141952515	0.467882871628	1.0	s	723.718244076																																	2015_Jun_24_1125	59.9516876449	LearningTask	1	63	
172	200.0	w	200.0																	1.0	0.0	1.0	0.0	12.0	0.0	48.0	0.0																													w	1.0	0.41770195960999995	None	0.0	2.0	invertedtriangleyellow.gif	stop																								0.0	0.514401912689	0.0009448528289790001	0.41770195960999995	1.0	w	726.722470045																																	2015_Jun_24_1125	59.9516876449	LearningTask	1	63	
173	-200.0	a	-200.0																	1.0	0.0	1.0	0.0	12.0	1.0	49.0	3.0																													a	1.0	0.61795091629	None	0.0	1.0	crossblue.gif	go																								0.85	0.513095855713	0.000892877578735	0.61795091629	1.0	a	729.725023985																																	2015_Jun_24_1125	59.9516876449	LearningTask	1	63	
174	200.0	w	200.0																	1.0	0.0	1.0	0.0	12.0	2.0	50.0	0.0																													w	1.0	0.43443608283999996	None	0.0	0.5	diamondwhite.gif	go																								0.0	0.514354944229	0.0008759498596189999	0.43443608283999996	1.0	w	732.728421926																																	2015_Jun_24_1125	59.9516876449	LearningTask	1	63	
175	-200.0	a	-200.0																	1.0	0.0	1.0	0.0	12.0	3.0	51.0	3.0																													a	1.0	0.567671060562	None	0.0	0.5	hexagongray.gif	stop																								0.0	0.514670848846	0.000885009765625	0.567671060562	1.0	a	735.7320599560001																																	2015_Jun_24_1125	59.9516876449	LearningTask	1	63	
176	200.0	s	-200.0																	1.0	0.0	1.0	0.0	13.0	0.0	52.0	2.0																													s	1.0	0.467436075211	None	0.0	1.0	trianglegreen.gif	stop																								0.75	0.513935089111	0.0009012222290039999	0.467436075211	1.0	s	738.735204935																																	2015_Jun_24_1125	59.9516876449	LearningTask	1	63	
177	-200.0	q	200.0																	1.0	0.0	1.0	0.0	13.0	1.0	53.0	1.0																													q	1.0	0.33473110199	None	0.0	4.0	squaremagenta.gif	stop																								4.08	0.5141999721530001	0.000881910324097	0.33473110199	1.0	q	741.738538027																																	2015_Jun_24_1125	59.9516876449	LearningTask	1	63	
178	200.0	w	200.0																	1.0	0.0	1.0	0.0	13.0	2.0	54.0	0.0																													w	1.0	0.334357976913	None	0.0	4.0	squaremagenta.gif	stop																								4.05	0.514095067978	0.0009450912475589999	0.334357976913	1.0	w	744.7424149510001																																	2015_Jun_24_1125	59.9516876449	LearningTask	1	63	
179	-200.0	q	200.0																	1.0	0.0	1.0	0.0	13.0	3.0	55.0	1.0																													q	1.0	0.484365940094	None	0.0	2.0	circlecyan.gif	go																								0.0	0.513642787933	0.0008718967437739999	0.484365940094	1.0	q	747.7452089789999																																	2015_Jun_24_1125	59.9516876449	LearningTask	1	63	
180	200.0	w	200.0																	1.0	0.0	1.0	0.0	14.0	0.0	56.0	0.0																													w	1.0	0.434468984604	None	0.0	1.0	crossblue.gif	go																								1.02	0.51460313797	0.00126600265503	0.434468984604	1.0	w	750.7489459510001																																	2015_Jun_24_1125	59.9516876449	LearningTask	1	63	
181	-200.0	a	-200.0																	1.0	0.0	1.0	0.0	14.0	1.0	57.0	3.0																													a	1.0	0.384259939194	None	0.0	2.0	circlecyan.gif	go																								2.22	0.513987779617	0.000879764556885	0.384259939194	1.0	a	753.752089977																																	2015_Jun_24_1125	59.9516876449	LearningTask	1	63	
182	-200.0	q	200.0																	1.0	0.0	1.0	0.0	14.0	2.0	58.0	1.0																													q	1.0	0.417778015137	None	0.0	1.0	trianglegreen.gif	stop																								0.92	0.514133930206	0.00088095664978	0.417778015137	1.0	q	756.755356073																																	2015_Jun_24_1125	59.9516876449	LearningTask	1	63	
183	200.0	w	200.0																	1.0	0.0	1.0	0.0	14.0	3.0	59.0	0.0																													w	1.0	0.451090097427	None	0.0	1.0	trianglegreen.gif	stop																								0.0	0.514266967773	0.00102090835571	0.451090097427	1.0	w	759.7590129380001																																	2015_Jun_24_1125	59.9516876449	LearningTask	1	63	
184	200.0	s	-200.0																	1.0	0.0	1.0	0.0	15.0	0.0	60.0	2.0																													s	1.0	0.40088987350500005	None	0.0	2.0	circlecyan.gif	go																								1.94	0.5140898227690001	0.000881910324097	0.40088987350500005	1.0	s	762.762157917																																	2015_Jun_24_1125	59.9516876449	LearningTask	1	63	
185	200.0	w	200.0																	1.0	0.0	1.0	0.0	15.0	1.0	61.0	0.0																													w	1.0	0.35103797912600004	None	0.0	2.0	circlecyan.gif	go																								1.9	0.514050960541	0.0008759498596189999	0.35103797912600004	1.0	w	765.7657248969999																																	2015_Jun_24_1125	59.9516876449	LearningTask	1	63	
186	200.0	w	200.0																	1.0	0.0	1.0	0.0	15.0	2.0	62.0	0.0																													w	1.0	0.48418498039200003	None	0.0	1.0	crossblue.gif	go																								0.99	0.513942956924	0.000930070877075	0.48418498039200003	1.0	w	768.7689468860001																																	2015_Jun_24_1125	59.9516876449	LearningTask	1	63	
187	200.0	w	200.0																	1.0	0.0	1.0	0.0	15.0	3.0	63.0	0.0																													w	1.0	0.38424992561300003	None	0.0	1.0	trianglegreen.gif	stop																								0.81	0.514302015305	0.0008759498596189999	0.38424992561300003	1.0	w	771.7723629469999																																	2015_Jun_24_1125	59.9516876449	LearningTask	1	63	
188	200.0	s	-200.0																	1.0	0.0	1.0	0.0	16.0	0.0	64.0	2.0																													s	1.0	0.417605876923	None	0.0	1.0	trianglegreen.gif	stop																								1.03	0.514262914658	0.0008790493011469999	0.417605876923	1.0	s	774.775624037																																	2015_Jun_24_1125	59.9516876449	LearningTask	1	63	
189	200.0	s	-200.0																	1.0	0.0	1.0	0.0	16.0	1.0	65.0	2.0																													s	1.0	0.451144933701	None	0.0	1.0	crossblue.gif	go																								1.23	0.5138900279999999	0.000892877578735	0.451144933701	1.0	s	777.77888608																																	2015_Jun_24_1125	59.9516876449	LearningTask	1	63	
190	-200.0	a	-200.0																	1.0	0.0	1.0	0.0	16.0	2.0	66.0	3.0																													a	1.0	0.534992933273	None	0.0	1.0	trianglegreen.gif	stop																								0.0	0.51429104805	0.000881910324097	0.534992933273	1.0	a	780.782414913																																	2015_Jun_24_1125	59.9516876449	LearningTask	1	63	
191	-200.0	q	200.0																	1.0	0.0	1.0	0.0	16.0	3.0	67.0	1.0																													q	1.0	0.40069508552599997	None	0.0	2.0	invertedtriangleyellow.gif	stop																								0.0	0.514543056488	0.000885009765625	0.40069508552599997	1.0	q	783.7863130569999																																	2015_Jun_24_1125	59.9516876449	LearningTask	1	63	
192	-200.0	a	-200.0																	1.0	0.0	1.0	0.0	17.0	0.0	68.0	3.0																													a	1.0	0.417449951172	None	0.0	1.0	trianglegreen.gif	stop																								1.24	0.5135560035710001	0.0008859634399410001	0.417449951172	1.0	a	786.78908205																																	2015_Jun_24_1125	59.9516876449	LearningTask	1	63	
193	200.0	s	-200.0																	1.0	0.0	1.0	0.0	17.0	1.0	69.0	2.0																													s	1.0	0.434085130692	None	0.0	2.0	circlecyan.gif	go																								2.12	0.514425992966	0.0008840560913089999	0.434085130692	1.0	s	789.792347908																																	2015_Jun_24_1125	59.9516876449	LearningTask	1	63	
194	-200.0	a	-200.0																	1.0	0.0	1.0	0.0	17.0	2.0	70.0	3.0																													a	1.0	0.434302091599	None	0.0	1.0	crossblue.gif	go																								1.11	0.514415025711	0.000880002975464	0.434302091599	1.0	a	792.796339035																																	2015_Jun_24_1125	59.9516876449	LearningTask	1	63	
195	200.0	s	-200.0																	1.0	0.0	1.0	0.0	17.0	3.0	71.0	2.0																													s	1.0	0.468103170395	None	0.0	0.5	hexagongray.gif	stop																								0.62	0.513722896576	0.000907897949219	0.468103170395	1.0	s	795.799292088																																	2015_Jun_24_1125	59.9516876449	LearningTask	1	63	
196	200.0	s	-200.0																	1.0	0.0	1.0	0.0	18.0	0.0	72.0	2.0																													s	1.0	0.317457914352	None	0.0	2.0	invertedtriangleyellow.gif	stop																								1.75	0.514321804047	0.000986814498901	0.317457914352	1.0	s	798.802664042																																	2015_Jun_24_1125	59.9516876449	LearningTask	1	63	
197	200.0	w	200.0																	1.0	0.0	1.0	0.0	18.0	1.0	73.0	0.0																													w	1.0	0.367355108261	None	0.0	4.0	squaremagenta.gif	stop																								0.0	0.514480113983	0.000871181488037	0.367355108261	1.0	w	801.8062250610001																																	2015_Jun_24_1125	59.9516876449	LearningTask	1	63	
198	200.0	s	-200.0																	1.0	0.0	1.0	0.0	18.0	2.0	74.0	2.0																													s	1.0	0.367852926254	None	0.0	2.0	circlecyan.gif	go																								0.0	0.514009952545	0.000881910324097	0.367852926254	1.0	s	804.8092720510001																																	2015_Jun_24_1125	59.9516876449	LearningTask	1	63	
199	200.0	s	-200.0																	1.0	0.0	1.0	0.0	18.0	3.0	75.0	2.0																													s	1.0	0.367817878723	None	0.0	1.0	trianglegreen.gif	stop																								0.79	0.514189958572	0.00102996826172	0.367817878723	1.0	s	807.8130340580001																																	2015_Jun_24_1125	59.9516876449	LearningTask	1	63	
200	-200.0	a	-200.0																	1.0	0.0	1.0	0.0	19.0	0.0	76.0	3.0																													a	1.0	0.468209981918	None	0.0	4.0	lineorange.gif	go																								4.21	0.51388502121	0.0008859634399410001	0.468209981918	1.0	a	810.816176891																																	2015_Jun_24_1125	59.9516876449	LearningTask	1	63	
201	200.0	s	-200.0																	1.0	0.0	1.0	0.0	19.0	1.0	77.0	2.0																													s	1.0	0.35135602951	None	0.0	1.0	crossblue.gif	go																								0.83	0.514420986176	0.0008790493011469999	0.35135602951	1.0	s	813.819427967																																	2015_Jun_24_1125	59.9516876449	LearningTask	1	63	
202	-200.0	q	200.0																	1.0	0.0	1.0	0.0	19.0	2.0	78.0	1.0																													q	1.0	0.451075077057	None	0.0	1.0	crossblue.gif	go																								0.0	0.514089107513	0.00092601776123	0.451075077057	1.0	q	816.822869062																																	2015_Jun_24_1125	59.9516876449	LearningTask	1	63	
203	-200.0	a	-200.0																	1.0	0.0	1.0	0.0	19.0	3.0	79.0	3.0																													a	1.0	0.41761898994400004	None	0.0	1.0	trianglegreen.gif	stop																								1.03	0.514694929123	0.0008749961853029999	0.41761898994400004	1.0	a	819.82625103																																	2015_Jun_24_1125	59.9516876449	LearningTask	1	63	
204	-200.0	q	200.0																	1.0	0.0	1.0	0.0	20.0	0.0	80.0	1.0																													q	1.0	0.41754007339500004	None	0.0	4.0	lineorange.gif	go																								3.92	0.5143430233	0.0009469985961910001	0.41754007339500004	1.0	q	822.829883099																																	2015_Jun_24_1125	59.9516876449	LearningTask	1	63	
205	200.0	s	-200.0																	1.0	0.0	1.0	0.0	20.0	1.0	81.0	2.0																													s	1.0	0.41730690002400006	None	0.0	2.0	invertedtriangleyellow.gif	stop																								1.99	0.514110088348	0.0008959770202639998	0.41730690002400006	1.0	s	825.833014011																																	2015_Jun_24_1125	59.9516876449	LearningTask	1	63	
206	200.0	w	200.0																	1.0	0.0	1.0	0.0	20.0	2.0	82.0	0.0																													w	1.0	0.41779303550700003	None	0.0	1.0	trianglegreen.gif	stop																								0.0	0.514441013336	0.0008759498596189999	0.41779303550700003	1.0	w	828.836363077																																	2015_Jun_24_1125	59.9516876449	LearningTask	1	63	
207	-200.0	q	200.0																	1.0	0.0	1.0	0.0	20.0	3.0	83.0	1.0																													q	1.0	0.350944042206	None	0.0	0.5	hexagongray.gif	stop																								0.59	0.5142760276789999	0.0009119510650630002	0.350944042206	1.0	q	831.840020895																																	2015_Jun_24_1125	59.9516876449	LearningTask	1	63	
208	-200.0	a	-200.0																	1.0	0.0	1.0	0.0	21.0	0.0	84.0	3.0																													a	1.0	0.317211866379	None	0.0	4.0	squaremagenta.gif	stop																								3.98	0.51397395134	0.000918865203857	0.317211866379	1.0	a	834.8432590960001																																	2015_Jun_24_1125	59.9516876449	LearningTask	1	63	
209	-200.0	q	200.0																	1.0	0.0	1.0	0.0	21.0	1.0	85.0	1.0																													q	1.0	0.38440084457400003	None	0.0	0.5	diamondwhite.gif	go																								0.0	0.514128923416	0.00102806091309	0.38440084457400003	1.0	q	837.846306086																																	2015_Jun_24_1125	59.9516876449	LearningTask	1	63	
210	-200.0	q	200.0																	1.0	0.0	1.0	0.0	21.0	2.0	86.0	1.0																													q	1.0	0.350673913956	None	0.0	4.0	squaremagenta.gif	stop																								0.0	0.514833927155	0.0008709430694580001	0.350673913956	1.0	q	840.850044012																																	2015_Jun_24_1125	59.9516876449	LearningTask	1	63	
211	200.0	w	200.0																	1.0	0.0	1.0	0.0	21.0	3.0	87.0	0.0																													w	1.0	0.400536060333	None	0.0	0.5	hexagongray.gif	stop																								0.0	0.514485120773	0.0008831024169919999	0.400536060333	1.0	w	843.85335803																																	2015_Jun_24_1125	59.9516876449	LearningTask	1	63	
212	-200.0	q	200.0																	1.0	0.0	1.0	0.0	22.0	0.0	88.0	1.0																													q	1.0	0.417407035828	None	0.0	4.0	squaremagenta.gif	stop																								0.0	0.5142681598659999	0.00103807449341	0.417407035828	1.0	q	846.856509924																																	2015_Jun_24_1125	59.9516876449	LearningTask	1	63	
213	-200.0	a	-200.0																	1.0	0.0	1.0	0.0	22.0	1.0	89.0	3.0																													a	1.0	0.450643062592	None	0.0	4.0	lineorange.gif	go																								3.92	0.5148961544039999	0.0008721351623539999	0.450643062592	1.0	a	849.860069036																																	2015_Jun_24_1125	59.9516876449	LearningTask	1	63	
214	-200.0	q	200.0																	1.0	0.0	1.0	0.0	22.0	2.0	90.0	1.0																													q	1.0	0.434544086456	None	0.0	0.5	hexagongray.gif	stop																								0.57	0.514609098434	0.000888109207153	0.434544086456	1.0	q	852.8634400369999																																	2015_Jun_24_1125	59.9516876449	LearningTask	1	63	
215	-200.0	q	200.0																	1.0	0.0	1.0	0.0	22.0	3.0	91.0	1.0																													q	1.0	0.368241071701	None	0.0	0.5	hexagongray.gif	stop																								0.0	0.5136690139769999	0.0010440349578899998	0.368241071701	1.0	q	855.8667809960001																																	2015_Jun_24_1125	59.9516876449	LearningTask	1	63	
216	-200.0	q	200.0																	1.0	0.0	1.0	0.0	23.0	0.0	92.0	1.0																													q	1.0	0.36743593215899994	None	0.0	1.0	trianglegreen.gif	stop																								0.86	0.514414072037	0.0008790493011469999	0.36743593215899994	1.0	q	858.870132923																																	2015_Jun_24_1125	59.9516876449	LearningTask	1	63	
217	-200.0	a	-200.0																	1.0	0.0	1.0	0.0	23.0	1.0	93.0	3.0																													a	1.0	0.36790895461999995	None	0.0	2.0	invertedtriangleyellow.gif	stop																								2.24	0.51429605484	0.000877141952515	0.36790895461999995	1.0	a	861.8734450339999																																	2015_Jun_24_1125	59.9516876449	LearningTask	1	63	
218	-200.0	a	-200.0																	1.0	0.0	1.0	0.0	23.0	2.0	94.0	3.0																													a	1.0	0.384546995163	None	0.0	4.0	lineorange.gif	go																								4.23	0.514173030853	0.0009160041809079999	0.384546995163	1.0	a	864.8768360610001																																	2015_Jun_24_1125	59.9516876449	LearningTask	1	63	
219	200.0	w	200.0																	1.0	0.0	1.0	0.0	23.0	3.0	95.0	0.0																													w	1.0	0.368002176285	None	0.0	0.5	diamondwhite.gif	go																								0.0	0.514429092407	0.0008749961853029999	0.368002176285	1.0	w	867.8802409169999																																	2015_Jun_24_1125	59.9516876449	LearningTask	1	63	
220	200.0	s	-200.0																	1.0	0.0	1.0	0.0	24.0	0.0	96.0	2.0																													s	1.0	0.417490005493	None	0.0	1.0	crossblue.gif	go																								0.81	0.514657020569	0.000880002975464	0.417490005493	1.0	s	870.8838469980001																																	2015_Jun_24_1125	59.9516876449	LearningTask	1	63	
221	-200.0	a	-200.0																	1.0	0.0	1.0	0.0	24.0	1.0	97.0	3.0																													a	1.0	0.36795091629	None	0.0	0.5	diamondwhite.gif	go																								0.57	0.513911962509	0.0011789798736600002	0.36795091629	1.0	a	873.8870968819999																																	2015_Jun_24_1125	59.9516876449	LearningTask	1	63	
222	200.0	s	-200.0																	1.0	0.0	1.0	0.0	24.0	2.0	98.0	2.0																													s	1.0	0.417312145233	None	0.0	4.0	lineorange.gif	go																								3.88	0.514622926712	0.0008759498596189999	0.417312145233	1.0	s	876.890300035																																	2015_Jun_24_1125	59.9516876449	LearningTask	1	63	
223	-200.0	a	-200.0																	1.0	0.0	1.0	0.0	24.0	3.0	99.0	3.0																													a	1.0	0.467858791351	None	0.0	4.0	lineorange.gif	go																								3.93	0.51450586319	0.0008740425109860002	0.467858791351	1.0	a	879.8939619060001																																	2015_Jun_24_1125	59.9516876449	LearningTask	1	63	
224																				1.0	0.0	1.0	0.0																																																																							9.0	13.5522711277																															2015_Jun_24_1125	59.9516876449	LearningTask	1	63	
225	-200.0	q	200.0																	2.0	0.0	2.0	0.0	0.0	0.0	0.0	1.0																													q	1.0	0.41834902763400006	None	0.0	2.0	invertedtriangleyellow.gif	stop																								2.17	0.508744001389	0.0010738372802700001	0.41834902763400006	1.0	q	897.030906916																																	2015_Jun_24_1125	59.9516876449	LearningTask	1	63	
226	200.0	s	-200.0																	2.0	0.0	2.0	0.0	0.0	1.0	1.0	2.0																													s	1.0	0.351333856583	None	0.0	2.0	circlecyan.gif	go																								2.12	0.513037919998	0.00088906288147	0.351333856583	1.0	s	900.033250093																																	2015_Jun_24_1125	59.9516876449	LearningTask	1	63	
227	-200.0	q	200.0																	2.0	0.0	2.0	0.0	0.0	2.0	2.0	1.0																													q	1.0	0.334319114685	None	0.0	0.5	hexagongray.gif	stop																								0.43	0.513940811157	0.0009198188781739999	0.334319114685	1.0	q	903.0363090039999																																	2015_Jun_24_1125	59.9516876449	LearningTask	1	63	
228	-200.0	a	-200.0																	2.0	0.0	2.0	0.0	0.0	3.0	3.0	3.0																													a	1.0	0.417826890945	None	0.0	4.0	lineorange.gif	go																								4.11	0.514382123947	0.00088095664978	0.417826890945	1.0	a	906.040040016																																	2015_Jun_24_1125	59.9516876449	LearningTask	1	63	
229	-200.0	q	200.0																	2.0	0.0	2.0	0.0	1.0	0.0	4.0	1.0																													q	1.0	0.38453388214100004	None	0.0	0.5	hexagongray.gif	stop																								0.38	0.514219999313	0.000885009765625	0.38453388214100004	1.0	q	909.043341875																																	2015_Jun_24_1125	59.9516876449	LearningTask	1	63	
230	-200.0	q	200.0																	2.0	0.0	2.0	0.0	1.0	1.0	5.0	1.0																													q	1.0	0.351361989975	None	0.0	4.0	squaremagenta.gif	stop																								3.81	0.514172077179	0.0009319782257080001	0.351361989975	1.0	q	912.0464749339999																																	2015_Jun_24_1125	59.9516876449	LearningTask	1	63	
231	-200.0	q	200.0																	2.0	0.0	2.0	0.0	1.0	2.0	6.0	1.0																													q	1.0	0.350972890854	None	0.0	2.0	circlecyan.gif	go																								1.87	0.51461315155	0.000880002975464	0.350972890854	1.0	q	915.050092936																																	2015_Jun_24_1125	59.9516876449	LearningTask	1	63	
232	-200.0	q	200.0																	2.0	0.0	2.0	0.0	1.0	3.0	7.0	1.0																													q	1.0	0.384253978729	None	0.0	0.5	hexagongray.gif	stop																								0.3	0.514248132706	0.000885009765625	0.384253978729	1.0	q	918.053606987																																	2015_Jun_24_1125	59.9516876449	LearningTask	1	63	
233	200.0	s	-200.0																	2.0	0.0	2.0	0.0	2.0	0.0	8.0	2.0																													s	1.0	0.384422063828	None	0.0	1.0	trianglegreen.gif	stop																								0.0	0.5136179924009999	0.00111508369446	0.384422063828	1.0	s	921.05686307																																	2015_Jun_24_1125	59.9516876449	LearningTask	1	63	
234	-200.0	a	-200.0																	2.0	0.0	2.0	0.0	2.0	1.0	9.0	3.0																													a	1.0	0.367640972137	None	0.0	4.0	squaremagenta.gif	stop																								0.0	0.514427900314	0.00086498260498	0.367640972137	1.0	a	924.0601389410001																																	2015_Jun_24_1125	59.9516876449	LearningTask	1	63	
235	200.0	w	200.0																	2.0	0.0	2.0	0.0	2.0	2.0	10.0	0.0																													w	1.0	0.36749601364100004	None	0.0	1.0	crossblue.gif	go																								0.9	0.514415979385	0.000881910324097	0.36749601364100004	1.0	w	927.063441992																																	2015_Jun_24_1125	59.9516876449	LearningTask	1	63	
236	-200.0	a	-200.0																	2.0	0.0	2.0	0.0	2.0	3.0	11.0	3.0																													a	1.0	0.33443808555599996	None	0.0	4.0	squaremagenta.gif	stop																								4.19	0.514242172241	0.0009031295776369999	0.33443808555599996	1.0	a	930.066926003																																	2015_Jun_24_1125	59.9516876449	LearningTask	1	63	
237	200.0	s	-200.0																	2.0	0.0	2.0	0.0	3.0	0.0	12.0	2.0																													s	1.0	0.350664138794	None	0.0	1.0	trianglegreen.gif	stop																								0.91	0.514461040497	0.00087308883667	0.350664138794	1.0	s	933.070343971																																	2015_Jun_24_1125	59.9516876449	LearningTask	1	63	
238	-200.0	q	200.0																	2.0	0.0	2.0	0.0	3.0	1.0	13.0	1.0																													q	1.0	0.367195129395	None	0.0	0.5	hexagongray.gif	stop																								0.0	0.514477014542	0.0008859634399410001	0.367195129395	1.0	q	936.073925972																																	2015_Jun_24_1125	59.9516876449	LearningTask	1	63	
239	-200.0	a	-200.0																	2.0	0.0	2.0	0.0	3.0	2.0	14.0	3.0																													a	1.0	0.400963068008	None	0.0	1.0	crossblue.gif	go																								0.93	0.5136821269990001	0.0008740425109860002	0.400963068008	1.0	a	939.077079058																																	2015_Jun_24_1125	59.9516876449	LearningTask	1	63	
240	-200.0	q	200.0																	2.0	0.0	2.0	0.0	3.0	3.0	15.0	1.0																													q	1.0	0.368104934692	None	0.0	2.0	circlecyan.gif	go																								0.0	0.514305114746	0.0008718967437739999	0.368104934692	1.0	q	942.0805470939999																																	2015_Jun_24_1125	59.9516876449	LearningTask	1	63	
241	-200.0	q	200.0																	2.0	0.0	2.0	0.0	4.0	0.0	16.0	1.0																													q	1.0	0.334137916565	None	0.0	4.0	squaremagenta.gif	stop																								4.1	0.514182090759	0.0008709430694580001	0.334137916565	1.0	q	945.084222078																																	2015_Jun_24_1125	59.9516876449	LearningTask	1	63	
242	200.0	s	-200.0																	2.0	0.0	2.0	0.0	4.0	1.0	17.0	2.0																													s	1.0	0.417541980743	None	0.0	2.0	invertedtriangleyellow.gif	stop																								1.89	0.513677835464	0.00092601776123	0.417541980743	1.0	s	948.0872519019999																																	2015_Jun_24_1125	59.9516876449	LearningTask	1	63	
243	-200.0	a	-200.0																	2.0	0.0	2.0	0.0	4.0	2.0	18.0	3.0																													a	1.0	0.334290981293	None	0.0	1.0	crossblue.gif	go																								0.87	0.5141859054569999	0.0010139942169199998	0.334290981293	1.0	a	951.09077692																																	2015_Jun_24_1125	59.9516876449	LearningTask	1	63	
244	-200.0	q	200.0																	2.0	0.0	2.0	0.0	4.0	3.0	19.0	1.0																													q	1.0	0.367804050446	None	0.0	4.0	lineorange.gif	go																								4.06	0.514137029648	0.00087308883667	0.367804050446	1.0	q	954.094023943																																	2015_Jun_24_1125	59.9516876449	LearningTask	1	63	
245	-200.0	a	-200.0																	2.0	0.0	2.0	0.0	5.0	0.0	20.0	3.0																													a	1.0	0.334743022919	None	0.0	2.0	invertedtriangleyellow.gif	stop																								1.85	0.514310836792	0.0008788108825680001	0.334743022919	1.0	a	957.097239971																																	2015_Jun_24_1125	59.9516876449	LearningTask	1	63	
246	-200.0	a	-200.0																	2.0	0.0	2.0	0.0	5.0	1.0	21.0	3.0																													a	1.0	0.401005983353	None	0.0	2.0	invertedtriangleyellow.gif	stop																								1.97	0.514196157455	0.00109195709229	0.401005983353	1.0	a	960.101010084																																	2015_Jun_24_1125	59.9516876449	LearningTask	1	63	
247	-200.0	q	200.0																	2.0	0.0	2.0	0.0	5.0	2.0	22.0	1.0																													q	1.0	0.384110927582	None	0.0	4.0	squaremagenta.gif	stop																								4.18	0.514015197754	0.00087308883667	0.384110927582	1.0	q	963.103996992																																	2015_Jun_24_1125	59.9516876449	LearningTask	1	63	
248	200.0	s	-200.0																	2.0	0.0	2.0	0.0	5.0	3.0	23.0	2.0																													s	1.0	0.333751916885	None	0.0	4.0	squaremagenta.gif	stop																								0.0	0.514603853226	0.0008668899536130001	0.333751916885	1.0	s	966.107434034																																	2015_Jun_24_1125	59.9516876449	LearningTask	1	63	
249	-200.0	q	200.0																	2.0	0.0	2.0	0.0	6.0	0.0	24.0	1.0																													q	1.0	0.3512570858	None	0.0	0.5	hexagongray.gif	stop																								0.48	0.514085054398	0.0010600090026900001	0.3512570858	1.0	q	969.110833883																																	2015_Jun_24_1125	59.9516876449	LearningTask	1	63	
250	200.0	s	-200.0																	2.0	0.0	2.0	0.0	6.0	1.0	25.0	2.0																													s	1.0	0.367818832397	None	0.0	4.0	lineorange.gif	go																								4.24	0.514573097229	0.0008718967437739999	0.367818832397	1.0	s	972.114162922																																	2015_Jun_24_1125	59.9516876449	LearningTask	1	63	
251	-200.0	a	-200.0																	2.0	0.0	2.0	0.0	6.0	2.0	26.0	3.0																													a	1.0	0.40114402770999996	None	0.0	4.0	lineorange.gif	go																								3.91	0.514326095581	0.000869989395142	0.40114402770999996	1.0	a	975.117803097																																	2015_Jun_24_1125	59.9516876449	LearningTask	1	63	
252	200.0	s	-200.0																	2.0	0.0	2.0	0.0	6.0	3.0	27.0	2.0																													s	1.0	0.35124611854599996	None	0.0	2.0	circlecyan.gif	go																								1.76	0.513479948044	0.000888109207153	0.35124611854599996	1.0	s	978.12085104																																	2015_Jun_24_1125	59.9516876449	LearningTask	1	63	
253	-200.0	a	-200.0																	2.0	0.0	2.0	0.0	7.0	0.0	28.0	3.0																													a	1.0	0.350826025009	None	0.0	0.5	diamondwhite.gif	go																								0.52	0.514441013336	0.0008859634399410001	0.350826025009	1.0	a	981.124254942																																	2015_Jun_24_1125	59.9516876449	LearningTask	1	63	
254	-200.0	q	200.0																	2.0	0.0	2.0	0.0	7.0	1.0	29.0	1.0																													q	1.0	0.334150075912	None	0.0	1.0	trianglegreen.gif	stop																								1.2	0.514469861984	0.0008728504180910001	0.334150075912	1.0	q	984.128107071																																	2015_Jun_24_1125	59.9516876449	LearningTask	1	63	
255	-200.0	a	-200.0																	2.0	0.0	2.0	0.0	7.0	2.0	30.0	3.0																													a	1.0	0.351066112518	None	0.0	0.5	diamondwhite.gif	go																								0.0	0.513869047165	0.0008919239044189998	0.351066112518	1.0	a	987.131236076																																	2015_Jun_24_1125	59.9516876449	LearningTask	1	63	
256	-200.0	a	-200.0																	2.0	0.0	2.0	0.0	7.0	3.0	31.0	3.0																													a	1.0	0.334255933762	None	0.0	0.5	diamondwhite.gif	go																								0.74	0.514027118683	0.00093412399292	0.334255933762	1.0	a	990.134345055																																	2015_Jun_24_1125	59.9516876449	LearningTask	1	63	
257	200.0	s	-200.0																	2.0	0.0	2.0	0.0	8.0	0.0	32.0	2.0																													s	1.0	0.35126900672899997	None	0.0	0.5	diamondwhite.gif	go																								0.49	0.514452934265	0.00088095664978	0.35126900672899997	1.0	s	993.1382338999999																																	2015_Jun_24_1125	59.9516876449	LearningTask	1	63	
258	-200.0	a	-200.0																	2.0	0.0	2.0	0.0	8.0	1.0	33.0	3.0																													a	1.0	0.40077710151699997	None	0.0	1.0	trianglegreen.gif	stop																								1.08	0.513761043549	0.0009059906005860001	0.40077710151699997	1.0	a	996.1409990789999																																	2015_Jun_24_1125	59.9516876449	LearningTask	1	63	
259	200.0	w	200.0																	2.0	0.0	2.0	0.0	8.0	2.0	34.0	0.0																													w	1.0	0.33417415618900004	None	0.0	1.0	crossblue.gif	go																								1.01	0.514617919922	0.0009069442749019998	0.33417415618900004	1.0	w	999.1445379260001																																	2015_Jun_24_1125	59.9516876449	LearningTask	1	63	
260	200.0	s	-200.0																	2.0	0.0	2.0	0.0	8.0	3.0	35.0	2.0																													s	1.0	0.367365121841	None	0.0	0.5	diamondwhite.gif	go																								0.74	0.514590978622	0.0008749961853029999	0.367365121841	1.0	s	1002.14787197																																	2015_Jun_24_1125	59.9516876449	LearningTask	1	63	
261	200.0	s	-200.0																	2.0	0.0	2.0	0.0	9.0	0.0	36.0	2.0																													s	1.0	0.367331027985	None	0.0	1.0	crossblue.gif	go																								0.0	0.514409065247	0.000880002975464	0.367331027985	1.0	s	1005.15124488																																	2015_Jun_24_1125	59.9516876449	LearningTask	1	63	
262	200.0	w	200.0																	2.0	0.0	2.0	0.0	9.0	1.0	37.0	0.0																													w	1.0	0.38435602188100004	None	0.0	2.0	circlecyan.gif	go																								1.95	0.5140960216520001	0.00113201141357	0.38435602188100004	1.0	w	1008.15473199																																	2015_Jun_24_1125	59.9516876449	LearningTask	1	63	
263	-200.0	a	-200.0																	2.0	0.0	2.0	0.0	9.0	2.0	38.0	3.0																													a	1.0	0.384088039398	None	0.0	0.5	diamondwhite.gif	go																								0.42	0.514484882355	0.00089693069458	0.384088039398	1.0	a	1011.15809894																																	2015_Jun_24_1125	59.9516876449	LearningTask	1	63	
264	-200.0	q	200.0																	2.0	0.0	2.0	0.0	9.0	3.0	39.0	1.0																													q	1.0	0.367176055908	None	0.0	0.5	hexagongray.gif	stop																								0.0	0.514575004578	0.0008831024169919999	0.367176055908	1.0	q	1014.16133904																																	2015_Jun_24_1125	59.9516876449	LearningTask	1	63	
265	200.0	w	200.0																	2.0	0.0	2.0	0.0	10.0	0.0	40.0	0.0																													w	1.0	0.551326990128	None	0.0	1.0	trianglegreen.gif	stop																								0.0	0.514209032059	0.000922918319702	0.551326990128	1.0	w	1017.16469407																																	2015_Jun_24_1125	59.9516876449	LearningTask	1	63	
266	-200.0	q	200.0																	2.0	0.0	2.0	0.0	10.0	1.0	41.0	1.0																													q	1.0	0.368001937866	None	0.0	4.0	squaremagenta.gif	stop																								3.82	0.5144450664519999	0.000869035720825	0.368001937866	1.0	q	1020.16825604																																	2015_Jun_24_1125	59.9516876449	LearningTask	1	63	
267	200.0	s	-200.0																	2.0	0.0	2.0	0.0	10.0	2.0	42.0	2.0																													s	1.0	0.40062212944	None	0.0	4.0	squaremagenta.gif	stop																								3.88	0.514436006546	0.0008759498596189999	0.40062212944	1.0	s	1023.17162991																																	2015_Jun_24_1125	59.9516876449	LearningTask	1	63	
268	200.0	w	200.0																	2.0	0.0	2.0	0.0	10.0	3.0	43.0	0.0																													w	1.0	0.367525815964	None	0.0	1.0	crossblue.gif	go																								0.87	0.5140361785890001	0.000892162322998	0.367525815964	1.0	w	1026.17499399																																	2015_Jun_24_1125	59.9516876449	LearningTask	1	63	
269	200.0	s	-200.0																	2.0	0.0	2.0	0.0	11.0	0.0	44.0	2.0																													s	1.0	0.350610017776	None	0.0	4.0	lineorange.gif	go																								4.16	0.514420032501	0.0008759498596189999	0.350610017776	1.0	s	1029.17835593																																	2015_Jun_24_1125	59.9516876449	LearningTask	1	63	
270	-200.0	a	-200.0																	2.0	0.0	2.0	0.0	11.0	1.0	45.0	3.0																													a	1.0	0.350917100906	None	0.0	2.0	circlecyan.gif	go																								2.25	0.5141868591309999	0.000881910324097	0.350917100906	1.0	a	1032.18254995																																	2015_Jun_24_1125	59.9516876449	LearningTask	1	63	
271	200.0	s	-200.0																	2.0	0.0	2.0	0.0	11.0	2.0	46.0	2.0																													s	1.0	0.350723981857	None	0.0	4.0	lineorange.gif	go																								3.9	0.513394117355	0.000888109207153	0.350723981857	1.0	s	1035.18506598																																	2015_Jun_24_1125	59.9516876449	LearningTask	1	63	
272	200.0	w	200.0																	2.0	0.0	2.0	0.0	11.0	3.0	47.0	0.0																													w	1.0	0.384145021439	None	0.0	1.0	trianglegreen.gif	stop																								0.95	0.514570951462	0.0009119510650630002	0.384145021439	1.0	w	1038.18856788																																	2015_Jun_24_1125	59.9516876449	LearningTask	1	63	
273	200.0	w	200.0																	2.0	0.0	2.0	0.0	12.0	0.0	48.0	0.0																													w	1.0	0.45100879669200006	None	0.0	4.0	squaremagenta.gif	stop																								4.03	0.514219045639	0.0008718967437739999	0.45100879669200006	1.0	w	1041.19199491																																	2015_Jun_24_1125	59.9516876449	LearningTask	1	63	
274	200.0	w	200.0																	2.0	0.0	2.0	0.0	12.0	1.0	49.0	0.0																													w	1.0	0.384074926376	None	0.0	0.5	hexagongray.gif	stop																								0.73	0.514491081238	0.0008840560913089999	0.384074926376	1.0	w	1044.19514894																																	2015_Jun_24_1125	59.9516876449	LearningTask	1	63	
275	200.0	w	200.0																	2.0	0.0	2.0	0.0	12.0	2.0	50.0	0.0																													w	1.0	0.3678150177	None	0.0	4.0	lineorange.gif	go																								3.92	0.514280080795	0.001060962677	0.3678150177	1.0	w	1047.19834709																																	2015_Jun_24_1125	59.9516876449	LearningTask	1	63	
276	-200.0	q	200.0																	2.0	0.0	2.0	0.0	12.0	3.0	51.0	1.0																													q	1.0	0.350878000259	None	0.0	2.0	circlecyan.gif	go																								1.89	0.514391899109	0.000898838043213	0.350878000259	1.0	q	1050.20216703																																	2015_Jun_24_1125	59.9516876449	LearningTask	1	63	
277	200.0	w	200.0																	2.0	0.0	2.0	0.0	13.0	0.0	52.0	0.0																													w	1.0	0.40068793296800004	None	0.0	1.0	crossblue.gif	go																								0.0	0.5139188766480001	0.000880002975464	0.40068793296800004	1.0	w	1053.20530796																																	2015_Jun_24_1125	59.9516876449	LearningTask	1	63	
278	-200.0	a	-200.0																	2.0	0.0	2.0	0.0	13.0	1.0	53.0	3.0																													a	1.0	0.451001882553	None	0.0	4.0	lineorange.gif	go																								0.0	0.514282941818	0.00103878974915	0.35067105293300005	0.0	q	1056.20878792			0.21241092681899998	4.02	0.515485048294	0.000949859619141	0.451001882553	1.0	a	1059.212363																							2015_Jun_24_1125	59.9516876449	LearningTask	1	63	
279	200.0	s	-200.0																	2.0	0.0	2.0	0.0	13.0	2.0	54.0	2.0																													s	1.0	0.3342628479	None	0.0	2.0	invertedtriangleyellow.gif	stop																								2.06	0.5139951705929999	0.000885009765625	0.3342628479	1.0	s	1062.2158289																																	2015_Jun_24_1125	59.9516876449	LearningTask	1	63	
280	200.0	w	200.0																	2.0	0.0	2.0	0.0	13.0	3.0	55.0	0.0																													w	1.0	0.451346874237	None	0.0	0.5	diamondwhite.gif	go																								0.0	0.5134980678559999	0.0009250640869139999	0.451346874237	1.0	w	1065.21884203																																	2015_Jun_24_1125	59.9516876449	LearningTask	1	63	
281	200.0	s	-200.0																	2.0	0.0	2.0	0.0	14.0	0.0	56.0	2.0																													s	1.0	0.350679159164	None	0.0	1.0	crossblue.gif	go																								0.95	0.514436006546	0.0008759498596189999	0.350679159164	1.0	s	1068.22230005																																	2015_Jun_24_1125	59.9516876449	LearningTask	1	63	
282	200.0	s	-200.0																	2.0	0.0	2.0	0.0	14.0	1.0	57.0	2.0																													s	1.0	0.383765935898	None	0.0	2.0	invertedtriangleyellow.gif	stop																								2.01	0.514513969421	0.0008709430694580001	0.383765935898	1.0	s	1071.22585487																																	2015_Jun_24_1125	59.9516876449	LearningTask	1	63	
283	-200.0	q	200.0																	2.0	0.0	2.0	0.0	14.0	2.0	58.0	1.0																													q	1.0	0.400985002518	None	0.0	4.0	squaremagenta.gif	stop																								3.9	0.5138678550720001	0.0008859634399410001	0.400985002518	1.0	q	1074.22894788																																	2015_Jun_24_1125	59.9516876449	LearningTask	1	63	
284	200.0	s	-200.0																	2.0	0.0	2.0	0.0	14.0	3.0	59.0	2.0																													s	1.0	0.400938034058	None	0.0	4.0	lineorange.gif	go																								3.86	0.514347076416	0.000877141952515	0.400938034058	1.0	s	1077.23229098																																	2015_Jun_24_1125	59.9516876449	LearningTask	1	63	
285	200.0	s	-200.0																	2.0	0.0	2.0	0.0	15.0	0.0	60.0	2.0																													s	1.0	0.550832033157	None	0.0	0.5	hexagongray.gif	stop																								0.62	0.51474404335	0.0008859634399410001	0.550832033157	1.0	s	1080.2361939000002																																	2015_Jun_24_1125	59.9516876449	LearningTask	1	63	
286	-200.0	q	200.0																	2.0	0.0	2.0	0.0	15.0	1.0	61.0	1.0																													q	1.0	0.4341809749600001	None	0.0	2.0	circlecyan.gif	go																								1.98	0.513738155365	0.000926971435547	0.4341809749600001	1.0	q	1083.23923397																																	2015_Jun_24_1125	59.9516876449	LearningTask	1	63	
287	-200.0	a	-200.0																	2.0	0.0	2.0	0.0	15.0	2.0	62.0	3.0																													a	1.0	0.484085083008	None	0.0	0.5	hexagongray.gif	stop																								0.44	0.514302015305	0.0009589195251460001	0.484085083008	1.0	a	1086.24244499																																	2015_Jun_24_1125	59.9516876449	LearningTask	1	63	
288	-200.0	q	200.0																	2.0	0.0	2.0	0.0	15.0	3.0	63.0	1.0																													q	1.0	0.400832891464	None	0.0	2.0	invertedtriangleyellow.gif	stop																								1.8	0.5142681598659999	0.0008749961853029999	0.400832891464	1.0	q	1089.24598503																																	2015_Jun_24_1125	59.9516876449	LearningTask	1	63	
289	200.0	w	200.0																	2.0	0.0	2.0	0.0	16.0	0.0	64.0	0.0																													w	1.0	0.36736702918999997	None	0.0	2.0	invertedtriangleyellow.gif	stop																								1.76	0.514270067215	0.000880002975464	0.36736702918999997	1.0	w	1092.24909306																																	2015_Jun_24_1125	59.9516876449	LearningTask	1	63	
290	200.0	w	200.0																	2.0	0.0	2.0	0.0	16.0	1.0	65.0	0.0																													w	1.0	0.367672920227	None	0.0	2.0	circlecyan.gif	go																								0.0	0.514235019684	0.0009720325469970001	0.367672920227	1.0	w	1095.25267291																																	2015_Jun_24_1125	59.9516876449	LearningTask	1	63	
291	-200.0	q	200.0																	2.0	0.0	2.0	0.0	16.0	2.0	66.0	1.0																													q	1.0	0.33446288108800004	None	0.0	2.0	invertedtriangleyellow.gif	stop																								0.0	0.514521121979	0.000877141952515	0.45120596885700004	0.0	a	1098.25595999				2.1	0.5155990123749999	0.00094199180603	0.33446288108800004	1.0	q	1101.25928402																							2015_Jun_24_1125	59.9516876449	LearningTask	1	63	
292	-200.0	a	-200.0																	2.0	0.0	2.0	0.0	16.0	3.0	67.0	3.0																													a	1.0	0.5178928375240001	None	0.0	2.0	circlecyan.gif	go																								2.23	0.513820886612	0.000969886779785	0.5178928375240001	1.0	a	1104.26260996																																	2015_Jun_24_1125	59.9516876449	LearningTask	1	63	
