	xPos	corrAns	yPos	corrGoResp	yPosGoStim	xPosGoStim	pracTrials.thisRepN	pracTrials.thisTrialN	pracTrials.thisN	pracTrials.thisIndex	ReDoLoopPrac.thisRepN	ReDoLoopPrac.thisTrialN	ReDoLoopPrac.thisN	ReDoLoopPrac.thisIndex	ReDoLoopPrac.thisTrial	pracStopTrials.thisRepN	pracStopTrials.thisTrialN	pracStopTrials.thisN	pracStopTrials.thisIndex	Blocks.thisRepN	Blocks.thisTrialN	Blocks.thisN	Blocks.thisIndex	trials.thisRepN	trials.thisTrialN	trials.thisN	trials.thisIndex	ReDoLoopMain.thisRepN	ReDoLoopMain.thisTrialN	ReDoLoopMain.thisN	ReDoLoopMain.thisIndex	ReDoLoopMain.thisTrial	StopBlocks.thisRepN	StopBlocks.thisTrialN	StopBlocks.thisN	StopBlocks.thisIndex	StopTrials.thisRepN	StopTrials.thisTrialN	StopTrials.thisN	StopTrials.thisIndex	auctionBlocks.thisRepN	auctionBlocks.thisTrialN	auctionBlocks.thisN	auctionBlocks.thisIndex	auctionTrials.thisRepN	auctionTrials.thisTrialN	auctionTrials.thisN	auctionTrials.thisIndex	learningTrialList	learningPracTrialList	stopTrialList	stopPracTrialList	auctionTrialList	ok1.keys	ok1.rt	resp.keys	resp.corr	resp.rt	feedbackResp.keys	feedbackResp.corr	feedbackResp.rt	currentReward	currentStimulus	currentStimType	firstPracComputedRewardOutput	firstPracLearningStimOnset	firstPracLearningFixOnset	firstPracPresentationRT	firstPracPresentationAcc	firstPracPresentationResp	firstPracEndTrialTimeStamp	secondPracComputedRewardOutput	secondPracLearningStimOnset	secondPracLearningFixOnset	secondPracPresentationRT	secondPracPresentationAcc	secondPracPresentationResp	secondPracEndTrialTimeStamp	StartTrialTimeStamp	trialType	goStim	stimType	stopStimValue	goResp.keys	goResp.corr	goResp.rt	key_resp_9.keys	key_resp_9.corr	fixStopOnset	goStimOnset	stopSignalOnset	EndTrialTimeStamp	key_resp_3.keys	key_resp_3.rt	firstComputedRewardOutput	firstLearningStimOnset	firstLearningFixOnset	firstPresentationRT	firstPresentationAcc	firstPresentationResp	firstEndTrialTimeStamp	secondComputedRewardOutput	secondLearningStimOnset	secondLearningFixOnset	secondPresentationRT	secondPresentationAcc	secondPresentationResp	secondEndTrialTimeStamp	thirdComputedRewardOutput	thirdLearningStimOnset	thirdLearningFixOnset	thirdPresentationRT	thirdPresentationAcc	thirdPresentationResp	thirdEndTrialTimeStamp	fourthComputedRewardOutput	fourthLearningStimOnset	fourthLearningFixOnset	fourthPresentationRT	fourthPresentationAcc	fourthPresentationResp	fourthEndTrialTimeStamp	fifthComputedRewardOutput	fifthLearningStimOnset	fifthLearningFixOnset	fifthPresentationRT	fifthPresentationAcc	fifthPresentationResp	fifthEndTrialTimeStamp	key_resp_7.keys	key_resp_7.rt	beginningSSD	EndingSSD	key_resp_9.rt	key_resp_4.keys	key_resp_4.rt	auctionResponse.keys	auctionStimDuration	auctionStim	auctionAmounts	auctionStimValue	auctionCondition	chosenAuctionAmount	auctionResponse.rt	key_resp_5.keys	key_resp_5.rt	shuffledRewardList	chosenReward1	chosenReward2	chosenReward3	chosenReward4	chosenReward5	key_resp_6.keys	key_resp_6.rt	date	frameRate	expName	session	participant	Unnamed: 159
0																																																	[]	[]	[]	[]	[]	9.0	45.14564108850001																																																																																																				2015_Jul_02_1246	59.990531508500005	LearningTask	1	14	
1	200.0	s	-200.0				0.0	0.0	0.0	6.0																																														s	1.0	0.434093952179	None	0.0	0.026632070541400002	0.5	hexagongray.gif	go	0.0	0.510489940643	0.045131921768199995	0.517576932907	0.0	w	104.914314985	0.26	0.5155990123749999	0.0010199546814	0.434093952179	1.0	s	107.91759896299999																																																																													2015_Jul_02_1246	59.990531508500005	LearningTask	1	14	
2	200.0	s	-200.0				0.0	1.0	1.0	2.0																																														s	1.0	0.41718101501500005	None	0.0		4.0	invertedtriangleyellow.gif	stop	3.98	0.5151720047	0.0555160045624	0.41718101501500005	1.0	s	110.920659065																																																																																				2015_Jul_02_1246	59.990531508500005	LearningTask	1	14	
3	-200.0	a	-200.0				0.0	2.0	2.0	3.0																																														a	1.0	0.41748094558700005	None	0.0		1.0	circlemagenta.gif	stop	0.0	0.515108108521	0.0130279064178	0.417661905289	0.0	q	113.92394900299999	0.8	0.5162780284880001	0.0009629726409910001	0.41748094558700005	1.0	a	116.92750406299999																																																																													2015_Jul_02_1246	59.990531508500005	LearningTask	1	14	
4	-200.0	a	-200.0				0.0	3.0	3.0	7.0																																														a	1.0	0.41741085052500004	None	0.0		4.0	invertedtriangleyellow.gif	stop	3.91	0.5146970748899999	0.000922918319702	0.41741085052500004	1.0	a	119.93082118																																																																																				2015_Jul_02_1246	59.990531508500005	LearningTask	1	14	
5	200.0	w	200.0				0.0	4.0	4.0	8.0																																														w	1.0	0.40098285674999995	None	0.0		1.0	squarewhite.gif	go	1.04	0.514811038971	0.038539886474599994	0.40098285674999995	1.0	w	122.93402600299999																																																																																				2015_Jul_02_1246	59.990531508500005	LearningTask	1	14	
6	-200.0	q	200.0				0.0	5.0	5.0	5.0																																														q	1.0	0.451030015945	None	0.0		4.0	invertedtriangleyellow.gif	stop	4.15	0.515050888062	0.00110697746277	0.451030015945	1.0	q	125.937709093																																																																																				2015_Jul_02_1246	59.990531508500005	LearningTask	1	14	
7	200.0	w	200.0				0.0	6.0	6.0	4.0																																														w	1.0	0.384443998337	None	0.0		2.0	triangleorange.gif	go	2.01	0.514460086823	0.0174992084503	0.384443998337	1.0	w	128.94071912799998																																																																																				2015_Jul_02_1246	59.990531508500005	LearningTask	1	14	
8	-200.0	q	200.0				0.0	7.0	7.0	9.0																																														q	1.0	0.467677116394	None	0.0		4.0	invertedtriangleyellow.gif	stop	4.25	0.515367984772	0.0009059906005860001	0.467677116394	1.0	q	131.944100142																																																																																				2015_Jul_02_1246	59.990531508500005	LearningTask	1	14	
9	200.0	w	200.0				0.0	8.0	8.0	0.0																																														w	1.0	0.500629901886	None	0.0		4.0	invertedtriangleyellow.gif	stop	4.19	0.5154600143429999	0.0009379386901860002	0.500629901886	1.0	w	134.94749617600002																																																																																				2015_Jul_02_1246	59.990531508500005	LearningTask	1	14	
10	-200.0	q	200.0				0.0	9.0	9.0	1.0																																														q	1.0	0.484432935715	None	0.0		2.0	crossblue.gif	stop	2.07	0.515174150467	0.0343420505524	0.484432935715	1.0	q	137.950867176																																																																																				2015_Jul_02_1246	59.990531508500005	LearningTask	1	14	
11				m	0.0	200.0										0.0	0.0	0.0	1.0																																																												201.79922604599997	stop	invertedtriangleyellow.gif	stop	4.0	m	1.0	0.468008041382	None	0.0	0.00141096115112	0.50553894043	0.755732059479	204.792695045																																																															2015_Jul_02_1246	59.990531508500005	LearningTask	1	14	
12				m	0.0	200.0										0.0	1.0	1.0	1.0																																																												204.793091059	go	hexagongray.gif	go	0.5	m	1.0	0.6343550682069999	None	0.0	0.00095796585083	0.515695810318		207.79588818599998																																																															2015_Jul_02_1246	59.990531508500005	LearningTask	1	14	
13				z	0.0	-200.0										1.0	0.0	2.0	0.0																																																												207.79625701900002	go	triangleorange.gif	go	2.0	z	1.0	0.501223087311	None	0.0	0.0009570121765139998	0.515759944916		210.79925918599997																																																															2015_Jul_02_1246	59.990531508500005	LearningTask	1	14	
14				m	0.0	200.0										1.0	1.0	3.0	1.0																																																												210.799621105	stop	invertedtriangleyellow.gif	stop	4.0	None	0.0		None	0.0	0.00109314918518	0.515677213669	0.7660300731659999	213.80263996099998																																																															2015_Jul_02_1246	59.990531508500005	LearningTask	1	14	
15				m	0.0	200.0										2.0	0.0	4.0	1.0																																																												213.80300498	go	hexagongray.gif	go	0.5	m	1.0	0.450968980789	None	0.0	0.00100111961365	0.515811920166		216.806244135																																																															2015_Jul_02_1246	59.990531508500005	LearningTask	1	14	
16				z	0.0	-200.0										2.0	1.0	5.0	0.0																																																												216.806627035	go	squarewhite.gif	go	1.0	z	1.0	0.634585857391	None	0.0	0.000913143157959	0.515476942062		219.80955409999999																																																															2015_Jul_02_1246	59.990531508500005	LearningTask	1	14	
17				m	0.0	200.0										3.0	0.0	6.0	1.0																																																												219.809983015	go	linecyan.gif	go	4.0	m	1.0	0.750730991364	None	0.0	0.0421788692474	0.5156748294829999		222.81263709099997																																																															2015_Jul_02_1246	59.990531508500005	LearningTask	1	14	
18				z	0.0	-200.0										3.0	1.0	7.0	0.0																																																												222.813003063	stop	invertedtriangleyellow.gif	stop	4.0	None	0.0		None	0.0	0.0009617805480960001	0.516247987747	0.766530990601	225.81612515400002																																																															2015_Jul_02_1246	59.990531508500005	LearningTask	1	14	
19				z	0.0	-200.0										4.0	0.0	8.0	0.0																																																												225.816488981	go	linecyan.gif	go	4.0	z	1.0	0.583880901337	None	0.0	0.00094199180603	0.515798091888		228.81942510599998																																																															2015_Jul_02_1246	59.990531508500005	LearningTask	1	14	
20				z	0.0	-200.0										4.0	1.0	9.0	0.0																																																												228.819864035	stop	diamondgreen.gif	stop	0.5	None	0.0		None	0.0	0.0189731121063	0.51557302475	0.765691041946	231.822750092																																																															2015_Jul_02_1246	59.990531508500005	LearningTask	1	14	
21																																																																																													9.0	66.6091299057																																																													2015_Jul_02_1246	59.990531508500005	LearningTask	1	14	
22																																																						9.0	23.6602418423																																																																																																				2015_Jul_02_1246	59.990531508500005	LearningTask	1	14	
23	200.0	w	200.0																	0.0	0.0	0.0	0.0	0.0	0.0	0.0	0.0																													w	1.0	0.500982999802	None	0.0		0.5	hexagongray.gif	go																															0.6	0.503578901291	0.0009548664093019999	0.500982999802	1.0	w	325.295802116																																																						2015_Jul_02_1246	59.990531508500005	LearningTask	1	14	
24	200.0	w	200.0																	0.0	0.0	0.0	0.0	0.0	1.0	1.0	0.0																													w	1.0	0.43456602096600006	None	0.0		4.0	linecyan.gif	go																															4.17	0.5136311054230001	0.000917911529541	0.434566020966	1.0	w	328.298632145																																																						2015_Jul_02_1246	59.990531508500005	LearningTask	1	14	
25	-200.0	a	-200.0																	0.0	0.0	0.0	0.0	0.0	2.0	2.0	3.0																													a	1.0	0.48504114151	None	0.0		2.0	crossblue.gif	stop																															2.07	0.514232873917	0.0009069442749019998	0.48504114151	1.0	a	331.302549124																																																						2015_Jul_02_1246	59.990531508500005	LearningTask	1	14	
26	-200.0	q	200.0																	0.0	0.0	0.0	0.0	0.0	3.0	3.0	1.0																													q	1.0	0.41807699203500004	None	0.0		1.0	squarewhite.gif	go																															1.12	0.51370215416	0.0008990764617919999	0.418076992035	1.0	q	334.30538702																																																						2015_Jul_02_1246	59.990531508500005	LearningTask	1	14	
27	200.0	w	200.0																	0.0	0.0	0.0	0.0	1.0	0.0	4.0	0.0																													w	1.0	0.384517908096	None	0.0		4.0	invertedtriangleyellow.gif	stop																															3.9	0.51433801651	0.0009379386901860002	0.384517908096	1.0	w	337.308830023																																																						2015_Jul_02_1246	59.990531508500005	LearningTask	1	14	
28	-200.0	q	200.0																	0.0	0.0	0.0	0.0	1.0	1.0	5.0	1.0																													q	1.0	0.384198904037	None	0.0		4.0	linecyan.gif	go																															4.04	0.514148950577	0.000890016555786	0.384198904037	1.0	q	340.312281132																																																						2015_Jul_02_1246	59.990531508500005	LearningTask	1	14	
29	200.0	w	200.0																	0.0	0.0	0.0	0.0	1.0	2.0	6.0	0.0																													w	1.0	0.400851011276	None	0.0		4.0	linecyan.gif	go																															3.97	0.5141398906710001	0.0009059906005860001	0.400851011276	1.0	w	343.315420151																																																						2015_Jul_02_1246	59.990531508500005	LearningTask	1	14	
30	-200.0	q	200.0																	0.0	0.0	0.0	0.0	1.0	3.0	7.0	1.0																													q	1.0	0.417871952057	None	0.0		2.0	crossblue.gif	stop																															1.91	0.514231920242	0.00108504295349	0.417871952057	1.0	q	346.318964005																																																						2015_Jul_02_1246	59.990531508500005	LearningTask	1	14	
31	-200.0	a	-200.0																	0.0	0.0	0.0	0.0	2.0	0.0	8.0	3.0																													a	1.0	0.384246110916	None	0.0		1.0	squarewhite.gif	go																															1.23	0.51446390152	0.000930070877075	0.384246110916	1.0	a	349.32267618199995																																																						2015_Jul_02_1246	59.990531508500005	LearningTask	1	14	
32	200.0	s	-200.0																	0.0	0.0	0.0	0.0	2.0	1.0	9.0	2.0																													s	1.0	0.38432097435	None	0.0		2.0	crossblue.gif	stop																															1.94	0.513818979263	0.0009250640869139999	0.38432097435	1.0	s	352.325615168																																																						2015_Jul_02_1246	59.990531508500005	LearningTask	1	14	
33	-200.0	a	-200.0																	0.0	0.0	0.0	0.0	2.0	2.0	10.0	3.0																													a	1.0	0.451250076294	None	0.0		2.0	triangleorange.gif	go																															0.0	0.514223098755	0.0009379386901860002	0.451250076294	1.0	a	355.32899212800004																																																						2015_Jul_02_1246	59.990531508500005	LearningTask	1	14	
34	200.0	w	200.0																	0.0	0.0	0.0	0.0	2.0	3.0	11.0	0.0																													w	1.0	0.434314012527	None	0.0		0.5	hexagongray.gif	go																															0.43	0.514585971832	0.000908851623535	0.434314012527	1.0	w	358.33237505																																																						2015_Jul_02_1246	59.990531508500005	LearningTask	1	14	
35	-200.0	q	200.0																	0.0	0.0	0.0	0.0	3.0	0.0	12.0	1.0																													q	1.0	0.35124993324299997	None	0.0		4.0	invertedtriangleyellow.gif	stop																															4.21	0.514167070389	0.0008990764617919999	0.351249933243	1.0	q	361.33616805099996																																																						2015_Jul_02_1246	59.990531508500005	LearningTask	1	14	
36	200.0	w	200.0																	0.0	0.0	0.0	0.0	3.0	1.0	13.0	0.0																													w	1.0	0.417631864548	None	0.0		4.0	invertedtriangleyellow.gif	stop																															4.22	0.513628005981	0.0009198188781739999	0.417631864548	1.0	w	364.339163065																																																						2015_Jul_02_1246	59.990531508500005	LearningTask	1	14	
37	200.0	s	-200.0																	0.0	0.0	0.0	0.0	3.0	2.0	14.0	2.0																													s	1.0	0.451195001602	None	0.0		0.5	diamondgreen.gif	stop																															0.0	0.514255046844	0.0008919239044189998	0.451195001602	1.0	s	367.34248805																																																						2015_Jul_02_1246	59.990531508500005	LearningTask	1	14	
38	200.0	w	200.0																	0.0	0.0	0.0	0.0	3.0	3.0	15.0	0.0																													w	1.0	0.334544897079	None	0.0		0.5	diamondgreen.gif	stop																															0.0	0.514276981354	0.000938177108765	0.334544897079	1.0	w	370.346362114																																																						2015_Jul_02_1246	59.990531508500005	LearningTask	1	14	
39	200.0	s	-200.0																	0.0	0.0	0.0	0.0	4.0	0.0	16.0	2.0																													s	1.0	0.400345087051	None	0.0		2.0	triangleorange.gif	go																															2.16	0.513773918152	0.000900983810425	0.400345087051	1.0	s	373.349646091																																																						2015_Jul_02_1246	59.990531508500005	LearningTask	1	14	
40	-200.0	a	-200.0																	0.0	0.0	0.0	0.0	4.0	1.0	17.0	3.0																													a	1.0	0.400823831558	None	0.0		4.0	linecyan.gif	go																															0.0	0.514204978943	0.000961065292358	0.400823831558	1.0	a	376.352674961																																																						2015_Jul_02_1246	59.990531508500005	LearningTask	1	14	
41	-200.0	a	-200.0																	0.0	0.0	0.0	0.0	4.0	2.0	18.0	3.0																													a	1.0	0.400949954987	None	0.0		2.0	crossblue.gif	stop																															1.95	0.514379024506	0.0009820461273189998	0.400949954987	1.0	a	379.356323004																																																						2015_Jul_02_1246	59.990531508500005	LearningTask	1	14	
42	200.0	s	-200.0																	0.0	0.0	0.0	0.0	4.0	3.0	19.0	2.0																													s	1.0	0.367338895798	None	0.0		0.5	hexagongray.gif	go																															0.68	0.514115095139	0.0009031295776369999	0.367338895798	1.0	s	382.359544992																																																						2015_Jul_02_1246	59.990531508500005	LearningTask	1	14	
43	-200.0	q	200.0																	0.0	0.0	0.0	0.0	5.0	0.0	20.0	1.0																													q	1.0	0.567942142487	None	0.0		4.0	linecyan.gif	go																															4.25	0.5141568183899999	0.0010318756103500002	0.567942142487	1.0	q	385.36265111																																																						2015_Jul_02_1246	59.990531508500005	LearningTask	1	14	
44	200.0	w	200.0																	0.0	0.0	0.0	0.0	5.0	1.0	21.0	0.0																													w	1.0	0.334326982498	None	0.0		0.5	hexagongray.gif	go																															0.31	0.514527082443	0.000900983810425	0.334326982498	1.0	w	388.366240978																																																						2015_Jul_02_1246	59.990531508500005	LearningTask	1	14	
45	200.0	s	-200.0																	0.0	0.0	0.0	0.0	5.0	2.0	22.0	2.0																													s	1.0	0.350687980652	None	0.0		0.5	hexagongray.gif	go																															0.39	0.514485836029	0.000908851623535	0.350687980652	1.0	s	391.370205164																																																						2015_Jul_02_1246	59.990531508500005	LearningTask	1	14	
46	-200.0	a	-200.0																	0.0	0.0	0.0	0.0	5.0	3.0	23.0	3.0																													a	1.0	0.417630910873	None	0.0		2.0	triangleorange.gif	go																															2.12	0.513607978821	0.0009400844573969999	0.417630910873	1.0	a	394.373239994																																																						2015_Jul_02_1246	59.990531508500005	LearningTask	1	14	
47	-200.0	q	200.0																	0.0	0.0	0.0	0.0	6.0	0.0	24.0	1.0																													q	1.0	0.41760396957400003	None	0.0		1.0	circlemagenta.gif	stop																															0.94	0.513720989227	0.0009469985961910001	0.417603969574	1.0	q	397.376384974																																																						2015_Jul_02_1246	59.990531508500005	LearningTask	1	14	
48	200.0	s	-200.0																	0.0	0.0	0.0	0.0	6.0	1.0	25.0	2.0																													s	1.0	0.36784696579000004	None	0.0		2.0	crossblue.gif	stop																															0.0	0.514292955399	0.000902891159058	0.36784696579	1.0	s	400.379531145																																																						2015_Jul_02_1246	59.990531508500005	LearningTask	1	14	
49	200.0	s	-200.0																	0.0	0.0	0.0	0.0	6.0	2.0	26.0	2.0																													s	1.0	0.401123046875	None	0.0		2.0	triangleorange.gif	go																															0.0	0.5144309997559999	0.0009431838989260002	0.401123046875	1.0	s	403.383023024																																																						2015_Jul_02_1246	59.990531508500005	LearningTask	1	14	
50	200.0	w	200.0																	0.0	0.0	0.0	0.0	6.0	3.0	27.0	0.0																													w	1.0	0.400708913803	None	0.0		4.0	invertedtriangleyellow.gif	stop																															4.01	0.5145142078399999	0.0008971691131589999	0.400708913803	1.0	w	406.386548996																																																						2015_Jul_02_1246	59.990531508500005	LearningTask	1	14	
51	-200.0	q	200.0																	0.0	0.0	0.0	0.0	7.0	0.0	28.0	1.0																													q	1.0	0.317832946777	None	0.0		0.5	hexagongray.gif	go																															0.44	0.514435052872	0.0009150505065920001	0.317832946777	1.0	q	409.390225172																																																						2015_Jul_02_1246	59.990531508500005	LearningTask	1	14	
52	200.0	w	200.0																	0.0	0.0	0.0	0.0	7.0	1.0	29.0	0.0																													w	1.0	0.484571933746	None	0.0		4.0	invertedtriangleyellow.gif	stop																															3.85	0.51370382309	0.0009360313415529999	0.484571933746	1.0	w	412.393109083																																																						2015_Jul_02_1246	59.990531508500005	LearningTask	1	14	
53	-200.0	a	-200.0																	0.0	0.0	0.0	0.0	7.0	2.0	30.0	3.0																													a	1.0	0.45087194442699996	None	0.0		2.0	crossblue.gif	stop																															2.18	0.5142588615420001	0.00123596191406	0.450871944427	1.0	a	415.396552086																																																						2015_Jul_02_1246	59.990531508500005	LearningTask	1	14	
54	200.0	s	-200.0																	0.0	0.0	0.0	0.0	7.0	3.0	31.0	2.0																													s	1.0	0.417474985123	None	0.0		2.0	triangleorange.gif	go																															2.16	0.51423406601	0.0008931159973139998	0.417474985123	1.0	s	418.400493145																																																						2015_Jul_02_1246	59.990531508500005	LearningTask	1	14	
55	200.0	s	-200.0																	0.0	0.0	0.0	0.0	8.0	0.0	32.0	2.0																													s	1.0	0.384216070175	None	0.0		1.0	squarewhite.gif	go																															1.05	0.513684988022	0.000917911529541	0.384216070175	1.0	s	421.40392398800003																																																						2015_Jul_02_1246	59.990531508500005	LearningTask	1	14	
56	-200.0	q	200.0																	0.0	0.0	0.0	0.0	8.0	1.0	33.0	1.0																													q	1.0	0.38428902626	None	0.0		1.0	circlemagenta.gif	stop																															0.0	0.5134601593020001	0.0010139942169199998	0.38428902626	1.0	q	424.407092094																																																						2015_Jul_02_1246	59.990531508500005	LearningTask	1	14	
57	-200.0	a	-200.0																	0.0	0.0	0.0	0.0	8.0	2.0	34.0	3.0																													a	1.0	0.501405954361	None	0.0		0.5	hexagongray.gif	go																															0.0	0.513678073883	0.0009589195251460001	0.501405954361	1.0	a	427.410168171																																																						2015_Jul_02_1246	59.990531508500005	LearningTask	1	14	
58	200.0	s	-200.0																	0.0	0.0	0.0	0.0	8.0	3.0	35.0	2.0																													s	1.0	0.40061497688299996	None	0.0		2.0	crossblue.gif	stop																															2.11	0.514255046844	0.0009069442749019998	0.400614976883	1.0	s	430.41337299300005																																																						2015_Jul_02_1246	59.990531508500005	LearningTask	1	14	
59	200.0	s	-200.0																	0.0	0.0	0.0	0.0	9.0	0.0	36.0	2.0																													s	1.0	0.384697914124	None	0.0		2.0	crossblue.gif	stop																															2.14	0.514191150665	0.00099515914917	0.384697914124	1.0	s	433.417010069																																																						2015_Jul_02_1246	59.990531508500005	LearningTask	1	14	
60	-200.0	q	200.0																	0.0	0.0	0.0	0.0	9.0	1.0	37.0	1.0																													q	1.0	0.38429188728299996	None	0.0		1.0	circlemagenta.gif	stop																															0.0	0.514088153839	0.000900030136108	0.384016036987	0.0	a	436.420116186	0.0	0.5155839920040001	0.000969171524048	0.384291887283	1.0	q	439.423890114																																															2015_Jul_02_1246	59.990531508500005	LearningTask	1	14	
61	-200.0	a	-200.0																	0.0	0.0	0.0	0.0	9.0	2.0	38.0	3.0																													a	1.0	0.46788811683700005	None	0.0		0.5	diamondgreen.gif	stop																															0.63	0.513834953308	0.000938892364502	0.467888116837	1.0	a	442.426855087																																																						2015_Jul_02_1246	59.990531508500005	LearningTask	1	14	
62	200.0	w	200.0																	0.0	0.0	0.0	0.0	9.0	3.0	39.0	0.0																													w	1.0	0.36775183677699996	None	0.0		4.0	linecyan.gif	go																															4.11	0.514398097992	0.0009191036224369998	0.367751836777	1.0	w	445.430325985																																																						2015_Jul_02_1246	59.990531508500005	LearningTask	1	14	
63	200.0	w	200.0																	0.0	0.0	0.0	0.0	10.0	0.0	40.0	0.0																													w	1.0	0.401170969009	None	0.0		1.0	squarewhite.gif	go																															0.0	0.5142891407010001	0.000890016555786	0.401170969009	1.0	w	448.433717012																																																						2015_Jul_02_1246	59.990531508500005	LearningTask	1	14	
64	-200.0	a	-200.0																	0.0	0.0	0.0	0.0	10.0	1.0	41.0	3.0																													a	1.0	0.383958101273	None	0.0		1.0	circlemagenta.gif	stop																															1.22	0.514217853546	0.0009469985961910001	0.383958101273	1.0	a	451.43699407599996																																																						2015_Jul_02_1246	59.990531508500005	LearningTask	1	14	
65	-200.0	a	-200.0																	0.0	0.0	0.0	0.0	10.0	2.0	42.0	3.0																													a	1.0	0.400948047638	None	0.0		0.5	diamondgreen.gif	stop																															0.33	0.5143229961399999	0.000900030136108	0.400948047638	1.0	a	454.44046807300003																																																						2015_Jul_02_1246	59.990531508500005	LearningTask	1	14	
66	-200.0	q	200.0																	0.0	0.0	0.0	0.0	10.0	3.0	43.0	1.0																													q	1.0	0.451328039169	None	0.0		1.0	circlemagenta.gif	stop																															0.95	0.514043092728	0.000900030136108	0.451328039169	1.0	q	457.44394111599996																																																						2015_Jul_02_1246	59.990531508500005	LearningTask	1	14	
67	-200.0	q	200.0																	0.0	0.0	0.0	0.0	11.0	0.0	44.0	1.0																													q	1.0	0.400946855545	None	0.0		4.0	linecyan.gif	go																															3.78	0.51424407959	0.0008990764617919999	0.400946855545	1.0	q	460.44721508																																																						2015_Jul_02_1246	59.990531508500005	LearningTask	1	14	
68	200.0	s	-200.0																	0.0	0.0	0.0	0.0	11.0	1.0	45.0	2.0																													s	1.0	0.534806013107	None	0.0		4.0	invertedtriangleyellow.gif	stop																															0.0	0.514341115952	0.00090503692627	0.534806013107	1.0	s	463.450430155																																																						2015_Jul_02_1246	59.990531508500005	LearningTask	1	14	
69	200.0	w	200.0																	0.0	0.0	0.0	0.0	11.0	2.0	46.0	0.0																													w	1.0	0.45076918602	None	0.0		0.5	hexagongray.gif	go																															0.7	0.5145540237430001	0.0008940696716310001	0.45076918602	1.0	w	466.454159021																																																						2015_Jul_02_1246	59.990531508500005	LearningTask	1	14	
70	-200.0	q	200.0																	0.0	0.0	0.0	0.0	11.0	3.0	47.0	1.0																													q	1.0	0.484790086746	None	0.0		1.0	circlemagenta.gif	stop																															0.0	0.514147996902	0.0008931159973139998	0.484790086746	1.0	q	469.457327127																																																						2015_Jul_02_1246	59.990531508500005	LearningTask	1	14	
71	-200.0	a	-200.0																	0.0	0.0	0.0	0.0	12.0	0.0	48.0	3.0																													a	1.0	0.41800904274000006	None	0.0		2.0	crossblue.gif	stop																															2.19	0.514256000519	0.000970840454102	0.41800904274	1.0	a	472.460504055																																																						2015_Jul_02_1246	59.990531508500005	LearningTask	1	14	
72	-200.0	a	-200.0																	0.0	0.0	0.0	0.0	12.0	1.0	49.0	3.0																													a	1.0	0.3841381073	None	0.0		4.0	invertedtriangleyellow.gif	stop																															3.79	0.514534950256	0.0009489059448239998	0.3841381073	1.0	a	475.46403718																																																						2015_Jul_02_1246	59.990531508500005	LearningTask	1	14	
73	-200.0	q	200.0																	0.0	0.0	0.0	0.0	12.0	2.0	50.0	1.0																													q	1.0	0.450757980347	None	0.0		0.5	diamondgreen.gif	stop																															0.0	0.514544963837	0.000917911529541	0.450757980347	1.0	q	478.467381001																																																						2015_Jul_02_1246	59.990531508500005	LearningTask	1	14	
74	-200.0	a	-200.0																	0.0	0.0	0.0	0.0	12.0	3.0	51.0	3.0																													a	1.0	0.418056964874	None	0.0		1.0	squarewhite.gif	go																															0.0	0.513680934906	0.0009479522705080001	0.418056964874	1.0	a	481.47090601900004																																																						2015_Jul_02_1246	59.990531508500005	LearningTask	1	14	
75	200.0	s	-200.0																	0.0	0.0	0.0	0.0	13.0	0.0	52.0	2.0																													s	1.0	0.484611988068	None	0.0		2.0	triangleorange.gif	go																															0.0	0.514216899872	0.0009760856628420001	0.484611988068	1.0	s	484.47420096400003																																																						2015_Jul_02_1246	59.990531508500005	LearningTask	1	14	
76	200.0	s	-200.0																	0.0	0.0	0.0	0.0	13.0	1.0	53.0	2.0																													s	1.0	0.38399887085	None	0.0		1.0	circlemagenta.gif	stop																															1.06	0.5144441127780001	0.0009019374847410001	0.38399887085	1.0	s	487.477468014																																																						2015_Jul_02_1246	59.990531508500005	LearningTask	1	14	
77	-200.0	q	200.0																	0.0	0.0	0.0	0.0	13.0	2.0	54.0	1.0																													q	1.0	0.41745615005500003	None	0.0		2.0	triangleorange.gif	go																															2.17	0.514404058456	0.00094199180603	0.417456150055	1.0	q	490.480942965																																																						2015_Jul_02_1246	59.990531508500005	LearningTask	1	14	
78	-200.0	q	200.0																	0.0	0.0	0.0	0.0	13.0	3.0	55.0	1.0																													q	1.0	0.384790897369	None	0.0		1.0	squarewhite.gif	go																															0.89	0.514298915863	0.0009019374847410001	0.384790897369	1.0	q	493.484512091																																																						2015_Jul_02_1246	59.990531508500005	LearningTask	1	14	
79	200.0	s	-200.0																	0.0	0.0	0.0	0.0	14.0	0.0	56.0	2.0																													s	1.0	0.401266098022	None	0.0		4.0	linecyan.gif	go																															4.05	0.514038085938	0.000892162322998	0.401266098022	1.0	s	496.487854958																																																						2015_Jul_02_1246	59.990531508500005	LearningTask	1	14	
80	200.0	s	-200.0																	0.0	0.0	0.0	0.0	14.0	1.0	57.0	2.0																													s	1.0	0.350589990616	None	0.0		1.0	circlemagenta.gif	stop																															1.02	0.514054059982	0.0009109973907470001	0.350589990616	1.0	s	499.491479158																																																						2015_Jul_02_1246	59.990531508500005	LearningTask	1	14	
81	200.0	w	200.0																	0.0	0.0	0.0	0.0	14.0	2.0	58.0	0.0																													w	1.0	0.40084505081200006	None	0.0		0.5	diamondgreen.gif	stop																															0.4	0.514078140259	0.000923156738281	0.400845050812	1.0	w	502.494457006																																																						2015_Jul_02_1246	59.990531508500005	LearningTask	1	14	
82	-200.0	a	-200.0																	0.0	0.0	0.0	0.0	14.0	3.0	59.0	3.0																													a	1.0	0.608286857605	None	0.0		1.0	squarewhite.gif	go																															0.93	0.5141420364379999	0.000890016555786	0.608286857605	1.0	a	505.498491049																																																						2015_Jul_02_1246	59.990531508500005	LearningTask	1	14	
83	-200.0	q	200.0																	0.0	0.0	0.0	0.0	15.0	0.0	60.0	1.0																													None	0.0		None	0.0		0.5	diamondgreen.gif	stop																															0.0	0.513715028763	0.000928163528442	[]	0.0	None	508.51794099800003	0.0	0.5155100822450001	0.0009641647338869999	[]	0.0	None	511.521267176	0.0	0.515227079391	0.0010449886322	[]	0.0	None	514.525015116	0.0	0.5151329040529999	0.000988960266113	[]	0.0	None	517.5282230380001	0.0	0.515283107758	0.00096607208252	[]	0.0	None	520.531651974																										2015_Jul_02_1246	59.990531508500005	LearningTask	1	14	
84	200.0	w	200.0																	0.0	0.0	0.0	0.0	15.0	1.0	61.0	0.0																													w	1.0	0.35073614120499996	None	0.0		0.5	hexagongray.gif	go																															0.0	0.513385057449	0.0009210109710689999	0.60179400444	0.0	s	523.534996986	0.52	0.515507936478	0.0011148452758800002	0.350736141205	1.0	w	526.538161993																																															2015_Jul_02_1246	59.990531508500005	LearningTask	1	14	
85	-200.0	q	200.0																	0.0	0.0	0.0	0.0	15.0	2.0	62.0	1.0																													None	0.0		None	0.0		0.5	diamondgreen.gif	stop																															0.0	0.514400959015	0.000900030136108	[]	0.0	None	529.5415411	0.0	0.515357971191	0.000981092453003	[]	0.0	None	532.544828176	0.0	0.515486955643	0.000959873199463	[]	0.0	None	535.548192978	0.0	0.5155329704280001	0.0009560585021970001	[]	0.0	None	538.552200079	0.0	0.514985084534	0.000977039337158	[]	0.0	None	541.554919958																										2015_Jul_02_1246	59.990531508500005	LearningTask	1	14	
86	200.0	w	200.0																	0.0	0.0	0.0	0.0	15.0	3.0	63.0	0.0																													w	1.0	0.45086407661399996	None	0.0		0.5	hexagongray.gif	go																															0.46	0.51452088356	0.0009808540344239999	0.450864076614	1.0	w	544.55837512																																																						2015_Jul_02_1246	59.990531508500005	LearningTask	1	14	
87	-200.0	a	-200.0																	0.0	0.0	0.0	0.0	16.0	0.0	64.0	3.0																													a	1.0	0.500865936279	None	0.0		2.0	crossblue.gif	stop																															2.2	0.514417171478	0.0008990764617919999	0.500865936279	1.0	a	547.561793089																																																						2015_Jul_02_1246	59.990531508500005	LearningTask	1	14	
88	200.0	w	200.0																	0.0	0.0	0.0	0.0	16.0	1.0	65.0	0.0																													w	1.0	0.517257928848	None	0.0		1.0	squarewhite.gif	go																															0.0	0.514289855957	0.00089693069458	0.517257928848	1.0	w	550.564839125																																																						2015_Jul_02_1246	59.990531508500005	LearningTask	1	14	
89	200.0	w	200.0																	0.0	0.0	0.0	0.0	16.0	2.0	66.0	0.0																													w	1.0	0.334563970566	None	0.0		2.0	triangleorange.gif	go																															1.79	0.514482975006	0.00100517272949	0.334563970566	1.0	w	553.5686581130001																																																						2015_Jul_02_1246	59.990531508500005	LearningTask	1	14	
90	200.0	w	200.0																	0.0	0.0	0.0	0.0	16.0	3.0	67.0	0.0																													w	1.0	0.36742401123	None	0.0		4.0	invertedtriangleyellow.gif	stop																															3.95	0.514272928238	0.0008959770202639998	0.36742401123	1.0	w	556.5718891619999																																																						2015_Jul_02_1246	59.990531508500005	LearningTask	1	14	
91	-200.0	a	-200.0																	0.0	0.0	0.0	0.0	17.0	0.0	68.0	3.0																													a	1.0	0.417269945145	None	0.0		4.0	invertedtriangleyellow.gif	stop																															4.15	0.514337062836	0.00090503692627	0.417269945145	1.0	a	559.575216055																																																						2015_Jul_02_1246	59.990531508500005	LearningTask	1	14	
92	200.0	w	200.0																	0.0	0.0	0.0	0.0	17.0	1.0	69.0	0.0																													w	1.0	0.33402299880999997	None	0.0		1.0	squarewhite.gif	go																															0.89	0.513913869858	0.00103783607483	0.33402299881	1.0	w	562.578536987																																																						2015_Jul_02_1246	59.990531508500005	LearningTask	1	14	
93	-200.0	q	200.0																	0.0	0.0	0.0	0.0	17.0	2.0	70.0	1.0																													None	0.0		None	0.0		4.0	linecyan.gif	go																															0.0	0.514462947845	0.0009031295776369999	[]	0.0	None	565.581984043	0.0	0.515496969223	0.0009739398956299999	[]	0.0	None	568.5855181219999	0.0	0.515408039093	0.0011510848999000001	[]	0.0	None	571.588814974	0.0	0.515418767929	0.00104784965515	[]	0.0	None	574.5921771530001	0.0	0.5154731273650001	0.000946044921875	[]	0.0	None	577.596019983																										2015_Jul_02_1246	59.990531508500005	LearningTask	1	14	
94	-200.0	a	-200.0																	0.0	0.0	0.0	0.0	17.0	3.0	71.0	3.0																													a	1.0	0.5178120136259999	None	0.0		4.0	linecyan.gif	go																															4.0	0.513710021973	0.0008990764617919999	0.517812013626	1.0	a	580.598894119																																																						2015_Jul_02_1246	59.990531508500005	LearningTask	1	14	
95	-200.0	a	-200.0																	0.0	0.0	0.0	0.0	18.0	0.0	72.0	3.0																													a	1.0	0.417673110962	None	0.0		2.0	crossblue.gif	stop																															1.88	0.514415025711	0.000900030136108	0.417673110962	1.0	a	583.602061033																																																						2015_Jul_02_1246	59.990531508500005	LearningTask	1	14	
96	-200.0	q	200.0																	0.0	0.0	0.0	0.0	18.0	1.0	73.0	1.0																													None	0.0		None	0.0		4.0	linecyan.gif	go																															0.0	0.51474404335	0.0009140968322749999	[]	0.0	None	586.6059951780001	0.0	0.5150949954990001	0.00102806091309	[]	0.0	None	589.608947992	0.0	0.515670061111	0.0009591579437260001	[]	0.0	None	592.612219095	0.0	0.5155630111689999	0.0009570121765139998	[]	0.0	None	595.61581707	0.0	0.515315055847	0.0009729862213130002	[]	0.0	None	598.619008064																										2015_Jul_02_1246	59.990531508500005	LearningTask	1	14	
97	-200.0	q	200.0																	0.0	0.0	0.0	0.0	18.0	2.0	74.0	1.0																													None	0.0		None	0.0		1.0	circlemagenta.gif	stop																															0.0	0.514162063599	0.00109195709229	[]	0.0	None	601.622459173	0.0	0.515514850616	0.0009799003601070001	[]	0.0	None	604.62618804	0.0	0.515132188797	0.00117611885071	[]	0.0	None	607.629235029	0.0	0.5154290199279999	0.0010809898376500002	[]	0.0	None	610.63262701	0.0	0.5155160427090001	0.000961065292358	[]	0.0	None	613.635890961																										2015_Jul_02_1246	59.990531508500005	LearningTask	1	14	
98	-200.0	a	-200.0																	0.0	0.0	0.0	0.0	18.0	3.0	75.0	3.0																													a	1.0	0.517580032349	None	0.0		1.0	squarewhite.gif	go																															1.2	0.514539003372	0.0009210109710689999	0.517580032349	1.0	a	616.639803171																																																						2015_Jul_02_1246	59.990531508500005	LearningTask	1	14	
99	200.0	s	-200.0																	0.0	0.0	0.0	0.0	19.0	0.0	76.0	2.0																													s	1.0	0.3678150177	None	0.0		1.0	circlemagenta.gif	stop																															1.18	0.513201951981	0.0009398460388180001	0.3678150177	1.0	s	619.6429080959999																																																						2015_Jul_02_1246	59.990531508500005	LearningTask	1	14	
100	-200.0	a	-200.0																	0.0	0.0	0.0	0.0	19.0	1.0	77.0	3.0																													a	1.0	0.41733407974200004	None	0.0		1.0	squarewhite.gif	go																															1.14	0.514343976974	0.0009019374847410001	0.417334079742	1.0	a	622.646080971																																																						2015_Jul_02_1246	59.990531508500005	LearningTask	1	14	
101	-200.0	q	200.0																	0.0	0.0	0.0	0.0	19.0	2.0	78.0	1.0																													None	0.0		None	0.0		1.0	squarewhite.gif	go																															0.0	0.514374017715	0.000949144363403	[]	0.0	None	625.650192976	0.0	0.514889955521	0.00101184844971	[]	0.0	None	628.652976036	0.0	0.5153770446779999	0.0010519027710000001	[]	0.0	None	631.656563044	0.0	0.515084981918	0.0009601116180419999	[]	0.0	None	634.660135031	0.0	0.514476776123	0.00104284286499	[]	0.0	None	637.662965059																										2015_Jul_02_1246	59.990531508500005	LearningTask	1	14	
102	200.0	w	200.0																	0.0	0.0	0.0	0.0	19.0	3.0	79.0	0.0																													w	1.0	0.617891073227	None	0.0		1.0	circlemagenta.gif	stop																															1.23	0.5142509937290001	0.00107002258301	0.617891073227	1.0	w	640.666491985																																																						2015_Jul_02_1246	59.990531508500005	LearningTask	1	14	
103	200.0	w	200.0																	0.0	0.0	0.0	0.0	20.0	0.0	80.0	0.0																													w	1.0	0.367381811142	None	0.0		2.0	triangleorange.gif	go																															2.08	0.514436006546	0.000892162322998	0.367381811142	1.0	w	643.669954062																																																						2015_Jul_02_1246	59.990531508500005	LearningTask	1	14	
104	-200.0	q	200.0																	0.0	0.0	0.0	0.0	20.0	1.0	81.0	1.0																													None	0.0		None	0.0		4.0	invertedtriangleyellow.gif	stop																															0.0	0.514183044434	0.0009109973907470001	[]	0.0	None	646.673285961	0.0	0.515595912933	0.000998020172119	[]	0.0	None	649.6765120030001	0.0	0.5155839920040001	0.000964879989624	[]	0.0	None	652.67988205	0.0	0.515506029129	0.000977039337158	[]	0.0	None	655.683712006	0.0	0.514743804932	0.0010128021240200001	[]	0.0	None	658.68672204																										2015_Jul_02_1246	59.990531508500005	LearningTask	1	14	
105	200.0	s	-200.0																	0.0	0.0	0.0	0.0	20.0	2.0	82.0	2.0																													s	1.0	0.5508399009699999	None	0.0		1.0	squarewhite.gif	go																															0.94	0.514455080032	0.0009250640869139999	0.55083990097	1.0	s	661.690061092																																																						2015_Jul_02_1246	59.990531508500005	LearningTask	1	14	
106	-200.0	q	200.0																	0.0	0.0	0.0	0.0	20.0	3.0	83.0	1.0																													q	1.0	0.400963068008	None	0.0		4.0	linecyan.gif	go																															0.0	0.514230966568	0.00312185287476	[]	0.0	None	664.694167137	4.23	0.5148019790649999	0.000988960266113	0.400963068008	1.0	q	667.696534157																																															2015_Jul_02_1246	59.990531508500005	LearningTask	1	14	
107	-200.0	a	-200.0																	0.0	0.0	0.0	0.0	21.0	0.0	84.0	3.0																													a	1.0	0.567935943604	None	0.0		1.0	circlemagenta.gif	stop																															0.83	0.514605998993	0.0009338855743410001	0.567935943604	1.0	a	670.700036049																																																						2015_Jul_02_1246	59.990531508500005	LearningTask	1	14	
108	200.0	w	200.0																	0.0	0.0	0.0	0.0	21.0	1.0	85.0	0.0																													w	1.0	0.467580080032	None	0.0		1.0	circlemagenta.gif	stop																															1.0	0.514805078506	0.000890016555786	0.467580080032	1.0	w	673.704035044																																																						2015_Jul_02_1246	59.990531508500005	LearningTask	1	14	
109	-200.0	q	200.0																	0.0	0.0	0.0	0.0	21.0	2.0	86.0	1.0																													q	1.0	0.384503126144	None	0.0		4.0	linecyan.gif	go																															4.15	0.51393198967	0.000908136367798	0.384503126144	1.0	q	676.7069330219999																																																						2015_Jul_02_1246	59.990531508500005	LearningTask	1	14	
110	-200.0	a	-200.0																	0.0	0.0	0.0	0.0	21.0	3.0	87.0	3.0																													a	1.0	0.38416504859899997	None	0.0		1.0	squarewhite.gif	go																															0.75	0.514078140259	0.000982999801636	0.384165048599	1.0	a	679.710186958																																																						2015_Jul_02_1246	59.990531508500005	LearningTask	1	14	
111	200.0	s	-200.0																	0.0	0.0	0.0	0.0	22.0	0.0	88.0	2.0																													s	1.0	0.45033311843900004	None	0.0		2.0	triangleorange.gif	go																															2.15	0.514826059341	0.00088095664978	0.450333118439	1.0	s	682.713759184																																																						2015_Jul_02_1246	59.990531508500005	LearningTask	1	14	
112	200.0	w	200.0																	0.0	0.0	0.0	0.0	22.0	1.0	89.0	0.0																													w	1.0	0.38398289680500003	None	0.0		1.0	circlemagenta.gif	stop																															0.81	0.514302968979	0.000881910324097	0.383982896805	1.0	w	685.716995001																																																						2015_Jul_02_1246	59.990531508500005	LearningTask	1	14	
113	200.0	s	-200.0																	0.0	0.0	0.0	0.0	22.0	2.0	90.0	2.0																													s	1.0	0.400938987732	None	0.0		0.5	diamondgreen.gif	stop																															0.43	0.514057159424	0.00102114677429	0.400938987732	1.0	s	688.720309019																																																						2015_Jul_02_1246	59.990531508500005	LearningTask	1	14	
114	-200.0	a	-200.0																	0.0	0.0	0.0	0.0	22.0	3.0	91.0	3.0																													a	1.0	0.48383092880199996	None	0.0		4.0	linecyan.gif	go																															3.92	0.5146350860600001	0.0009109973907470001	0.483830928802	1.0	a	691.72379899																																																						2015_Jul_02_1246	59.990531508500005	LearningTask	1	14	
115	200.0	w	200.0																	0.0	0.0	0.0	0.0	23.0	0.0	92.0	0.0																													w	1.0	0.417285919189	None	0.0		1.0	circlemagenta.gif	stop																															1.23	0.514447927475	0.000880002975464	0.417285919189	1.0	w	694.7272331710001																																																						2015_Jul_02_1246	59.990531508500005	LearningTask	1	14	
116	200.0	s	-200.0																	0.0	0.0	0.0	0.0	23.0	1.0	93.0	2.0																													s	1.0	0.500864028931	None	0.0		1.0	circlemagenta.gif	stop																															1.18	0.514316082001	0.0009109973907470001	0.500864028931	1.0	s	697.730575085																																																						2015_Jul_02_1246	59.990531508500005	LearningTask	1	14	
117	-200.0	q	200.0																	0.0	0.0	0.0	0.0	23.0	2.0	94.0	1.0																													q	1.0	0.384377002716	None	0.0		0.5	diamondgreen.gif	stop																															0.58	0.514305114746	0.0008790493011469999	0.384377002716	1.0	q	700.733941078																																																						2015_Jul_02_1246	59.990531508500005	LearningTask	1	14	
118	200.0	s	-200.0																	0.0	0.0	0.0	0.0	23.0	3.0	95.0	2.0																													s	1.0	0.417451143265	None	0.0		0.5	hexagongray.gif	go																															0.0	0.5145640373229999	0.00088906288147	0.417451143265	1.0	s	703.7375819680001																																																						2015_Jul_02_1246	59.990531508500005	LearningTask	1	14	
119	-200.0	a	-200.0																	0.0	0.0	0.0	0.0	24.0	0.0	96.0	3.0																													a	1.0	0.417235136032	None	0.0		4.0	invertedtriangleyellow.gif	stop																															3.85	0.513847112656	0.00090217590332	0.417235136032	1.0	a	706.740758181																																																						2015_Jul_02_1246	59.990531508500005	LearningTask	1	14	
120	200.0	s	-200.0																	0.0	0.0	0.0	0.0	24.0	1.0	97.0	2.0																													s	1.0	0.433816194534	None	0.0		2.0	crossblue.gif	stop																															1.82	0.5143249034880001	0.000877857208252	0.433816194534	1.0	s	709.7443649769999																																																						2015_Jul_02_1246	59.990531508500005	LearningTask	1	14	
121	200.0	s	-200.0																	0.0	0.0	0.0	0.0	24.0	2.0	98.0	2.0																													s	1.0	0.384429931641	None	0.0		1.0	squarewhite.gif	go																															0.82	0.5135719776150001	0.00103402137756	0.384429931641	1.0	s	712.747908115																																																						2015_Jul_02_1246	59.990531508500005	LearningTask	1	14	
122	200.0	s	-200.0																	0.0	0.0	0.0	0.0	24.0	3.0	99.0	2.0																													s	1.0	0.367792844772	None	0.0		1.0	squarewhite.gif	go																															0.97	0.5138700008389999	0.000871181488037	0.367792844772	1.0	s	715.7507901189999																																																						2015_Jul_02_1246	59.990531508500005	LearningTask	1	14	
123																				0.0	0.0	0.0	0.0																																																																																																											9.0	12.9865980148																								2015_Jul_02_1246	59.990531508500005	LearningTask	1	14	
124	-200.0	a	-200.0																	1.0	0.0	1.0	0.0	0.0	0.0	0.0	3.0																													a	1.0	0.484213113785	None	0.0		4.0	linecyan.gif	go																															3.87	0.510476827621	0.0008838176727290001	0.484213113785	1.0	a	732.587080956																																																						2015_Jul_02_1246	59.990531508500005	LearningTask	1	14	
125	200.0	w	200.0																	1.0	0.0	1.0	0.0	0.0	1.0	1.0	0.0																													w	1.0	0.38469004631	None	0.0		1.0	circlemagenta.gif	stop																															0.94	0.513501167297	0.0009031295776369999	0.38469004631	1.0	w	735.589825153																																																						2015_Jul_02_1246	59.990531508500005	LearningTask	1	14	
126	200.0	w	200.0																	1.0	0.0	1.0	0.0	0.0	2.0	2.0	0.0																													w	1.0	0.367813110352	None	0.0		2.0	crossblue.gif	stop																															2.01	0.514235973358	0.00103998184204	0.367813110352	1.0	w	738.5933570860001																																																						2015_Jul_02_1246	59.990531508500005	LearningTask	1	14	
127	-200.0	a	-200.0																	1.0	0.0	1.0	0.0	0.0	3.0	3.0	3.0																													a	1.0	0.417537212372	None	0.0		1.0	circlemagenta.gif	stop																															0.92	0.5144078731539999	0.0008749961853029999	0.417537212372	1.0	a	741.5965130330001																																																						2015_Jul_02_1246	59.990531508500005	LearningTask	1	14	
128	200.0	s	-200.0																	1.0	0.0	1.0	0.0	1.0	0.0	4.0	2.0																													s	1.0	0.400681018829	None	0.0		1.0	circlemagenta.gif	stop																															0.0	0.514053106308	0.00100302696228	0.400681018829	1.0	s	744.5998389719999																																																						2015_Jul_02_1246	59.990531508500005	LearningTask	1	14	
129	200.0	s	-200.0																	1.0	0.0	1.0	0.0	1.0	1.0	5.0	2.0																													s	1.0	0.38489699363700003	None	0.0		2.0	crossblue.gif	stop																															1.85	0.514153003693	0.0009560585021970001	0.384896993637	1.0	s	747.603291035																																																						2015_Jul_02_1246	59.990531508500005	LearningTask	1	14	
130	200.0	w	200.0																	1.0	0.0	1.0	0.0	1.0	2.0	6.0	0.0																													w	1.0	0.417955875397	None	0.0		2.0	crossblue.gif	stop																															2.24	0.514270067215	0.0008859634399410001	0.417955875397	1.0	w	750.606817961																																																						2015_Jul_02_1246	59.990531508500005	LearningTask	1	14	
131	200.0	s	-200.0																	1.0	0.0	1.0	0.0	1.0	3.0	7.0	2.0																													s	1.0	0.434326171875	None	0.0		0.5	diamondgreen.gif	stop																															0.66	0.514460802078	0.0008838176727290001	0.434326171875	1.0	s	753.610138178																																																						2015_Jul_02_1246	59.990531508500005	LearningTask	1	14	
132	200.0	w	200.0																	1.0	0.0	1.0	0.0	2.0	0.0	8.0	0.0																													w	1.0	0.484425067902	None	0.0		1.0	circlemagenta.gif	stop																															1.07	0.51412987709	0.000943899154663	0.484425067902	1.0	w	756.613437176																																																						2015_Jul_02_1246	59.990531508500005	LearningTask	1	14	
133	200.0	s	-200.0																	1.0	0.0	1.0	0.0	2.0	1.0	9.0	2.0																													s	1.0	0.484129905701	None	0.0		4.0	linecyan.gif	go																															3.85	0.514424800873	0.0008749961853029999	0.484129905701	1.0	s	759.6168639660001																																																						2015_Jul_02_1246	59.990531508500005	LearningTask	1	14	
134	-200.0	q	200.0																	1.0	0.0	1.0	0.0	2.0	2.0	10.0	1.0																													q	1.0	0.534445047379	None	0.0		4.0	invertedtriangleyellow.gif	stop																															3.96	0.5142390728	0.0008869171142580001	0.534445047379	1.0	q	762.620413065																																																						2015_Jul_02_1246	59.990531508500005	LearningTask	1	14	
135	200.0	s	-200.0																	1.0	0.0	1.0	0.0	2.0	3.0	11.0	2.0																													s	1.0	0.434637069702	None	0.0		4.0	linecyan.gif	go																															4.04	0.513451814651	0.0010139942169199998	0.434637069702	1.0	s	765.623458147																																																						2015_Jul_02_1246	59.990531508500005	LearningTask	1	14	
136	-200.0	q	200.0																	1.0	0.0	1.0	0.0	3.0	0.0	12.0	1.0																													q	1.0	0.334256887436	None	0.0		2.0	crossblue.gif	stop																															0.0	0.5146009922029999	0.0008761882781980001	0.334256887436	1.0	q	768.6271359919999																																																						2015_Jul_02_1246	59.990531508500005	LearningTask	1	14	
137	-200.0	q	200.0																	1.0	0.0	1.0	0.0	3.0	1.0	13.0	1.0																													q	1.0	0.45132613182099995	None	0.0		2.0	crossblue.gif	stop																															2.23	0.513888120651	0.00118613243103	0.451326131821	1.0	q	771.630429983																																																						2015_Jul_02_1246	59.990531508500005	LearningTask	1	14	
138	-200.0	a	-200.0																	1.0	0.0	1.0	0.0	3.0	2.0	14.0	3.0																													a	1.0	0.40090394020099995	None	0.0		0.5	hexagongray.gif	go																															0.0	0.513790845871	0.00095796585083	0.367782831192	0.0	q	774.633810997	0.28	0.515430927277	0.0009570121765139998	0.400903940201	1.0	a	777.6371870039999																																															2015_Jul_02_1246	59.990531508500005	LearningTask	1	14	
139	200.0	s	-200.0																	1.0	0.0	1.0	0.0	3.0	3.0	15.0	2.0																													s	1.0	0.48387503624	None	0.0		2.0	crossblue.gif	stop																															2.16	0.514147996902	0.0008869171142580001	0.48387503624	1.0	s	780.6404919619999																																																						2015_Jul_02_1246	59.990531508500005	LearningTask	1	14	
140	200.0	s	-200.0																	1.0	0.0	1.0	0.0	4.0	0.0	16.0	2.0																													s	1.0	0.35143899917599997	None	0.0		1.0	squarewhite.gif	go																															1.19	0.513908147812	0.00096607208252	0.351438999176	1.0	s	783.6437361239999																																																						2015_Jul_02_1246	59.990531508500005	LearningTask	1	14	
141	-200.0	q	200.0																	1.0	0.0	1.0	0.0	4.0	1.0	17.0	1.0																													q	1.0	0.58430480957	None	0.0		4.0	invertedtriangleyellow.gif	stop																															0.0	0.514412879944	0.0012459754943800001	0.58430480957	1.0	q	786.647242069																																																						2015_Jul_02_1246	59.990531508500005	LearningTask	1	14	
142	-200.0	q	200.0																	1.0	0.0	1.0	0.0	4.0	2.0	18.0	1.0																													q	1.0	0.350368976593	None	0.0		1.0	circlemagenta.gif	stop																															1.23	0.514354944229	0.00088095664978	0.350368976593	1.0	q	789.6508581639999																																																						2015_Jul_02_1246	59.990531508500005	LearningTask	1	14	
143	-200.0	q	200.0																	1.0	0.0	1.0	0.0	4.0	3.0	19.0	1.0																													q	1.0	0.417320013046	None	0.0		2.0	triangleorange.gif	go																															2.06	0.5139780044560001	0.000881910324097	0.417320013046	1.0	q	792.653849125																																																						2015_Jul_02_1246	59.990531508500005	LearningTask	1	14	
144	200.0	w	200.0																	1.0	0.0	1.0	0.0	5.0	0.0	20.0	0.0																													w	1.0	0.484616041183	None	0.0		2.0	crossblue.gif	stop																															1.91	0.514007091522	0.0009450912475589999	0.484616041183	1.0	w	795.657577991																																																						2015_Jul_02_1246	59.990531508500005	LearningTask	1	14	
145	200.0	w	200.0																	1.0	0.0	1.0	0.0	5.0	1.0	21.0	0.0																													w	1.0	0.367334842682	None	0.0		1.0	circlemagenta.gif	stop																															0.89	0.514316797256	0.0008869171142580001	0.367334842682	1.0	w	798.6607911589999																																																						2015_Jul_02_1246	59.990531508500005	LearningTask	1	14	
146	200.0	w	200.0																	1.0	0.0	1.0	0.0	5.0	2.0	22.0	0.0																													w	1.0	0.384299993515	None	0.0		2.0	crossblue.gif	stop																															1.82	0.514164924622	0.000885009765625	0.384299993515	1.0	w	801.6642451289999																																																						2015_Jul_02_1246	59.990531508500005	LearningTask	1	14	
147	-200.0	a	-200.0																	1.0	0.0	1.0	0.0	5.0	3.0	23.0	3.0																													a	1.0	0.367520093918	None	0.0		2.0	crossblue.gif	stop																															0.0	0.514157056808	0.0008790493011469999	0.367520093918	1.0	a	804.667317152																																																						2015_Jul_02_1246	59.990531508500005	LearningTask	1	14	
148	-200.0	a	-200.0																	1.0	0.0	1.0	0.0	6.0	0.0	24.0	3.0																													a	1.0	0.500655174255	None	0.0		1.0	circlemagenta.gif	stop																															1.0	0.514559030533	0.000877141952515	0.500655174255	1.0	a	807.670837164																																																						2015_Jul_02_1246	59.990531508500005	LearningTask	1	14	
149	200.0	w	200.0																	1.0	0.0	1.0	0.0	6.0	1.0	25.0	0.0																													w	1.0	0.41811513900799996	None	0.0		2.0	triangleorange.gif	go																															1.78	0.514225006104	0.000880002975464	0.418115139008	1.0	w	810.6746170519999																																																						2015_Jul_02_1246	59.990531508500005	LearningTask	1	14	
150	-200.0	a	-200.0																	1.0	0.0	1.0	0.0	6.0	2.0	26.0	3.0																													a	1.0	0.38392400741599997	None	0.0		0.5	hexagongray.gif	go																															0.5	0.514245986938	0.00094199180603	0.383924007416	1.0	a	813.6778211589999																																																						2015_Jul_02_1246	59.990531508500005	LearningTask	1	14	
151	200.0	s	-200.0																	1.0	0.0	1.0	0.0	6.0	3.0	27.0	2.0																													s	1.0	0.450896024704	None	0.0		4.0	invertedtriangleyellow.gif	stop																															3.75	0.514000892639	0.000880002975464	0.450896024704	1.0	s	816.681040049																																																						2015_Jul_02_1246	59.990531508500005	LearningTask	1	14	
152	-200.0	q	200.0																	1.0	0.0	1.0	0.0	7.0	0.0	28.0	1.0																													q	1.0	0.366935968399	None	0.0		4.0	invertedtriangleyellow.gif	stop																															3.85	0.5143609046940001	0.0008859634399410001	0.366935968399	1.0	q	819.684242964																																																						2015_Jul_02_1246	59.990531508500005	LearningTask	1	14	
153	200.0	w	200.0																	1.0	0.0	1.0	0.0	7.0	1.0	29.0	0.0																													w	1.0	0.400828838348	None	0.0		4.0	invertedtriangleyellow.gif	stop																															3.83	0.514252901077	0.000942945480347	0.400828838348	1.0	w	822.68762207																																																						2015_Jul_02_1246	59.990531508500005	LearningTask	1	14	
154	-200.0	a	-200.0																	1.0	0.0	1.0	0.0	7.0	2.0	30.0	3.0																													a	1.0	0.417560100555	None	0.0		4.0	linecyan.gif	go																															3.86	0.514425039291	0.0010519027710000001	0.417560100555	1.0	a	825.691346169																																																						2015_Jul_02_1246	59.990531508500005	LearningTask	1	14	
155	-200.0	q	200.0																	1.0	0.0	1.0	0.0	7.0	3.0	31.0	1.0																													q	1.0	0.434554100037	None	0.0		0.5	hexagongray.gif	go																															0.0	0.513794898987	0.0008878707885739998	0.434554100037	1.0	q	828.694439173																																																						2015_Jul_02_1246	59.990531508500005	LearningTask	1	14	
156	200.0	w	200.0																	1.0	0.0	1.0	0.0	8.0	0.0	32.0	0.0																													w	1.0	0.467401027679	None	0.0		2.0	triangleorange.gif	go																															1.93	0.5146088600159999	0.000922918319702	0.467401027679	1.0	w	831.697754145																																																						2015_Jul_02_1246	59.990531508500005	LearningTask	1	14	
157	-200.0	a	-200.0																	1.0	0.0	1.0	0.0	8.0	1.0	33.0	3.0																													a	1.0	0.5011808872219999	None	0.0		4.0	invertedtriangleyellow.gif	stop																															3.75	0.514143943787	0.00103688240051	0.501180887222	1.0	a	834.701116085																																																						2015_Jul_02_1246	59.990531508500005	LearningTask	1	14	
158	200.0	s	-200.0																	1.0	0.0	1.0	0.0	8.0	2.0	34.0	2.0																													s	1.0	0.501204967499	None	0.0		4.0	linecyan.gif	go																															4.23	0.514400959015	0.000881910324097	0.501204967499	1.0	s	837.7046601769999																																																						2015_Jul_02_1246	59.990531508500005	LearningTask	1	14	
159	200.0	s	-200.0																	1.0	0.0	1.0	0.0	8.0	3.0	35.0	2.0																													s	1.0	0.417620897293	None	0.0		2.0	triangleorange.gif	go																															1.83	0.514419078827	0.000999927520752	0.417620897293	1.0	s	840.708234072																																																						2015_Jul_02_1246	59.990531508500005	LearningTask	1	14	
160	200.0	s	-200.0																	1.0	0.0	1.0	0.0	9.0	0.0	36.0	2.0																													s	1.0	0.401540994644	None	0.0		2.0	triangleorange.gif	go																															0.0	0.513450860977	0.000900983810425	0.401540994644	1.0	s	843.7113511560001																																																						2015_Jul_02_1246	59.990531508500005	LearningTask	1	14	
161	-200.0	a	-200.0																	1.0	0.0	1.0	0.0	9.0	1.0	37.0	3.0																													a	1.0	0.45079779624899996	None	0.0		0.5	hexagongray.gif	go																															0.45	0.514518976212	0.0008909702301030001	0.450797796249	1.0	a	846.714832067																																																						2015_Jul_02_1246	59.990531508500005	LearningTask	1	14	
162	-200.0	q	200.0																	1.0	0.0	1.0	0.0	9.0	2.0	38.0	1.0																													q	1.0	0.450744867325	None	0.0		1.0	circlemagenta.gif	stop																															0.75	0.5142381191250001	0.000880002975464	0.450744867325	1.0	q	849.718773127																																																						2015_Jul_02_1246	59.990531508500005	LearningTask	1	14	
163	-200.0	q	200.0																	1.0	0.0	1.0	0.0	9.0	3.0	39.0	1.0																													q	1.0	0.417892932892	None	0.0		4.0	linecyan.gif	go																															0.0	0.513576984406	0.00092887878418	0.417892932892	1.0	q	852.7220790389999																																																						2015_Jul_02_1246	59.990531508500005	LearningTask	1	14	
164	200.0	w	200.0																	1.0	0.0	1.0	0.0	10.0	0.0	40.0	0.0																													w	1.0	0.35125803947400003	None	0.0		0.5	hexagongray.gif	go																															0.0	0.5136179924009999	0.000900983810425	0.417367935181	0.0	s	855.7250971789999	0.67	0.515018939972	0.00095796585083	0.351258039474	1.0	w	858.7283141610001																																															2015_Jul_02_1246	59.990531508500005	LearningTask	1	14	
165	200.0	s	-200.0																	1.0	0.0	1.0	0.0	10.0	1.0	41.0	2.0																													s	1.0	0.417927026749	None	0.0		0.5	diamondgreen.gif	stop																															0.55	0.513929843903	0.00098180770874	0.417927026749	1.0	s	861.7315540310001																																																						2015_Jul_02_1246	59.990531508500005	LearningTask	1	14	
166	200.0	s	-200.0																	1.0	0.0	1.0	0.0	10.0	2.0	42.0	2.0																													s	1.0	0.384514093399	None	0.0		0.5	diamondgreen.gif	stop																															0.47	0.5143339633940001	0.000877857208252	0.384514093399	1.0	s	864.734879971																																																						2015_Jul_02_1246	59.990531508500005	LearningTask	1	14	
167	200.0	w	200.0																	1.0	0.0	1.0	0.0	10.0	3.0	43.0	0.0																													w	1.0	0.451219081879	None	0.0		4.0	linecyan.gif	go																															3.87	0.5144441127780001	0.000887155532837	0.451219081879	1.0	w	867.738221169																																																						2015_Jul_02_1246	59.990531508500005	LearningTask	1	14	
168	-200.0	a	-200.0																	1.0	0.0	1.0	0.0	11.0	0.0	44.0	3.0																													a	1.0	0.367434024811	None	0.0		4.0	invertedtriangleyellow.gif	stop																															0.0	0.51416683197	0.0009169578552250001	0.350854873657	0.0	q	870.741685152	3.95	0.515587091446	0.0009350776672360002	0.367434024811	1.0	a	873.7451319689999																																															2015_Jul_02_1246	59.990531508500005	LearningTask	1	14	
169	-200.0	a	-200.0																	1.0	0.0	1.0	0.0	11.0	1.0	45.0	3.0																													a	1.0	0.38401985168499997	None	0.0		1.0	circlemagenta.gif	stop																															0.92	0.514314174652	0.00087308883667	0.384019851685	1.0	a	876.7486090660001																																																						2015_Jul_02_1246	59.990531508500005	LearningTask	1	14	
170	200.0	w	200.0																	1.0	0.0	1.0	0.0	11.0	2.0	46.0	0.0																													w	1.0	0.45092701911899996	None	0.0		1.0	circlemagenta.gif	stop																															0.0	0.514098882675	0.0008740425109860002	0.450927019119	1.0	w	879.7518131730001																																																						2015_Jul_02_1246	59.990531508500005	LearningTask	1	14	
171	-200.0	a	-200.0																	1.0	0.0	1.0	0.0	11.0	3.0	47.0	3.0																													a	1.0	0.467664957047	None	0.0		4.0	linecyan.gif	go																															3.78	0.5139260292050001	0.00108003616333	0.467664957047	1.0	a	882.7551951410001																																																						2015_Jul_02_1246	59.990531508500005	LearningTask	1	14	
172	-200.0	q	200.0																	1.0	0.0	1.0	0.0	12.0	0.0	48.0	1.0																													q	1.0	0.434808015823	None	0.0		2.0	triangleorange.gif	go																															2.22	0.5142750740049999	0.000900030136108	0.434808015823	1.0	q	885.758656025																																																						2015_Jul_02_1246	59.990531508500005	LearningTask	1	14	
173	200.0	w	200.0																	1.0	0.0	1.0	0.0	12.0	1.0	49.0	0.0																													w	1.0	0.468212842941	None	0.0		4.0	linecyan.gif	go																															0.0	0.514153003693	0.0008831024169919999	0.468212842941	1.0	w	888.761932135																																																						2015_Jul_02_1246	59.990531508500005	LearningTask	1	14	
174	200.0	w	200.0																	1.0	0.0	1.0	0.0	12.0	2.0	50.0	0.0																													w	1.0	0.417771816254	None	0.0		1.0	squarewhite.gif	go																															1.01	0.514300823212	0.000949859619141	0.417771816254	1.0	w	891.7652831080001																																																						2015_Jul_02_1246	59.990531508500005	LearningTask	1	14	
175	-200.0	q	200.0																	1.0	0.0	1.0	0.0	12.0	3.0	51.0	1.0																													q	1.0	0.534376859665	None	0.0		2.0	triangleorange.gif	go																															2.07	0.514473199844	0.000877141952515	0.534376859665	1.0	q	894.768747091																																																						2015_Jul_02_1246	59.990531508500005	LearningTask	1	14	
176	-200.0	a	-200.0																	1.0	0.0	1.0	0.0	13.0	0.0	52.0	3.0																													a	1.0	0.501487970352	None	0.0		4.0	linecyan.gif	go																															0.0	0.514300107956	0.00116109848022	0.501487970352	1.0	a	897.772547007																																																						2015_Jul_02_1246	59.990531508500005	LearningTask	1	14	
177	200.0	w	200.0																	1.0	0.0	1.0	0.0	13.0	1.0	53.0	0.0																													w	1.0	0.41754388809199994	None	0.0		0.5	hexagongray.gif	go																															0.7	0.5137410163880001	0.000913858413696	0.417543888092	1.0	w	900.7757990360001																																																						2015_Jul_02_1246	59.990531508500005	LearningTask	1	14	
178	200.0	w	200.0																	1.0	0.0	1.0	0.0	13.0	2.0	54.0	0.0																													w	1.0	0.450942993164	None	0.0		2.0	triangleorange.gif	go																															1.76	0.513916969299	0.0008740425109860002	0.450942993164	1.0	w	903.778772116																																																						2015_Jul_02_1246	59.990531508500005	LearningTask	1	14	
179	-200.0	a	-200.0																	1.0	0.0	1.0	0.0	13.0	3.0	55.0	3.0																													a	1.0	0.384742975235	None	0.0		2.0	crossblue.gif	stop																															2.12	0.514414072037	0.0008859634399410001	0.384742975235	1.0	a	906.7822880739999																																																						2015_Jul_02_1246	59.990531508500005	LearningTask	1	14	
180	-200.0	q	200.0																	1.0	0.0	1.0	0.0	14.0	0.0	56.0	1.0																													q	1.0	0.36795997619599996	None	0.0		0.5	diamondgreen.gif	stop																															0.54	0.514117002487	0.0009369850158689999	0.367959976196	1.0	q	909.7854950430001																																																						2015_Jul_02_1246	59.990531508500005	LearningTask	1	14	
181	-200.0	a	-200.0																	1.0	0.0	1.0	0.0	14.0	1.0	57.0	3.0																													a	1.0	0.450994968414	None	0.0		1.0	squarewhite.gif	go																															0.0	0.514351129532	0.000988006591797	0.450994968414	1.0	a	912.788798094																																																						2015_Jul_02_1246	59.990531508500005	LearningTask	1	14	
182	200.0	s	-200.0																	1.0	0.0	1.0	0.0	14.0	2.0	58.0	2.0																													s	1.0	0.484220981598	None	0.0		0.5	hexagongray.gif	go																															0.33	0.5142149925230001	0.0008959770202639998	0.484220981598	1.0	s	915.792695045																																																						2015_Jul_02_1246	59.990531508500005	LearningTask	1	14	
183	200.0	w	200.0																	1.0	0.0	1.0	0.0	14.0	3.0	59.0	0.0																													w	1.0	0.43393087387100004	None	0.0		0.5	diamondgreen.gif	stop																															0.0	0.514285802841	0.0008838176727290001	0.433930873871	1.0	w	918.795689106																																																						2015_Jul_02_1246	59.990531508500005	LearningTask	1	14	
184	-200.0	a	-200.0																	1.0	0.0	1.0	0.0	15.0	0.0	60.0	3.0																													a	1.0	0.45086312293999997	None	0.0		1.0	squarewhite.gif	go																															1.02	0.514188051224	0.00109505653381	0.45086312294	1.0	a	921.7996091839999																																																						2015_Jul_02_1246	59.990531508500005	LearningTask	1	14	
185	200.0	w	200.0																	1.0	0.0	1.0	0.0	15.0	1.0	61.0	0.0																													w	1.0	0.38415813446	None	0.0		0.5	hexagongray.gif	go																															0.51	0.513778924942	0.0009279251098630001	0.38415813446	1.0	w	924.802643061																																																						2015_Jul_02_1246	59.990531508500005	LearningTask	1	14	
186	-200.0	a	-200.0																	1.0	0.0	1.0	0.0	15.0	2.0	62.0	3.0																													a	1.0	0.384007930756	None	0.0		1.0	squarewhite.gif	go																															0.79	0.514334201813	0.0008721351623539999	0.384007930756	1.0	a	927.806058168																																																						2015_Jul_02_1246	59.990531508500005	LearningTask	1	14	
187	200.0	s	-200.0																	1.0	0.0	1.0	0.0	15.0	3.0	63.0	2.0																													s	1.0	0.45137405395499997	None	0.0		2.0	crossblue.gif	stop																															0.0	0.513585090637	0.00090503692627	0.451374053955	1.0	s	930.809347153																																																						2015_Jul_02_1246	59.990531508500005	LearningTask	1	14	
188	200.0	s	-200.0																	1.0	0.0	1.0	0.0	16.0	0.0	64.0	2.0																													s	1.0	0.5341451168060001	None	0.0		0.5	diamondgreen.gif	stop																															0.69	0.514527082443	0.0009200572967529999	0.534145116806	1.0	s	933.8127579689999																																																						2015_Jul_02_1246	59.990531508500005	LearningTask	1	14	
189	-200.0	q	200.0																	1.0	0.0	1.0	0.0	16.0	1.0	65.0	1.0																													q	1.0	0.567611932755	None	0.0		4.0	linecyan.gif	go																															3.81	0.51434803009	0.0008769035339360002	0.567611932755	1.0	q	936.816258192																																																						2015_Jul_02_1246	59.990531508500005	LearningTask	1	14	
190	200.0	s	-200.0																	1.0	0.0	1.0	0.0	16.0	2.0	66.0	2.0																													s	1.0	0.500687122345	None	0.0		0.5	hexagongray.gif	go																															0.7	0.514012098312	0.00096607208252	0.500687122345	1.0	s	939.819184065																																																						2015_Jul_02_1246	59.990531508500005	LearningTask	1	14	
191	200.0	s	-200.0																	1.0	0.0	1.0	0.0	16.0	3.0	67.0	2.0																													s	1.0	0.63453412056	None	0.0		1.0	circlemagenta.gif	stop																															0.9	0.5146970748899999	0.000888109207153	0.63453412056	1.0	s	942.82269001																																																						2015_Jul_02_1246	59.990531508500005	LearningTask	1	14	
192	-200.0	q	200.0																	1.0	0.0	1.0	0.0	17.0	0.0	68.0	1.0																													q	1.0	0.433741807938	None	0.0		1.0	squarewhite.gif	go																															0.85	0.514712810516	0.0008749961853029999	0.433741807938	1.0	q	945.826910973																																																						2015_Jul_02_1246	59.990531508500005	LearningTask	1	14	
193	200.0	s	-200.0																	1.0	0.0	1.0	0.0	17.0	1.0	69.0	2.0																													s	1.0	0.41763591766400004	None	0.0		4.0	invertedtriangleyellow.gif	stop																															0.0	0.513332128525	0.0009241104125980002	0.417635917664	1.0	s	948.829617977																																																						2015_Jul_02_1246	59.990531508500005	LearningTask	1	14	
194	200.0	s	-200.0																	1.0	0.0	1.0	0.0	17.0	2.0	70.0	2.0																													s	1.0	0.46797084808300005	None	0.0		2.0	crossblue.gif	stop																															0.0	0.514195203781	0.00088906288147	0.467970848083	1.0	s	951.8328971860001																																																						2015_Jul_02_1246	59.990531508500005	LearningTask	1	14	
195	-200.0	a	-200.0																	1.0	0.0	1.0	0.0	17.0	3.0	71.0	3.0																													a	1.0	0.501015901566	None	0.0		1.0	squarewhite.gif	go																															1.05	0.514450073242	0.00088906288147	0.501015901566	1.0	a	954.836264133																																																						2015_Jul_02_1246	59.990531508500005	LearningTask	1	14	
196	-200.0	q	200.0																	1.0	0.0	1.0	0.0	18.0	0.0	72.0	1.0																													q	1.0	0.5014619827269999	None	0.0		4.0	linecyan.gif	go																															4.16	0.513939857483	0.000955820083618	0.501461982727	1.0	q	957.8396961689999																																																						2015_Jul_02_1246	59.990531508500005	LearningTask	1	14	
197	200.0	s	-200.0																	1.0	0.0	1.0	0.0	18.0	1.0	73.0	2.0																													s	1.0	0.401527166367	None	0.0		4.0	linecyan.gif	go																															4.04	0.514205932617	0.00110697746277	0.401527166367	1.0	s	960.8431940080001																																																						2015_Jul_02_1246	59.990531508500005	LearningTask	1	14	
198	-200.0	q	200.0																	1.0	0.0	1.0	0.0	18.0	2.0	74.0	1.0																													q	1.0	0.400623083115	None	0.0		1.0	circlemagenta.gif	stop																															0.91	0.5144309997559999	0.0008831024169919999	0.400623083115	1.0	q	963.84631896																																																						2015_Jul_02_1246	59.990531508500005	LearningTask	1	14	
199	-200.0	a	-200.0																	1.0	0.0	1.0	0.0	18.0	3.0	75.0	3.0																													a	1.0	0.334362983704	None	0.0		1.0	circlemagenta.gif	stop																															0.0	0.514276981354	0.0008780956268310002	0.334362983704	1.0	a	966.8497881889999																																																						2015_Jul_02_1246	59.990531508500005	LearningTask	1	14	
200	-200.0	a	-200.0																	1.0	0.0	1.0	0.0	19.0	0.0	76.0	3.0																													a	1.0	0.450695037842	None	0.0		0.5	diamondgreen.gif	stop																															0.0	0.514073848724	0.0009918212890619997	0.450695037842	1.0	a	969.853219032																																																						2015_Jul_02_1246	59.990531508500005	LearningTask	1	14	
201	200.0	w	200.0																	1.0	0.0	1.0	0.0	19.0	1.0	77.0	0.0																													w	1.0	0.567804098129	None	0.0		4.0	invertedtriangleyellow.gif	stop																															3.92	0.5142610073089999	0.0008780956268310002	0.567804098129	1.0	w	972.856513977																																																						2015_Jul_02_1246	59.990531508500005	LearningTask	1	14	
202	-200.0	q	200.0																	1.0	0.0	1.0	0.0	19.0	2.0	78.0	1.0																													q	1.0	0.484612226486	None	0.0		1.0	circlemagenta.gif	stop																															1.08	0.514345884323	0.0008950233459470001	0.484612226486	1.0	q	975.859986067																																																						2015_Jul_02_1246	59.990531508500005	LearningTask	1	14	
203	-200.0	q	200.0																	1.0	0.0	1.0	0.0	19.0	3.0	79.0	1.0																													q	1.0	0.667490959167	None	0.0		1.0	circlemagenta.gif	stop																															0.95	0.514189958572	0.0009629726409910001	0.667490959167	1.0	q	978.8632521630001																																																						2015_Jul_02_1246	59.990531508500005	LearningTask	1	14	
204	200.0	s	-200.0																	1.0	0.0	1.0	0.0	20.0	0.0	80.0	2.0																													s	1.0	0.46827888488799996	None	0.0		1.0	squarewhite.gif	go																															0.97	0.514343976974	0.00119495391846	0.468278884888	1.0	s	981.866847992																																																						2015_Jul_02_1246	59.990531508500005	LearningTask	1	14	
205	-200.0	a	-200.0																	1.0	0.0	1.0	0.0	20.0	1.0	81.0	3.0																													a	1.0	0.5177278518680001	None	0.0		0.5	diamondgreen.gif	stop																															0.0	0.514027118683	0.00088095664978	0.517727851868	1.0	a	984.8703451160001																																																						2015_Jul_02_1246	59.990531508500005	LearningTask	1	14	
206	-200.0	q	200.0																	1.0	0.0	1.0	0.0	20.0	2.0	82.0	1.0																													q	1.0	0.38415789604199996	None	0.0		0.5	diamondgreen.gif	stop																															0.0	0.513767957687	0.0009469985961910001	0.384157896042	1.0	q	987.873955011																																																						2015_Jul_02_1246	59.990531508500005	LearningTask	1	14	
207	200.0	w	200.0																	1.0	0.0	1.0	0.0	20.0	3.0	83.0	0.0																													w	1.0	0.5180230140690001	None	0.0		0.5	diamondgreen.gif	stop																															0.0	0.513841867447	0.0009210109710689999	0.518023014069	1.0	w	990.876960039																																																						2015_Jul_02_1246	59.990531508500005	LearningTask	1	14	
208	-200.0	q	200.0																	1.0	0.0	1.0	0.0	21.0	0.0	84.0	1.0																													q	1.0	0.4178211689	None	0.0		1.0	circlemagenta.gif	stop																															0.78	0.514115095139	0.0008821487426760002	0.4178211689	1.0	q	993.88026309																																																						2015_Jul_02_1246	59.990531508500005	LearningTask	1	14	
209	-200.0	q	200.0																	1.0	0.0	1.0	0.0	21.0	1.0	85.0	1.0																													q	1.0	0.43457293510399997	None	0.0		0.5	hexagongray.gif	go																															0.3	0.514240026474	0.0009338855743410001	0.434572935104	1.0	q	996.883448124																																																						2015_Jul_02_1246	59.990531508500005	LearningTask	1	14	
210	200.0	w	200.0																	1.0	0.0	1.0	0.0	21.0	2.0	86.0	0.0																													w	1.0	0.418280124664	None	0.0		2.0	crossblue.gif	stop																															0.0	0.51424908638	0.00110507011414	0.467248916626	0.0	s	999.886792183	1.99	0.515424013138	0.00095009803772	0.418280124664	1.0	w	1002.89065599																																															2015_Jul_02_1246	59.990531508500005	LearningTask	1	14	
211	200.0	w	200.0																	1.0	0.0	1.0	0.0	21.0	3.0	87.0	0.0																													w	1.0	0.434582233429	None	0.0		4.0	invertedtriangleyellow.gif	stop																															0.0	0.5135939121249999	0.00087308883667	0.434582233429	1.0	w	1005.89369202																																																						2015_Jul_02_1246	59.990531508500005	LearningTask	1	14	
212	-200.0	q	200.0																	1.0	0.0	1.0	0.0	22.0	0.0	88.0	1.0																													q	1.0	0.434273958206	None	0.0		2.0	triangleorange.gif	go																															1.99	0.5142509937290001	0.00105381011963	0.434273958206	1.0	q	1008.89712501																																																						2015_Jul_02_1246	59.990531508500005	LearningTask	1	14	
213	-200.0	a	-200.0																	1.0	0.0	1.0	0.0	22.0	1.0	89.0	3.0																													a	1.0	0.5176119804379999	None	0.0		2.0	triangleorange.gif	go																															2.01	0.5142509937290001	0.0008769035339360002	0.517611980438	1.0	a	1011.90053105																																																						2015_Jul_02_1246	59.990531508500005	LearningTask	1	14	
214	200.0	s	-200.0																	1.0	0.0	1.0	0.0	22.0	2.0	90.0	2.0																													s	1.0	0.584408998489	None	0.0		4.0	linecyan.gif	go																															4.21	0.514180898666	0.00088095664978	0.584408998489	1.0	s	1014.90368319																																																						2015_Jul_02_1246	59.990531508500005	LearningTask	1	14	
215	-200.0	a	-200.0																	1.0	0.0	1.0	0.0	22.0	3.0	91.0	3.0																													a	1.0	0.45132493972800003	None	0.0		2.0	crossblue.gif	stop																															0.0	0.513849973679	0.0009338855743410001	0.451324939728	1.0	a	1017.90698504																																																						2015_Jul_02_1246	59.990531508500005	LearningTask	1	14	
216	200.0	s	-200.0																	1.0	0.0	1.0	0.0	23.0	0.0	92.0	2.0																													s	1.0	0.467123031616	None	0.0		4.0	linecyan.gif	go																															4.09	0.514814138412	0.000913143157959	0.467123031616	1.0	s	1020.91082501																																																						2015_Jul_02_1246	59.990531508500005	LearningTask	1	14	
217	200.0	s	-200.0																	1.0	0.0	1.0	0.0	23.0	1.0	93.0	2.0																													s	1.0	0.434094905853	None	0.0		1.0	squarewhite.gif	go																															0.0	0.514133214951	0.0008721351623539999	0.434094905853	1.0	s	1023.91406512																																																						2015_Jul_02_1246	59.990531508500005	LearningTask	1	14	
218	200.0	w	200.0																	1.0	0.0	1.0	0.0	23.0	2.0	94.0	0.0																													w	1.0	0.51784491539	None	0.0		0.5	hexagongray.gif	go																															0.51	0.513635873795	0.00102090835571	0.51784491539	1.0	w	1026.91733909																																																						2015_Jul_02_1246	59.990531508500005	LearningTask	1	14	
219	-200.0	q	200.0																	1.0	0.0	1.0	0.0	23.0	3.0	95.0	1.0																													q	1.0	0.384579896927	None	0.0		1.0	squarewhite.gif	go																															1.05	0.514243841171	0.0008718967437739999	0.384579896927	1.0	q	1029.92059803																																																						2015_Jul_02_1246	59.990531508500005	LearningTask	1	14	
220	200.0	w	200.0																	1.0	0.0	1.0	0.0	24.0	0.0	96.0	0.0																													w	1.0	0.584710836411	None	0.0		1.0	circlemagenta.gif	stop																															0.91	0.514323234558	0.0008821487426760002	0.584710836411	1.0	w	1032.92471218																																																						2015_Jul_02_1246	59.990531508500005	LearningTask	1	14	
221	-200.0	q	200.0																	1.0	0.0	1.0	0.0	24.0	1.0	97.0	1.0																													q	1.0	0.416949987411	None	0.0		1.0	squarewhite.gif	go																															0.78	0.5137920379640001	0.00093412399292	0.416949987411	1.0	q	1035.92757201																																																						2015_Jul_02_1246	59.990531508500005	LearningTask	1	14	
222	-200.0	a	-200.0																	1.0	0.0	1.0	0.0	24.0	2.0	98.0	3.0																													a	1.0	0.517524957657	None	0.0		4.0	invertedtriangleyellow.gif	stop																															3.92	0.5142600536349999	0.000877857208252	0.517524957657	1.0	a	1038.93067598																																																						2015_Jul_02_1246	59.990531508500005	LearningTask	1	14	
223	-200.0	a	-200.0																	1.0	0.0	1.0	0.0	24.0	3.0	99.0	3.0																													a	1.0	0.43406105041500004	None	0.0		0.5	diamondgreen.gif	stop																															0.47	0.514459848404	0.0008769035339360002	0.434061050415	1.0	a	1041.93432808																																																						2015_Jul_02_1246	59.990531508500005	LearningTask	1	14	
224																				1.0	0.0	1.0	0.0																																																																																																											9.0	14.973780870399999																								2015_Jul_02_1246	59.990531508500005	LearningTask	1	14	
225	-200.0	q	200.0																	2.0	0.0	2.0	0.0	0.0	0.0	0.0	1.0																													q	1.0	0.567708969116	None	0.0		2.0	triangleorange.gif	go																															1.81	0.509874105453	0.0008680820465089999	0.567708969116	1.0	q	1060.82253098																																																						2015_Jul_02_1246	59.990531508500005	LearningTask	1	14	
226	-200.0	a	-200.0																	2.0	0.0	2.0	0.0	0.0	1.0	1.0	3.0																													a	1.0	0.717764139175	None	0.0		2.0	triangleorange.gif	go																															2.02	0.513606071472	0.0009391307830810002	0.717764139175	1.0	a	1063.82597017																																																						2015_Jul_02_1246	59.990531508500005	LearningTask	1	14	
227	200.0	s	-200.0																	2.0	0.0	2.0	0.0	0.0	2.0	2.0	2.0																													s	1.0	0.417144060135	None	0.0		2.0	triangleorange.gif	go																															2.24	0.513636112213	0.000881195068359	0.417144060135	1.0	s	1066.82875204																																																						2015_Jul_02_1246	59.990531508500005	LearningTask	1	14	
228	-200.0	q	200.0																	2.0	0.0	2.0	0.0	0.0	3.0	3.0	1.0																													q	1.0	0.46808600425700003	None	0.0		4.0	invertedtriangleyellow.gif	stop																															0.0	0.514128923416	0.0008838176727290001	0.468086004257	1.0	q	1069.83218312																																																						2015_Jul_02_1246	59.990531508500005	LearningTask	1	14	
229	200.0	s	-200.0																	2.0	0.0	2.0	0.0	1.0	0.0	4.0	2.0																													s	1.0	0.5012409687039999	None	0.0		2.0	crossblue.gif	stop																															1.87	0.514230966568	0.000969886779785	0.501240968704	1.0	s	1072.835742																																																						2015_Jul_02_1246	59.990531508500005	LearningTask	1	14	
230	-200.0	a	-200.0																	2.0	0.0	2.0	0.0	1.0	1.0	5.0	3.0																													a	1.0	0.63445186615	None	0.0		1.0	circlemagenta.gif	stop																															0.0	0.514143943787	0.00088095664978	0.63445186615	1.0	a	1075.83944201																																																						2015_Jul_02_1246	59.990531508500005	LearningTask	1	14	
231	-200.0	q	200.0																	2.0	0.0	2.0	0.0	1.0	2.0	6.0	1.0																													q	1.0	0.434108972549	None	0.0		0.5	diamondgreen.gif	stop																															0.0	0.513481140137	0.000927209854126	0.434108972549	1.0	q	1078.84271097																																																						2015_Jul_02_1246	59.990531508500005	LearningTask	1	14	
232	200.0	s	-200.0																	2.0	0.0	2.0	0.0	1.0	3.0	7.0	2.0																													s	1.0	0.434609889984	None	0.0		2.0	triangleorange.gif	go																															0.0	0.513490915298	0.0008769035339360002	0.434609889984	1.0	s	1081.84566402																																																						2015_Jul_02_1246	59.990531508500005	LearningTask	1	14	
233	200.0	w	200.0																	2.0	0.0	2.0	0.0	2.0	0.0	8.0	0.0																													w	1.0	0.500962018967	None	0.0		2.0	crossblue.gif	stop																															0.0	0.514369010925	0.0009679794311519998	0.500962018967	1.0	w	1084.84923506																																																						2015_Jul_02_1246	59.990531508500005	LearningTask	1	14	
234	200.0	s	-200.0																	2.0	0.0	2.0	0.0	2.0	1.0	9.0	2.0																													s	1.0	0.484732866287	None	0.0		0.5	diamondgreen.gif	stop																															0.29	0.513960123062	0.0009210109710689999	0.484732866287	1.0	s	1087.85244608																																																						2015_Jul_02_1246	59.990531508500005	LearningTask	1	14	
235	200.0	w	200.0																	2.0	0.0	2.0	0.0	2.0	2.0	10.0	0.0																													w	1.0	0.467439174652	None	0.0		4.0	invertedtriangleyellow.gif	stop																															4.16	0.514544010162	0.000890016555786	0.467439174652	1.0	w	1090.85597706																																																						2015_Jul_02_1246	59.990531508500005	LearningTask	1	14	
236	200.0	w	200.0																	2.0	0.0	2.0	0.0	2.0	3.0	11.0	0.0																													w	1.0	0.484225034714	None	0.0		2.0	crossblue.gif	stop																															0.0	0.514312982559	0.0008788108825680001	0.484225034714	1.0	w	1093.85925007																																																						2015_Jul_02_1246	59.990531508500005	LearningTask	1	14	
237	-200.0	q	200.0																	2.0	0.0	2.0	0.0	3.0	0.0	12.0	1.0																													q	1.0	0.367580890656	None	0.0		2.0	triangleorange.gif	go																															1.78	0.514223098755	0.00092601776123	0.367580890656	1.0	q	1096.86263299																																																						2015_Jul_02_1246	59.990531508500005	LearningTask	1	14	
238	200.0	w	200.0																	2.0	0.0	2.0	0.0	3.0	1.0	13.0	0.0																													w	1.0	0.45059299468999997	None	0.0		2.0	crossblue.gif	stop																															0.0	0.514137983322	0.0008759498596189999	0.45059299469	1.0	w	1099.86609316																																																						2015_Jul_02_1246	59.990531508500005	LearningTask	1	14	
239	-200.0	a	-200.0																	2.0	0.0	2.0	0.0	3.0	2.0	14.0	3.0																													a	1.0	0.46744799613999993	None	0.0		0.5	diamondgreen.gif	stop																															0.42	0.514183998108	0.0009119510650630002	0.46744799614	1.0	a	1102.86940408																																																						2015_Jul_02_1246	59.990531508500005	LearningTask	1	14	
240	200.0	w	200.0																	2.0	0.0	2.0	0.0	3.0	3.0	15.0	0.0																													w	1.0	0.350607872009	None	0.0		4.0	invertedtriangleyellow.gif	stop																															3.82	0.5142078399660001	0.0008978843688960001	0.350607872009	1.0	w	1105.87279701																																																						2015_Jul_02_1246	59.990531508500005	LearningTask	1	14	
241	-200.0	q	200.0																	2.0	0.0	2.0	0.0	4.0	0.0	16.0	1.0																													q	1.0	0.36719202995300004	None	0.0		0.5	diamondgreen.gif	stop																															0.0	0.5144591331480001	0.0008680820465089999	0.367192029953	1.0	q	1108.87610316																																																						2015_Jul_02_1246	59.990531508500005	LearningTask	1	14	
242	-200.0	a	-200.0																	2.0	0.0	2.0	0.0	4.0	1.0	17.0	3.0																													a	1.0	0.450714111328	None	0.0		4.0	invertedtriangleyellow.gif	stop																															3.9	0.514420986176	0.000881910324097	0.450714111328	1.0	a	1111.88002896																																																						2015_Jul_02_1246	59.990531508500005	LearningTask	1	14	
243	-200.0	q	200.0																	2.0	0.0	2.0	0.0	4.0	2.0	18.0	1.0																													q	1.0	0.36777496337899995	None	0.0		0.5	hexagongray.gif	go																															0.26	0.51389503479	0.0009140968322749999	0.367774963379	1.0	q	1114.88265705																																																						2015_Jul_02_1246	59.990531508500005	LearningTask	1	14	
244	200.0	s	-200.0																	2.0	0.0	2.0	0.0	4.0	3.0	19.0	2.0																													s	1.0	0.43406486511200004	None	0.0		2.0	crossblue.gif	stop																															1.88	0.514499902725	0.0008878707885739998	0.434064865112	1.0	s	1117.88606																																																						2015_Jul_02_1246	59.990531508500005	LearningTask	1	14	
245	-200.0	a	-200.0																	2.0	0.0	2.0	0.0	5.0	0.0	20.0	3.0																													a	1.0	0.45101499557499997	None	0.0		4.0	invertedtriangleyellow.gif	stop																															0.0	0.514416217804	0.000917196273804	0.451014995575	1.0	a	1120.88971019																																																						2015_Jul_02_1246	59.990531508500005	LearningTask	1	14	
246	200.0	s	-200.0																	2.0	0.0	2.0	0.0	5.0	1.0	21.0	2.0																													s	1.0	0.384449005127	None	0.0		1.0	squarewhite.gif	go																															0.87	0.514219045639	0.0008790493011469999	0.384449005127	1.0	s	1123.8931191																																																						2015_Jul_02_1246	59.990531508500005	LearningTask	1	14	
247	-200.0	a	-200.0																	2.0	0.0	2.0	0.0	5.0	2.0	22.0	3.0																													a	1.0	0.38392400741599997	None	0.0		0.5	hexagongray.gif	go																															0.0	0.514164924622	0.0011379718780499999	0.383924007416	1.0	a	1126.89630198																																																						2015_Jul_02_1246	59.990531508500005	LearningTask	1	14	
248	-200.0	a	-200.0																	2.0	0.0	2.0	0.0	5.0	3.0	23.0	3.0																													a	1.0	0.38446688651999994	None	0.0		0.5	hexagongray.gif	go																															0.4	0.513992071152	0.0008831024169919999	0.38446688652	1.0	a	1129.89972806																																																						2015_Jul_02_1246	59.990531508500005	LearningTask	1	14	
249	-200.0	q	200.0																	2.0	0.0	2.0	0.0	6.0	0.0	24.0	1.0																													q	1.0	0.41771984100299997	None	0.0		1.0	squarewhite.gif	go																															1.13	0.514465093613	0.000861883163452	0.417719841003	1.0	q	1132.90303516																																																						2015_Jul_02_1246	59.990531508500005	LearningTask	1	14	
250	-200.0	a	-200.0																	2.0	0.0	2.0	0.0	6.0	1.0	25.0	3.0																													a	1.0	0.434449911118	None	0.0		1.0	circlemagenta.gif	stop																															1.25	0.5138609409329999	0.0009250640869139999	0.434449911118	1.0	a	1135.90670514																																																						2015_Jul_02_1246	59.990531508500005	LearningTask	1	14	
251	200.0	w	200.0																	2.0	0.0	2.0	0.0	6.0	2.0	26.0	0.0																													w	1.0	0.484019994736	None	0.0		0.5	diamondgreen.gif	stop																															0.47	0.514063119888	0.0008780956268310002	0.484019994736	1.0	w	1138.90989518																																																						2015_Jul_02_1246	59.990531508500005	LearningTask	1	14	
252	-200.0	a	-200.0																	2.0	0.0	2.0	0.0	6.0	3.0	27.0	3.0																													a	1.0	0.40081310272200005	None	0.0		1.0	squarewhite.gif	go																															0.0	0.514297962189	0.0008740425109860002	0.400813102722	1.0	a	1141.91381407																																																						2015_Jul_02_1246	59.990531508500005	LearningTask	1	14	
253	200.0	s	-200.0																	2.0	0.0	2.0	0.0	7.0	0.0	28.0	2.0																													s	1.0	0.567773103714	None	0.0		0.5	hexagongray.gif	go																															0.39	0.5135579109189999	0.0009150505065920001	0.567773103714	1.0	s	1144.91679811																																																						2015_Jul_02_1246	59.990531508500005	LearningTask	1	14	
254	-200.0	q	200.0																	2.0	0.0	2.0	0.0	7.0	1.0	29.0	1.0																													q	1.0	0.501384019852	None	0.0		1.0	circlemagenta.gif	stop																															1.08	0.513943910599	0.000880002975464	0.501384019852	1.0	q	1147.92002606																																																						2015_Jul_02_1246	59.990531508500005	LearningTask	1	14	
255	-200.0	a	-200.0																	2.0	0.0	2.0	0.0	7.0	2.0	30.0	3.0																													a	1.0	0.48485898971600006	None	0.0		0.5	diamondgreen.gif	stop																															0.39	0.514192819595	0.0008759498596189999	0.484858989716	1.0	a	1150.92387795																																																						2015_Jul_02_1246	59.990531508500005	LearningTask	1	14	
256	200.0	s	-200.0																	2.0	0.0	2.0	0.0	7.0	3.0	31.0	2.0																													s	1.0	0.434470891953	None	0.0		2.0	crossblue.gif	stop																															1.82	0.513540029526	0.0010659694671599999	0.434470891953	1.0	s	1153.92691302																																																						2015_Jul_02_1246	59.990531508500005	LearningTask	1	14	
257	-200.0	q	200.0																	2.0	0.0	2.0	0.0	8.0	0.0	32.0	1.0																													q	1.0	0.400752782822	None	0.0		0.5	hexagongray.gif	go																															0.75	0.51420378685	0.00088095664978	0.400752782822	1.0	q	1156.9302000999999																																																						2015_Jul_02_1246	59.990531508500005	LearningTask	1	14	
258	-200.0	q	200.0																	2.0	0.0	2.0	0.0	8.0	1.0	33.0	1.0																													q	1.0	0.41763591766400004	None	0.0		0.5	hexagongray.gif	go																															0.0	0.514255046844	0.000993013381958	0.417635917664	1.0	q	1159.93385005																																																						2015_Jul_02_1246	59.990531508500005	LearningTask	1	14	
259	200.0	s	-200.0																	2.0	0.0	2.0	0.0	8.0	2.0	34.0	2.0																													s	1.0	0.368046045303	None	0.0		1.0	squarewhite.gif	go																															1.15	0.5137410163880001	0.000869989395142	0.368046045303	1.0	s	1162.93687105																																																						2015_Jul_02_1246	59.990531508500005	LearningTask	1	14	
