	xPos	corrAns	yPos	corrGoResp	yPosGoStim	xPosGoStim	pracTrials.thisRepN	pracTrials.thisTrialN	pracTrials.thisN	pracTrials.thisIndex	ReDoLoopPrac.thisRepN	ReDoLoopPrac.thisTrialN	ReDoLoopPrac.thisN	ReDoLoopPrac.thisIndex	ReDoLoopPrac.thisTrial	pracStopTrials.thisRepN	pracStopTrials.thisTrialN	pracStopTrials.thisN	pracStopTrials.thisIndex	Blocks.thisRepN	Blocks.thisTrialN	Blocks.thisN	Blocks.thisIndex	trials.thisRepN	trials.thisTrialN	trials.thisN	trials.thisIndex	ReDoLoopMain.thisRepN	ReDoLoopMain.thisTrialN	ReDoLoopMain.thisN	ReDoLoopMain.thisIndex	ReDoLoopMain.thisTrial	StopBlocks.thisRepN	StopBlocks.thisTrialN	StopBlocks.thisN	StopBlocks.thisIndex	StopTrials.thisRepN	StopTrials.thisTrialN	StopTrials.thisN	StopTrials.thisIndex	auctionBlocks.thisRepN	auctionBlocks.thisTrialN	auctionBlocks.thisN	auctionBlocks.thisIndex	auctionTrials.thisRepN	auctionTrials.thisTrialN	auctionTrials.thisN	auctionTrials.thisIndex	learningTrialList	learningPracTrialList	stopTrialList	stopPracTrialList	auctionTrialList	ok1.keys	ok1.rt	resp.keys	resp.corr	feedbackResp.keys	feedbackResp.corr	feedbackResp.rt	currentReward	currentStimulus	currentStimType	firstPracComputedRewardOutput	firstPracLearningStimOnset	firstPracLearningFixOnset	firstPracPresentationRT	firstPracPresentationAcc	firstPracPresentationResp	firstPracEndTrialTimeStamp	resp.rt	secondPracComputedRewardOutput	secondPracLearningStimOnset	secondPracLearningFixOnset	secondPracPresentationRT	secondPracPresentationAcc	secondPracPresentationResp	secondPracEndTrialTimeStamp	StartTrialTimeStamp	trialType	goStim	stimType	stopStimValue	goResp.keys	goResp.corr	key_resp_9.keys	key_resp_9.corr	fixStopOnset	goStimOnset	stopSignalOnset	EndTrialTimeStamp	goResp.rt	key_resp_3.keys	key_resp_3.rt	firstComputedRewardOutput	firstLearningStimOnset	firstLearningFixOnset	firstPresentationRT	firstPresentationAcc	firstPresentationResp	firstEndTrialTimeStamp	key_resp_7.keys	key_resp_7.rt	secondComputedRewardOutput	secondLearningStimOnset	secondLearningFixOnset	secondPresentationRT	secondPresentationAcc	secondPresentationResp	secondEndTrialTimeStamp	beginningSSD	EndingSSD	key_resp_9.rt	key_resp_4.keys	key_resp_4.rt	auctionResponse.keys	auctionStimDuration	auctionStim	auctionAmounts	auctionStimValue	auctionCondition	chosenAuctionAmount	auctionResponse.rt	key_resp_5.keys	key_resp_5.rt	shuffledRewardList	chosenReward1	chosenReward2	chosenReward3	chosenReward4	chosenReward5	key_resp_6.keys	key_resp_6.rt	date	frameRate	expName	session	participant	Unnamed: 138
0																																																	[]	[]	[]	[]	[]	9.0	71.8425750732																																																																															2015_Jun_30_1148	60.1767869876	LearningTask	1	54	
1	-200.0	a	-200.0				0.0	0.0	0.0	3.0																																														a	1.0	None	0.0	0.057906866073599995	4.0	invertedtriangleyellow.gif	go	0.0	0.514727115631	0.00980710983276	[]	0.0	None	100.961067915	0.48440909385700004	0.0	0.515201091766	0.0012121200561500001	0.48440909385700004	1.0	a	103.964047909																																																								2015_Jun_30_1148	60.1767869876	LearningTask	1	54	
2	-200.0	q	200.0				0.0	1.0	1.0	9.0																																														q	1.0	None	0.0		2.0	circlecyan.gif	stop	1.75	0.514708042145	0.0390830039978	0.46755695343	1.0	q	106.96707797100001	0.46755695343000003																																																															2015_Jun_30_1148	60.1767869876	LearningTask	1	54	
3	200.0	w	200.0				0.0	2.0	2.0	8.0																																														w	1.0	None	0.0		1.0	squarewhite.gif	stop	1.11	0.5151929855349999	0.0017268657684300001	0.484324932098	1.0	w	109.970449924	0.484324932098																																																															2015_Jun_30_1148	60.1767869876	LearningTask	1	54	
4	200.0	w	200.0				0.0	3.0	3.0	4.0																																														w	1.0	None	0.0		0.5	diamondorange.gif	go	0.53	0.514846086502	0.0016181468963599999	0.53427696228	1.0	w	112.973882914	0.53427696228																																																															2015_Jun_30_1148	60.1767869876	LearningTask	1	54	
5	-200.0	q	200.0				0.0	4.0	4.0	1.0																																														q	1.0	None	0.0		1.0	squarewhite.gif	stop	0.83	0.515100955963	0.0009069442749019998	0.417845010757	1.0	q	115.97732687	0.417845010757																																																															2015_Jun_30_1148	60.1767869876	LearningTask	1	54	
6	200.0	s	-200.0				0.0	5.0	5.0	6.0																																														s	1.0	None	0.0		0.5	crossblue.gif	stop	0.0	0.515050172806	0.00189518928528	0.417483091354	1.0	s	118.980637789	0.41748309135399997																																																															2015_Jun_30_1148	60.1767869876	LearningTask	1	54	
7	200.0	w	200.0				0.0	6.0	6.0	0.0																																														w	1.0	None	0.0		2.0	linemagenta.gif	go	0.0	0.514891862869	0.00153398513794	0.567754030228	1.0	w	121.98389792399999	0.567754030228																																																															2015_Jun_30_1148	60.1767869876	LearningTask	1	54	
8	200.0	s	-200.0				0.0	7.0	7.0	2.0																																														s	1.0	None	0.0		4.0	hexagongray.gif	stop	4.13	0.515134096146	0.000922918319702	0.467890977859	1.0	s	124.987131834	0.46789097785899997																																																															2015_Jun_30_1148	60.1767869876	LearningTask	1	54	
9	-200.0	a	-200.0				0.0	8.0	8.0	7.0																																														a	1.0	None	0.0		1.0	squarewhite.gif	stop	1.05	0.515325069427	0.000946044921875	0.383913993835	1.0	a	127.990624905	0.383913993835																																																															2015_Jun_30_1148	60.1767869876	LearningTask	1	54	
10	-200.0	q	200.0				0.0	9.0	9.0	5.0																																														q	1.0	None	0.0		2.0	linemagenta.gif	go	0.0	0.515118122101	0.000904083251953	0.434330940247	1.0	q	130.99395895	0.43433094024700003																																																															2015_Jun_30_1148	60.1767869876	LearningTask	1	54	
11				m	0.0	200.0										0.0	0.0	0.0	1.0																																																												180.169842958	stop	squarewhite.gif	stop	1.0	None	0.0	None	0.0	0.00124883651733	0.511420965195	0.761482954025	183.169080019																																											2015_Jun_30_1148	60.1767869876	LearningTask	1	54	
12				z	0.0	-200.0										0.0	1.0	1.0	0.0																																																												183.169480801	stop	crossblue.gif	stop	0.5	z	1.0	None	0.0	0.0009570121765139998	0.515332937241	0.765767097473	186.172431946	0.434353113174																																										2015_Jun_30_1148	60.1767869876	LearningTask	1	54	
13				m	0.0	200.0										1.0	0.0	2.0	1.0																																																												186.17280197099998	go	diamondorange.gif	go	0.5	m	1.0	None	0.0	0.00110006332397	0.5153779983519999		189.17554092400002	0.650989055634																																										2015_Jun_30_1148	60.1767869876	LearningTask	1	54	
14				z	0.0	-200.0										1.0	1.0	3.0	0.0																																																												189.17591691	go	invertedtriangleyellow.gif	go	4.0	z	1.0	None	0.0	0.000969886779785	0.515690803528		192.17919993400002	0.434321165085																																										2015_Jun_30_1148	60.1767869876	LearningTask	1	54	
15				m	0.0	200.0										2.0	0.0	4.0	1.0																																																												192.17957186700002	stop	squarewhite.gif	stop	1.0	m	1.0	None	0.0	0.00100207328796	0.515428066254	0.7661440372470001	195.18247795099998	0.550766944885																																										2015_Jun_30_1148	60.1767869876	LearningTask	1	54	
16				m	0.0	200.0										2.0	1.0	5.0	1.0																																																												195.182864904	go	linemagenta.gif	go	2.0	m	1.0	None	0.0	0.0010688304901099999	0.515885829926		198.185408831	0.667594909668																																										2015_Jun_30_1148	60.1767869876	LearningTask	1	54	
17				z	0.0	-200.0										3.0	0.0	6.0	0.0																																																												198.185782909	stop	circlecyan.gif	stop	2.0	z	1.0	None	0.0	0.000966787338257	0.515949964523	0.766243934631	201.18924498599998	0.417564868927																																										2015_Jun_30_1148	60.1767869876	LearningTask	1	54	
18				z	0.0	-200.0										3.0	1.0	7.0	0.0																																																												201.189610004	go	invertedtriangleyellow.gif	go	4.0	z	1.0	None	0.0	0.0012121200561500001	0.5153901577000001		204.19212389	0.7512028217319999																																										2015_Jun_30_1148	60.1767869876	LearningTask	1	54	
19				m	0.0	200.0										4.0	0.0	8.0	1.0																																																												204.19252181099998	stop	squarewhite.gif	stop	1.0	None	0.0	None	0.0	0.00095796585083	0.516000032425	0.766535997391	207.19568491																																											2015_Jun_30_1148	60.1767869876	LearningTask	1	54	
20				z	0.0	-200.0										4.0	1.0	9.0	0.0																																																												207.196054935	stop	crossblue.gif	stop	0.5	None	0.0	None	0.0	0.0009589195251460001	0.515710830688	0.766019821167	210.19918990099998																																											2015_Jun_30_1148	60.1767869876	LearningTask	1	54	
21																																																																																													9.0	52.9636609554																																								2015_Jun_30_1148	60.1767869876	LearningTask	1	54	
22																																																						9.0	8.876393079760001																																																																															2015_Jun_30_1148	60.1767869876	LearningTask	1	54	
23	-200.0	a	-200.0																	0.0	0.0	0.0	0.0	0.0	0.0	0.0	3.0																													a	1.0	None	0.0		4.0	hexagongray.gif	stop								0.450797080994																								4.0	0.509801149368	0.00105094909668	0.450797080994	1.0	a	275.18961191200003																																	2015_Jun_30_1148	60.1767869876	LearningTask	1	54	
24	-200.0	q	200.0																	0.0	0.0	0.0	0.0	0.0	1.0	1.0	1.0																													q	1.0	None	0.0		2.0	linemagenta.gif	go								0.417612075806																								1.97	0.513611078262	0.00095796585083	0.417612075806	1.0	q	278.192281008																																	2015_Jun_30_1148	60.1767869876	LearningTask	1	54	
25	200.0	w	200.0																	0.0	0.0	0.0	0.0	0.0	2.0	2.0	0.0																													w	1.0	None	0.0		1.0	squarewhite.gif	stop								0.317570209503																								0.96	0.514490127563	0.0009431838989260002	0.317570209503	1.0	w	281.195915937																																	2015_Jun_30_1148	60.1767869876	LearningTask	1	54	
26	-200.0	q	200.0																	0.0	0.0	0.0	0.0	0.0	3.0	3.0	1.0																													q	1.0	None	0.0		1.0	trianglegreen.gif	go								0.367620944977																								0.75	0.514184951782	0.0985310077667	0.367620944977	1.0	q	284.19907188400003																																	2015_Jun_30_1148	60.1767869876	LearningTask	1	54	
27	200.0	s	-200.0																	0.0	0.0	0.0	0.0	1.0	0.0	4.0	2.0																													s	1.0	None	0.0		1.0	squarewhite.gif	stop								0.301008939743																								1.01	0.5144300460819999	0.0009379386901860002	0.301008939743	1.0	s	287.202351809																																	2015_Jun_30_1148	60.1767869876	LearningTask	1	54	
28	200.0	w	200.0																	0.0	0.0	0.0	0.0	1.0	1.0	5.0	0.0																													w	1.0	None	0.0		0.5	crossblue.gif	stop								0.384666919708																								0.0	0.5142841339109999	0.00105214118958	0.384666919708	1.0	w	290.205937862																																	2015_Jun_30_1148	60.1767869876	LearningTask	1	54	
29	-200.0	a	-200.0																	0.0	0.0	0.0	0.0	1.0	2.0	6.0	3.0																													a	1.0	None	0.0		1.0	squarewhite.gif	stop								0.367170095444																								0.99	0.514193058014	0.0008940696716310001	0.367170095444	1.0	a	293.20901083900003																																	2015_Jun_30_1148	60.1767869876	LearningTask	1	54	
30	200.0	s	-200.0																	0.0	0.0	0.0	0.0	1.0	3.0	7.0	2.0																													s	1.0	None	0.0		2.0	linemagenta.gif	go								0.401039123535																								0.0	0.51438498497	0.0011079311370799998	0.401039123535	1.0	s	296.212320805																																	2015_Jun_30_1148	60.1767869876	LearningTask	1	54	
31	200.0	s	-200.0																	0.0	0.0	0.0	0.0	2.0	0.0	8.0	2.0																													s	1.0	None	0.0		1.0	trianglegreen.gif	go								0.401077032089																								1.08	0.514034986496	0.000946044921875	0.401077032089	1.0	s	299.215811014																																	2015_Jun_30_1148	60.1767869876	LearningTask	1	54	
32	200.0	w	200.0																	0.0	0.0	0.0	0.0	2.0	1.0	9.0	0.0																													w	1.0	None	0.0		2.0	circlecyan.gif	stop								0.36761093139600004																								2.11	0.5142557621	0.000923871994019	0.36761093139600004	1.0	w	302.21941185																																	2015_Jun_30_1148	60.1767869876	LearningTask	1	54	
33	200.0	w	200.0																	0.0	0.0	0.0	0.0	2.0	2.0	10.0	0.0																													w	1.0	None	0.0		1.0	squarewhite.gif	stop								0.367130041122																								1.23	0.514089107513	0.0009391307830810002	0.367130041122	1.0	w	305.222625017																																	2015_Jun_30_1148	60.1767869876	LearningTask	1	54	
34	-200.0	a	-200.0																	0.0	0.0	0.0	0.0	2.0	3.0	11.0	3.0																													a	1.0	None	0.0		2.0	linemagenta.gif	go								0.41741085052500004																								0.0	0.514460086823	0.0009570121765139998	0.41741085052500004	1.0	a	308.226047993																																	2015_Jun_30_1148	60.1767869876	LearningTask	1	54	
35	-200.0	a	-200.0																	0.0	0.0	0.0	0.0	3.0	0.0	12.0	3.0																													a	1.0	None	0.0		1.0	trianglegreen.gif	go								0.417668104172																								0.95	0.513957977295	0.000978946685791	0.417668104172	1.0	a	311.229261875																																	2015_Jun_30_1148	60.1767869876	LearningTask	1	54	
36	-200.0	q	200.0																	0.0	0.0	0.0	0.0	3.0	1.0	13.0	1.0																													q	1.0	None	0.0		0.5	diamondorange.gif	go								0.334218978882																								0.46	0.5137867927549999	0.0010678768158	0.334218978882	1.0	q	314.232662916																																	2015_Jun_30_1148	60.1767869876	LearningTask	1	54	
37	-200.0	a	-200.0																	0.0	0.0	0.0	0.0	3.0	2.0	14.0	3.0																													a	1.0	None	0.0		1.0	squarewhite.gif	stop								0.334683895111																								0.97	0.514211893082	0.0009019374847410001	0.334683895111	1.0	a	317.23607897799997																																	2015_Jun_30_1148	60.1767869876	LearningTask	1	54	
38	-200.0	a	-200.0																	0.0	0.0	0.0	0.0	3.0	3.0	15.0	3.0																													a	1.0	None	0.0		4.0	hexagongray.gif	stop								0.36759591102600003																								4.13	0.513987064362	0.00107908248901	0.36759591102600003	1.0	a	320.239713907																																	2015_Jun_30_1148	60.1767869876	LearningTask	1	54	
39	-200.0	a	-200.0																	0.0	0.0	0.0	0.0	4.0	0.0	16.0	3.0																													a	1.0	None	0.0		1.0	squarewhite.gif	stop								0.350796937943																								0.0	0.513725996017	0.000917911529541	0.350796937943	1.0	a	323.242857933																																	2015_Jun_30_1148	60.1767869876	LearningTask	1	54	
40	200.0	s	-200.0																	0.0	0.0	0.0	0.0	4.0	1.0	17.0	2.0																													s	1.0	None	0.0		1.0	trianglegreen.gif	go								0.350708961487																								1.01	0.514187097549	0.00092601776123	0.350708961487	1.0	s	326.245965958																																	2015_Jun_30_1148	60.1767869876	LearningTask	1	54	
41	-200.0	a	-200.0																	0.0	0.0	0.0	0.0	4.0	2.0	18.0	3.0																													a	1.0	None	0.0		4.0	invertedtriangleyellow.gif	go								0.41759085655199996																								3.84	0.51450586319	0.000951051712036	0.41759085655199996	1.0	a	329.249780893																																	2015_Jun_30_1148	60.1767869876	LearningTask	1	54	
42	200.0	s	-200.0																	0.0	0.0	0.0	0.0	4.0	3.0	19.0	2.0																													s	1.0	None	0.0		2.0	linemagenta.gif	go								0.417929172516																								0.0	0.513861894608	0.000903844833374	0.417929172516	1.0	s	332.252677917																																	2015_Jun_30_1148	60.1767869876	LearningTask	1	54	
43	-200.0	q	200.0																	0.0	0.0	0.0	0.0	5.0	0.0	20.0	1.0																													q	1.0	None	0.0		2.0	linemagenta.gif	go								0.31763601303100003																								1.86	0.5142760276789999	0.0010249614715599998	0.31763601303100003	1.0	q	335.2562778																																	2015_Jun_30_1148	60.1767869876	LearningTask	1	54	
44	200.0	w	200.0																	0.0	0.0	0.0	0.0	5.0	1.0	21.0	0.0																													w	1.0	None	0.0		4.0	invertedtriangleyellow.gif	go								0.601202011108																								4.19	0.513984918594	0.00116395950317	0.601202011108	1.0	w	338.25954389599997																																	2015_Jun_30_1148	60.1767869876	LearningTask	1	54	
45	-200.0	a	-200.0																	0.0	0.0	0.0	0.0	5.0	2.0	22.0	3.0																													a	1.0	None	0.0		4.0	hexagongray.gif	stop								0.384388923645																								4.19	0.514107942581	0.00090503692627	0.384388923645	1.0	a	341.262883902																																	2015_Jun_30_1148	60.1767869876	LearningTask	1	54	
46	200.0	w	200.0																	0.0	0.0	0.0	0.0	5.0	3.0	23.0	0.0																													w	1.0	None	0.0		2.0	linemagenta.gif	go								0.35077595710799997																								0.0	0.514276981354	0.0011548995971700001	0.35077595710799997	1.0	w	344.266255856																																	2015_Jun_30_1148	60.1767869876	LearningTask	1	54	
47	200.0	w	200.0																	0.0	0.0	0.0	0.0	6.0	0.0	24.0	0.0																													w	1.0	None	0.0		2.0	linemagenta.gif	go								0.35133099556																								2.16	0.514012098312	0.0009181499481200001	0.35133099556	1.0	w	347.269673824																																	2015_Jun_30_1148	60.1767869876	LearningTask	1	54	
48	200.0	s	-200.0																	0.0	0.0	0.0	0.0	6.0	1.0	25.0	2.0																													s	1.0	None	0.0		4.0	hexagongray.gif	stop								0.4341340065																								3.75	0.5140831470489999	0.0009250640869139999	0.4341340065	1.0	s	350.272869825																																	2015_Jun_30_1148	60.1767869876	LearningTask	1	54	
49	-200.0	q	200.0																	0.0	0.0	0.0	0.0	6.0	2.0	26.0	1.0																													q	1.0	None	0.0		1.0	squarewhite.gif	stop								0.284142971039																								0.98	0.514094114304	0.000965118408203	0.284142971039	1.0	q	353.27638101599996																																	2015_Jun_30_1148	60.1767869876	LearningTask	1	54	
50	-200.0	a	-200.0																	0.0	0.0	0.0	0.0	6.0	3.0	27.0	3.0																													a	1.0	None	0.0		2.0	linemagenta.gif	go								0.33383917808499997																								2.18	0.514199018478	0.0009059906005860001	0.33383917808499997	1.0	a	356.279397964																																	2015_Jun_30_1148	60.1767869876	LearningTask	1	54	
51	-200.0	q	200.0																	0.0	0.0	0.0	0.0	7.0	0.0	28.0	1.0																													q	1.0	None	0.0		1.0	trianglegreen.gif	go								0.367239952087																								0.88	0.514774084091	0.0009140968322749999	0.367239952087	1.0	q	359.28304696099997																																	2015_Jun_30_1148	60.1767869876	LearningTask	1	54	
52	-200.0	a	-200.0																	0.0	0.0	0.0	0.0	7.0	1.0	29.0	3.0																													a	1.0	None	0.0		0.5	diamondorange.gif	go								0.33404016494800004																								0.35	0.513863801956	0.0009069442749019998	0.33404016494800004	1.0	a	362.286471844																																	2015_Jun_30_1148	60.1767869876	LearningTask	1	54	
53	-200.0	a	-200.0																	0.0	0.0	0.0	0.0	7.0	2.0	30.0	3.0																													a	1.0	None	0.0		4.0	invertedtriangleyellow.gif	go								0.334201812744																								0.0	0.514080047607	0.000900983810425	0.334201812744	1.0	a	365.289598942																																	2015_Jun_30_1148	60.1767869876	LearningTask	1	54	
54	-200.0	a	-200.0																	0.0	0.0	0.0	0.0	7.0	3.0	31.0	3.0																													a	1.0	None	0.0		1.0	trianglegreen.gif	go								0.367838144302																								0.91	0.514465093613	0.0009200572967529999	0.367838144302	1.0	a	368.293684959																																	2015_Jun_30_1148	60.1767869876	LearningTask	1	54	
55	200.0	w	200.0																	0.0	0.0	0.0	0.0	8.0	0.0	32.0	0.0																													w	1.0	None	0.0		2.0	circlecyan.gif	stop								0.383954048157																								2.18	0.513580083847	0.000951051712036	0.383954048157	1.0	w	371.29639291800004																																	2015_Jun_30_1148	60.1767869876	LearningTask	1	54	
56	200.0	w	200.0																	0.0	0.0	0.0	0.0	8.0	1.0	33.0	0.0																													w	1.0	None	0.0		2.0	circlecyan.gif	stop								0.38421392440800006																								0.0	0.5144739151	0.000902891159058	0.38421392440800006	1.0	w	374.300028801																																	2015_Jun_30_1148	60.1767869876	LearningTask	1	54	
57	200.0	w	200.0																	0.0	0.0	0.0	0.0	8.0	2.0	34.0	0.0																													w	1.0	None	0.0		1.0	trianglegreen.gif	go								0.434170007706																								1.05	0.5141420364379999	0.000988006591797	0.434170007706	1.0	w	377.303521872																																	2015_Jun_30_1148	60.1767869876	LearningTask	1	54	
58	-200.0	q	200.0																	0.0	0.0	0.0	0.0	8.0	3.0	35.0	1.0																													q	1.0	None	0.0		2.0	linemagenta.gif	go								0.417789936066																								1.9	0.5138621330259999	0.0008959770202639998	0.417789936066	1.0	q	380.306477785																																	2015_Jun_30_1148	60.1767869876	LearningTask	1	54	
59	-200.0	q	200.0																	0.0	0.0	0.0	0.0	9.0	0.0	36.0	1.0																													q	1.0	None	0.0		1.0	trianglegreen.gif	go								0.40080690383900003																								1.14	0.514131784439	0.0009298324584960001	0.40080690383900003	1.0	q	383.30983495699996																																	2015_Jun_30_1148	60.1767869876	LearningTask	1	54	
60	200.0	w	200.0																	0.0	0.0	0.0	0.0	9.0	1.0	37.0	0.0																													w	1.0	None	0.0		2.0	linemagenta.gif	go								0.401057004929																								1.76	0.514211893082	0.0009520053863530001	0.401057004929	1.0	w	386.31336498300004																																	2015_Jun_30_1148	60.1767869876	LearningTask	1	54	
61	200.0	s	-200.0																	0.0	0.0	0.0	0.0	9.0	2.0	38.0	2.0																													s	1.0	None	0.0		2.0	linemagenta.gif	go								0.41749095916699996																								2.2	0.514107942581	0.0009298324584960001	0.41749095916699996	1.0	s	389.31635785099996																																	2015_Jun_30_1148	60.1767869876	LearningTask	1	54	
62	200.0	s	-200.0																	0.0	0.0	0.0	0.0	9.0	3.0	39.0	2.0																													s	1.0	None	0.0		4.0	hexagongray.gif	stop								0.36715197563199997																								3.84	0.514830112457	0.0009820461273189998	0.36715197563199997	1.0	s	392.32007384300005																																	2015_Jun_30_1148	60.1767869876	LearningTask	1	54	
63	200.0	s	-200.0																	0.0	0.0	0.0	0.0	10.0	0.0	40.0	2.0																													s	1.0	None	0.0		0.5	diamondorange.gif	go								0.351001024246																								0.69	0.5136690139769999	0.000930070877075	0.351001024246	1.0	s	395.32323885																																	2015_Jun_30_1148	60.1767869876	LearningTask	1	54	
64	200.0	s	-200.0																	0.0	0.0	0.0	0.0	10.0	1.0	41.0	2.0																													s	1.0	None	0.0		4.0	hexagongray.gif	stop								0.317579030991																								4.17	0.514375925064	0.00090503692627	0.317579030991	1.0	s	398.32652092																																	2015_Jun_30_1148	60.1767869876	LearningTask	1	54	
65	200.0	w	200.0																	0.0	0.0	0.0	0.0	10.0	2.0	42.0	0.0																													w	1.0	None	0.0		4.0	invertedtriangleyellow.gif	go								0.40068602562																								0.0	0.514141082764	0.00102210044861	0.40068602562	1.0	w	401.32985687300004																																	2015_Jun_30_1148	60.1767869876	LearningTask	1	54	
66	200.0	w	200.0																	0.0	0.0	0.0	0.0	10.0	3.0	43.0	0.0																													w	1.0	None	0.0		0.5	crossblue.gif	stop								0.383810997009																								0.0	0.514544010162	0.0009109973907470001	0.383810997009	1.0	w	404.33336401																																	2015_Jun_30_1148	60.1767869876	LearningTask	1	54	
67	-200.0	a	-200.0																	0.0	0.0	0.0	0.0	11.0	0.0	44.0	3.0																													a	1.0	None	0.0		0.5	crossblue.gif	stop								0.334054946899																								0.35	0.5143198966979999	0.0009069442749019998	0.334054946899	1.0	a	407.336730003																																	2015_Jun_30_1148	60.1767869876	LearningTask	1	54	
68	200.0	w	200.0																	0.0	0.0	0.0	0.0	11.0	1.0	45.0	0.0																													w	1.0	q	0.0	0.492469072342	4.0	invertedtriangleyellow.gif	go								0.35115480423																								0.0	0.514053821564	0.000917911529541	0.35115480423	1.0	w	410.34022998800003																																	2015_Jun_30_1148	60.1767869876	LearningTask	1	54	
69	200.0	w	200.0																	0.0	0.0	0.0	0.0	11.0	2.0	46.0	0.0																													w	1.0	None	0.0		0.5	crossblue.gif	stop								0.35096001625100004																								0.0	0.514145851135	0.0009119510650630002	0.35096001625100004	1.0	w	413.34350490599996																																	2015_Jun_30_1148	60.1767869876	LearningTask	1	54	
70	200.0	s	-200.0																	0.0	0.0	0.0	0.0	11.0	3.0	47.0	2.0																													s	1.0	None	0.0		0.5	crossblue.gif	stop								0.35073184967																								0.0	0.513912916183	0.00102114677429	0.35073184967	1.0	s	416.34737086300004																																	2015_Jun_30_1148	60.1767869876	LearningTask	1	54	
71	200.0	w	200.0																	0.0	0.0	0.0	0.0	12.0	0.0	48.0	0.0																													w	1.0	None	0.0		2.0	linemagenta.gif	go								0.367229223251																								1.88	0.513653039932	0.0009720325469970001	0.367229223251	1.0	w	419.350425005																																	2015_Jun_30_1148	60.1767869876	LearningTask	1	54	
72	200.0	w	200.0																	0.0	0.0	0.0	0.0	12.0	1.0	49.0	0.0																													w	1.0	None	0.0		4.0	invertedtriangleyellow.gif	go								0.350789070129																								4.21	0.514010906219	0.0009069442749019998	0.350789070129	1.0	w	422.35341692																																	2015_Jun_30_1148	60.1767869876	LearningTask	1	54	
73	-200.0	q	200.0																	0.0	0.0	0.0	0.0	12.0	2.0	50.0	1.0																													q	1.0	None	0.0		1.0	trianglegreen.gif	go								0.40062904357900003																								0.0	0.5144538879389999	0.000926971435547	0.40062904357900003	1.0	q	425.357109785																																	2015_Jun_30_1148	60.1767869876	LearningTask	1	54	
74	200.0	w	200.0																	0.0	0.0	0.0	0.0	12.0	3.0	51.0	0.0																													w	1.0	None	0.0		0.5	diamondorange.gif	go								0.367347002029																								0.53	0.513944149017	0.00092601776123	0.367347002029	1.0	w	428.36022186300005																																	2015_Jun_30_1148	60.1767869876	LearningTask	1	54	
75	200.0	w	200.0																	0.0	0.0	0.0	0.0	13.0	0.0	52.0	0.0																													w	1.0	None	0.0		1.0	trianglegreen.gif	go								0.334109067917																								1.15	0.5144538879389999	0.0009398460388180001	0.334109067917	1.0	w	431.363374949																																	2015_Jun_30_1148	60.1767869876	LearningTask	1	54	
76	200.0	s	-200.0																	0.0	0.0	0.0	0.0	13.0	1.0	53.0	2.0																													s	1.0	None	0.0		1.0	squarewhite.gif	stop								0.383903980255																								0.0	0.514743089676	0.0010318756103500002	0.383903980255	1.0	s	434.366916895																																	2015_Jun_30_1148	60.1767869876	LearningTask	1	54	
77	-200.0	q	200.0																	0.0	0.0	0.0	0.0	13.0	2.0	54.0	1.0																													q	1.0	None	0.0		2.0	circlecyan.gif	stop								0.334030151367																								1.87	0.51424908638	0.00097918510437	0.334030151367	1.0	q	437.370223999																																	2015_Jun_30_1148	60.1767869876	LearningTask	1	54	
78	200.0	w	200.0																	0.0	0.0	0.0	0.0	13.0	3.0	55.0	0.0																													w	1.0	None	0.0		4.0	hexagongray.gif	stop								0.367573022842																								3.96	0.514435052872	0.00108909606934	0.367573022842	1.0	w	440.373625994																																	2015_Jun_30_1148	60.1767869876	LearningTask	1	54	
79	200.0	w	200.0																	0.0	0.0	0.0	0.0	14.0	0.0	56.0	0.0																													w	1.0	None	0.0		0.5	crossblue.gif	stop								0.351073026657																								0.35	0.513986825943	0.000942945480347	0.351073026657	1.0	w	443.37676191300005																																	2015_Jun_30_1148	60.1767869876	LearningTask	1	54	
80	-200.0	q	200.0																	0.0	0.0	0.0	0.0	14.0	1.0	57.0	1.0																													q	1.0	None	0.0		4.0	hexagongray.gif	stop								0.300745010376																								4.03	0.514513969421	0.000963926315308	0.300745010376	1.0	q	446.380268812																																	2015_Jun_30_1148	60.1767869876	LearningTask	1	54	
81	200.0	w	200.0																	0.0	0.0	0.0	0.0	14.0	2.0	58.0	0.0																													w	1.0	None	0.0		0.5	crossblue.gif	stop								0.317306041718																								0.0	0.514117956161	0.0009529590606689998	0.317306041718	1.0	w	449.383696795																																	2015_Jun_30_1148	60.1767869876	LearningTask	1	54	
82	-200.0	a	-200.0																	0.0	0.0	0.0	0.0	14.0	3.0	59.0	3.0																													a	1.0	None	0.0		1.0	squarewhite.gif	stop								0.40065193176299996																								1.03	0.5143899917600001	0.0009019374847410001	0.40065193176299996	1.0	a	452.386919022																																	2015_Jun_30_1148	60.1767869876	LearningTask	1	54	
83	200.0	s	-200.0																	0.0	0.0	0.0	0.0	15.0	0.0	60.0	2.0																													s	1.0	None	0.0		4.0	invertedtriangleyellow.gif	go								0.317484140396																								0.0	0.514528989792	0.000908136367798	0.317484140396	1.0	s	455.390721798																																	2015_Jun_30_1148	60.1767869876	LearningTask	1	54	
84	200.0	s	-200.0																	0.0	0.0	0.0	0.0	15.0	1.0	61.0	2.0																													s	1.0	None	0.0		2.0	linemagenta.gif	go								0.417068004608																								2.0	0.513850927353	0.000994920730591	0.417068004608	1.0	s	458.39389681800003																																	2015_Jun_30_1148	60.1767869876	LearningTask	1	54	
85	-200.0	q	200.0																	0.0	0.0	0.0	0.0	15.0	2.0	62.0	1.0																													q	1.0	None	0.0		1.0	squarewhite.gif	stop								0.36761808395400003																								0.0	0.514034032822	0.0009369850158689999	0.36761808395400003	1.0	q	461.397207022																																	2015_Jun_30_1148	60.1767869876	LearningTask	1	54	
86	-200.0	a	-200.0																	0.0	0.0	0.0	0.0	15.0	3.0	63.0	3.0																													a	1.0	None	0.0		2.0	linemagenta.gif	go								0.35059595108																								2.07	0.514519929886	0.0009279251098630001	0.35059595108	1.0	a	464.40088892																																	2015_Jun_30_1148	60.1767869876	LearningTask	1	54	
87	200.0	s	-200.0																	0.0	0.0	0.0	0.0	16.0	0.0	64.0	2.0																													s	1.0	None	0.0		4.0	invertedtriangleyellow.gif	go								0.38439798355099997																								4.11	0.513530015945	0.000909090042114	0.38439798355099997	1.0	s	467.40401887900003																																	2015_Jun_30_1148	60.1767869876	LearningTask	1	54	
88	-200.0	a	-200.0																	0.0	0.0	0.0	0.0	16.0	1.0	65.0	3.0																													a	1.0	None	0.0		2.0	circlecyan.gif	stop								0.334316968918																								1.94	0.5141551494600001	0.0009031295776369999	0.334316968918	1.0	a	470.40704083400004																																	2015_Jun_30_1148	60.1767869876	LearningTask	1	54	
89	-200.0	a	-200.0																	0.0	0.0	0.0	0.0	16.0	2.0	66.0	3.0																													a	1.0	None	0.0		2.0	circlecyan.gif	stop								0.351363897324																								2.01	0.514345169067	0.00097918510437	0.351363897324	1.0	a	473.410667896																																	2015_Jun_30_1148	60.1767869876	LearningTask	1	54	
90	-200.0	q	200.0																	0.0	0.0	0.0	0.0	16.0	3.0	67.0	1.0																													q	1.0	None	0.0		2.0	linemagenta.gif	go								0.351118087769																								0.0	0.514176130295	0.000904083251953	0.351118087769	1.0	q	476.414060831																																	2015_Jun_30_1148	60.1767869876	LearningTask	1	54	
91	200.0	w	200.0																	0.0	0.0	0.0	0.0	17.0	0.0	68.0	0.0																													w	1.0	None	0.0		1.0	squarewhite.gif	stop								0.351017951965																								1.11	0.514000892639	0.0009191036224369998	0.351017951965	1.0	w	479.417073965																																	2015_Jun_30_1148	60.1767869876	LearningTask	1	54	
92	-200.0	q	200.0																	0.0	0.0	0.0	0.0	17.0	1.0	69.0	1.0																													q	1.0	None	0.0		0.5	diamondorange.gif	go								0.367741823196																								0.41	0.51450419426	0.00100302696228	0.367741823196	1.0	q	482.420672894																																	2015_Jun_30_1148	60.1767869876	LearningTask	1	54	
93	-200.0	q	200.0																	0.0	0.0	0.0	0.0	17.0	2.0	70.0	1.0																													q	1.0	None	0.0		1.0	trianglegreen.gif	go								0.36731505394																								0.0	0.514277935028	0.0009160041809079999	0.36731505394	1.0	q	485.42443489999994																																	2015_Jun_30_1148	60.1767869876	LearningTask	1	54	
94	200.0	w	200.0																	0.0	0.0	0.0	0.0	17.0	3.0	71.0	0.0																													w	1.0	None	0.0		0.5	diamondorange.gif	go								0.33441400528																								0.0	0.5135500431059999	0.0009548664093019999	0.33441400528	1.0	w	488.427591801																																	2015_Jun_30_1148	60.1767869876	LearningTask	1	54	
95	200.0	s	-200.0																	0.0	0.0	0.0	0.0	18.0	0.0	72.0	2.0																													s	1.0	None	0.0		2.0	linemagenta.gif	go								0.350865125656																								1.81	0.513766050339	0.0008909702301030001	0.350865125656	1.0	s	491.43063783599996																																	2015_Jun_30_1148	60.1767869876	LearningTask	1	54	
96	200.0	s	-200.0																	0.0	0.0	0.0	0.0	18.0	1.0	73.0	2.0																													s	1.0	None	0.0		4.0	hexagongray.gif	stop								0.368264913559																								4.17	0.5143229961399999	0.0009019374847410001	0.368264913559	1.0	s	494.43400502199995																																	2015_Jun_30_1148	60.1767869876	LearningTask	1	54	
97	200.0	s	-200.0																	0.0	0.0	0.0	0.0	18.0	2.0	74.0	2.0																													s	1.0	None	0.0		1.0	trianglegreen.gif	go								0.38439011573799997																								1.02	0.513964891434	0.00095796585083	0.38439011573799997	1.0	s	497.43726301199996																																	2015_Jun_30_1148	60.1767869876	LearningTask	1	54	
98	-200.0	q	200.0																	0.0	0.0	0.0	0.0	18.0	3.0	75.0	1.0																													q	1.0	None	0.0		1.0	squarewhite.gif	stop								0.334343910217																								0.0	0.51420712471	0.0009169578552250001	0.334343910217	1.0	q	500.44069290199997																																	2015_Jun_30_1148	60.1767869876	LearningTask	1	54	
99	200.0	s	-200.0																	0.0	0.0	0.0	0.0	19.0	0.0	76.0	2.0																													s	1.0	None	0.0		4.0	hexagongray.gif	stop								0.38409495353699996																								3.8	0.51437497139	0.000913858413696	0.38409495353699996	1.0	s	503.444127798																																	2015_Jun_30_1148	60.1767869876	LearningTask	1	54	
100	-200.0	a	-200.0																	0.0	0.0	0.0	0.0	19.0	1.0	77.0	3.0																													a	1.0	None	0.0		2.0	circlecyan.gif	stop								0.333976984024																								1.92	0.513966798782	0.000964879989624	0.333976984024	1.0	a	506.447565794																																	2015_Jun_30_1148	60.1767869876	LearningTask	1	54	
101	-200.0	q	200.0																	0.0	0.0	0.0	0.0	19.0	2.0	78.0	1.0																													q	1.0	None	0.0		4.0	invertedtriangleyellow.gif	go								0.350471019745																								4.19	0.51426410675	0.000949144363403	0.350471019745	1.0	q	509.450814009																																	2015_Jun_30_1148	60.1767869876	LearningTask	1	54	
102	-200.0	q	200.0																	0.0	0.0	0.0	0.0	19.0	3.0	79.0	1.0																													q	1.0	None	0.0		4.0	invertedtriangleyellow.gif	go								0.36778807640100003																								0.0	0.514390945435	0.0009069442749019998	0.36778807640100003	1.0	q	512.4545958040001																																	2015_Jun_30_1148	60.1767869876	LearningTask	1	54	
103	200.0	s	-200.0																	0.0	0.0	0.0	0.0	20.0	0.0	80.0	2.0																													s	1.0	None	0.0		1.0	squarewhite.gif	stop								0.38401198387100005																								0.93	0.513606071472	0.00122308731079	0.38401198387100005	1.0	s	515.4576649669999																																	2015_Jun_30_1148	60.1767869876	LearningTask	1	54	
104	-200.0	a	-200.0																	0.0	0.0	0.0	0.0	20.0	1.0	81.0	3.0																													a	1.0	None	0.0		2.0	linemagenta.gif	go								0.38461995124799997																								2.16	0.513927936554	0.0009210109710689999	0.38461995124799997	1.0	a	518.460999012																																	2015_Jun_30_1148	60.1767869876	LearningTask	1	54	
105	-200.0	q	200.0																	0.0	0.0	0.0	0.0	20.0	2.0	82.0	1.0																													q	1.0	None	0.0		1.0	trianglegreen.gif	go								0.417973995209																								0.92	0.51388001442	0.0009801387786869998	0.417973995209	1.0	q	521.46446681																																	2015_Jun_30_1148	60.1767869876	LearningTask	1	54	
106	-200.0	a	-200.0																	0.0	0.0	0.0	0.0	20.0	3.0	83.0	3.0																													a	1.0	None	0.0		2.0	circlecyan.gif	stop								0.38469815254199996																								0.0	0.513819932938	0.000926971435547	0.38469815254199996	1.0	a	524.467773914																																	2015_Jun_30_1148	60.1767869876	LearningTask	1	54	
107	200.0	s	-200.0																	0.0	0.0	0.0	0.0	21.0	0.0	84.0	2.0																													s	1.0	None	0.0		1.0	trianglegreen.gif	go								0.36746811866800005																								0.88	0.5142078399660001	0.0010769367217999999	0.36746811866800005	1.0	s	527.470742941																																	2015_Jun_30_1148	60.1767869876	LearningTask	1	54	
108	-200.0	a	-200.0																	0.0	0.0	0.0	0.0	21.0	1.0	85.0	3.0																													a	1.0	None	0.0		4.0	invertedtriangleyellow.gif	go								0.384066104889																								4.01	0.514367103577	0.0009551048278810001	0.384066104889	1.0	a	530.474434853																																	2015_Jun_30_1148	60.1767869876	LearningTask	1	54	
109	200.0	s	-200.0																	0.0	0.0	0.0	0.0	21.0	2.0	86.0	2.0																													s	1.0	None	0.0		0.5	diamondorange.gif	go								0.400910139084																								0.37	0.514097929001	0.000931024551392	0.400910139084	1.0	s	533.4776749609999																																	2015_Jun_30_1148	60.1767869876	LearningTask	1	54	
110	-200.0	a	-200.0																	0.0	0.0	0.0	0.0	21.0	3.0	87.0	3.0																													a	1.0	None	0.0		0.5	crossblue.gif	stop								0.401113986969																								0.48	0.5140759944919999	0.0013048648834200001	0.401113986969	1.0	a	536.481418848																																	2015_Jun_30_1148	60.1767869876	LearningTask	1	54	
111	-200.0	a	-200.0																	0.0	0.0	0.0	0.0	22.0	0.0	88.0	3.0																													a	1.0	None	0.0		1.0	trianglegreen.gif	go								0.45070004463200003																								1.07	0.5138518810270001	0.0010678768158	0.45070004463200003	1.0	a	539.484542847																																	2015_Jun_30_1148	60.1767869876	LearningTask	1	54	
112	-200.0	q	200.0																	0.0	0.0	0.0	0.0	22.0	1.0	89.0	1.0																													q	1.0	None	0.0		2.0	linemagenta.gif	go								0.351208925247																								1.88	0.5137720108030001	0.00103902816772	0.351208925247	1.0	q	542.487987995																																	2015_Jun_30_1148	60.1767869876	LearningTask	1	54	
113	-200.0	q	200.0																	0.0	0.0	0.0	0.0	22.0	2.0	90.0	1.0																													q	1.0	None	0.0		4.0	hexagongray.gif	stop								0.434605121613																								4.2	0.513483047485	0.0010249614715599998	0.434605121613	1.0	q	545.491099834																																	2015_Jun_30_1148	60.1767869876	LearningTask	1	54	
114	-200.0	q	200.0																	0.0	0.0	0.0	0.0	22.0	3.0	91.0	1.0																													q	1.0	None	0.0		1.0	squarewhite.gif	stop								0.334422111511																								1.03	0.514065027237	0.0008959770202639998	0.334422111511	1.0	q	548.494594812																																	2015_Jun_30_1148	60.1767869876	LearningTask	1	54	
115	-200.0	q	200.0																	0.0	0.0	0.0	0.0	23.0	0.0	92.0	1.0																													q	1.0	None	0.0		0.5	crossblue.gif	stop								0.35064005851700003																								0.35	0.514007091522	0.000970125198364	0.35064005851700003	1.0	q	551.49827981																																	2015_Jun_30_1148	60.1767869876	LearningTask	1	54	
116	200.0	w	200.0																	0.0	0.0	0.0	0.0	23.0	1.0	93.0	0.0																													w	1.0	None	0.0		0.5	diamondorange.gif	go								0.400901079178																								0.41	0.513581991196	0.00113201141357	0.400901079178	1.0	w	554.501394987																																	2015_Jun_30_1148	60.1767869876	LearningTask	1	54	
117	-200.0	a	-200.0																	0.0	0.0	0.0	0.0	23.0	2.0	94.0	3.0																													a	1.0	None	0.0		2.0	circlecyan.gif	stop								0.334589958191																								1.77	0.5138978958129999	0.0009119510650630002	0.334589958191	1.0	a	557.504637957																																	2015_Jun_30_1148	60.1767869876	LearningTask	1	54	
118	200.0	s	-200.0																	0.0	0.0	0.0	0.0	23.0	3.0	95.0	2.0																													s	1.0	None	0.0		1.0	trianglegreen.gif	go								0.400812864304																								0.88	0.514176845551	0.000907897949219	0.400812864304	1.0	s	560.508174896																																	2015_Jun_30_1148	60.1767869876	LearningTask	1	54	
119	200.0	s	-200.0																	0.0	0.0	0.0	0.0	24.0	0.0	96.0	2.0																													s	1.0	None	0.0		4.0	hexagongray.gif	stop								0.36739397049																								4.23	0.513710975647	0.00107002258301	0.36739397049	1.0	s	563.51153779																																	2015_Jun_30_1148	60.1767869876	LearningTask	1	54	
120	-200.0	q	200.0																	0.0	0.0	0.0	0.0	24.0	1.0	97.0	1.0																													q	1.0	None	0.0		0.5	diamondorange.gif	go								0.368021011353																								0.41	0.5140810012820001	0.000926971435547	0.368021011353	1.0	q	566.514644861																																	2015_Jun_30_1148	60.1767869876	LearningTask	1	54	
121	-200.0	q	200.0																	0.0	0.0	0.0	0.0	24.0	2.0	98.0	1.0																													q	1.0	None	0.0		4.0	hexagongray.gif	stop								0.35125207901																								3.86	0.514270067215	0.000994920730591	0.35125207901	1.0	q	569.518366814																																	2015_Jun_30_1148	60.1767869876	LearningTask	1	54	
122	200.0	s	-200.0																	0.0	0.0	0.0	0.0	24.0	3.0	99.0	2.0																													s	1.0	None	0.0		2.0	circlecyan.gif	stop								0.41770195960999995																								2.06	0.513710975647	0.0009820461273189998	0.41770195960999995	1.0	s	572.521191835																																	2015_Jun_30_1148	60.1767869876	LearningTask	1	54	
123																				0.0	0.0	0.0	0.0																																																																															9.0	7.633141994480001																															2015_Jun_30_1148	60.1767869876	LearningTask	1	54	
124	-200.0	q	200.0																	1.0	0.0	1.0	0.0	0.0	0.0	0.0	1.0																													q	1.0	None	0.0		2.0	circlecyan.gif	stop								0.400763034821																								2.21	0.51012802124	0.0009589195251460001	0.400763034821	1.0	q	583.551353931																																	2015_Jun_30_1148	60.1767869876	LearningTask	1	54	
125	-200.0	a	-200.0																	1.0	0.0	1.0	0.0	0.0	1.0	1.0	3.0																													a	1.0	None	0.0		1.0	squarewhite.gif	stop								0.38400316238399995																								0.84	0.512974977493	0.0009200572967529999	0.38400316238399995	1.0	a	586.553689957																																	2015_Jun_30_1148	60.1767869876	LearningTask	1	54	
126	200.0	w	200.0																	1.0	0.0	1.0	0.0	0.0	2.0	2.0	0.0																													w	1.0	None	0.0		2.0	circlecyan.gif	stop								0.38437581062299997																								1.92	0.5139780044560001	0.0009398460388180001	0.38437581062299997	1.0	w	589.557715893																																	2015_Jun_30_1148	60.1767869876	LearningTask	1	54	
127	200.0	s	-200.0																	1.0	0.0	1.0	0.0	0.0	3.0	3.0	2.0																													s	1.0	None	0.0		1.0	trianglegreen.gif	go								0.31768488884																								1.04	0.513487100601	0.0009338855743410001	0.31768488884	1.0	s	592.560917854																																	2015_Jun_30_1148	60.1767869876	LearningTask	1	54	
128	-200.0	a	-200.0																	1.0	0.0	1.0	0.0	1.0	0.0	4.0	3.0																													a	1.0	None	0.0		2.0	linemagenta.gif	go								0.567509174347																								2.12	0.5135428905489999	0.000988006591797	0.567509174347	1.0	a	595.564031839																																	2015_Jun_30_1148	60.1767869876	LearningTask	1	54	
129	-200.0	q	200.0																	1.0	0.0	1.0	0.0	1.0	1.0	5.0	1.0																													q	1.0	None	0.0		4.0	invertedtriangleyellow.gif	go								0.35028600692699996																								4.02	0.513735055923	0.00104188919067	0.35028600692699996	1.0	q	598.566978931																																	2015_Jun_30_1148	60.1767869876	LearningTask	1	54	
130	200.0	s	-200.0																	1.0	0.0	1.0	0.0	1.0	2.0	6.0	2.0																													s	1.0	None	0.0		2.0	linemagenta.gif	go								0.434041023254																								2.1	0.514461040497	0.0009210109710689999	0.434041023254	1.0	s	601.570439816																																	2015_Jun_30_1148	60.1767869876	LearningTask	1	54	
131	200.0	s	-200.0																	1.0	0.0	1.0	0.0	1.0	3.0	7.0	2.0																													s	1.0	None	0.0		4.0	invertedtriangleyellow.gif	go								0.401017904282																								3.81	0.5139122009279999	0.0009160041809079999	0.401017904282	1.0	s	604.5739908219999																																	2015_Jun_30_1148	60.1767869876	LearningTask	1	54	
132	-200.0	q	200.0																	1.0	0.0	1.0	0.0	2.0	0.0	8.0	1.0																													q	1.0	None	0.0		0.5	diamondorange.gif	go								0.38462305068999997																								0.47	0.513584852219	0.00115394592285	0.38462305068999997	1.0	q	607.5772049430001																																	2015_Jun_30_1148	60.1767869876	LearningTask	1	54	
133	-200.0	a	-200.0																	1.0	0.0	1.0	0.0	2.0	1.0	9.0	3.0																													a	1.0	None	0.0		2.0	circlecyan.gif	stop								0.350821018219																								2.23	0.5142011642459999	0.0441100597382	0.350821018219	1.0	a	610.580396891																																	2015_Jun_30_1148	60.1767869876	LearningTask	1	54	
134	200.0	w	200.0																	1.0	0.0	1.0	0.0	2.0	2.0	10.0	0.0																													w	1.0	None	0.0		1.0	trianglegreen.gif	go								0.334671020508																								0.0	0.5144309997559999	0.0330419540405	0.334671020508	1.0	w	613.5837068559999																																	2015_Jun_30_1148	60.1767869876	LearningTask	1	54	
135	200.0	w	200.0																	1.0	0.0	1.0	0.0	2.0	3.0	11.0	0.0																													w	1.0	None	0.0		4.0	invertedtriangleyellow.gif	go								0.35109400749200004																								3.78	0.514092206955	0.173785209656	0.35109400749200004	1.0	w	616.587026834																																	2015_Jun_30_1148	60.1767869876	LearningTask	1	54	
136	-200.0	q	200.0																	1.0	0.0	1.0	0.0	3.0	0.0	12.0	1.0																													q	1.0	None	0.0		0.5	crossblue.gif	stop								0.33440780639600004																								0.69	0.514591932297	0.0807459354401	0.33440780639600004	1.0	q	619.59056592																																	2015_Jun_30_1148	60.1767869876	LearningTask	1	54	
137	200.0	w	200.0																	1.0	0.0	1.0	0.0	3.0	1.0	13.0	0.0																													w	1.0	None	0.0		4.0	hexagongray.gif	stop								0.36773920059199994																								0.0	0.513988018036	0.0112340450287	0.36773920059199994	1.0	w	622.594360828																																	2015_Jun_30_1148	60.1767869876	LearningTask	1	54	
138	200.0	w	200.0																	1.0	0.0	1.0	0.0	3.0	2.0	14.0	0.0																													w	1.0	None	0.0		4.0	hexagongray.gif	stop								0.38483309745800004																								4.12	0.513272047043	0.0009100437164310001	0.38483309745800004	1.0	w	625.597421885																																	2015_Jun_30_1148	60.1767869876	LearningTask	1	54	
139	200.0	w	200.0																	1.0	0.0	1.0	0.0	3.0	3.0	15.0	0.0																													w	1.0	None	0.0		4.0	invertedtriangleyellow.gif	go								0.33426809310899996																								3.83	0.513381004333	0.00103902816772	0.33426809310899996	1.0	w	628.600557804																																	2015_Jun_30_1148	60.1767869876	LearningTask	1	54	
140	-200.0	a	-200.0																	1.0	0.0	1.0	0.0	4.0	0.0	16.0	3.0																													a	1.0	None	0.0		0.5	crossblue.gif	stop								0.35078501701399994																								0.42	0.514317989349	0.000904083251953	0.35078501701399994	1.0	a	631.604143858																																	2015_Jun_30_1148	60.1767869876	LearningTask	1	54	
141	-200.0	q	200.0																	1.0	0.0	1.0	0.0	4.0	1.0	17.0	1.0																													q	1.0	None	0.0		0.5	crossblue.gif	stop								0.367398023605																								0.72	0.514125108719	0.0009291172027589999	0.367398023605	1.0	q	634.607298851																																	2015_Jun_30_1148	60.1767869876	LearningTask	1	54	
142	-200.0	a	-200.0																	1.0	0.0	1.0	0.0	4.0	2.0	18.0	3.0																													a	1.0	None	0.0		2.0	linemagenta.gif	go								0.334221839905																								1.8	0.513857126236	0.018252134323099998	0.334221839905	1.0	a	637.610414982																																	2015_Jun_30_1148	60.1767869876	LearningTask	1	54	
143	200.0	w	200.0																	1.0	0.0	1.0	0.0	4.0	3.0	19.0	0.0																													w	1.0	None	0.0		4.0	hexagongray.gif	stop								0.400949001312																								0.0	0.514599084854	0.0008840560913089999	0.400949001312	1.0	w	640.614975929																																	2015_Jun_30_1148	60.1767869876	LearningTask	1	54	
144	-200.0	a	-200.0																	1.0	0.0	1.0	0.0	5.0	0.0	20.0	3.0																													a	1.0	None	0.0		2.0	circlecyan.gif	stop								0.367102146149																								2.25	0.513370037079	0.008057117462159999	0.367102146149	1.0	a	643.617429018																																	2015_Jun_30_1148	60.1767869876	LearningTask	1	54	
145	-200.0	q	200.0																	1.0	0.0	1.0	0.0	5.0	1.0	21.0	1.0																													q	1.0	None	0.0		4.0	hexagongray.gif	stop								0.35098695755000003																								3.84	0.514153003693	0.000962018966675	0.35098695755000003	1.0	q	646.6207308769999																																	2015_Jun_30_1148	60.1767869876	LearningTask	1	54	
146	200.0	s	-200.0																	1.0	0.0	1.0	0.0	5.0	2.0	22.0	2.0																													s	1.0	None	0.0		0.5	diamondorange.gif	go								0.367375135422																								0.72	0.51434803009	0.015949010849	0.367375135422	1.0	s	649.62408185																																	2015_Jun_30_1148	60.1767869876	LearningTask	1	54	
147	-200.0	q	200.0																	1.0	0.0	1.0	0.0	5.0	3.0	23.0	1.0																													q	1.0	None	0.0		2.0	linemagenta.gif	go								0.483803033829																								1.85	0.51433300972	0.0009241104125980002	0.483803033829	1.0	q	652.627858877																																	2015_Jun_30_1148	60.1767869876	LearningTask	1	54	
148	-200.0	q	200.0																	1.0	0.0	1.0	0.0	6.0	0.0	24.0	1.0																													q	1.0	None	0.0		0.5	crossblue.gif	stop								0.43369102478																								0.61	0.514362812042	0.0009379386901860002	0.43369102478	1.0	q	655.6310939790001																																	2015_Jun_30_1148	60.1767869876	LearningTask	1	54	
149	200.0	w	200.0																	1.0	0.0	1.0	0.0	6.0	1.0	25.0	0.0																													w	1.0	None	0.0		4.0	invertedtriangleyellow.gif	go								0.367501974106																								4.01	0.51388502121	0.0009069442749019998	0.367501974106	1.0	w	658.634210825																																	2015_Jun_30_1148	60.1767869876	LearningTask	1	54	
150	200.0	w	200.0																	1.0	0.0	1.0	0.0	6.0	2.0	26.0	0.0																													w	1.0	None	0.0		2.0	circlecyan.gif	stop								0.35107684135399997																								0.0	0.5141987800600001	0.0009548664093019999	0.35107684135399997	1.0	w	661.637365818																																	2015_Jun_30_1148	60.1767869876	LearningTask	1	54	
151	200.0	s	-200.0																	1.0	0.0	1.0	0.0	6.0	3.0	27.0	2.0																													s	1.0	None	0.0		4.0	hexagongray.gif	stop								0.36753797531099996																								3.78	0.514232158661	0.00094199180603	0.36753797531099996	1.0	s	664.640779018																																	2015_Jun_30_1148	60.1767869876	LearningTask	1	54	
152	200.0	s	-200.0																	1.0	0.0	1.0	0.0	7.0	0.0	28.0	2.0																													s	1.0	None	0.0		2.0	circlecyan.gif	stop								0.367281913757																								2.07	0.514397859573	0.0009100437164310001	0.367281913757	1.0	s	667.644444942																																	2015_Jun_30_1148	60.1767869876	LearningTask	1	54	
153	-200.0	a	-200.0																	1.0	0.0	1.0	0.0	7.0	1.0	29.0	3.0																													a	1.0	None	0.0		4.0	hexagongray.gif	stop								0.38444209098800003																								3.96	0.513915061951	0.00135493278503	0.38444209098800003	1.0	a	670.647875786																																	2015_Jun_30_1148	60.1767869876	LearningTask	1	54	
154	-200.0	q	200.0																	1.0	0.0	1.0	0.0	7.0	2.0	30.0	1.0																													q	1.0	None	0.0		0.5	diamondorange.gif	go								0.383702993393																								0.27	0.514117956161	0.000900983810425	0.383702993393	1.0	q	673.650999784																																	2015_Jun_30_1148	60.1767869876	LearningTask	1	54	
155	200.0	w	200.0																	1.0	0.0	1.0	0.0	7.0	3.0	31.0	0.0																													w	1.0	None	0.0		0.5	diamondorange.gif	go								0.317153930664																								0.0	0.513960123062	0.0011019706726099999	0.317153930664	1.0	w	676.654340982																																	2015_Jun_30_1148	60.1767869876	LearningTask	1	54	
156	200.0	s	-200.0																	1.0	0.0	1.0	0.0	8.0	0.0	32.0	2.0																													s	1.0	None	0.0		2.0	linemagenta.gif	go								0.417587995529																								1.82	0.514263868332	0.000900983810425	0.417587995529	1.0	s	679.657670975																																	2015_Jun_30_1148	60.1767869876	LearningTask	1	54	
157	-200.0	q	200.0																	1.0	0.0	1.0	0.0	8.0	1.0	33.0	1.0																													q	1.0	None	0.0		0.5	crossblue.gif	stop								0.367589950562																								0.37	0.513892173767	0.0009109973907470001	0.367589950562	1.0	q	682.66116786																																	2015_Jun_30_1148	60.1767869876	LearningTask	1	54	
158	-200.0	q	200.0																	1.0	0.0	1.0	0.0	8.0	2.0	34.0	1.0																													q	1.0	None	0.0		0.5	diamondorange.gif	go								0.350810050964																								0.67	0.514271020889	0.0009200572967529999	0.350810050964	1.0	q	685.664613962																																	2015_Jun_30_1148	60.1767869876	LearningTask	1	54	
159	200.0	s	-200.0																	1.0	0.0	1.0	0.0	8.0	3.0	35.0	2.0																													s	1.0	None	0.0		2.0	circlecyan.gif	stop								0.450926065445																								1.83	0.513917922974	0.0009129047393799999	0.450926065445	1.0	s	688.668051004																																	2015_Jun_30_1148	60.1767869876	LearningTask	1	54	
160	-200.0	a	-200.0																	1.0	0.0	1.0	0.0	9.0	0.0	36.0	3.0																													a	1.0	None	0.0		2.0	linemagenta.gif	go								0.333540916443																								2.08	0.513849973679	0.000981092453003	0.333540916443	1.0	a	691.671041965																																	2015_Jun_30_1148	60.1767869876	LearningTask	1	54	
161	200.0	w	200.0																	1.0	0.0	1.0	0.0	9.0	1.0	37.0	0.0																													w	1.0	None	0.0		1.0	squarewhite.gif	stop								0.367433071136																								0.0	0.5142760276789999	0.025183916091900002	0.367433071136	1.0	w	694.67440486																																	2015_Jun_30_1148	60.1767869876	LearningTask	1	54	
162	-200.0	q	200.0																	1.0	0.0	1.0	0.0	9.0	2.0	38.0	1.0																													q	1.0	None	0.0		0.5	diamondorange.gif	go								0.334102869034																								0.69	0.514327049255	0.0008840560913089999	0.334102869034	1.0	q	697.6779508589999																																	2015_Jun_30_1148	60.1767869876	LearningTask	1	54	
163	-200.0	a	-200.0																	1.0	0.0	1.0	0.0	9.0	3.0	39.0	3.0																													a	1.0	None	0.0		0.5	crossblue.gif	stop								0.3674659729																								0.55	0.513899087906	0.0008769035339360002	0.3674659729	1.0	a	700.681454897																																	2015_Jun_30_1148	60.1767869876	LearningTask	1	54	
164	200.0	w	200.0																	1.0	0.0	1.0	0.0	10.0	0.0	40.0	0.0																													w	1.0	None	0.0		2.0	circlecyan.gif	stop								0.366935968399																								2.21	0.5145030021670001	0.00116181373596	0.366935968399	1.0	w	703.6848409180001																																	2015_Jun_30_1148	60.1767869876	LearningTask	1	54	
165	-200.0	a	-200.0																	1.0	0.0	1.0	0.0	10.0	1.0	41.0	3.0																													a	1.0	None	0.0		2.0	linemagenta.gif	go								0.367908000946																								2.05	0.513788938522	0.000892877578735	0.367908000946	1.0	a	706.68786788																																	2015_Jun_30_1148	60.1767869876	LearningTask	1	54	
166	200.0	s	-200.0																	1.0	0.0	1.0	0.0	10.0	2.0	42.0	2.0																													s	1.0	None	0.0		1.0	trianglegreen.gif	go								0.36719918251																								1.14	0.514393091202	0.009119033813479999	0.36719918251	1.0	s	709.691489935																																	2015_Jun_30_1148	60.1767869876	LearningTask	1	54	
167	-200.0	q	200.0																	1.0	0.0	1.0	0.0	10.0	3.0	43.0	1.0																													q	1.0	None	0.0		2.0	linemagenta.gif	go								0.36803984642																								2.19	0.513695001602	0.000940799713135	0.36803984642	1.0	q	712.694445848																																	2015_Jun_30_1148	60.1767869876	LearningTask	1	54	
168	-200.0	a	-200.0																	1.0	0.0	1.0	0.0	11.0	0.0	44.0	3.0																													a	1.0	None	0.0		2.0	linemagenta.gif	go								0.384042024612																								1.91	0.514512062073	0.00089693069458	0.384042024612	1.0	a	715.6982848639999																																	2015_Jun_30_1148	60.1767869876	LearningTask	1	54	
169	-200.0	a	-200.0																	1.0	0.0	1.0	0.0	11.0	1.0	45.0	3.0																													a	1.0	None	0.0		4.0	hexagongray.gif	stop								0.38452601432800004																								4.24	0.513835906982	0.00089693069458	0.38452601432800004	1.0	a	718.701674938																																	2015_Jun_30_1148	60.1767869876	LearningTask	1	54	
170	200.0	w	200.0																	1.0	0.0	1.0	0.0	11.0	2.0	46.0	0.0																													w	1.0	None	0.0		0.5	diamondorange.gif	go								0.383765935898																								0.0	0.514168024063	0.0009109973907470001	0.383765935898	1.0	w	721.704649925																																	2015_Jun_30_1148	60.1767869876	LearningTask	1	54	
171	-200.0	q	200.0																	1.0	0.0	1.0	0.0	11.0	3.0	47.0	1.0																													q	1.0	None	0.0		1.0	trianglegreen.gif	go								0.334575891495																								1.21	0.5146219730380001	0.0008840560913089999	0.334575891495	1.0	q	724.70773387																																	2015_Jun_30_1148	60.1767869876	LearningTask	1	54	
172	-200.0	q	200.0																	1.0	0.0	1.0	0.0	12.0	0.0	48.0	1.0																													q	1.0	None	0.0		0.5	crossblue.gif	stop								0.41742014884900003																								0.58	0.514629125595	0.0008840560913089999	0.41742014884900003	1.0	q	727.7116048339999																																	2015_Jun_30_1148	60.1767869876	LearningTask	1	54	
173	-200.0	q	200.0																	1.0	0.0	1.0	0.0	12.0	1.0	49.0	1.0																													q	1.0	None	0.0		4.0	invertedtriangleyellow.gif	go								0.350980997086																								3.85	0.514099121094	0.00121712684631	0.350980997086	1.0	q	730.714773893																																	2015_Jun_30_1148	60.1767869876	LearningTask	1	54	
174	200.0	w	200.0																	1.0	0.0	1.0	0.0	12.0	2.0	50.0	0.0																													w	1.0	None	0.0		1.0	trianglegreen.gif	go								0.334307193756																								0.9	0.514225006104	0.0009140968322749999	0.334307193756	1.0	w	733.7183198930001																																	2015_Jun_30_1148	60.1767869876	LearningTask	1	54	
175	-200.0	a	-200.0																	1.0	0.0	1.0	0.0	12.0	3.0	51.0	3.0																													a	1.0	None	0.0	0.19626712799100002	2.0	linemagenta.gif	go								0.350269079208																								0.0	0.513916969299	0.000892877578735	0.334947824478	0.0	q	736.7221789360001			0.0	0.515305995941	0.000966787338257	0.350269079208	1.0	a	739.72487092																								2015_Jun_30_1148	60.1767869876	LearningTask	1	54	
176	-200.0	a	-200.0																	1.0	0.0	1.0	0.0	13.0	0.0	52.0	3.0																													a	1.0	None	0.0		2.0	circlecyan.gif	stop								0.35057091713																								1.81	0.513705968857	0.026291847229	0.35057091713	1.0	a	742.728123903																																	2015_Jun_30_1148	60.1767869876	LearningTask	1	54	
177	200.0	w	200.0																	1.0	0.0	1.0	0.0	13.0	1.0	53.0	0.0																													w	1.0	None	0.0		0.5	crossblue.gif	stop								0.350531101227																								0.35	0.514589071274	0.0008931159973139998	0.350531101227	1.0	w	745.731884956																																	2015_Jun_30_1148	60.1767869876	LearningTask	1	54	
178	200.0	s	-200.0																	1.0	0.0	1.0	0.0	13.0	2.0	54.0	2.0																													s	1.0	a	0.0	0.9758930206299999	4.0	invertedtriangleyellow.gif	go								0.38377213478100003																								0.0	0.514153003693	0.000981092453003	0.38377213478100003	1.0	s	748.7352359289999																																	2015_Jun_30_1148	60.1767869876	LearningTask	1	54	
179	-200.0	q	200.0																	1.0	0.0	1.0	0.0	13.0	3.0	55.0	1.0																													q	1.0	None	0.0		2.0	circlecyan.gif	stop								0.367379903793																								2.17	0.513641834259	0.00105094909668	0.367379903793	1.0	q	751.738667965																																	2015_Jun_30_1148	60.1767869876	LearningTask	1	54	
180	200.0	s	-200.0																	1.0	0.0	1.0	0.0	14.0	0.0	56.0	2.0																													s	1.0	None	0.0		2.0	linemagenta.gif	go								0.40095281600999993																								1.79	0.513525009155	0.000921964645386	0.40095281600999993	1.0	s	754.7415208819999																																	2015_Jun_30_1148	60.1767869876	LearningTask	1	54	
181	-200.0	q	200.0																	1.0	0.0	1.0	0.0	14.0	1.0	57.0	1.0																													q	1.0	None	0.0		0.5	crossblue.gif	stop								0.467669963837																								0.41	0.51428604126	0.00089693069458	0.467669963837	1.0	q	757.744952917																																	2015_Jun_30_1148	60.1767869876	LearningTask	1	54	
182	200.0	s	-200.0																	1.0	0.0	1.0	0.0	14.0	2.0	58.0	2.0																													s	1.0	None	0.0		2.0	linemagenta.gif	go								0.40084886550899995																								0.0	0.5140521526340001	0.0417189598083	0.40084886550899995	1.0	s	760.7485408780001																																	2015_Jun_30_1148	60.1767869876	LearningTask	1	54	
183	-200.0	a	-200.0																	1.0	0.0	1.0	0.0	14.0	3.0	59.0	3.0																													a	1.0	None	0.0		2.0	linemagenta.gif	go								0.400566101074																								1.75	0.514619112015	0.0008990764617919999	0.400566101074	1.0	a	763.751474857																																	2015_Jun_30_1148	60.1767869876	LearningTask	1	54	
184	-200.0	a	-200.0																	1.0	0.0	1.0	0.0	15.0	0.0	60.0	3.0																													a	1.0	None	0.0		0.5	diamondorange.gif	go								0.384021043777																								0.66	0.514647960663	0.0009059906005860001	0.384021043777	1.0	a	766.7553958889999																																	2015_Jun_30_1148	60.1767869876	LearningTask	1	54	
185	-200.0	q	200.0																	1.0	0.0	1.0	0.0	15.0	1.0	61.0	1.0																													q	1.0	None	0.0		2.0	circlecyan.gif	stop								0.36805105209399996																								0.0	0.5137269496920001	0.000885009765625	0.36805105209399996	1.0	q	769.758210897																																	2015_Jun_30_1148	60.1767869876	LearningTask	1	54	
186	-200.0	q	200.0																	1.0	0.0	1.0	0.0	15.0	2.0	62.0	1.0																													q	1.0	q	1.0	0.37425494194	4.0	invertedtriangleyellow.gif	go								0.38415312767																								3.98	0.514019966125	0.000946044921875	0.38415312767	1.0	q	772.761765003																																	2015_Jun_30_1148	60.1767869876	LearningTask	1	54	
187	-200.0	a	-200.0																	1.0	0.0	1.0	0.0	15.0	3.0	63.0	3.0																													a	1.0	None	0.0		4.0	invertedtriangleyellow.gif	go								0.334616184235																								3.93	0.5142099857329999	0.000909090042114	0.334616184235	1.0	a	775.765519857																																	2015_Jun_30_1148	60.1767869876	LearningTask	1	54	
188	200.0	w	200.0																	1.0	0.0	1.0	0.0	16.0	0.0	64.0	0.0																													w	1.0	None	0.0		2.0	circlecyan.gif	stop								0.351203203201																								1.89	0.51352596283	0.0009119510650630002	0.351203203201	1.0	w	778.768333912																																	2015_Jun_30_1148	60.1767869876	LearningTask	1	54	
189	200.0	s	-200.0																	1.0	0.0	1.0	0.0	16.0	1.0	65.0	2.0																													s	1.0	None	0.0		1.0	squarewhite.gif	stop								0.367693901062																								1.23	0.514342069626	0.0009200572967529999	0.367693901062	1.0	s	781.772305965																																	2015_Jun_30_1148	60.1767869876	LearningTask	1	54	
190	200.0	s	-200.0																	1.0	0.0	1.0	0.0	16.0	2.0	66.0	2.0																													s	1.0	None	0.0		2.0	linemagenta.gif	go								0.38384985923799997																								1.98	0.514047145844	0.0008940696716310001	0.38384985923799997	1.0	s	784.775450945																																	2015_Jun_30_1148	60.1767869876	LearningTask	1	54	
191	-200.0	a	-200.0																	1.0	0.0	1.0	0.0	16.0	3.0	67.0	3.0																													a	1.0	None	0.0		0.5	crossblue.gif	stop								0.450773954391																								0.33	0.514133930206	0.0008978843688960001	0.450773954391	1.0	a	787.778585911																																	2015_Jun_30_1148	60.1767869876	LearningTask	1	54	
192	200.0	w	200.0																	1.0	0.0	1.0	0.0	17.0	0.0	68.0	0.0																													w	1.0	None	0.0		4.0	hexagongray.gif	stop								0.48410582542400005																								4.11	0.514294147491	0.0013740062713599999	0.48410582542400005	1.0	w	790.781852961																																	2015_Jun_30_1148	60.1767869876	LearningTask	1	54	
193	200.0	s	-200.0																	1.0	0.0	1.0	0.0	17.0	1.0	69.0	2.0																													s	1.0	None	0.0		1.0	trianglegreen.gif	go								0.38437581062299997																								1.22	0.514410972595	0.000908136367798	0.38437581062299997	1.0	s	793.785334826																																	2015_Jun_30_1148	60.1767869876	LearningTask	1	54	
194	200.0	s	-200.0																	1.0	0.0	1.0	0.0	17.0	2.0	70.0	2.0																													s	1.0	None	0.0		4.0	invertedtriangleyellow.gif	go								0.38397598266599997																								4.1	0.514091968536	0.000900983810425	0.38397598266599997	1.0	s	796.788921833																																	2015_Jun_30_1148	60.1767869876	LearningTask	1	54	
195	-200.0	a	-200.0																	1.0	0.0	1.0	0.0	17.0	3.0	71.0	3.0																													a	1.0	None	0.0		1.0	trianglegreen.gif	go								0.367932081223																								0.0	0.513432025909	0.0009589195251460001	0.367932081223	1.0	a	799.792272806																																	2015_Jun_30_1148	60.1767869876	LearningTask	1	54	
196	-200.0	q	200.0																	1.0	0.0	1.0	0.0	18.0	0.0	72.0	1.0																													q	1.0	None	0.0		4.0	invertedtriangleyellow.gif	go								0.367262840271																								3.78	0.513951063156	0.0009119510650630002	0.367262840271	1.0	q	802.795516014																																	2015_Jun_30_1148	60.1767869876	LearningTask	1	54	
197	200.0	w	200.0																	1.0	0.0	1.0	0.0	18.0	1.0	73.0	0.0																													w	1.0	None	0.0		0.5	crossblue.gif	stop								0.40110015869099996																								0.0	0.514200210571	0.0009241104125980002	0.40110015869099996	1.0	w	805.7986907960001																																	2015_Jun_30_1148	60.1767869876	LearningTask	1	54	
198	200.0	s	-200.0																	1.0	0.0	1.0	0.0	18.0	2.0	74.0	2.0																													s	1.0	None	0.0		1.0	squarewhite.gif	stop								0.38398003578199996																								0.82	0.5138700008389999	0.00101613998413	0.38398003578199996	1.0	s	808.802050829																																	2015_Jun_30_1148	60.1767869876	LearningTask	1	54	
199	-200.0	q	200.0																	1.0	0.0	1.0	0.0	18.0	3.0	75.0	1.0																													q	1.0	None	0.0		1.0	trianglegreen.gif	go								0.351102113724																								0.84	0.514300107956	0.0009019374847410001	0.351102113724	1.0	q	811.805878878																																	2015_Jun_30_1148	60.1767869876	LearningTask	1	54	
200	200.0	s	-200.0																	1.0	0.0	1.0	0.0	19.0	0.0	76.0	2.0																													s	1.0	None	0.0		4.0	invertedtriangleyellow.gif	go								0.36775302886999994																								3.76	0.513554096222	0.0009140968322749999	0.36775302886999994	1.0	s	814.808779955																																	2015_Jun_30_1148	60.1767869876	LearningTask	1	54	
201	-200.0	q	200.0																	1.0	0.0	1.0	0.0	19.0	1.0	77.0	1.0																													q	1.0	None	0.0		2.0	linemagenta.gif	go								0.400334119797																								2.0	0.5145649909969999	0.000931024551392	0.400334119797	1.0	q	817.812008858																																	2015_Jun_30_1148	60.1767869876	LearningTask	1	54	
202	200.0	w	200.0																	1.0	0.0	1.0	0.0	19.0	2.0	78.0	0.0																													w	1.0	None	0.0		4.0	hexagongray.gif	stop								0.401059865952																								0.0	0.514479160309	0.0008981227874760001	0.401059865952	1.0	w	820.815384865																																	2015_Jun_30_1148	60.1767869876	LearningTask	1	54	
203	-200.0	a	-200.0																	1.0	0.0	1.0	0.0	19.0	3.0	79.0	3.0																													a	1.0	None	0.0		1.0	squarewhite.gif	stop								0.31763195991500004																								0.0	0.514518976212	0.00090503692627	0.31763195991500004	1.0	a	823.819622993																																	2015_Jun_30_1148	60.1767869876	LearningTask	1	54	
204	-200.0	a	-200.0																	1.0	0.0	1.0	0.0	20.0	0.0	80.0	3.0																													a	1.0	None	0.0		2.0	circlecyan.gif	stop								0.350960969925																								0.0	0.513355970383	0.0008938312530519999	0.350960969925	1.0	a	826.822088957																																	2015_Jun_30_1148	60.1767869876	LearningTask	1	54	
205	200.0	w	200.0																	1.0	0.0	1.0	0.0	20.0	1.0	81.0	0.0																													w	1.0	None	0.0		0.5	diamondorange.gif	go								0.401087999344																								0.45	0.514009952545	0.000988960266113	0.401087999344	1.0	w	829.8258099560001																																	2015_Jun_30_1148	60.1767869876	LearningTask	1	54	
206	200.0	s	-200.0																	1.0	0.0	1.0	0.0	20.0	2.0	82.0	2.0																													s	1.0	None	0.0		1.0	trianglegreen.gif	go								0.384193897247																								0.0	0.51385807991	0.000887155532837	0.384193897247	1.0	s	832.829477787																																	2015_Jun_30_1148	60.1767869876	LearningTask	1	54	
207	200.0	w	200.0																	1.0	0.0	1.0	0.0	20.0	3.0	83.0	0.0																													w	1.0	None	0.0		4.0	invertedtriangleyellow.gif	go								0.350412130356																								3.89	0.513793945312	0.000902891159058	0.350412130356	1.0	w	835.83228302																																	2015_Jun_30_1148	60.1767869876	LearningTask	1	54	
208	200.0	w	200.0																	1.0	0.0	1.0	0.0	21.0	0.0	84.0	0.0																													w	1.0	None	0.0		2.0	circlecyan.gif	stop								0.367594003677																								1.77	0.5141341686249999	0.0009760856628420001	0.367594003677	1.0	w	838.835445881																																	2015_Jun_30_1148	60.1767869876	LearningTask	1	54	
209	-200.0	a	-200.0																	1.0	0.0	1.0	0.0	21.0	1.0	85.0	3.0																													a	1.0	None	0.0		1.0	squarewhite.gif	stop								0.41784310340899994																								1.08	0.514497041702	0.0008919239044189998	0.41784310340899994	1.0	a	841.8391089439999																																	2015_Jun_30_1148	60.1767869876	LearningTask	1	54	
210	200.0	s	-200.0																	1.0	0.0	1.0	0.0	21.0	2.0	86.0	2.0																													s	1.0	None	0.0		4.0	hexagongray.gif	stop								0.38468289375299997																								3.87	0.513961076736	0.0008950233459470001	0.38468289375299997	1.0	s	844.842115879																																	2015_Jun_30_1148	60.1767869876	LearningTask	1	54	
211	200.0	s	-200.0																	1.0	0.0	1.0	0.0	21.0	3.0	87.0	2.0																													s	1.0	None	0.0		4.0	hexagongray.gif	stop								0.383590936661																								4.08	0.514913082123	0.00107192993164	0.383590936661	1.0	s	847.846119881																																	2015_Jun_30_1148	60.1767869876	LearningTask	1	54	
212	-200.0	q	200.0																	1.0	0.0	1.0	0.0	22.0	0.0	88.0	1.0																													q	1.0	None	0.0		0.5	crossblue.gif	stop								0.434262037277																								0.38	0.513644933701	0.0011260509491	0.434262037277	1.0	q	850.8491089339999																																	2015_Jun_30_1148	60.1767869876	LearningTask	1	54	
213	-200.0	q	200.0																	1.0	0.0	1.0	0.0	22.0	1.0	89.0	1.0																													q	1.0	None	0.0		0.5	crossblue.gif	stop								0.417577028275																								0.34	0.514131069183	0.0008780956268310002	0.417577028275	1.0	q	853.8523738380001																																	2015_Jun_30_1148	60.1767869876	LearningTask	1	54	
214	200.0	s	-200.0																	1.0	0.0	1.0	0.0	22.0	2.0	90.0	2.0																													s	1.0	None	0.0		4.0	invertedtriangleyellow.gif	go								0.38434886932400003																								4.14	0.514233827591	0.000999927520752	0.38434886932400003	1.0	s	856.855726004																																	2015_Jun_30_1148	60.1767869876	LearningTask	1	54	
215	-200.0	a	-200.0																	1.0	0.0	1.0	0.0	22.0	3.0	91.0	3.0																													a	1.0	None	0.0		0.5	crossblue.gif	stop								0.384346008301																								0.71	0.5141119956970001	0.000882863998413	0.384346008301	1.0	a	859.858924866																																	2015_Jun_30_1148	60.1767869876	LearningTask	1	54	
216	200.0	w	200.0																	1.0	0.0	1.0	0.0	23.0	0.0	92.0	0.0																													w	1.0	None	0.0		1.0	trianglegreen.gif	go								0.45109987258900003																								1.19	0.51435303688	0.00090503692627	0.45109987258900003	1.0	w	862.862882853																																	2015_Jun_30_1148	60.1767869876	LearningTask	1	54	
217	200.0	s	-200.0																	1.0	0.0	1.0	0.0	23.0	1.0	93.0	2.0																													s	1.0	None	0.0		2.0	linemagenta.gif	go								0.383627891541																								1.94	0.514034986496	0.000931024551392	0.383627891541	1.0	s	865.865803957																																	2015_Jun_30_1148	60.1767869876	LearningTask	1	54	
218	200.0	s	-200.0																	1.0	0.0	1.0	0.0	23.0	2.0	94.0	2.0																													s	1.0	None	0.0		2.0	linemagenta.gif	go								0.384875059128																								2.0	0.51433300972	0.0008790493011469999	0.384875059128	1.0	s	868.869095802																																	2015_Jun_30_1148	60.1767869876	LearningTask	1	54	
219	200.0	s	-200.0																	1.0	0.0	1.0	0.0	23.0	3.0	95.0	2.0																													s	1.0	None	0.0		4.0	invertedtriangleyellow.gif	go								0.38430500030500003																								4.03	0.514174938202	0.000942945480347	0.38430500030500003	1.0	s	871.873245955																																	2015_Jun_30_1148	60.1767869876	LearningTask	1	54	
220	200.0	w	200.0																	1.0	0.0	1.0	0.0	24.0	0.0	96.0	0.0																													w	1.0	None	0.0		1.0	squarewhite.gif	stop								0.40024185180699995																								1.17	0.513604879379	0.000892877578735	0.40024185180699995	1.0	w	874.8756089210001																																	2015_Jun_30_1148	60.1767869876	LearningTask	1	54	
221	-200.0	a	-200.0																	1.0	0.0	1.0	0.0	24.0	1.0	97.0	3.0																													a	1.0	None	0.0		2.0	circlecyan.gif	stop								0.384266138077																								1.95	0.514435052872	0.0008931159973139998	0.384266138077	1.0	a	877.8797848219999																																	2015_Jun_30_1148	60.1767869876	LearningTask	1	54	
222	-200.0	a	-200.0																	1.0	0.0	1.0	0.0	24.0	2.0	98.0	3.0																													a	1.0	None	0.0		0.5	diamondorange.gif	go								0.401103973389																								0.61	0.513543128967	0.0008869171142580001	0.401103973389	1.0	a	880.883189917																																	2015_Jun_30_1148	60.1767869876	LearningTask	1	54	
223	200.0	w	200.0																	1.0	0.0	1.0	0.0	24.0	3.0	99.0	0.0																													w	1.0	None	0.0		0.5	crossblue.gif	stop								0.400772094727																								0.57	0.513799905777	0.000902891159058	0.400772094727	1.0	w	883.8860268589999																																	2015_Jun_30_1148	60.1767869876	LearningTask	1	54	
224																				1.0	0.0	1.0	0.0																																																																															9.0	16.6370968819																															2015_Jun_30_1148	60.1767869876	LearningTask	1	54	
225	-200.0	q	200.0																	2.0	0.0	2.0	0.0	0.0	0.0	0.0	1.0																													q	1.0	None	0.0		0.5	diamondorange.gif	go								0.434252023697																								0.62	0.5120708942409999	0.0009799003601070001	0.434252023697	1.0	q	904.2091319560001																																	2015_Jun_30_1148	60.1767869876	LearningTask	1	54	
226	-200.0	a	-200.0																	2.0	0.0	2.0	0.0	0.0	1.0	1.0	3.0																													a	1.0	None	0.0		1.0	trianglegreen.gif	go								0.384006023407																								1.1	0.5137491226199999	0.000913143157959	0.384006023407	1.0	a	907.212042809																																	2015_Jun_30_1148	60.1767869876	LearningTask	1	54	
227	200.0	w	200.0																	2.0	0.0	2.0	0.0	0.0	2.0	2.0	0.0																													w	1.0	None	0.0		1.0	squarewhite.gif	stop								0.350827217102																								1.15	0.5140209198	0.0008740425109860002	0.350827217102	1.0	w	910.215282917																																	2015_Jun_30_1148	60.1767869876	LearningTask	1	54	
228	-200.0	a	-200.0																	2.0	0.0	2.0	0.0	0.0	3.0	3.0	3.0																													a	1.0	None	0.0		1.0	trianglegreen.gif	go								0.384389162064																								1.07	0.514011859894	0.0009379386901860002	0.384389162064	1.0	a	913.219041824																																	2015_Jun_30_1148	60.1767869876	LearningTask	1	54	
229	-200.0	a	-200.0																	2.0	0.0	2.0	0.0	1.0	0.0	4.0	3.0																													a	1.0	None	0.0		2.0	circlecyan.gif	stop								0.384058952332																								1.75	0.514111042023	0.0009031295776369999	0.384058952332	1.0	a	916.2222478389999																																	2015_Jun_30_1148	60.1767869876	LearningTask	1	54	
230	200.0	w	200.0																	2.0	0.0	2.0	0.0	1.0	1.0	5.0	0.0																													w	1.0	None	0.0		1.0	squarewhite.gif	stop								0.401157855988																								1.18	0.514199018478	0.000869989395142	0.401157855988	1.0	w	919.225400925																																	2015_Jun_30_1148	60.1767869876	LearningTask	1	54	
231	200.0	s	-200.0																	2.0	0.0	2.0	0.0	1.0	2.0	6.0	2.0																													s	1.0	None	0.0		4.0	invertedtriangleyellow.gif	go								0.334802150726																								3.87	0.514070987701	0.000904083251953	0.334802150726	1.0	s	922.228560925																																	2015_Jun_30_1148	60.1767869876	LearningTask	1	54	
232	200.0	w	200.0																	2.0	0.0	2.0	0.0	1.0	3.0	7.0	0.0																													w	1.0	None	0.0		4.0	invertedtriangleyellow.gif	go								0.401337862015																								3.98	0.514377117157	0.000941038131714	0.401337862015	1.0	w	925.232511997																																	2015_Jun_30_1148	60.1767869876	LearningTask	1	54	
233	-200.0	a	-200.0																	2.0	0.0	2.0	0.0	2.0	0.0	8.0	3.0																													a	1.0	None	0.0		4.0	hexagongray.gif	stop								0.334459066391																								3.88	0.513679981232	0.000890016555786	0.334459066391	1.0	a	928.2359518999999																																	2015_Jun_30_1148	60.1767869876	LearningTask	1	54	
234	-200.0	q	200.0																	2.0	0.0	2.0	0.0	2.0	1.0	9.0	1.0																													q	1.0	None	0.0		1.0	trianglegreen.gif	go								0.434329032898																								0.0	0.5133368968959999	0.00095796585083	0.434329032898	1.0	q	931.2389929289999																																	2015_Jun_30_1148	60.1767869876	LearningTask	1	54	
235	200.0	w	200.0																	2.0	0.0	2.0	0.0	2.0	2.0	10.0	0.0																													w	1.0	None	0.0		0.5	crossblue.gif	stop								0.484248876572																								0.65	0.514245033264	0.0008759498596189999	0.484248876572	1.0	w	934.2421889310001																																	2015_Jun_30_1148	60.1767869876	LearningTask	1	54	
236	-200.0	a	-200.0																	2.0	0.0	2.0	0.0	2.0	3.0	11.0	3.0																													a	1.0	None	0.0		4.0	invertedtriangleyellow.gif	go								0.33443903923																								4.1	0.514366149902	0.000908136367798	0.33443903923	1.0	a	937.245673895																																	2015_Jun_30_1148	60.1767869876	LearningTask	1	54	
237	-200.0	q	200.0																	2.0	0.0	2.0	0.0	3.0	0.0	12.0	1.0																													q	1.0	None	0.0		1.0	squarewhite.gif	stop								0.367395877838																								1.16	0.514070987701	0.000909805297852	0.367395877838	1.0	q	940.248875856																																	2015_Jun_30_1148	60.1767869876	LearningTask	1	54	
238	200.0	s	-200.0																	2.0	0.0	2.0	0.0	3.0	1.0	13.0	2.0																													s	1.0	None	0.0		0.5	crossblue.gif	stop								0.401381015778																								0.45	0.514300107956	0.00110602378845	0.401381015778	1.0	s	943.252859831																																	2015_Jun_30_1148	60.1767869876	LearningTask	1	54	
239	-200.0	a	-200.0																	2.0	0.0	2.0	0.0	3.0	2.0	14.0	3.0																													a	1.0	None	0.0		4.0	hexagongray.gif	stop								0.350864887238																								4.13	0.5134620666499999	0.0008919239044189998	0.350864887238	1.0	a	946.255864859																																	2015_Jun_30_1148	60.1767869876	LearningTask	1	54	
240	200.0	w	200.0																	2.0	0.0	2.0	0.0	3.0	3.0	15.0	0.0																													w	1.0	None	0.0		0.5	diamondorange.gif	go								0.367583036423																								0.61	0.514365911484	0.0008718967437739999	0.367583036423	1.0	w	949.258974791																																	2015_Jun_30_1148	60.1767869876	LearningTask	1	54	
241	200.0	w	200.0																	2.0	0.0	2.0	0.0	4.0	0.0	16.0	0.0																													w	1.0	None	0.0		4.0	invertedtriangleyellow.gif	go								0.417506217957																								0.0	0.5142161846159999	0.00105500221252	0.417506217957	1.0	w	952.262327909																																	2015_Jun_30_1148	60.1767869876	LearningTask	1	54	
242	-200.0	a	-200.0																	2.0	0.0	2.0	0.0	4.0	1.0	17.0	3.0																													a	1.0	None	0.0		0.5	diamondorange.gif	go								0.384179830551																								0.47	0.51442694664	0.00088095664978	0.384179830551	1.0	a	955.2660508160001																																	2015_Jun_30_1148	60.1767869876	LearningTask	1	54	
243	200.0	s	-200.0																	2.0	0.0	2.0	0.0	4.0	2.0	18.0	2.0																													s	1.0	None	0.0		0.5	crossblue.gif	stop								0.384016990662																								0.0	0.5139710903170001	0.000877141952515	0.384016990662	1.0	s	958.268896818																																	2015_Jun_30_1148	60.1767869876	LearningTask	1	54	
244	200.0	w	200.0																	2.0	0.0	2.0	0.0	4.0	3.0	19.0	0.0																													w	1.0	None	0.0		1.0	trianglegreen.gif	go								0.384673118591																								0.0	0.5139620304110001	0.0009391307830810002	0.384673118591	1.0	w	961.272449017																																	2015_Jun_30_1148	60.1767869876	LearningTask	1	54	
245	-200.0	a	-200.0																	2.0	0.0	2.0	0.0	5.0	0.0	20.0	3.0																													a	1.0	None	0.0		1.0	squarewhite.gif	stop								0.35054802894599996																								0.75	0.514493942261	0.0008718967437739999	0.35054802894599996	1.0	a	964.275938988																																	2015_Jun_30_1148	60.1767869876	LearningTask	1	54	
246	-200.0	a	-200.0																	2.0	0.0	2.0	0.0	5.0	1.0	21.0	3.0																													a	1.0	None	0.0		1.0	squarewhite.gif	stop								0.367550849915																								0.0	0.514235973358	0.0008919239044189998	0.367550849915	1.0	a	967.279061794																																	2015_Jun_30_1148	60.1767869876	LearningTask	1	54	
247	-200.0	q	200.0																	2.0	0.0	2.0	0.0	5.0	2.0	22.0	1.0																													q	1.0	None	0.0		2.0	linemagenta.gif	go								0.434377193451																								0.0	0.513890981674	0.00094199180603	0.434377193451	1.0	q	970.282461882																																	2015_Jun_30_1148	60.1767869876	LearningTask	1	54	
248	-200.0	a	-200.0																	2.0	0.0	2.0	0.0	5.0	3.0	23.0	3.0																													a	1.0	None	0.0		4.0	invertedtriangleyellow.gif	go								0.351034879684																								4.05	0.514295816422	0.00116586685181	0.351034879684	1.0	a	973.2863798139999																																	2015_Jun_30_1148	60.1767869876	LearningTask	1	54	
249	-200.0	a	-200.0																	2.0	0.0	2.0	0.0	6.0	0.0	24.0	3.0																													a	1.0	None	0.0		0.5	crossblue.gif	stop								0.351015806198																								0.46	0.514047145844	0.0008869171142580001	0.351015806198	1.0	a	976.2896358969999																																	2015_Jun_30_1148	60.1767869876	LearningTask	1	54	
250	200.0	w	200.0																	2.0	0.0	2.0	0.0	6.0	1.0	25.0	0.0																													w	1.0	None	0.0		4.0	invertedtriangleyellow.gif	go								0.43340587616000004																								3.98	0.513919115067	0.0009241104125980002	0.43340587616000004	1.0	w	979.292663813																																	2015_Jun_30_1148	60.1767869876	LearningTask	1	54	
251	200.0	s	-200.0																	2.0	0.0	2.0	0.0	6.0	2.0	26.0	2.0																													s	1.0	None	0.0		4.0	invertedtriangleyellow.gif	go								0.36770796775799997																								3.78	0.514470815659	0.00088095664978	0.36770796775799997	1.0	s	982.29587388																																	2015_Jun_30_1148	60.1767869876	LearningTask	1	54	
252	200.0	w	200.0																	2.0	0.0	2.0	0.0	6.0	3.0	27.0	0.0																													w	1.0	None	0.0		0.5	crossblue.gif	stop								0.41823005676299996																								0.25	0.514278888702	0.0008978843688960001	0.41823005676299996	1.0	w	985.29932785																																	2015_Jun_30_1148	60.1767869876	LearningTask	1	54	
253	-200.0	a	-200.0																	2.0	0.0	2.0	0.0	7.0	0.0	28.0	3.0																													a	1.0	None	0.0		0.5	diamondorange.gif	go								0.35084486007700005																								0.39	0.5138540267939999	0.0009360313415529999	0.35084486007700005	1.0	a	988.3027489189999																																	2015_Jun_30_1148	60.1767869876	LearningTask	1	54	
254	-200.0	q	200.0																	2.0	0.0	2.0	0.0	7.0	1.0	29.0	1.0																													q	1.0	None	0.0		0.5	diamondorange.gif	go								0.36744594574																								0.0	0.514111042023	0.0009589195251460001	0.36744594574	1.0	q	991.306552887																																	2015_Jun_30_1148	60.1767869876	LearningTask	1	54	
255	-200.0	q	200.0																	2.0	0.0	2.0	0.0	7.0	2.0	30.0	1.0																													q	1.0	None	0.0		4.0	hexagongray.gif	stop								0.434560060501																								0.0	0.513570070267	0.000900983810425	0.434560060501	1.0	q	994.3093848230001																																	2015_Jun_30_1148	60.1767869876	LearningTask	1	54	
256	-200.0	q	200.0																	2.0	0.0	2.0	0.0	7.0	3.0	31.0	1.0																													q	1.0	None	0.0		0.5	diamondorange.gif	go								0.434121131897																								0.65	0.514368057251	0.0008780956268310002	0.434121131897	1.0	q	997.3125998969999																																	2015_Jun_30_1148	60.1767869876	LearningTask	1	54	
257	200.0	s	-200.0																	2.0	0.0	2.0	0.0	8.0	0.0	32.0	2.0																													s	1.0	None	0.0		2.0	circlecyan.gif	stop								0.35125398635899996																								0.0	0.5141568183899999	0.0009279251098630001	0.35125398635899996	1.0	s	1000.31618285																																	2015_Jun_30_1148	60.1767869876	LearningTask	1	54	
258	200.0	w	200.0																	2.0	0.0	2.0	0.0	8.0	1.0	33.0	0.0																													w	1.0	None	0.0		2.0	linemagenta.gif	go								0.367343902588																								0.0	0.514129161835	0.00088095664978	0.367343902588	1.0	w	1003.31949687																																	2015_Jun_30_1148	60.1767869876	LearningTask	1	54	
259	200.0	w	200.0																	2.0	0.0	2.0	0.0	8.0	2.0	34.0	0.0																													w	1.0	None	0.0		1.0	squarewhite.gif	stop								0.350931167603																								1.12	0.5143339633940001	0.000880002975464	0.350931167603	1.0	w	1006.32257795																																	2015_Jun_30_1148	60.1767869876	LearningTask	1	54	
260	200.0	s	-200.0																	2.0	0.0	2.0	0.0	8.0	3.0	35.0	2.0																													s	1.0	None	0.0		2.0	circlecyan.gif	stop								0.417923927307																								2.0	0.514051914215	0.0009369850158689999	0.417923927307	1.0	s	1009.32610679																																	2015_Jun_30_1148	60.1767869876	LearningTask	1	54	
261	-200.0	a	-200.0																	2.0	0.0	2.0	0.0	9.0	0.0	36.0	3.0																													a	1.0	None	0.0		4.0	hexagongray.gif	stop								0.40040707588200003																								0.0	0.514718055725	0.000890016555786	0.40040707588200003	1.0	a	1012.32958293																																	2015_Jun_30_1148	60.1767869876	LearningTask	1	54	
262	-200.0	q	200.0																	2.0	0.0	2.0	0.0	9.0	1.0	37.0	1.0																													q	1.0	None	0.0		0.5	diamondorange.gif	go								0.35076189041100003																								0.69	0.514137029648	0.000882863998413	0.35076189041100003	1.0	q	1015.33285499																																	2015_Jun_30_1148	60.1767869876	LearningTask	1	54	
263	200.0	s	-200.0																	2.0	0.0	2.0	0.0	9.0	2.0	38.0	2.0																													s	1.0	None	0.0		2.0	linemagenta.gif	go								0.351042985916																								0.0	0.514051914215	0.0009160041809079999	0.351042985916	1.0	s	1018.33604789																																	2015_Jun_30_1148	60.1767869876	LearningTask	1	54	
264	-200.0	q	200.0																	2.0	0.0	2.0	0.0	9.0	3.0	39.0	1.0																													q	1.0	None	0.0		0.5	diamondorange.gif	go								0.36738491058300005																								0.51	0.514539003372	0.0008759498596189999	0.36738491058300005	1.0	q	1021.33939481																																	2015_Jun_30_1148	60.1767869876	LearningTask	1	54	
265	-200.0	q	200.0																	2.0	0.0	2.0	0.0	10.0	0.0	40.0	1.0																													q	1.0	None	0.0		1.0	squarewhite.gif	stop								0.35113000869800004																								0.0	0.51426410675	0.0009069442749019998	0.35113000869800004	1.0	q	1024.3433919																																	2015_Jun_30_1148	60.1767869876	LearningTask	1	54	
266	-200.0	a	-200.0																	2.0	0.0	2.0	0.0	10.0	1.0	41.0	3.0																													a	1.0	None	0.0		0.5	crossblue.gif	stop								0.350826978683																								0.49	0.513559103012	0.0009400844573969999	0.350826978683	1.0	a	1027.34640288																																	2015_Jun_30_1148	60.1767869876	LearningTask	1	54	
267	200.0	w	200.0																	2.0	0.0	2.0	0.0	10.0	2.0	42.0	0.0																													w	1.0	None	0.0		2.0	circlecyan.gif	stop								0.35067105293300005																								2.09	0.514183998108	0.000885009765625	0.35067105293300005	1.0	w	1030.3495419																																	2015_Jun_30_1148	60.1767869876	LearningTask	1	54	
268	-200.0	q	200.0																	2.0	0.0	2.0	0.0	10.0	3.0	43.0	1.0																													q	1.0	None	0.0		4.0	hexagongray.gif	stop								0.317777872086																								3.99	0.514286994934	0.0009670257568360001	0.317777872086	1.0	q	1033.35309792																																	2015_Jun_30_1148	60.1767869876	LearningTask	1	54	
269	200.0	w	200.0																	2.0	0.0	2.0	0.0	11.0	0.0	44.0	0.0																													w	1.0	None	0.0		1.0	trianglegreen.gif	go								0.317651987076																								1.06	0.513935089111	0.0009100437164310001	0.317651987076	1.0	w	1036.35665798																																	2015_Jun_30_1148	60.1767869876	LearningTask	1	54	
270	200.0	s	-200.0																	2.0	0.0	2.0	0.0	11.0	1.0	45.0	2.0																													s	1.0	None	0.0		0.5	diamondorange.gif	go								0.384777069092																								0.55	0.513813972473	0.0011298656463599999	0.384777069092	1.0	s	1039.35982585																																	2015_Jun_30_1148	60.1767869876	LearningTask	1	54	
271	200.0	w	200.0																	2.0	0.0	2.0	0.0	11.0	2.0	46.0	0.0																													w	1.0	None	0.0		1.0	trianglegreen.gif	go								0.367114067078																								1.07	0.514181852341	0.0008959770202639998	0.367114067078	1.0	w	1042.36321092																																	2015_Jun_30_1148	60.1767869876	LearningTask	1	54	
272	-200.0	a	-200.0																	2.0	0.0	2.0	0.0	11.0	3.0	47.0	3.0																													a	1.0	None	0.0		0.5	diamondorange.gif	go								0.367643117905																								0.0	0.5142588615420001	0.0008909702301030001	0.367643117905	1.0	a	1045.36639881																																	2015_Jun_30_1148	60.1767869876	LearningTask	1	54	
273	200.0	w	200.0																	2.0	0.0	2.0	0.0	12.0	0.0	48.0	0.0																													w	1.0	None	0.0		0.5	diamondorange.gif	go								0.367340803146																								0.73	0.514211893082	0.000951051712036	0.367340803146	1.0	w	1048.36967087																																	2015_Jun_30_1148	60.1767869876	LearningTask	1	54	
274	-200.0	q	200.0																	2.0	0.0	2.0	0.0	12.0	1.0	49.0	1.0																													q	1.0	None	0.0		1.0	squarewhite.gif	stop								0.368086099625																								0.0	0.514373064041	0.000880002975464	0.368086099625	1.0	q	1051.37316799																																	2015_Jun_30_1148	60.1767869876	LearningTask	1	54	
275	-200.0	q	200.0																	2.0	0.0	2.0	0.0	12.0	2.0	50.0	1.0																													q	1.0	None	0.0		2.0	circlecyan.gif	stop								0.33392000198399996																								2.05	0.514457941055	0.0009069442749019998	0.33392000198399996	1.0	q	1054.37636781																																	2015_Jun_30_1148	60.1767869876	LearningTask	1	54	
276	-200.0	q	200.0																	2.0	0.0	2.0	0.0	12.0	3.0	51.0	1.0																													q	1.0	None	0.0		0.5	crossblue.gif	stop								0.35089802742																								0.41	0.513854980469	0.0009469985961910001	0.35089802742	1.0	q	1057.37972999																																	2015_Jun_30_1148	60.1767869876	LearningTask	1	54	
277	200.0	w	200.0																	2.0	0.0	2.0	0.0	13.0	0.0	52.0	0.0																													w	1.0	None	0.0		2.0	linemagenta.gif	go								0.333822965622																								0.0	0.51459813118	0.000913143157959	0.333822965622	1.0	w	1060.38332701																																	2015_Jun_30_1148	60.1767869876	LearningTask	1	54	
278	200.0	s	-200.0																	2.0	0.0	2.0	0.0	13.0	1.0	53.0	2.0																													s	1.0	None	0.0		1.0	trianglegreen.gif	go								0.367377996445																								0.0	0.5139858722689999	0.000978946685791	0.367377996445	1.0	s	1063.38672686																																	2015_Jun_30_1148	60.1767869876	LearningTask	1	54	
279	-200.0	q	200.0																	2.0	0.0	2.0	0.0	13.0	2.0	54.0	1.0																													q	1.0	None	0.0		4.0	hexagongray.gif	stop								0.350951910019																								4.22	0.513664007187	0.000998020172119	0.350951910019	1.0	q	1066.38990879																																	2015_Jun_30_1148	60.1767869876	LearningTask	1	54	
280	-200.0	a	-200.0																	2.0	0.0	2.0	0.0	13.0	3.0	55.0	3.0																													a	1.0	None	0.0		4.0	hexagongray.gif	stop								0.333899021149																								4.0	0.514307975769	0.00088906288147	0.333899021149	1.0	a	1069.39334083																																	2015_Jun_30_1148	60.1767869876	LearningTask	1	54	
281	200.0	w	200.0																	2.0	0.0	2.0	0.0	14.0	0.0	56.0	0.0																													w	1.0	None	0.0		1.0	squarewhite.gif	stop								0.30080103874200004																								1.17	0.514073133469	0.00088095664978	0.30080103874200004	1.0	w	1072.39715695																																	2015_Jun_30_1148	60.1767869876	LearningTask	1	54	
282	200.0	s	-200.0																	2.0	0.0	2.0	0.0	14.0	1.0	57.0	2.0																													s	1.0	None	0.0		1.0	squarewhite.gif	stop								0.35105705261200004																								0.95	0.513729095459	0.000932216644287	0.35105705261200004	1.0	s	1075.40012193																																	2015_Jun_30_1148	60.1767869876	LearningTask	1	54	
283	200.0	s	-200.0																	2.0	0.0	2.0	0.0	14.0	2.0	58.0	2.0																													s	1.0	None	0.0		4.0	hexagongray.gif	stop								0.35047698020900003																								4.15	0.514307022095	0.0008840560913089999	0.35047698020900003	1.0	s	1078.40330982																																	2015_Jun_30_1148	60.1767869876	LearningTask	1	54	
284	200.0	w	200.0																	2.0	0.0	2.0	0.0	14.0	3.0	59.0	0.0																													w	1.0	None	0.0		2.0	circlecyan.gif	stop								0.350907802582																								1.9	0.513984203339	0.000909090042114	0.350907802582	1.0	w	1081.40679479																																	2015_Jun_30_1148	60.1767869876	LearningTask	1	54	
285	200.0	w	200.0																	2.0	0.0	2.0	0.0	15.0	0.0	60.0	0.0																													w	1.0	None	0.0		2.0	circlecyan.gif	stop								0.35090398788500005																								2.11	0.5139210224149999	0.0009629726409910001	0.35090398788500005	1.0	w	1084.40993381																																	2015_Jun_30_1148	60.1767869876	LearningTask	1	54	
