	xPos	corrAns	yPos	corrGoResp	yPosGoStim	xPosGoStim	pracTrials.thisRepN	pracTrials.thisTrialN	pracTrials.thisN	pracTrials.thisIndex	ReDoLoopPrac.thisRepN	ReDoLoopPrac.thisTrialN	ReDoLoopPrac.thisN	ReDoLoopPrac.thisIndex	ReDoLoopPrac.thisTrial	pracStopTrials.thisRepN	pracStopTrials.thisTrialN	pracStopTrials.thisN	pracStopTrials.thisIndex	Blocks.thisRepN	Blocks.thisTrialN	Blocks.thisN	Blocks.thisIndex	trials.thisRepN	trials.thisTrialN	trials.thisN	trials.thisIndex	ReDoLoopMain.thisRepN	ReDoLoopMain.thisTrialN	ReDoLoopMain.thisN	ReDoLoopMain.thisIndex	ReDoLoopMain.thisTrial	StopBlocks.thisRepN	StopBlocks.thisTrialN	StopBlocks.thisN	StopBlocks.thisIndex	StopTrials.thisRepN	StopTrials.thisTrialN	StopTrials.thisN	StopTrials.thisIndex	auctionBlocks.thisRepN	auctionBlocks.thisTrialN	auctionBlocks.thisN	auctionBlocks.thisIndex	auctionTrials.thisRepN	auctionTrials.thisTrialN	auctionTrials.thisN	auctionTrials.thisIndex	learningTrialList	learningPracTrialList	stopTrialList	stopPracTrialList	auctionTrialList	ok1.keys	ok1.rt	resp.keys	resp.corr	resp.rt	feedbackResp.keys	feedbackResp.corr	currentReward	currentStimulus	currentStimType	firstPracComputedRewardOutput	firstPracLearningStimOnset	firstPracLearningFixOnset	firstPracPresentationRT	firstPracPresentationAcc	firstPracPresentationResp	firstPracEndTrialTimeStamp	StartTrialTimeStamp	trialType	goStim	stimType	stopStimValue	goResp.keys	goResp.corr	goResp.rt	key_resp_9.keys	key_resp_9.corr	fixStopOnset	goStimOnset	EndTrialTimeStamp	stopSignalOnset	key_resp_3.keys	key_resp_3.rt	firstComputedRewardOutput	firstLearningStimOnset	firstLearningFixOnset	firstPresentationRT	firstPresentationAcc	firstPresentationResp	firstEndTrialTimeStamp	secondComputedRewardOutput	secondLearningStimOnset	secondLearningFixOnset	secondPresentationRT	secondPresentationAcc	secondPresentationResp	secondEndTrialTimeStamp	key_resp_7.keys	key_resp_7.rt	feedbackResp.rt	beginningSSD	key_resp_9.rt	EndingSSD	key_resp_4.keys	key_resp_4.rt	auctionResponse.keys	auctionResponse.rt	auctionStimDuration	auctionStim	auctionAmounts	auctionStimValue	auctionCondition	chosenAuctionAmount	key_resp_5.keys	key_resp_5.rt	shuffledRewardList	chosenReward1	chosenReward2	chosenReward3	chosenReward4	chosenReward5	key_resp_6.keys	key_resp_6.rt	date	frameRate	expName	session	participant	Unnamed: 131
0																																																	[]	[]	[]	[]	[]	9.0	105.910511017																																																																								2015_Jun_24_1402	59.94123498	LearningTask	1	65	
1	-200.0	q	200.0				0.0	0.0	0.0	5.0																																														q	1.0	0.818625926971	None	0.0	1.0	squarewhite.gif	stop	0.0	0.507196187973	0.00302219390869	0.818625926971	1.0	q	128.66143202799998																																																									2015_Jun_24_1402	59.94123498	LearningTask	1	65	
2	-200.0	q	200.0				0.0	1.0	1.0	1.0																																														q	1.0	0.41765403747599994	None	0.0	2.0	circlegreen.gif	go	1.8	0.514559984207	0.00131011009216	0.41765403747599994	1.0	q	131.664124012																																																									2015_Jun_24_1402	59.94123498	LearningTask	1	65	
3	200.0	w	200.0				0.0	2.0	2.0	4.0																																														w	1.0	0.36738491058300005	None	0.0	1.0	squarewhite.gif	stop	1.01	0.515290975571	0.000908851623535	0.36738491058300005	1.0	w	134.667483091																																																									2015_Jun_24_1402	59.94123498	LearningTask	1	65	
4	-200.0	a	-200.0				0.0	3.0	3.0	7.0																																														a	1.0	0.334315061569	None	0.0	2.0	invertedtrianglecyan.gif	stop	1.78	0.514937162399	0.0017290115356400002	0.334315061569	1.0	a	137.670888186																																																									2015_Jun_24_1402	59.94123498	LearningTask	1	65	
5	200.0	s	-200.0				0.0	4.0	4.0	6.0																																														s	1.0	0.334557056427	None	0.0	1.0	squarewhite.gif	stop	0.9	0.5150661468509999	0.000913143157959	0.334557056427	1.0	s	140.674195051																																																									2015_Jun_24_1402	59.94123498	LearningTask	1	65	
6	200.0	w	200.0				0.0	5.0	5.0	8.0																																														w	1.0	0.38402891159100006	None	0.0	2.0	invertedtrianglecyan.gif	stop	2.24	0.515122890472	0.0009169578552250001	0.38402891159100006	1.0	w	143.677812099																																																									2015_Jun_24_1402	59.94123498	LearningTask	1	65	
7	200.0	s	-200.0				0.0	6.0	6.0	2.0																																														s	1.0	0.417685031891	None	0.0	0.5	crossyellow.gif	go	0.38	0.514745950699	0.0013699531555199998	0.417685031891	1.0	s	146.681007147																																																									2015_Jun_24_1402	59.94123498	LearningTask	1	65	
8	200.0	w	200.0				0.0	7.0	7.0	0.0																																														w	1.0	0.367403030396	None	0.0	2.0	circlegreen.gif	go	0.0	0.515029907227	0.000921964645386	0.367403030396	1.0	w	149.684396029																																																									2015_Jun_24_1402	59.94123498	LearningTask	1	65	
9	-200.0	q	200.0				0.0	8.0	8.0	9.0																																														q	1.0	0.46783804893500003	None	0.0	2.0	invertedtrianglecyan.gif	stop	2.16	0.51513504982	0.0009200572967529999	0.46783804893500003	1.0	q	152.68835997600002																																																									2015_Jun_24_1402	59.94123498	LearningTask	1	65	
10	-200.0	a	-200.0				0.0	9.0	9.0	3.0																																														a	1.0	0.400808811188	None	0.0	2.0	invertedtrianglecyan.gif	stop	0.0	0.514580965042	0.0009160041809079999	0.400808811188	1.0	a	155.691055059																																																									2015_Jun_24_1402	59.94123498	LearningTask	1	65	
11				z	0.0	-200.0										0.0	0.0	0.0	0.0																																																				218.767166138	go	crossyellow.gif	go	0.5	z	1.0	0.38392496108999996	None	0.0	0.00132703781128	0.510558128357	221.76533317599998																																												2015_Jun_24_1402	59.94123498	LearningTask	1	65	
12				m	0.0	200.0										0.0	1.0	1.0	1.0																																																				221.765727997	go	crossyellow.gif	go	0.5	m	1.0	0.33413887023899996	None	0.0	0.00105094909668	0.515752077103	224.768464088																																												2015_Jun_24_1402	59.94123498	LearningTask	1	65	
13				m	0.0	200.0										1.0	0.0	2.0	1.0																																																				224.76887798299998	go	crossyellow.gif	go	0.5	m	1.0	0.367644071579	None	0.0	0.00101900100708	0.515657901764	227.772121191																																												2015_Jun_24_1402	59.94123498	LearningTask	1	65	
14				z	0.0	-200.0										1.0	1.0	3.0	0.0																																																				227.772534132	stop	squarewhite.gif	stop	1.0	z	1.0	0.35080909729000004	None	0.0	0.00098705291748	0.515897035599	230.77539110200001	0.765586137772																																											2015_Jun_24_1402	59.94123498	LearningTask	1	65	
15				m	0.0	200.0										2.0	0.0	4.0	1.0																																																				230.775974035	go	hexagonmagenta.gif	go	4.0	m	1.0	0.36699795723000006	None	0.0	0.00155520439148	0.515376091003	233.778629065																																												2015_Jun_24_1402	59.94123498	LearningTask	1	65	
16				z	0.0	-200.0										2.0	1.0	5.0	0.0																																																				233.77905511900002	go	hexagonmagenta.gif	go	4.0	z	1.0	0.467550992966	None	0.0	0.00100111961365	0.5158791542050001	236.781965017																																												2015_Jun_24_1402	59.94123498	LearningTask	1	65	
17				m	0.0	200.0										3.0	0.0	6.0	1.0																																																				236.782341003	stop	lineorange.gif	stop	4.0	m	1.0	0.5011451244349999	None	0.0	0.00134205818176	0.515832185745	239.78581905400003	0.7665021419529999																																											2015_Jun_24_1402	59.94123498	LearningTask	1	65	
18				z	0.0	-200.0										3.0	1.0	7.0	0.0																																																				239.786241055	stop	squarewhite.gif	stop	1.0	None	0.0		None	0.0	0.00130796432495	0.515274047852	242.788838148	0.7655899524690001																																											2015_Jun_24_1402	59.94123498	LearningTask	1	65	
19				z	0.0	-200.0										4.0	0.0	8.0	0.0																																																				242.78921604200002	stop	squarewhite.gif	stop	1.0	None	0.0		None	0.0	0.0009570121765139998	0.515818119049	245.792052984	0.7661130428309999																																											2015_Jun_24_1402	59.94123498	LearningTask	1	65	
20				m	0.0	200.0										4.0	1.0	9.0	1.0																																																				245.79242515599998	go	crossyellow.gif	go	0.5	m	1.0	0.51771903038	None	0.0	0.000964879989624	0.515852928162	248.795602083																																												2015_Jun_24_1402	59.94123498	LearningTask	1	65	
21																																																																																					9.0	85.7130820751																																									2015_Jun_24_1402	59.94123498	LearningTask	1	65	
22																																																						9.0	8.6259829998																																																																								2015_Jun_24_1402	59.94123498	LearningTask	1	65	
23	200.0	w	200.0																	0.0	0.0	0.0	0.0	0.0	0.0	0.0	0.0																													w	1.0	0.634492874146	None	0.0	1.0	squarewhite.gif	stop																								1.07	0.508255004883	0.000962018966675	0.634492874146	1.0	w	346.27350211099997																																		2015_Jun_24_1402	59.94123498	LearningTask	1	65	
24	200.0	w	200.0																	0.0	0.0	0.0	0.0	0.0	1.0	1.0	0.0																													w	1.0	0.384747982025	None	0.0	4.0	hexagonmagenta.gif	go																								3.76	0.5130829811100001	0.000938892364502	0.384747982025	1.0	w	349.275905132																																		2015_Jun_24_1402	59.94123498	LearningTask	1	65	
25	-200.0	q	200.0																	0.0	0.0	0.0	0.0	0.0	2.0	2.0	1.0																													q	1.0	0.550910949707	None	0.0	4.0	hexagonmagenta.gif	go																								4.12	0.514177083969	0.0009150505065920001	0.550910949707	1.0	q	352.279244184																																		2015_Jun_24_1402	59.94123498	LearningTask	1	65	
26	200.0	s	-200.0																	0.0	0.0	0.0	0.0	0.0	3.0	3.0	2.0																													s	1.0	0.367705106735	None	0.0	2.0	circlegreen.gif	go																								0.0	0.514303207397	0.00100207328796	0.367705106735	1.0	s	355.282930136																																		2015_Jun_24_1402	59.94123498	LearningTask	1	65	
27	-200.0	q	200.0																	0.0	0.0	0.0	0.0	1.0	0.0	4.0	1.0																													q	1.0	0.334199905396	None	0.0	1.0	squarewhite.gif	stop																								0.94	0.513894081116	0.0009069442749019998	0.334199905396	1.0	q	358.285732985																																		2015_Jun_24_1402	59.94123498	LearningTask	1	65	
28	200.0	s	-200.0																	0.0	0.0	0.0	0.0	1.0	1.0	5.0	2.0																													s	1.0	0.350845098495	None	0.0	4.0	hexagonmagenta.gif	go																								0.0	0.5144591331480001	0.0011191368103	0.350845098495	1.0	s	361.289570093																																		2015_Jun_24_1402	59.94123498	LearningTask	1	65	
29	200.0	s	-200.0																	0.0	0.0	0.0	0.0	1.0	2.0	6.0	2.0																													s	1.0	0.38424706458999996	None	0.0	2.0	circlegreen.gif	go																								1.99	0.514013051987	0.00095009803772	0.38424706458999996	1.0	s	364.29284215																																		2015_Jun_24_1402	59.94123498	LearningTask	1	65	
30	200.0	w	200.0																	0.0	0.0	0.0	0.0	1.0	3.0	7.0	0.0																													w	1.0	0.300525903702	None	0.0	0.5	crossyellow.gif	go																								0.62	0.51428103447	0.000931024551392	0.300525903702	1.0	w	367.29606819199995																																		2015_Jun_24_1402	59.94123498	LearningTask	1	65	
31	200.0	w	200.0																	0.0	0.0	0.0	0.0	2.0	0.0	8.0	0.0																													w	1.0	0.350742101669	None	0.0	4.0	hexagonmagenta.gif	go																								4.12	0.51411986351	0.000992774963379	0.350742101669	1.0	w	370.299601078																																		2015_Jun_24_1402	59.94123498	LearningTask	1	65	
32	-200.0	q	200.0																	0.0	0.0	0.0	0.0	2.0	1.0	9.0	1.0																													q	1.0	0.316986083984	None	0.0	2.0	invertedtrianglecyan.gif	stop																								2.19	0.514310121536	0.0009150505065920001	0.316986083984	1.0	q	373.302703142																																		2015_Jun_24_1402	59.94123498	LearningTask	1	65	
33	200.0	w	200.0																	0.0	0.0	0.0	0.0	2.0	2.0	10.0	0.0																													w	1.0	0.451610088348	None	0.0	0.5	crossyellow.gif	go																								0.46	0.5141999721530001	0.0011808872222899998	0.451610088348	1.0	w	376.30631303800004																																		2015_Jun_24_1402	59.94123498	LearningTask	1	65	
34	-200.0	a	-200.0																	0.0	0.0	0.0	0.0	2.0	3.0	11.0	3.0																													a	1.0	0.417335987091	None	0.0	1.0	diamondgray.gif	go																								1.11	0.513895988464	0.0013480186462400002	0.417335987091	1.0	a	379.30959606199997																																		2015_Jun_24_1402	59.94123498	LearningTask	1	65	
35	200.0	s	-200.0																	0.0	0.0	0.0	0.0	3.0	0.0	12.0	2.0																													s	1.0	0.38437795639	None	0.0	0.5	crossyellow.gif	go																								0.52	0.514147996902	0.00103497505188	0.38437795639	1.0	s	382.31267809900004																																		2015_Jun_24_1402	59.94123498	LearningTask	1	65	
36	200.0	w	200.0																	0.0	0.0	0.0	0.0	3.0	1.0	13.0	0.0																													w	1.0	0.35084319114699997	None	0.0	1.0	diamondgray.gif	go																								0.0	0.5145628452300001	0.000917911529541	0.35084319114699997	1.0	w	385.316393137																																		2015_Jun_24_1402	59.94123498	LearningTask	1	65	
37	-200.0	a	-200.0																	0.0	0.0	0.0	0.0	3.0	2.0	14.0	3.0																													a	1.0	0.467368125916	None	0.0	0.5	crossyellow.gif	go																								0.26	0.514102935791	0.0009489059448239998	0.467368125916	1.0	a	388.31978917099997																																		2015_Jun_24_1402	59.94123498	LearningTask	1	65	
38	200.0	s	-200.0																	0.0	0.0	0.0	0.0	3.0	3.0	15.0	2.0																													s	1.0	0.401300191879	None	0.0	2.0	invertedtrianglecyan.gif	stop																								1.93	0.514272928238	0.0009129047393799999	0.401300191879	1.0	s	391.323107004																																		2015_Jun_24_1402	59.94123498	LearningTask	1	65	
39	200.0	w	200.0																	0.0	0.0	0.0	0.0	4.0	0.0	16.0	0.0																													w	1.0	0.517803907394	None	0.0	4.0	hexagonmagenta.gif	go																								3.9	0.5143251419070001	0.000909090042114	0.517803907394	1.0	w	394.326658964																																		2015_Jun_24_1402	59.94123498	LearningTask	1	65	
40	-200.0	q	200.0																	0.0	0.0	0.0	0.0	4.0	1.0	17.0	1.0																													q	1.0	0.401404857635	None	0.0	1.0	diamondgray.gif	go																								0.92	0.51390504837	0.0009441375732419999	0.401404857635	1.0	q	397.32980012900003																																		2015_Jun_24_1402	59.94123498	LearningTask	1	65	
41	200.0	w	200.0																	0.0	0.0	0.0	0.0	4.0	2.0	18.0	0.0																													w	1.0	0.417621135712	None	0.0	2.0	circlegreen.gif	go																								0.0	0.514297962189	0.0009601116180419999	0.417621135712	1.0	w	400.333041191																																		2015_Jun_24_1402	59.94123498	LearningTask	1	65	
42	-200.0	q	200.0																	0.0	0.0	0.0	0.0	4.0	3.0	19.0	1.0																													q	1.0	0.434454917908	None	0.0	1.0	diamondgray.gif	go																								0.97	0.51455616951	0.0009720325469970001	0.434454917908	1.0	q	403.33669900900003																																		2015_Jun_24_1402	59.94123498	LearningTask	1	65	
43	200.0	w	200.0																	0.0	0.0	0.0	0.0	5.0	0.0	20.0	0.0																													w	1.0	0.367560863495	None	0.0	4.0	hexagonmagenta.gif	go																								4.14	0.5142378807069999	0.000913858413696	0.367560863495	1.0	w	406.339846134																																		2015_Jun_24_1402	59.94123498	LearningTask	1	65	
44	200.0	w	200.0																	0.0	0.0	0.0	0.0	5.0	1.0	21.0	0.0																													w	1.0	0.38425612449600005	None	0.0	2.0	invertedtrianglecyan.gif	stop																								0.0	0.514492034912	0.00118017196655	0.38425612449600005	1.0	w	409.34347200400003																																		2015_Jun_24_1402	59.94123498	LearningTask	1	65	
45	200.0	w	200.0																	0.0	0.0	0.0	0.0	5.0	2.0	22.0	0.0																													w	1.0	0.36767387390100004	None	0.0	4.0	lineorange.gif	stop																								3.87	0.513899087906	0.0009360313415529999	0.36767387390100004	1.0	w	412.34708905199994																																		2015_Jun_24_1402	59.94123498	LearningTask	1	65	
46	-200.0	a	-200.0																	0.0	0.0	0.0	0.0	5.0	3.0	23.0	3.0																													a	1.0	0.41752886772200004	None	0.0	0.5	triangleblue.gif	stop																								0.29	0.513849020004	0.00129294395447	0.41752886772200004	1.0	a	415.35006809199996																																		2015_Jun_24_1402	59.94123498	LearningTask	1	65	
47	-200.0	a	-200.0																	0.0	0.0	0.0	0.0	6.0	0.0	24.0	3.0																													a	1.0	0.501085996628	None	0.0	4.0	hexagonmagenta.gif	go																								4.2	0.514017820358	0.0009448528289790001	0.501085996628	1.0	a	418.35326099400004																																		2015_Jun_24_1402	59.94123498	LearningTask	1	65	
48	200.0	s	-200.0																	0.0	0.0	0.0	0.0	6.0	1.0	25.0	2.0																													s	1.0	0.434153079987	None	0.0	1.0	diamondgray.gif	go																								1.01	0.514750003815	0.0009200572967529999	0.434153079987	1.0	s	421.357347012																																		2015_Jun_24_1402	59.94123498	LearningTask	1	65	
49	200.0	s	-200.0																	0.0	0.0	0.0	0.0	6.0	2.0	26.0	2.0																													s	1.0	0.401154994965	None	0.0	0.5	crossyellow.gif	go																								0.42	0.513450860977	0.000945806503296	0.401154994965	1.0	s	424.36019706699994																																		2015_Jun_24_1402	59.94123498	LearningTask	1	65	
50	200.0	w	200.0																	0.0	0.0	0.0	0.0	6.0	3.0	27.0	0.0																													w	1.0	0.317729949951	None	0.0	2.0	circlegreen.gif	go																								2.18	0.514097929001	0.0009329319000239999	0.317729949951	1.0	w	427.363765001																																		2015_Jun_24_1402	59.94123498	LearningTask	1	65	
51	200.0	s	-200.0																	0.0	0.0	0.0	0.0	7.0	0.0	28.0	2.0																													s	1.0	0.40084505081200006	None	0.0	1.0	diamondgray.gif	go																								1.02	0.51410984993	0.00120401382446	0.40084505081200006	1.0	s	430.366870165																																		2015_Jun_24_1402	59.94123498	LearningTask	1	65	
52	-200.0	a	-200.0																	0.0	0.0	0.0	0.0	7.0	1.0	29.0	3.0																													a	1.0	0.434096097946	None	0.0	4.0	lineorange.gif	stop																								3.97	0.514376878738	0.0009109973907470001	0.434096097946	1.0	a	433.370889187																																		2015_Jun_24_1402	59.94123498	LearningTask	1	65	
53	200.0	s	-200.0																	0.0	0.0	0.0	0.0	7.0	2.0	30.0	2.0																													s	1.0	0.400537967682	None	0.0	1.0	squarewhite.gif	stop																								0.0	0.513799905777	0.0012738704681400002	0.400537967682	1.0	s	436.374022961																																		2015_Jun_24_1402	59.94123498	LearningTask	1	65	
54	-200.0	a	-200.0																	0.0	0.0	0.0	0.0	7.0	3.0	31.0	3.0																													a	1.0	0.417695045471	None	0.0	4.0	hexagonmagenta.gif	go																								3.75	0.514062166214	0.000913143157959	0.417695045471	1.0	a	439.377041101																																		2015_Jun_24_1402	59.94123498	LearningTask	1	65	
55	200.0	s	-200.0																	0.0	0.0	0.0	0.0	8.0	0.0	32.0	2.0																													s	1.0	0.367579936981	None	0.0	1.0	squarewhite.gif	stop																								0.84	0.514549970627	0.00092601776123	0.367579936981	1.0	s	442.380846977																																		2015_Jun_24_1402	59.94123498	LearningTask	1	65	
56	-200.0	q	200.0																	0.0	0.0	0.0	0.0	8.0	1.0	33.0	1.0																													q	1.0	0.46785998344400004	None	0.0	2.0	invertedtrianglecyan.gif	stop																								2.01	0.51354598999	0.0009820461273189998	0.46785998344400004	1.0	q	445.383989096																																		2015_Jun_24_1402	59.94123498	LearningTask	1	65	
57	-200.0	a	-200.0																	0.0	0.0	0.0	0.0	8.0	2.0	34.0	3.0																													a	1.0	0.417587041855	None	0.0	0.5	triangleblue.gif	stop																								0.46	0.514011859894	0.0009799003601070001	0.417587041855	1.0	a	448.38697314300003																																		2015_Jun_24_1402	59.94123498	LearningTask	1	65	
58	200.0	w	200.0																	0.0	0.0	0.0	0.0	8.0	3.0	35.0	0.0																													w	1.0	0.417913913727	None	0.0	4.0	lineorange.gif	stop																								4.22	0.514506816864	0.0009658336639400001	0.417913913727	1.0	w	451.390592098																																		2015_Jun_24_1402	59.94123498	LearningTask	1	65	
59	-200.0	q	200.0																	0.0	0.0	0.0	0.0	9.0	0.0	36.0	1.0																													q	1.0	0.434185028076	None	0.0	0.5	crossyellow.gif	go																								0.32	0.514336109161	0.0009200572967529999	0.434185028076	1.0	q	454.39392995800006																																		2015_Jun_24_1402	59.94123498	LearningTask	1	65	
60	-200.0	a	-200.0																	0.0	0.0	0.0	0.0	9.0	1.0	37.0	3.0																													a	1.0	0.367456912994	None	0.0	4.0	hexagonmagenta.gif	go																								4.09	0.514180183411	0.00113296508789	0.367456912994	1.0	a	457.39741516099997																																		2015_Jun_24_1402	59.94123498	LearningTask	1	65	
61	200.0	s	-200.0																	0.0	0.0	0.0	0.0	9.0	2.0	38.0	2.0																													s	1.0	0.351227998734	None	0.0	0.5	crossyellow.gif	go																								0.53	0.5138151645660001	0.0009140968322749999	0.351227998734	1.0	s	460.40073514																																		2015_Jun_24_1402	59.94123498	LearningTask	1	65	
62	-200.0	a	-200.0																	0.0	0.0	0.0	0.0	9.0	3.0	39.0	3.0																													a	1.0	0.36712980270400003	None	0.0	4.0	lineorange.gif	stop																								3.91	0.514226913452	0.0009479522705080001	0.36712980270400003	1.0	a	463.40400004400004																																		2015_Jun_24_1402	59.94123498	LearningTask	1	65	
63	-200.0	q	200.0																	0.0	0.0	0.0	0.0	10.0	0.0	40.0	1.0																													q	1.0	0.40137791633599995	None	0.0	2.0	invertedtrianglecyan.gif	stop																								2.23	0.5137791633609999	0.0009779930114750001	0.40137791633599995	1.0	q	466.40740418400003																																		2015_Jun_24_1402	59.94123498	LearningTask	1	65	
64	-200.0	a	-200.0																	0.0	0.0	0.0	0.0	10.0	1.0	41.0	3.0																													a	1.0	0.40101885795599995	None	0.0	2.0	circlegreen.gif	go																								1.98	0.5141248703	0.0009329319000239999	0.40101885795599995	1.0	a	469.410986185																																		2015_Jun_24_1402	59.94123498	LearningTask	1	65	
65	200.0	s	-200.0																	0.0	0.0	0.0	0.0	10.0	2.0	42.0	2.0																													s	1.0	0.367324113846	None	0.0	0.5	triangleblue.gif	stop																								0.63	0.5141780376430001	0.0009109973907470001	0.367324113846	1.0	s	472.41450119																																		2015_Jun_24_1402	59.94123498	LearningTask	1	65	
66	200.0	w	200.0																	0.0	0.0	0.0	0.0	10.0	3.0	43.0	0.0																													w	1.0	0.367944002151	None	0.0	4.0	lineorange.gif	stop																								4.07	0.5137798786159999	0.000941038131714	0.367944002151	1.0	w	475.417670012																																		2015_Jun_24_1402	59.94123498	LearningTask	1	65	
67	-200.0	a	-200.0																	0.0	0.0	0.0	0.0	11.0	0.0	44.0	3.0																													a	1.0	0.401206970215	None	0.0	0.5	triangleblue.gif	stop																								0.38	0.514142990112	0.00115394592285	0.401206970215	1.0	a	478.420801163																																		2015_Jun_24_1402	59.94123498	LearningTask	1	65	
68	-200.0	a	-200.0																	0.0	0.0	0.0	0.0	11.0	1.0	45.0	3.0																													a	1.0	0.367624044418	None	0.0	2.0	invertedtrianglecyan.gif	stop																								2.1	0.514329910278	0.000917911529541	0.367624044418	1.0	a	481.42465901400004																																		2015_Jun_24_1402	59.94123498	LearningTask	1	65	
69	200.0	s	-200.0																	0.0	0.0	0.0	0.0	11.0	2.0	46.0	2.0																													s	1.0	0.351011037827	None	0.0	0.5	triangleblue.gif	stop																								0.71	0.5137178897860001	0.0009169578552250001	0.351011037827	1.0	s	484.427736044																																		2015_Jun_24_1402	59.94123498	LearningTask	1	65	
70	-200.0	a	-200.0																	0.0	0.0	0.0	0.0	11.0	3.0	47.0	3.0																													a	1.0	0.434617996216	None	0.0	0.5	crossyellow.gif	go																								0.35	0.514019966125	0.000923871994019	0.434617996216	1.0	a	487.431048155																																		2015_Jun_24_1402	59.94123498	LearningTask	1	65	
71	-200.0	a	-200.0																	0.0	0.0	0.0	0.0	12.0	0.0	48.0	3.0																													a	1.0	0.41739487648	None	0.0	4.0	lineorange.gif	stop																								4.22	0.51430606842	0.0010430812835700001	0.41739487648	1.0	a	490.434808969																																		2015_Jun_24_1402	59.94123498	LearningTask	1	65	
72	200.0	w	200.0																	0.0	0.0	0.0	0.0	12.0	1.0	49.0	0.0																													w	1.0	0.384243965149	None	0.0	4.0	lineorange.gif	stop																								3.75	0.5139620304110001	0.000904083251953	0.384243965149	1.0	w	493.437829018																																		2015_Jun_24_1402	59.94123498	LearningTask	1	65	
73	200.0	s	-200.0																	0.0	0.0	0.0	0.0	12.0	2.0	50.0	2.0																													s	1.0	0.35062289238000005	None	0.0	1.0	diamondgray.gif	go																								0.99	0.514396190643	0.00113201141357	0.35062289238000005	1.0	s	496.44146919300005																																		2015_Jun_24_1402	59.94123498	LearningTask	1	65	
74	-200.0	q	200.0																	0.0	0.0	0.0	0.0	12.0	3.0	51.0	1.0																													q	1.0	0.434476852417	None	0.0	4.0	hexagonmagenta.gif	go																								3.88	0.513940095901	0.0009479522705080001	0.434476852417	1.0	q	499.44452405																																		2015_Jun_24_1402	59.94123498	LearningTask	1	65	
75	200.0	w	200.0																	0.0	0.0	0.0	0.0	13.0	0.0	52.0	0.0																													w	1.0	0.36743998527500005	None	0.0	2.0	circlegreen.gif	go																								1.88	0.514398813248	0.000907897949219	0.36743998527500005	1.0	w	502.447867155																																		2015_Jun_24_1402	59.94123498	LearningTask	1	65	
76	-200.0	q	200.0																	0.0	0.0	0.0	0.0	13.0	1.0	53.0	1.0																													q	1.0	0.468249082565	None	0.0	0.5	triangleblue.gif	stop																								0.47	0.513568878174	0.000974893569946	0.468249082565	1.0	q	505.451321125																																		2015_Jun_24_1402	59.94123498	LearningTask	1	65	
77	200.0	s	-200.0																	0.0	0.0	0.0	0.0	13.0	2.0	54.0	2.0																													s	1.0	0.384146928787	None	0.0	1.0	squarewhite.gif	stop																								1.24	0.514232158661	0.0009109973907470001	0.384146928787	1.0	s	508.454672098																																		2015_Jun_24_1402	59.94123498	LearningTask	1	65	
78	-200.0	a	-200.0																	0.0	0.0	0.0	0.0	13.0	3.0	55.0	3.0																													a	1.0	0.35089588165299995	None	0.0	0.5	triangleblue.gif	stop																								0.37	0.514389038086	0.0009379386901860002	0.35089588165299995	1.0	a	511.45846009300004																																		2015_Jun_24_1402	59.94123498	LearningTask	1	65	
79	200.0	s	-200.0																	0.0	0.0	0.0	0.0	14.0	0.0	56.0	2.0																													s	1.0	0.35107588768	None	0.0	2.0	circlegreen.gif	go																								0.0	0.513887882233	0.0009469985961910001	0.35107588768	1.0	s	514.461551189																																		2015_Jun_24_1402	59.94123498	LearningTask	1	65	
80	200.0	w	200.0																	0.0	0.0	0.0	0.0	14.0	1.0	57.0	0.0																													w	1.0	0.334022045135	None	0.0	0.5	crossyellow.gif	go																								0.33	0.514213085175	0.0009200572967529999	0.334022045135	1.0	w	517.464682102																																		2015_Jun_24_1402	59.94123498	LearningTask	1	65	
81	200.0	s	-200.0																	0.0	0.0	0.0	0.0	14.0	2.0	58.0	2.0																													s	1.0	0.450911045074	None	0.0	1.0	squarewhite.gif	stop																								0.0	0.514480113983	0.0009100437164310001	0.450911045074	1.0	s	520.468593121																																		2015_Jun_24_1402	59.94123498	LearningTask	1	65	
82	-200.0	q	200.0																	0.0	0.0	0.0	0.0	14.0	3.0	59.0	1.0																													q	1.0	0.366991996765	None	0.0	4.0	hexagonmagenta.gif	go																								0.0	0.513606071472	0.0009241104125980002	0.366991996765	1.0	q	523.471677065																																		2015_Jun_24_1402	59.94123498	LearningTask	1	65	
83	-200.0	q	200.0																	0.0	0.0	0.0	0.0	15.0	0.0	60.0	1.0																													q	1.0	0.450845956802	None	0.0	1.0	squarewhite.gif	stop																								0.99	0.514279127121	0.0009069442749019998	0.450845956802	1.0	q	526.474938154																																		2015_Jun_24_1402	59.94123498	LearningTask	1	65	
84	200.0	w	200.0																	0.0	0.0	0.0	0.0	15.0	1.0	61.0	0.0																													w	1.0	0.36740899085999995	None	0.0	4.0	lineorange.gif	stop																								3.83	0.51429104805	0.0009100437164310001	0.36740899085999995	1.0	w	529.478800058																																		2015_Jun_24_1402	59.94123498	LearningTask	1	65	
85	-200.0	q	200.0																	0.0	0.0	0.0	0.0	15.0	2.0	62.0	1.0																													q	1.0	0.368007898331	None	0.0	2.0	invertedtrianglecyan.gif	stop																								1.79	0.513671875	0.0009279251098630001	0.368007898331	1.0	q	532.481686115																																		2015_Jun_24_1402	59.94123498	LearningTask	1	65	
86	-200.0	q	200.0																	0.0	0.0	0.0	0.0	15.0	3.0	63.0	1.0																													q	1.0	0.350692033768	None	0.0	2.0	circlegreen.gif	go																								2.16	0.5144460201259999	0.000917911529541	0.350692033768	1.0	q	535.48477006																																		2015_Jun_24_1402	59.94123498	LearningTask	1	65	
87	-200.0	q	200.0																	0.0	0.0	0.0	0.0	16.0	0.0	64.0	1.0																													q	1.0	0.36733317375200003	None	0.0	0.5	crossyellow.gif	go																								0.45	0.514740943909	0.00101900100708	0.36733317375200003	1.0	q	538.488651991																																		2015_Jun_24_1402	59.94123498	LearningTask	1	65	
88	-200.0	q	200.0																	0.0	0.0	0.0	0.0	16.0	1.0	65.0	1.0																													q	1.0	0.40102791786200004	None	0.0	2.0	circlegreen.gif	go																								1.82	0.514203071594	0.0011780261993399998	0.40102791786200004	1.0	q	541.491976023																																		2015_Jun_24_1402	59.94123498	LearningTask	1	65	
89	200.0	s	-200.0																	0.0	0.0	0.0	0.0	16.0	2.0	66.0	2.0																													s	1.0	0.334369182587	None	0.0	1.0	squarewhite.gif	stop																								1.06	0.514026880264	0.00114297866821	0.334369182587	1.0	s	544.495179176																																		2015_Jun_24_1402	59.94123498	LearningTask	1	65	
90	200.0	s	-200.0																	0.0	0.0	0.0	0.0	16.0	3.0	67.0	2.0																													s	1.0	0.400825977325	None	0.0	2.0	invertedtrianglecyan.gif	stop																								1.85	0.514027118683	0.00093412399292	0.400825977325	1.0	s	547.498530149																																		2015_Jun_24_1402	59.94123498	LearningTask	1	65	
91	200.0	s	-200.0																	0.0	0.0	0.0	0.0	17.0	0.0	68.0	2.0																													s	1.0	0.40078902244599995	None	0.0	2.0	circlegreen.gif	go																								0.0	0.514266014099	0.000923871994019	0.40078902244599995	1.0	s	550.50188899																																		2015_Jun_24_1402	59.94123498	LearningTask	1	65	
92	200.0	s	-200.0																	0.0	0.0	0.0	0.0	17.0	1.0	69.0	2.0																													s	1.0	0.384681940079	None	0.0	4.0	lineorange.gif	stop																								4.19	0.514090061188	0.0009551048278810001	0.384681940079	1.0	s	553.50532198																																		2015_Jun_24_1402	59.94123498	LearningTask	1	65	
93	200.0	s	-200.0																	0.0	0.0	0.0	0.0	17.0	2.0	70.0	2.0																													s	1.0	0.350990056992	None	0.0	0.5	triangleblue.gif	stop																								0.53	0.514399051666	0.000913143157959	0.350990056992	1.0	s	556.508633137																																		2015_Jun_24_1402	59.94123498	LearningTask	1	65	
94	-200.0	a	-200.0																	0.0	0.0	0.0	0.0	17.0	3.0	71.0	3.0																													a	1.0	0.41778087616	None	0.0	4.0	hexagonmagenta.gif	go																								4.06	0.514444828033	0.0013220310211199998	0.41778087616	1.0	a	559.512207031																																		2015_Jun_24_1402	59.94123498	LearningTask	1	65	
95	200.0	w	200.0																	0.0	0.0	0.0	0.0	18.0	0.0	72.0	0.0																													w	1.0	0.36781001091	None	0.0	2.0	invertedtrianglecyan.gif	stop																								2.15	0.513725996017	0.00121998786926	0.36781001091	1.0	w	562.515601158																																		2015_Jun_24_1402	59.94123498	LearningTask	1	65	
96	200.0	s	-200.0																	0.0	0.0	0.0	0.0	18.0	1.0	73.0	2.0																													s	1.0	0.367568016052	None	0.0	4.0	hexagonmagenta.gif	go																								4.0	0.514249801636	0.0009160041809079999	0.367568016052	1.0	s	565.518754959																																		2015_Jun_24_1402	59.94123498	LearningTask	1	65	
97	200.0	w	200.0																	0.0	0.0	0.0	0.0	18.0	2.0	74.0	0.0																													w	1.0	0.517544031143	None	0.0	4.0	lineorange.gif	stop																								3.92	0.514420032501	0.00104904174805	0.517544031143	1.0	w	568.522420168																																		2015_Jun_24_1402	59.94123498	LearningTask	1	65	
98	-200.0	a	-200.0																	0.0	0.0	0.0	0.0	18.0	3.0	75.0	3.0																													a	1.0	0.5677998065950001	None	0.0	1.0	diamondgray.gif	go																								0.88	0.514091968536	0.000992059707642	0.5677998065950001	1.0	a	571.525647163																																		2015_Jun_24_1402	59.94123498	LearningTask	1	65	
99	200.0	w	200.0																	0.0	0.0	0.0	0.0	19.0	0.0	76.0	0.0																													w	1.0	0.417367935181	None	0.0	0.5	crossyellow.gif	go																								0.64	0.514276981354	0.000917196273804	0.417367935181	1.0	w	574.528817177																																		2015_Jun_24_1402	59.94123498	LearningTask	1	65	
100	200.0	w	200.0																	0.0	0.0	0.0	0.0	19.0	1.0	77.0	0.0																													w	1.0	0.43394708633400003	None	0.0	0.5	triangleblue.gif	stop																								0.26	0.51443696022	0.00092601776123	0.43394708633400003	1.0	w	577.532644033																																		2015_Jun_24_1402	59.94123498	LearningTask	1	65	
101	-200.0	a	-200.0																	0.0	0.0	0.0	0.0	19.0	2.0	78.0	3.0																													a	1.0	0.433632135391	None	0.0	0.5	triangleblue.gif	stop																								0.45	0.514084815979	0.0009129047393799999	0.433632135391	1.0	a	580.535761118																																		2015_Jun_24_1402	59.94123498	LearningTask	1	65	
102	-200.0	a	-200.0																	0.0	0.0	0.0	0.0	19.0	3.0	79.0	3.0																													a	1.0	0.500926017761	None	0.0	1.0	diamondgray.gif	go																								0.0	0.514075040817	0.0014290809631300001	0.41754889488200003	0.0	q	583.539003134	0.93	0.5155880451199999	0.00107598304749	0.500926017761	1.0	a	586.543007135																											2015_Jun_24_1402	59.94123498	LearningTask	1	65	
103	-200.0	q	200.0																	0.0	0.0	0.0	0.0	20.0	0.0	80.0	1.0																													q	1.0	0.500785827637	None	0.0	1.0	squarewhite.gif	stop																								0.0	0.513068199158	0.00120210647583	0.500785827637	1.0	q	589.545845032																																		2015_Jun_24_1402	59.94123498	LearningTask	1	65	
104	-200.0	q	200.0																	0.0	0.0	0.0	0.0	20.0	1.0	81.0	1.0																													q	1.0	0.567408084869	None	0.0	1.0	squarewhite.gif	stop																								1.01	0.514086008072	0.0009560585021970001	0.567408084869	1.0	q	592.548895121																																		2015_Jun_24_1402	59.94123498	LearningTask	1	65	
105	-200.0	q	200.0																	0.0	0.0	0.0	0.0	20.0	2.0	82.0	1.0																													q	1.0	0.467278003693	None	0.0	4.0	lineorange.gif	stop																								0.0	0.5150380134579999	0.0013220310211199998	0.467278003693	1.0	q	595.552749157																																		2015_Jun_24_1402	59.94123498	LearningTask	1	65	
106	-200.0	a	-200.0																	0.0	0.0	0.0	0.0	20.0	3.0	83.0	3.0																													a	1.0	0.533854007721	None	0.0	1.0	squarewhite.gif	stop																								1.17	0.514302968979	0.0009140968322749999	0.533854007721	1.0	a	598.556141138																																		2015_Jun_24_1402	59.94123498	LearningTask	1	65	
107	-200.0	q	200.0																	0.0	0.0	0.0	0.0	21.0	0.0	84.0	1.0																													q	1.0	0.584578037262	None	0.0	1.0	diamondgray.gif	go																								1.25	0.5136852264399999	0.000962018966675	0.584578037262	1.0	q	601.559509993																																		2015_Jun_24_1402	59.94123498	LearningTask	1	65	
108	-200.0	a	-200.0																	0.0	0.0	0.0	0.0	21.0	1.0	85.0	3.0																													a	1.0	0.501184940338	None	0.0	1.0	squarewhite.gif	stop																								0.0	0.514117956161	0.0009181499481200001	0.501184940338	1.0	a	604.562586069																																		2015_Jun_24_1402	59.94123498	LearningTask	1	65	
109	200.0	s	-200.0																	0.0	0.0	0.0	0.0	21.0	2.0	86.0	2.0																													s	1.0	0.417742013931	None	0.0	1.0	squarewhite.gif	stop																								1.01	0.514494180679	0.000908136367798	0.417742013931	1.0	s	607.566715002																																		2015_Jun_24_1402	59.94123498	LearningTask	1	65	
110	200.0	w	200.0																	0.0	0.0	0.0	0.0	21.0	3.0	87.0	0.0																													w	1.0	0.450646877289	None	0.0	2.0	circlegreen.gif	go																								2.05	0.513127803802	0.0013289451599100002	0.450646877289	1.0	w	610.5696430209999																																		2015_Jun_24_1402	59.94123498	LearningTask	1	65	
111	200.0	s	-200.0																	0.0	0.0	0.0	0.0	22.0	0.0	88.0	2.0																													s	1.0	0.467935085297	None	0.0	1.0	diamondgray.gif	go																								0.0	0.514313936234	0.0009150505065920001	0.467935085297	1.0	s	613.5728561880001																																		2015_Jun_24_1402	59.94123498	LearningTask	1	65	
112	-200.0	q	200.0																	0.0	0.0	0.0	0.0	22.0	1.0	89.0	1.0																													q	1.0	0.517791986465	None	0.0	1.0	diamondgray.gif	go																								1.13	0.514041185379	0.00102806091309	0.517791986465	1.0	q	616.576543093																																		2015_Jun_24_1402	59.94123498	LearningTask	1	65	
113	-200.0	q	200.0																	0.0	0.0	0.0	0.0	22.0	2.0	90.0	1.0																													q	1.0	0.467647075653	None	0.0	0.5	crossyellow.gif	go																								0.0	0.513877868652	0.00131487846375	0.467647075653	1.0	q	619.579668999																																		2015_Jun_24_1402	59.94123498	LearningTask	1	65	
114	200.0	w	200.0																	0.0	0.0	0.0	0.0	22.0	3.0	91.0	0.0																													w	1.0	0.38423705100999994	None	0.0	0.5	crossyellow.gif	go																								0.35	0.514339923859	0.0009140968322749999	0.38423705100999994	1.0	w	622.5829241280001																																		2015_Jun_24_1402	59.94123498	LearningTask	1	65	
115	-200.0	q	200.0																	0.0	0.0	0.0	0.0	23.0	0.0	92.0	1.0																													q	1.0	0.46731901168799994	None	0.0	2.0	invertedtrianglecyan.gif	stop																								1.95	0.514476060867	0.00144195556641	0.46731901168799994	1.0	q	625.5865640640001																																		2015_Jun_24_1402	59.94123498	LearningTask	1	65	
116	-200.0	a	-200.0																	0.0	0.0	0.0	0.0	23.0	1.0	93.0	3.0																													a	1.0	0.41784405708300004	None	0.0	1.0	diamondgray.gif	go																								0.0	0.514066934586	0.00092601776123	0.41784405708300004	1.0	a	628.589945078																																		2015_Jun_24_1402	59.94123498	LearningTask	1	65	
117	-200.0	a	-200.0																	0.0	0.0	0.0	0.0	23.0	2.0	94.0	3.0																													a	1.0	0.417299032211	None	0.0	1.0	squarewhite.gif	stop																								0.97	0.5141971111300001	0.00122308731079	0.417299032211	1.0	a	631.593046188																																		2015_Jun_24_1402	59.94123498	LearningTask	1	65	
118	200.0	w	200.0																	0.0	0.0	0.0	0.0	23.0	3.0	95.0	0.0																													w	1.0	0.417933940887	None	0.0	1.0	squarewhite.gif	stop																								0.78	0.514110088348	0.0009570121765139998	0.417933940887	1.0	w	634.5967500209999																																		2015_Jun_24_1402	59.94123498	LearningTask	1	65	
119	-200.0	q	200.0																	0.0	0.0	0.0	0.0	24.0	0.0	96.0	1.0																													q	1.0	0.351167917252	None	0.0	4.0	hexagonmagenta.gif	go																								3.94	0.513697147369	0.0014340877533	0.351167917252	1.0	q	637.599912167																																		2015_Jun_24_1402	59.94123498	LearningTask	1	65	
120	-200.0	a	-200.0																	0.0	0.0	0.0	0.0	24.0	1.0	97.0	3.0																													a	1.0	0.451209068298	None	0.0	2.0	circlegreen.gif	go																								2.04	0.513940095901	0.00105309486389	0.451209068298	1.0	a	640.603343964																																		2015_Jun_24_1402	59.94123498	LearningTask	1	65	
121	-200.0	q	200.0																	0.0	0.0	0.0	0.0	24.0	2.0	98.0	1.0																													q	1.0	0.400314092636	None	0.0	0.5	triangleblue.gif	stop																								0.29	0.514342069626	0.0013129711151099999	0.400314092636	1.0	q	643.606548071																																		2015_Jun_24_1402	59.94123498	LearningTask	1	65	
122	-200.0	a	-200.0																	0.0	0.0	0.0	0.0	24.0	3.0	99.0	3.0																													a	1.0	0.45067191124	None	0.0	4.0	hexagonmagenta.gif	go																								3.91	0.514513969421	0.000949144363403	0.45067191124	1.0	a	646.610072136																																		2015_Jun_24_1402	59.94123498	LearningTask	1	65	
123																				0.0	0.0	0.0	0.0																																																																														9.0	7.230571985239999																									2015_Jun_24_1402	59.94123498	LearningTask	1	65	
124	-200.0	q	200.0																	1.0	0.0	1.0	0.0	0.0	0.0	0.0	1.0																													q	1.0	0.467179059982	None	0.0	0.5	crossyellow.gif	go																								0.0	0.508322954178	0.0009338855743410001	0.600905895233	0.0	w	657.289129019	0.56	0.515038967133	0.0009739398956299999	0.467179059982	1.0	q	660.292188168																											2015_Jun_24_1402	59.94123498	LearningTask	1	65	
125	-200.0	a	-200.0																	1.0	0.0	1.0	0.0	0.0	1.0	1.0	3.0																													a	1.0	0.467124938965	None	0.0	0.5	crossyellow.gif	go																								0.0	0.514358043671	0.0009820461273189998	0.467124938965	1.0	a	663.29563117																																		2015_Jun_24_1402	59.94123498	LearningTask	1	65	
126	-200.0	q	200.0																	1.0	0.0	1.0	0.0	0.0	2.0	2.0	1.0																													q	1.0	0.584493160248	None	0.0	0.5	crossyellow.gif	go																								0.51	0.514303922653	0.00092601776123	0.584493160248	1.0	q	666.299338102																																		2015_Jun_24_1402	59.94123498	LearningTask	1	65	
127	200.0	s	-200.0																	1.0	0.0	1.0	0.0	0.0	3.0	3.0	2.0																													s	1.0	0.45134806633	None	0.0	4.0	hexagonmagenta.gif	go																								3.97	0.513113975525	0.00107002258301	0.45134806633	1.0	s	669.302172184																																		2015_Jun_24_1402	59.94123498	LearningTask	1	65	
128	200.0	w	200.0																	1.0	0.0	1.0	0.0	1.0	0.0	4.0	0.0																													w	1.0	0.400718927383	None	0.0	1.0	squarewhite.gif	stop																								1.07	0.514081954956	0.00095009803772	0.400718927383	1.0	w	672.305549145																																		2015_Jun_24_1402	59.94123498	LearningTask	1	65	
129	-200.0	q	200.0																	1.0	0.0	1.0	0.0	1.0	1.0	5.0	1.0																													q	1.0	0.467782974243	None	0.0	0.5	triangleblue.gif	stop																								0.37	0.514338970184	0.0011758804321300002	0.467782974243	1.0	q	675.308923006																																		2015_Jun_24_1402	59.94123498	LearningTask	1	65	
130	200.0	s	-200.0																	1.0	0.0	1.0	0.0	1.0	2.0	6.0	2.0																													s	1.0	0.43439102172899996	None	0.0	0.5	crossyellow.gif	go																								0.63	0.51381111145	0.00102996826172	0.43439102172899996	1.0	s	678.312081099																																		2015_Jun_24_1402	59.94123498	LearningTask	1	65	
131	200.0	w	200.0																	1.0	0.0	1.0	0.0	1.0	3.0	7.0	0.0																													w	1.0	0.43401718139600004	None	0.0	4.0	hexagonmagenta.gif	go																								3.92	0.514632940292	0.0009241104125980002	0.43401718139600004	1.0	w	681.31559515																																		2015_Jun_24_1402	59.94123498	LearningTask	1	65	
132	-200.0	a	-200.0																	1.0	0.0	1.0	0.0	2.0	0.0	8.0	3.0																													a	1.0	0.5338599681849999	None	0.0	4.0	lineorange.gif	stop																								3.98	0.5150208473210001	0.0009148120880130001	0.5338599681849999	1.0	a	684.319102049																																		2015_Jun_24_1402	59.94123498	LearningTask	1	65	
133	-200.0	q	200.0																	1.0	0.0	1.0	0.0	2.0	1.0	9.0	1.0																													q	1.0	0.41717696189900005	None	0.0	0.5	triangleblue.gif	stop																								0.72	0.514166116714	0.0009160041809079999	0.41717696189900005	1.0	q	687.322627068																																		2015_Jun_24_1402	59.94123498	LearningTask	1	65	
134	-200.0	a	-200.0																	1.0	0.0	1.0	0.0	2.0	2.0	10.0	3.0																													a	1.0	0.418022155762	None	0.0	4.0	hexagonmagenta.gif	go																								4.05	0.5140259265899999	0.000922918319702	0.418022155762	1.0	a	690.326146126																																		2015_Jun_24_1402	59.94123498	LearningTask	1	65	
135	-200.0	q	200.0																	1.0	0.0	1.0	0.0	2.0	3.0	11.0	1.0																													q	1.0	0.467563867569	None	0.0	4.0	lineorange.gif	stop																								4.16	0.513674020767	0.0009198188781739999	0.467563867569	1.0	q	693.329272985																																		2015_Jun_24_1402	59.94123498	LearningTask	1	65	
136	-200.0	a	-200.0																	1.0	0.0	1.0	0.0	3.0	0.0	12.0	3.0																													a	1.0	0.40063905715899994	None	0.0	1.0	squarewhite.gif	stop																								0.0	0.513849020004	0.000953197479248	0.40063905715899994	1.0	a	696.332771063																																		2015_Jun_24_1402	59.94123498	LearningTask	1	65	
137	200.0	s	-200.0																	1.0	0.0	1.0	0.0	3.0	1.0	13.0	2.0																													s	1.0	0.384582042694	None	0.0	1.0	diamondgray.gif	go																								1.08	0.513849973679	0.0010199546814	0.384582042694	1.0	s	699.335954189																																		2015_Jun_24_1402	59.94123498	LearningTask	1	65	
138	200.0	w	200.0																	1.0	0.0	1.0	0.0	3.0	2.0	14.0	0.0																													w	1.0	0.350850105286	None	0.0	4.0	hexagonmagenta.gif	go																								0.0	0.514554977417	0.000922918319702	0.350850105286	1.0	w	702.339784145																																		2015_Jun_24_1402	59.94123498	LearningTask	1	65	
139	200.0	s	-200.0																	1.0	0.0	1.0	0.0	3.0	3.0	15.0	2.0																													s	1.0	0.434497117996	None	0.0	0.5	triangleblue.gif	stop																								0.43	0.513526916504	0.00092887878418	0.434497117996	1.0	s	705.3423831460001																																		2015_Jun_24_1402	59.94123498	LearningTask	1	65	
140	-200.0	a	-200.0																	1.0	0.0	1.0	0.0	4.0	0.0	16.0	3.0																													a	1.0	0.48421597480800005	None	0.0	4.0	lineorange.gif	stop																								4.15	0.514693975449	0.000942945480347	0.48421597480800005	1.0	a	708.3459060189999																																		2015_Jun_24_1402	59.94123498	LearningTask	1	65	
141	-200.0	q	200.0																	1.0	0.0	1.0	0.0	4.0	1.0	17.0	1.0																													q	1.0	0.434140920639	None	0.0	1.0	diamondgray.gif	go																								0.0	0.5144460201259999	0.000955820083618	0.434140920639	1.0	q	711.3495161530001																																		2015_Jun_24_1402	59.94123498	LearningTask	1	65	
142	200.0	s	-200.0																	1.0	0.0	1.0	0.0	4.0	2.0	18.0	2.0																													s	1.0	0.384181022644	None	0.0	2.0	invertedtrianglecyan.gif	stop																								2.09	0.5142841339109999	0.00116014480591	0.384181022644	1.0	s	714.352795124																																		2015_Jun_24_1402	59.94123498	LearningTask	1	65	
143	-200.0	q	200.0																	1.0	0.0	1.0	0.0	4.0	3.0	19.0	1.0																													q	1.0	0.38415312767	None	0.0	4.0	lineorange.gif	stop																								4.09	0.514101028442	0.0009400844573969999	0.38415312767	1.0	q	717.3561191560001																																		2015_Jun_24_1402	59.94123498	LearningTask	1	65	
144	200.0	s	-200.0																	1.0	0.0	1.0	0.0	5.0	0.0	20.0	2.0																													s	1.0	0.38460087776199997	None	0.0	1.0	diamondgray.gif	go																								0.85	0.5140759944919999	0.000915765762329	0.38460087776199997	1.0	s	720.3595840930001																																		2015_Jun_24_1402	59.94123498	LearningTask	1	65	
145	-200.0	a	-200.0																	1.0	0.0	1.0	0.0	5.0	1.0	21.0	3.0																													a	1.0	0.384708881378	None	0.0	4.0	hexagonmagenta.gif	go																								3.96	0.5141651630399999	0.000900030136108	0.384708881378	1.0	a	723.3631320000001																																		2015_Jun_24_1402	59.94123498	LearningTask	1	65	
146	200.0	w	200.0																	1.0	0.0	1.0	0.0	5.0	2.0	22.0	0.0																													w	1.0	0.434062004089	None	0.0	1.0	squarewhite.gif	stop																								0.81	0.513536930084	0.000941038131714	0.434062004089	1.0	w	726.3662710189999																																		2015_Jun_24_1402	59.94123498	LearningTask	1	65	
147	-200.0	a	-200.0																	1.0	0.0	1.0	0.0	5.0	3.0	23.0	3.0																													a	1.0	0.417462110519	None	0.0	0.5	triangleblue.gif	stop																								0.74	0.514369010925	0.0008981227874760001	0.417462110519	1.0	a	729.36958909																																		2015_Jun_24_1402	59.94123498	LearningTask	1	65	
148	-200.0	a	-200.0																	1.0	0.0	1.0	0.0	6.0	0.0	24.0	3.0																													a	1.0	0.45132303237899996	None	0.0	2.0	circlegreen.gif	go																								1.81	0.514460086823	0.000892877578735	0.45132303237899996	1.0	a	732.3727719780001																																		2015_Jun_24_1402	59.94123498	LearningTask	1	65	
149	-200.0	a	-200.0																	1.0	0.0	1.0	0.0	6.0	1.0	25.0	3.0																													a	1.0	0.467914104462	None	0.0	4.0	lineorange.gif	stop																								4.02	0.514061927795	0.000909805297852	0.467914104462	1.0	a	735.3764719960001																																		2015_Jun_24_1402	59.94123498	LearningTask	1	65	
150	200.0	w	200.0																	1.0	0.0	1.0	0.0	6.0	2.0	26.0	0.0																													w	1.0	0.467517137527	None	0.0	4.0	hexagonmagenta.gif	go																								3.87	0.514229059219	0.00090503692627	0.467517137527	1.0	w	738.379863024																																		2015_Jun_24_1402	59.94123498	LearningTask	1	65	
151	200.0	w	200.0																	1.0	0.0	1.0	0.0	6.0	3.0	27.0	0.0																													w	1.0	0.434365987778	None	0.0	1.0	squarewhite.gif	stop																								1.22	0.513881921768	0.000938892364502	0.434365987778	1.0	w	741.3835110660001																																		2015_Jun_24_1402	59.94123498	LearningTask	1	65	
152	-200.0	q	200.0																	1.0	0.0	1.0	0.0	7.0	0.0	28.0	1.0																													q	1.0	0.467720031738	None	0.0	4.0	hexagonmagenta.gif	go																								0.0	0.513768911362	0.0009109973907470001	0.467720031738	1.0	q	744.3866660589999																																		2015_Jun_24_1402	59.94123498	LearningTask	1	65	
153	-200.0	q	200.0																	1.0	0.0	1.0	0.0	7.0	1.0	29.0	1.0																													q	1.0	0.433641910553	None	0.0	4.0	lineorange.gif	stop																								4.09	0.5144221782680001	0.0008940696716310001	0.433641910553	1.0	q	747.38986516																																		2015_Jun_24_1402	59.94123498	LearningTask	1	65	
154	-200.0	q	200.0																	1.0	0.0	1.0	0.0	7.0	2.0	30.0	1.0																													q	1.0	0.45143198967	None	0.0	2.0	circlegreen.gif	go																								1.91	0.5142018795009999	0.000988006591797	0.45143198967	1.0	q	750.393347025																																		2015_Jun_24_1402	59.94123498	LearningTask	1	65	
155	200.0	s	-200.0																	1.0	0.0	1.0	0.0	7.0	3.0	31.0	2.0																													s	1.0	0.434315919876	None	0.0	4.0	lineorange.gif	stop																								4.24	0.5141551494600001	0.0009109973907470001	0.434315919876	1.0	s	753.396986961																																		2015_Jun_24_1402	59.94123498	LearningTask	1	65	
156	-200.0	q	200.0																	1.0	0.0	1.0	0.0	8.0	0.0	32.0	1.0																													q	1.0	0.434482097626	None	0.0	4.0	lineorange.gif	stop																								4.14	0.514019966125	0.00121903419495	0.434482097626	1.0	q	756.400443077																																		2015_Jun_24_1402	59.94123498	LearningTask	1	65	
157	-200.0	q	200.0																	1.0	0.0	1.0	0.0	8.0	1.0	33.0	1.0																													q	1.0	0.467348098755	None	0.0	1.0	squarewhite.gif	stop																								1.04	0.513907909393	0.0009200572967529999	0.467348098755	1.0	q	759.4038369660001																																		2015_Jun_24_1402	59.94123498	LearningTask	1	65	
158	-200.0	a	-200.0																	1.0	0.0	1.0	0.0	8.0	2.0	34.0	3.0																													a	1.0	0.46841192245499996	None	0.0	2.0	invertedtrianglecyan.gif	stop																								2.07	0.513774871826	0.0009059906005860001	0.46841192245499996	1.0	a	762.406751156																																		2015_Jun_24_1402	59.94123498	LearningTask	1	65	
159	-200.0	q	200.0																	1.0	0.0	1.0	0.0	8.0	3.0	35.0	1.0																													q	1.0	0.384124994278	None	0.0	4.0	hexagonmagenta.gif	go																								0.0	0.514106988907	0.00111889839172	0.384124994278	1.0	q	765.410156965																																		2015_Jun_24_1402	59.94123498	LearningTask	1	65	
160	200.0	w	200.0																	1.0	0.0	1.0	0.0	9.0	0.0	36.0	0.0																													w	1.0	0.35079002380400004	None	0.0	2.0	invertedtrianglecyan.gif	stop																								1.94	0.514299869537	0.000900983810425	0.35079002380400004	1.0	w	768.413510084																																		2015_Jun_24_1402	59.94123498	LearningTask	1	65	
161	-200.0	a	-200.0																	1.0	0.0	1.0	0.0	9.0	1.0	37.0	3.0																													a	1.0	0.45137405395499997	None	0.0	2.0	circlegreen.gif	go																								1.92	0.514452934265	0.0009069442749019998	0.45137405395499997	1.0	a	771.418416977																																		2015_Jun_24_1402	59.94123498	LearningTask	1	65	
162	200.0	s	-200.0																	1.0	0.0	1.0	0.0	9.0	2.0	38.0	2.0																													s	1.0	0.38403892517099997	None	0.0	1.0	squarewhite.gif	stop																								1.12	0.512964963913	0.0008978843688960001	0.38403892517099997	1.0	s	774.420252085																																		2015_Jun_24_1402	59.94123498	LearningTask	1	65	
163	200.0	w	200.0																	1.0	0.0	1.0	0.0	9.0	3.0	39.0	0.0																													w	1.0	0.334056854248	None	0.0	4.0	hexagonmagenta.gif	go																								3.79	0.514287948608	0.0008919239044189998	0.334056854248	1.0	w	777.4237270360001																																		2015_Jun_24_1402	59.94123498	LearningTask	1	65	
164	200.0	w	200.0																	1.0	0.0	1.0	0.0	10.0	0.0	40.0	0.0																													w	1.0	0.367562055588	None	0.0	0.5	triangleblue.gif	stop																								0.44	0.514401197433	0.0008990764617919999	0.367562055588	1.0	w	780.427752018																																		2015_Jun_24_1402	59.94123498	LearningTask	1	65	
165	-200.0	a	-200.0																	1.0	0.0	1.0	0.0	10.0	1.0	41.0	3.0																													a	1.0	0.484260082245	None	0.0	4.0	hexagonmagenta.gif	go																								0.0	0.5132539272309999	0.000921964645386	0.484260082245	1.0	a	783.43069315																																		2015_Jun_24_1402	59.94123498	LearningTask	1	65	
166	200.0	w	200.0																	1.0	0.0	1.0	0.0	10.0	2.0	42.0	0.0																													w	1.0	0.384649991989	None	0.0	1.0	diamondgray.gif	go																								0.75	0.514085054398	0.000892162322998	0.384649991989	1.0	w	786.433794975																																		2015_Jun_24_1402	59.94123498	LearningTask	1	65	
167	200.0	s	-200.0																	1.0	0.0	1.0	0.0	10.0	3.0	43.0	2.0																													s	1.0	0.417884111404	None	0.0	4.0	hexagonmagenta.gif	go																								4.05	0.514522075653	0.000900983810425	0.417884111404	1.0	s	789.437308073																																		2015_Jun_24_1402	59.94123498	LearningTask	1	65	
168	200.0	s	-200.0																	1.0	0.0	1.0	0.0	11.0	0.0	44.0	2.0																													s	1.0	0.434344053268	None	0.0	0.5	crossyellow.gif	go																								0.36	0.513944149017	0.0009350776672360002	0.434344053268	1.0	s	792.440675974																																		2015_Jun_24_1402	59.94123498	LearningTask	1	65	
169	-200.0	a	-200.0																	1.0	0.0	1.0	0.0	11.0	1.0	45.0	3.0																													a	1.0	0.501043796539	None	0.0	1.0	squarewhite.gif	stop																								1.02	0.5142171382899999	0.0008909702301030001	0.501043796539	1.0	a	795.443798065																																		2015_Jun_24_1402	59.94123498	LearningTask	1	65	
170	-200.0	q	200.0																	1.0	0.0	1.0	0.0	11.0	2.0	46.0	1.0																													q	1.0	0.5343840122219999	None	0.0	0.5	triangleblue.gif	stop																								0.57	0.514569997787	0.000968933105469	0.5343840122219999	1.0	q	798.447187185																																		2015_Jun_24_1402	59.94123498	LearningTask	1	65	
171	-200.0	q	200.0																	1.0	0.0	1.0	0.0	11.0	3.0	47.0	1.0																													q	1.0	0.46762704849200004	None	0.0	4.0	lineorange.gif	stop																								3.83	0.514664888382	0.0008990764617919999	0.46762704849200004	1.0	q	801.450628042																																		2015_Jun_24_1402	59.94123498	LearningTask	1	65	
172	-200.0	a	-200.0																	1.0	0.0	1.0	0.0	12.0	0.0	48.0	3.0																													a	1.0	0.48479104042099996	None	0.0	1.0	diamondgray.gif	go																								1.14	0.514166116714	0.0010621547699	0.48479104042099996	1.0	a	804.4542651180001																																		2015_Jun_24_1402	59.94123498	LearningTask	1	65	
173	200.0	s	-200.0																	1.0	0.0	1.0	0.0	12.0	1.0	49.0	2.0																													s	1.0	0.400990009308	None	0.0	0.5	triangleblue.gif	stop																								0.65	0.513852119446	0.00125217437744	0.400990009308	1.0	s	807.4583160880001																																		2015_Jun_24_1402	59.94123498	LearningTask	1	65	
174	200.0	s	-200.0																	1.0	0.0	1.0	0.0	12.0	2.0	50.0	2.0																													s	1.0	0.38441085815399995	None	0.0	1.0	squarewhite.gif	stop																								0.96	0.5134711265559999	0.0008931159973139998	0.38441085815399995	1.0	s	810.4608800410001																																		2015_Jun_24_1402	59.94123498	LearningTask	1	65	
175	200.0	w	200.0																	1.0	0.0	1.0	0.0	12.0	3.0	51.0	0.0																													w	1.0	0.367899894714	None	0.0	4.0	lineorange.gif	stop																								3.92	0.513793945312	0.0009360313415529999	0.367899894714	1.0	w	813.4642231460001																																		2015_Jun_24_1402	59.94123498	LearningTask	1	65	
176	200.0	s	-200.0																	1.0	0.0	1.0	0.0	13.0	0.0	52.0	2.0																													s	1.0	0.434195995331	None	0.0	0.5	crossyellow.gif	go																								0.59	0.514327049255	0.0009031295776369999	0.434195995331	1.0	s	816.467538118																																		2015_Jun_24_1402	59.94123498	LearningTask	1	65	
177	200.0	w	200.0																	1.0	0.0	1.0	0.0	13.0	1.0	53.0	0.0																													w	1.0	0.43503379821800003	None	0.0	2.0	invertedtrianglecyan.gif	stop																								0.0	0.513849020004	0.0008931159973139998	0.43503379821800003	1.0	w	819.471160173																																		2015_Jun_24_1402	59.94123498	LearningTask	1	65	
178	200.0	w	200.0																	1.0	0.0	1.0	0.0	13.0	2.0	54.0	0.0																													w	1.0	0.367516040802	None	0.0	4.0	hexagonmagenta.gif	go																								4.12	0.513852119446	0.000909090042114	0.367516040802	1.0	w	822.474775076																																		2015_Jun_24_1402	59.94123498	LearningTask	1	65	
179	-200.0	q	200.0																	1.0	0.0	1.0	0.0	13.0	3.0	55.0	1.0																													q	1.0	0.417484045029	None	0.0	2.0	invertedtrianglecyan.gif	stop																								1.89	0.513913869858	0.0008978843688960001	0.417484045029	1.0	q	825.4777879710001																																		2015_Jun_24_1402	59.94123498	LearningTask	1	65	
180	-200.0	a	-200.0																	1.0	0.0	1.0	0.0	14.0	0.0	56.0	3.0																													a	1.0	0.4846971035	None	0.0	0.5	triangleblue.gif	stop																								0.67	0.514226913452	0.0008950233459470001	0.4846971035	1.0	a	828.481441975																																		2015_Jun_24_1402	59.94123498	LearningTask	1	65	
181	200.0	s	-200.0																	1.0	0.0	1.0	0.0	14.0	1.0	57.0	2.0																													s	1.0	0.417861938477	None	0.0	4.0	lineorange.gif	stop																								4.17	0.513911962509	0.0009059906005860001	0.417861938477	1.0	s	831.4849090580001																																		2015_Jun_24_1402	59.94123498	LearningTask	1	65	
182	200.0	w	200.0																	1.0	0.0	1.0	0.0	14.0	2.0	58.0	0.0																													w	1.0	0.45097112655599997	None	0.0	4.0	lineorange.gif	stop																								0.0	0.5138239860530001	0.000993013381958	0.45097112655599997	1.0	w	834.488085985																																		2015_Jun_24_1402	59.94123498	LearningTask	1	65	
183	-200.0	a	-200.0																	1.0	0.0	1.0	0.0	14.0	3.0	59.0	3.0																													a	1.0	0.48441696167	None	0.0	4.0	lineorange.gif	stop																								4.01	0.513987064362	0.00110411643982	0.48441696167	1.0	a	837.4911320210001																																		2015_Jun_24_1402	59.94123498	LearningTask	1	65	
184	-200.0	q	200.0																	1.0	0.0	1.0	0.0	15.0	0.0	60.0	1.0																													q	1.0	0.45108699798600005	None	0.0	0.5	triangleblue.gif	stop																								0.72	0.5141868591309999	0.0008909702301030001	0.45108699798600005	1.0	q	840.4946739669999																																		2015_Jun_24_1402	59.94123498	LearningTask	1	65	
185	200.0	s	-200.0																	1.0	0.0	1.0	0.0	15.0	1.0	61.0	2.0																													s	1.0	0.434676885605	None	0.0	4.0	hexagonmagenta.gif	go																								3.76	0.514122962952	0.00101208686829	0.434676885605	1.0	s	843.4980289939999																																		2015_Jun_24_1402	59.94123498	LearningTask	1	65	
186	200.0	s	-200.0																	1.0	0.0	1.0	0.0	15.0	2.0	62.0	2.0																													s	1.0	0.367383956909	None	0.0	2.0	circlegreen.gif	go																								0.0	0.514183998108	0.000949144363403	0.367383956909	1.0	s	846.5016989710001																																		2015_Jun_24_1402	59.94123498	LearningTask	1	65	
187	-200.0	a	-200.0																	1.0	0.0	1.0	0.0	15.0	3.0	63.0	3.0																													a	1.0	0.36765480041500004	None	0.0	2.0	invertedtrianglecyan.gif	stop																								1.88	0.513870954514	0.000890016555786	0.36765480041500004	1.0	a	849.504697084																																		2015_Jun_24_1402	59.94123498	LearningTask	1	65	
188	-200.0	a	-200.0																	1.0	0.0	1.0	0.0	16.0	0.0	64.0	3.0																													a	1.0	0.40078091621399997	None	0.0	1.0	squarewhite.gif	stop																								1.22	0.514242887497	0.0009548664093019999	0.40078091621399997	1.0	a	852.508493185																																		2015_Jun_24_1402	59.94123498	LearningTask	1	65	
189	200.0	w	200.0																	1.0	0.0	1.0	0.0	16.0	1.0	65.0	0.0																													w	1.0	0.334571123123	None	0.0	2.0	circlegreen.gif	go																								1.78	0.51323390007	0.00132179260254	0.334571123123	1.0	w	855.511684179																																		2015_Jun_24_1402	59.94123498	LearningTask	1	65	
190	-200.0	q	200.0																	1.0	0.0	1.0	0.0	16.0	2.0	66.0	1.0																													q	1.0	0.40057516098000007	None	0.0	1.0	diamondgray.gif	go																								1.13	0.5142819881440001	0.0009019374847410001	0.40057516098000007	1.0	q	858.514796019																																		2015_Jun_24_1402	59.94123498	LearningTask	1	65	
191	200.0	s	-200.0																	1.0	0.0	1.0	0.0	16.0	3.0	67.0	2.0																													s	1.0	0.368065834045	None	0.0	1.0	squarewhite.gif	stop																								1.01	0.514009952545	0.00102305412292	0.368065834045	1.0	s	861.518274069																																		2015_Jun_24_1402	59.94123498	LearningTask	1	65	
192	200.0	w	200.0																	1.0	0.0	1.0	0.0	17.0	0.0	68.0	0.0																													w	1.0	0.350880146027	None	0.0	0.5	crossyellow.gif	go																								0.73	0.514164924622	0.0008959770202639998	0.350880146027	1.0	w	864.5215210910001																																		2015_Jun_24_1402	59.94123498	LearningTask	1	65	
193	-200.0	a	-200.0																	1.0	0.0	1.0	0.0	17.0	1.0	69.0	3.0																													a	1.0	0.434359073639	None	0.0	2.0	invertedtrianglecyan.gif	stop																								2.1	0.514369010925	0.0008950233459470001	0.434359073639	1.0	a	867.525817156																																		2015_Jun_24_1402	59.94123498	LearningTask	1	65	
194	-200.0	q	200.0																	1.0	0.0	1.0	0.0	17.0	2.0	70.0	1.0																													q	1.0	0.40104413032499997	None	0.0	4.0	hexagonmagenta.gif	go																								3.89	0.5132470130919999	0.0009241104125980002	0.40104413032499997	1.0	q	870.5285670760001																																		2015_Jun_24_1402	59.94123498	LearningTask	1	65	
195	200.0	s	-200.0																	1.0	0.0	1.0	0.0	17.0	3.0	71.0	2.0																													s	1.0	0.367188930511	None	0.0	0.5	triangleblue.gif	stop																								0.0	0.513924121857	0.0010139942169199998	0.36784005165100003	0.0	w	873.531742096	0.57	0.515762090683	0.0009641647338869999	0.367188930511	1.0	s	876.535700083			0.694998025894																								2015_Jun_24_1402	59.94123498	LearningTask	1	65	
196	200.0	w	200.0																	1.0	0.0	1.0	0.0	18.0	0.0	72.0	0.0																													w	1.0	0.501219034195	None	0.0	4.0	hexagonmagenta.gif	go																								0.0	0.513128995895	0.0009140968322749999	0.501219034195	1.0	w	879.538638115																																		2015_Jun_24_1402	59.94123498	LearningTask	1	65	
197	200.0	s	-200.0																	1.0	0.0	1.0	0.0	18.0	1.0	73.0	2.0																													s	1.0	0.350610017776	None	0.0	0.5	triangleblue.gif	stop																								0.69	0.514164924622	0.0009031295776369999	0.350610017776	1.0	s	882.54173398																																		2015_Jun_24_1402	59.94123498	LearningTask	1	65	
198	-200.0	a	-200.0																	1.0	0.0	1.0	0.0	18.0	2.0	74.0	3.0																													a	1.0	0.7348978519439999	None	0.0	0.5	crossyellow.gif	go																								0.33	0.514422893524	0.000962018966675	0.7348978519439999	1.0	a	885.545627117																																		2015_Jun_24_1402	59.94123498	LearningTask	1	65	
199	200.0	w	200.0																	1.0	0.0	1.0	0.0	18.0	3.0	75.0	0.0																													w	1.0	0.40084481239299996	None	0.0	1.0	squarewhite.gif	stop																								1.12	0.513883829117	0.0008919239044189998	0.40084481239299996	1.0	w	888.5487470630001																																		2015_Jun_24_1402	59.94123498	LearningTask	1	65	
200	-200.0	q	200.0																	1.0	0.0	1.0	0.0	19.0	0.0	76.0	1.0																													q	1.0	0.651350021362	None	0.0	4.0	hexagonmagenta.gif	go																								3.91	0.514153957367	0.00120401382446	0.651350021362	1.0	q	891.5519859789999																																		2015_Jun_24_1402	59.94123498	LearningTask	1	65	
201	-200.0	q	200.0																	1.0	0.0	1.0	0.0	19.0	1.0	77.0	1.0																													q	1.0	0.467657804489	None	0.0	2.0	invertedtrianglecyan.gif	stop																								1.86	0.514204978943	0.0009448528289790001	0.467657804489	1.0	q	894.555418015																																		2015_Jun_24_1402	59.94123498	LearningTask	1	65	
202	-200.0	a	-200.0																	1.0	0.0	1.0	0.0	19.0	2.0	78.0	3.0																													a	1.0	0.56822013855	None	0.0	0.5	crossyellow.gif	go																								0.34	0.51410984993	0.0009729862213130002	0.56822013855	1.0	a	897.558897972																																		2015_Jun_24_1402	59.94123498	LearningTask	1	65	
203	200.0	w	200.0																	1.0	0.0	1.0	0.0	19.0	3.0	79.0	0.0																													w	1.0	0.417695999146	None	0.0	2.0	circlegreen.gif	go																								1.92	0.513946771622	0.0009379386901860002	0.417695999146	1.0	w	900.561886072																																		2015_Jun_24_1402	59.94123498	LearningTask	1	65	
204	200.0	w	200.0																	1.0	0.0	1.0	0.0	20.0	0.0	80.0	0.0																													w	1.0	0.38440489769	None	0.0	2.0	circlegreen.gif	go																								2.09	0.5144381523129999	0.00090503692627	0.38440489769	1.0	w	903.565621138																																		2015_Jun_24_1402	59.94123498	LearningTask	1	65	
205	200.0	s	-200.0																	1.0	0.0	1.0	0.0	20.0	1.0	81.0	2.0																													s	1.0	0.35060691833499996	None	0.0	2.0	invertedtrianglecyan.gif	stop																								0.0	0.514240980148	0.000898838043213	0.35060691833499996	1.0	s	906.5689530369999																																		2015_Jun_24_1402	59.94123498	LearningTask	1	65	
206	200.0	s	-200.0																	1.0	0.0	1.0	0.0	20.0	2.0	82.0	2.0																													s	1.0	0.45073795318599996	None	0.0	4.0	lineorange.gif	stop																								4.0	0.514310121536	0.0008981227874760001	0.45073795318599996	1.0	s	909.572367191																																		2015_Jun_24_1402	59.94123498	LearningTask	1	65	
207	-200.0	q	200.0																	1.0	0.0	1.0	0.0	20.0	3.0	83.0	1.0																													q	1.0	0.433810949326	None	0.0	0.5	triangleblue.gif	stop																								0.4	0.514100074768	0.00102400779724	0.433810949326	1.0	q	912.575648069																																		2015_Jun_24_1402	59.94123498	LearningTask	1	65	
208	-200.0	a	-200.0																	1.0	0.0	1.0	0.0	21.0	0.0	84.0	3.0																													a	1.0	0.46797490119900004	None	0.0	4.0	hexagonmagenta.gif	go																								4.15	0.514271020889	0.0008959770202639998	0.46797490119900004	1.0	a	915.579568148																																		2015_Jun_24_1402	59.94123498	LearningTask	1	65	
209	200.0	s	-200.0																	1.0	0.0	1.0	0.0	21.0	1.0	85.0	2.0																													s	1.0	0.40065598487899995	None	0.0	2.0	circlegreen.gif	go																								0.0	0.51368689537	0.0009241104125980002	0.40065598487899995	1.0	s	918.5824670789999																																		2015_Jun_24_1402	59.94123498	LearningTask	1	65	
210	200.0	w	200.0																	1.0	0.0	1.0	0.0	21.0	2.0	86.0	0.0																													w	1.0	0.400696992874	None	0.0	1.0	diamondgray.gif	go																								1.23	0.514224052429	0.000909090042114	0.400696992874	1.0	w	921.5858280660001																																		2015_Jun_24_1402	59.94123498	LearningTask	1	65	
211	200.0	w	200.0																	1.0	0.0	1.0	0.0	21.0	3.0	87.0	0.0																													w	1.0	0.400732040405	None	0.0	1.0	squarewhite.gif	stop																								0.78	0.514345884323	0.0009160041809079999	0.400732040405	1.0	w	924.5891849989999																																		2015_Jun_24_1402	59.94123498	LearningTask	1	65	
212	200.0	w	200.0																	1.0	0.0	1.0	0.0	22.0	0.0	88.0	0.0																													w	1.0	0.41753077506999997	None	0.0	1.0	diamondgray.gif	go																								1.05	0.514026880264	0.0009379386901860002	0.41753077506999997	1.0	w	927.5927619930001																																		2015_Jun_24_1402	59.94123498	LearningTask	1	65	
213	-200.0	a	-200.0																	1.0	0.0	1.0	0.0	22.0	1.0	89.0	3.0																													a	1.0	0.48432803154	None	0.0	1.0	diamondgray.gif	go																								0.0	0.514023065567	0.0009629726409910001	0.48432803154	1.0	a	930.595786095																																		2015_Jun_24_1402	59.94123498	LearningTask	1	65	
214	-200.0	a	-200.0																	1.0	0.0	1.0	0.0	22.0	2.0	90.0	3.0																													a	1.0	0.41745686531099996	None	0.0	4.0	hexagonmagenta.gif	go																								4.05	0.514314889908	0.0009567737579349999	0.41745686531099996	1.0	a	933.599493027																																		2015_Jun_24_1402	59.94123498	LearningTask	1	65	
215	200.0	s	-200.0																	1.0	0.0	1.0	0.0	22.0	3.0	91.0	2.0																													s	1.0	0.367604970932	None	0.0	4.0	lineorange.gif	stop																								4.12	0.513885974884	0.00105094909668	0.367604970932	1.0	s	936.602996111																																		2015_Jun_24_1402	59.94123498	LearningTask	1	65	
216	200.0	w	200.0																	1.0	0.0	1.0	0.0	23.0	0.0	92.0	0.0																													w	1.0	0.417713165283	None	0.0	4.0	hexagonmagenta.gif	go																								3.82	0.513711929321	0.000963926315308	0.417713165283	1.0	w	939.605992079																																		2015_Jun_24_1402	59.94123498	LearningTask	1	65	
217	-200.0	q	200.0																	1.0	0.0	1.0	0.0	23.0	1.0	93.0	1.0																													q	1.0	0.484384059906	None	0.0	0.5	crossyellow.gif	go																								0.73	0.514039039612	0.0009181499481200001	0.484384059906	1.0	q	942.609475136																																		2015_Jun_24_1402	59.94123498	LearningTask	1	65	
218	200.0	s	-200.0																	1.0	0.0	1.0	0.0	23.0	2.0	94.0	2.0																													s	1.0	0.350882053375	None	0.0	1.0	diamondgray.gif	go																								0.91	0.514235019684	0.00089693069458	0.350882053375	1.0	s	945.612714052																																		2015_Jun_24_1402	59.94123498	LearningTask	1	65	
219	-200.0	a	-200.0																	1.0	0.0	1.0	0.0	23.0	3.0	95.0	3.0																													a	1.0	0.38466501236	None	0.0	2.0	circlegreen.gif	go																								1.76	0.513961076736	0.0009360313415529999	0.38466501236	1.0	a	948.616422176																																		2015_Jun_24_1402	59.94123498	LearningTask	1	65	
220	200.0	w	200.0																	1.0	0.0	1.0	0.0	24.0	0.0	96.0	0.0																													w	1.0	0.350602149963	None	0.0	4.0	lineorange.gif	stop																								4.25	0.514017820358	0.0009977817535399998	0.350602149963	1.0	w	951.6197910310001																																		2015_Jun_24_1402	59.94123498	LearningTask	1	65	
221	-200.0	q	200.0																	1.0	0.0	1.0	0.0	24.0	1.0	97.0	1.0																													q	1.0	0.367350101471	None	0.0	4.0	hexagonmagenta.gif	go																								3.99	0.513999938965	0.000988960266113	0.367350101471	1.0	q	954.623520136																																		2015_Jun_24_1402	59.94123498	LearningTask	1	65	
222	200.0	s	-200.0																	1.0	0.0	1.0	0.0	24.0	2.0	98.0	2.0																													s	1.0	0.48445105552699996	None	0.0	1.0	diamondgray.gif	go																								1.03	0.5134479999539999	0.0008940696716310001	0.48445105552699996	1.0	s	957.626563072																																		2015_Jun_24_1402	59.94123498	LearningTask	1	65	
223	-200.0	q	200.0																	1.0	0.0	1.0	0.0	24.0	3.0	99.0	1.0																													q	1.0	0.484545946121	None	0.0	1.0	squarewhite.gif	stop																								1.14	0.514063835144	0.0008869171142580001	0.484545946121	1.0	q	960.629860163																																		2015_Jun_24_1402	59.94123498	LearningTask	1	65	
224																				1.0	0.0	1.0	0.0																																																																														9.0	9.24923300743																									2015_Jun_24_1402	59.94123498	LearningTask	1	65	
225	-200.0	a	-200.0																	2.0	0.0	2.0	0.0	0.0	0.0	0.0	3.0																													a	1.0	0.684719800949	None	0.0	0.5	triangleblue.gif	stop																								0.48	0.509767055511	0.0008878707885739998	0.684719800949	1.0	a	973.594532013																																		2015_Jun_24_1402	59.94123498	LearningTask	1	65	
226	200.0	s	-200.0																	2.0	0.0	2.0	0.0	0.0	1.0	1.0	2.0																													s	1.0	0.417345046997	None	0.0	2.0	invertedtrianglecyan.gif	stop																								2.09	0.514232873917	0.000902891159058	0.417345046997	1.0	s	976.597741127																																		2015_Jun_24_1402	59.94123498	LearningTask	1	65	
227	-200.0	q	200.0																	2.0	0.0	2.0	0.0	0.0	2.0	2.0	1.0																													q	1.0	0.417853116989	None	0.0	0.5	triangleblue.gif	stop																								0.3	0.514409065247	0.0008981227874760001	0.417853116989	1.0	q	979.600932121																																		2015_Jun_24_1402	59.94123498	LearningTask	1	65	
228	-200.0	a	-200.0																	2.0	0.0	2.0	0.0	0.0	3.0	3.0	3.0																													a	1.0	0.500895023346	None	0.0	2.0	circlegreen.gif	go																								1.99	0.5143249034880001	0.0009808540344239999	0.500895023346	1.0	a	982.604699135																																		2015_Jun_24_1402	59.94123498	LearningTask	1	65	
229	-200.0	q	200.0																	2.0	0.0	2.0	0.0	1.0	0.0	4.0	1.0																													q	1.0	0.434152841568	None	0.0	0.5	triangleblue.gif	stop																								0.67	0.514110803604	0.0008978843688960001	0.434152841568	1.0	q	985.607815981																																		2015_Jun_24_1402	59.94123498	LearningTask	1	65	
230	200.0	s	-200.0																	2.0	0.0	2.0	0.0	1.0	1.0	5.0	2.0																													s	1.0	0.38447308540299996	None	0.0	1.0	squarewhite.gif	stop																								1.03	0.5144071578980001	0.0008950233459470001	0.38447308540299996	1.0	s	988.611045122																																		2015_Jun_24_1402	59.94123498	LearningTask	1	65	
231	200.0	s	-200.0																	2.0	0.0	2.0	0.0	1.0	2.0	6.0	2.0																													s	1.0	0.433908939362	None	0.0	0.5	triangleblue.gif	stop																								0.67	0.51441192627	0.0009679794311519998	0.433908939362	1.0	s	991.6149401660001																																		2015_Jun_24_1402	59.94123498	LearningTask	1	65	
232	-200.0	q	200.0																	2.0	0.0	2.0	0.0	1.0	3.0	7.0	1.0																													q	1.0	0.384128093719	None	0.0	0.5	crossyellow.gif	go																								0.75	0.513240098953	0.00101613998413	0.384128093719	1.0	q	994.618059158																																		2015_Jun_24_1402	59.94123498	LearningTask	1	65	
233	-200.0	q	200.0																	2.0	0.0	2.0	0.0	2.0	0.0	8.0	1.0																													q	1.0	0.450935125351	None	0.0	2.0	invertedtrianglecyan.gif	stop																								1.87	0.514112949371	0.000904083251953	0.450935125351	1.0	q	997.6214571																																		2015_Jun_24_1402	59.94123498	LearningTask	1	65	
234	200.0	w	200.0																	2.0	0.0	2.0	0.0	2.0	1.0	9.0	0.0																													w	1.0	0.38393402099600005	None	0.0	2.0	circlegreen.gif	go																								0.0	0.514227867126	0.0009210109710689999	0.38393402099600005	1.0	w	1000.62460113																																		2015_Jun_24_1402	59.94123498	LearningTask	1	65	
235	200.0	w	200.0																	2.0	0.0	2.0	0.0	2.0	2.0	10.0	0.0																													w	1.0	0.45083379745499996	None	0.0	0.5	crossyellow.gif	go																								0.69	0.514375925064	0.00089693069458	0.45083379745499996	1.0	w	1003.62804818																																		2015_Jun_24_1402	59.94123498	LearningTask	1	65	
236	-200.0	a	-200.0																	2.0	0.0	2.0	0.0	2.0	3.0	11.0	3.0																													a	1.0	0.484256029129	None	0.0	1.0	diamondgray.gif	go																								1.1	0.514229059219	0.0008981227874760001	0.484256029129	1.0	a	1006.63192916																																		2015_Jun_24_1402	59.94123498	LearningTask	1	65	
237	-200.0	a	-200.0																	2.0	0.0	2.0	0.0	3.0	0.0	12.0	3.0																													a	1.0	0.450821876526	None	0.0	2.0	circlegreen.gif	go																								1.77	0.513864040375	0.000921964645386	0.450821876526	1.0	a	1009.63486814																																		2015_Jun_24_1402	59.94123498	LearningTask	1	65	
238	200.0	w	200.0																	2.0	0.0	2.0	0.0	3.0	1.0	13.0	0.0																													w	1.0	0.45071101188699997	None	0.0	1.0	squarewhite.gif	stop																								1.25	0.5143840312960001	0.000885009765625	0.45071101188699997	1.0	w	1012.63821101																																		2015_Jun_24_1402	59.94123498	LearningTask	1	65	
239	-200.0	q	200.0																	2.0	0.0	2.0	0.0	3.0	2.0	14.0	1.0																													q	1.0	0.433781862259	None	0.0	2.0	invertedtrianglecyan.gif	stop																								1.83	0.514253854752	0.000917911529541	0.433781862259	1.0	q	1015.6416111																																		2015_Jun_24_1402	59.94123498	LearningTask	1	65	
240	200.0	s	-200.0																	2.0	0.0	2.0	0.0	3.0	3.0	15.0	2.0																													s	1.0	0.401345014572	None	0.0	1.0	diamondgray.gif	go																								1.18	0.5139620304110001	0.0008959770202639998	0.401345014572	1.0	s	1018.64482403																																		2015_Jun_24_1402	59.94123498	LearningTask	1	65	
241	-200.0	a	-200.0																	2.0	0.0	2.0	0.0	4.0	0.0	16.0	3.0																													a	1.0	0.434075117111	None	0.0	2.0	circlegreen.gif	go																								2.22	0.514338970184	0.00104594230652	0.434075117111	1.0	a	1021.64821219																																		2015_Jun_24_1402	59.94123498	LearningTask	1	65	
242	200.0	s	-200.0																	2.0	0.0	2.0	0.0	4.0	1.0	17.0	2.0																													s	1.0	0.38467502594	None	0.0	2.0	circlegreen.gif	go																								1.95	0.514388084412	0.000896215438843	0.38467502594	1.0	s	1024.65190315																																		2015_Jun_24_1402	59.94123498	LearningTask	1	65	
243	200.0	w	200.0																	2.0	0.0	2.0	0.0	4.0	2.0	18.0	0.0																													w	1.0	0.367351055145	None	0.0	4.0	lineorange.gif	stop																								3.94	0.514075040817	0.0008909702301030001	0.367351055145	1.0	w	1027.65509009																																		2015_Jun_24_1402	59.94123498	LearningTask	1	65	
244	-200.0	a	-200.0																	2.0	0.0	2.0	0.0	4.0	3.0	19.0	3.0																													a	1.0	0.534378051758	None	0.0	4.0	lineorange.gif	stop																								4.1	0.514003992081	0.000928163528442	0.534378051758	1.0	a	1030.65839911																																		2015_Jun_24_1402	59.94123498	LearningTask	1	65	
245	-200.0	a	-200.0																	2.0	0.0	2.0	0.0	5.0	0.0	20.0	3.0																													a	1.0	0.43491291999799997	None	0.0	0.5	triangleblue.gif	stop																								0.33	0.51430606842	0.0008990764617919999	0.43491291999799997	1.0	a	1033.66177511																																		2015_Jun_24_1402	59.94123498	LearningTask	1	65	
246	-200.0	a	-200.0																	2.0	0.0	2.0	0.0	5.0	1.0	21.0	3.0																													a	1.0	0.500813007355	None	0.0	1.0	diamondgray.gif	go																								0.0	0.514506101608	0.0008931159973139998	0.500813007355	1.0	a	1036.66533899																																		2015_Jun_24_1402	59.94123498	LearningTask	1	65	
247	200.0	s	-200.0																	2.0	0.0	2.0	0.0	5.0	2.0	22.0	2.0																													s	1.0	0.400522232056	None	0.0	0.5	crossyellow.gif	go																								0.5	0.514292001724	0.000908136367798	0.400522232056	1.0	s	1039.66851401																																		2015_Jun_24_1402	59.94123498	LearningTask	1	65	
248	200.0	s	-200.0																	2.0	0.0	2.0	0.0	5.0	3.0	23.0	2.0																													s	1.0	0.33374595642099997	None	0.0	0.5	crossyellow.gif	go																								0.71	0.514727115631	0.000888109207153	0.33374595642099997	1.0	s	1042.67199802																																		2015_Jun_24_1402	59.94123498	LearningTask	1	65	
249	-200.0	q	200.0																	2.0	0.0	2.0	0.0	6.0	0.0	24.0	1.0																													q	1.0	0.451179027557	None	0.0	2.0	invertedtrianglecyan.gif	stop																								2.02	0.514235973358	0.0008940696716310001	0.451179027557	1.0	q	1045.67553806																																		2015_Jun_24_1402	59.94123498	LearningTask	1	65	
250	200.0	w	200.0																	2.0	0.0	2.0	0.0	6.0	1.0	25.0	0.0																													w	1.0	0.434135913849	None	0.0	2.0	circlegreen.gif	go																								2.09	0.51407122612	0.0008931159973139998	0.434135913849	1.0	w	1048.67893219																																		2015_Jun_24_1402	59.94123498	LearningTask	1	65	
251	200.0	s	-200.0																	2.0	0.0	2.0	0.0	6.0	2.0	26.0	2.0																													s	1.0	0.367239952087	None	0.0	4.0	lineorange.gif	stop																								4.06	0.514245986938	0.000890016555786	0.367239952087	1.0	s	1051.68208313																																		2015_Jun_24_1402	59.94123498	LearningTask	1	65	
252	-200.0	a	-200.0																	2.0	0.0	2.0	0.0	6.0	3.0	27.0	3.0																													a	1.0	0.434261083603	None	0.0	1.0	squarewhite.gif	stop																								1.04	0.514189004898	0.0008938312530519999	0.434261083603	1.0	a	1054.68569303																																		2015_Jun_24_1402	59.94123498	LearningTask	1	65	
253	200.0	s	-200.0																	2.0	0.0	2.0	0.0	7.0	0.0	28.0	2.0																													s	1.0	0.33451795578000004	None	0.0	2.0	circlegreen.gif	go																								1.75	0.514102935791	0.0009019374847410001	0.33451795578000004	1.0	s	1057.68887615																																		2015_Jun_24_1402	59.94123498	LearningTask	1	65	
254	200.0	w	200.0																	2.0	0.0	2.0	0.0	7.0	1.0	29.0	0.0																													w	1.0	0.40113282203699996	None	0.0	0.5	crossyellow.gif	go																								0.75	0.514285087585	0.0008978843688960001	0.40113282203699996	1.0	w	1060.69211316																																		2015_Jun_24_1402	59.94123498	LearningTask	1	65	
255	-200.0	a	-200.0																	2.0	0.0	2.0	0.0	7.0	2.0	30.0	3.0																													a	1.0	0.517643928528	None	0.0	4.0	lineorange.gif	stop																								4.22	0.514534950256	0.000894784927368	0.517643928528	1.0	a	1063.69576097																																		2015_Jun_24_1402	59.94123498	LearningTask	1	65	
256	200.0	w	200.0																	2.0	0.0	2.0	0.0	7.0	3.0	31.0	0.0																													w	1.0	0.38439702987700003	None	0.0	2.0	invertedtrianglecyan.gif	stop																								0.0	0.514298915863	0.00090503692627	0.38439702987700003	1.0	w	1066.69897008																																		2015_Jun_24_1402	59.94123498	LearningTask	1	65	
257	200.0	w	200.0																	2.0	0.0	2.0	0.0	8.0	0.0	32.0	0.0																													w	1.0	0.40087890625	None	0.0	2.0	circlegreen.gif	go																								2.07	0.514233827591	0.0012369155883800002	0.40087890625	1.0	w	1069.70293498																																		2015_Jun_24_1402	59.94123498	LearningTask	1	65	
258	-200.0	a	-200.0																	2.0	0.0	2.0	0.0	8.0	1.0	33.0	3.0																													a	1.0	0.500609874725	None	0.0	0.5	crossyellow.gif	go																								0.41	0.5139780044560001	0.0009129047393799999	0.500609874725	1.0	a	1072.70576																																		2015_Jun_24_1402	59.94123498	LearningTask	1	65	
259	200.0	w	200.0																	2.0	0.0	2.0	0.0	8.0	2.0	34.0	0.0																													w	1.0	0.33407998085	None	0.0	2.0	invertedtrianglecyan.gif	stop																								2.16	0.514276981354	0.000892877578735	0.33407998085	1.0	w	1075.70900917																																		2015_Jun_24_1402	59.94123498	LearningTask	1	65	
260	-200.0	q	200.0																	2.0	0.0	2.0	0.0	8.0	3.0	35.0	1.0																													q	1.0	0.567822217941	None	0.0	1.0	squarewhite.gif	stop																								1.12	0.514084815979	0.000942945480347	0.567822217941	1.0	q	1078.7125360999999																																		2015_Jun_24_1402	59.94123498	LearningTask	1	65	
261	-200.0	a	-200.0																	2.0	0.0	2.0	0.0	9.0	0.0	36.0	3.0																													a	1.0	0.434531927109	None	0.0	1.0	squarewhite.gif	stop																								0.0	0.514313220978	0.000923156738281	0.434531927109	1.0	a	1081.71603107																																		2015_Jun_24_1402	59.94123498	LearningTask	1	65	
262	-200.0	a	-200.0																	2.0	0.0	2.0	0.0	9.0	1.0	37.0	3.0																													a	1.0	0.467624902725	None	0.0	4.0	lineorange.gif	stop																								0.0	0.514117956161	0.000902891159058	0.467624902725	1.0	a	1084.71948719																																		2015_Jun_24_1402	59.94123498	LearningTask	1	65	
263	-200.0	q	200.0																	2.0	0.0	2.0	0.0	9.0	2.0	38.0	1.0																													q	1.0	0.500838041306	None	0.0	1.0	diamondgray.gif	go																								1.02	0.513799190521	0.000923156738281	0.500838041306	1.0	q	1087.72253203																																		2015_Jun_24_1402	59.94123498	LearningTask	1	65	
264	200.0	w	200.0																	2.0	0.0	2.0	0.0	9.0	3.0	39.0	0.0																													w	1.0	0.40103006362899996	None	0.0	4.0	lineorange.gif	stop																								0.0	0.514287948608	0.000992059707642	0.40103006362899996	1.0	w	1090.72604203																																		2015_Jun_24_1402	59.94123498	LearningTask	1	65	
265	-200.0	q	200.0																	2.0	0.0	2.0	0.0	10.0	0.0	40.0	1.0																													q	1.0	0.468125104904	None	0.0	0.5	triangleblue.gif	stop																								0.5	0.514232873917	0.0008909702301030001	0.468125104904	1.0	q	1093.72997713																																		2015_Jun_24_1402	59.94123498	LearningTask	1	65	
266	-200.0	a	-200.0																	2.0	0.0	2.0	0.0	10.0	1.0	41.0	3.0																													a	1.0	0.45066499710100005	None	0.0	1.0	squarewhite.gif	stop																								1.14	0.513494968414	0.000923156738281	0.45066499710100005	1.0	a	1096.7328701																																		2015_Jun_24_1402	59.94123498	LearningTask	1	65	
267	-200.0	q	200.0																	2.0	0.0	2.0	0.0	10.0	2.0	42.0	1.0																													q	1.0	0.36725091934199994	None	0.0	0.5	triangleblue.gif	stop																								0.0	0.514183998108	0.0008940696716310001	0.36725091934199994	1.0	q	1099.73621702																																		2015_Jun_24_1402	59.94123498	LearningTask	1	65	
268	200.0	w	200.0																	2.0	0.0	2.0	0.0	10.0	3.0	43.0	0.0																													w	1.0	0.333650112152	None	0.0	0.5	triangleblue.gif	stop																								0.67	0.514514923096	0.0009150505065920001	0.333650112152	1.0	w	1102.73972297																																		2015_Jun_24_1402	59.94123498	LearningTask	1	65	
269	-200.0	a	-200.0																	2.0	0.0	2.0	0.0	11.0	0.0	44.0	3.0																													a	1.0	0.38365387916599997	None	0.0	2.0	invertedtrianglecyan.gif	stop																								2.17	0.5142378807069999	0.0009520053863530001	0.38365387916599997	1.0	a	1105.74305701																																		2015_Jun_24_1402	59.94123498	LearningTask	1	65	
270	200.0	s	-200.0																	2.0	0.0	2.0	0.0	11.0	1.0	45.0	2.0																													s	1.0	0.38411402702299996	None	0.0	0.5	triangleblue.gif	stop																								0.67	0.514130115509	0.00115203857422	0.38411402702299996	1.0	s	1108.74605608																																		2015_Jun_24_1402	59.94123498	LearningTask	1	65	
271	200.0	s	-200.0																	2.0	0.0	2.0	0.0	11.0	2.0	46.0	2.0																													s	1.0	0.38434290885899997	None	0.0	1.0	squarewhite.gif	stop																								1.21	0.513946056366	0.0009059906005860001	0.38434290885899997	1.0	s	1111.74967909																																		2015_Jun_24_1402	59.94123498	LearningTask	1	65	
272	200.0	w	200.0																	2.0	0.0	2.0	0.0	11.0	3.0	47.0	0.0																													w	1.0	0.35102510452299995	None	0.0	4.0	lineorange.gif	stop																								3.89	0.5142600536349999	0.000930070877075	0.35102510452299995	1.0	w	1114.75271201																																		2015_Jun_24_1402	59.94123498	LearningTask	1	65	
273	-200.0	q	200.0																	2.0	0.0	2.0	0.0	12.0	0.0	48.0	1.0																													q	1.0	0.384345054626	None	0.0	2.0	circlegreen.gif	go																								0.0	0.51433801651	0.0011210441589400001	0.384345054626	1.0	q	1117.75644708																																		2015_Jun_24_1402	59.94123498	LearningTask	1	65	
274	-200.0	q	200.0																	2.0	0.0	2.0	0.0	12.0	1.0	49.0	1.0																													q	1.0	0.38434100151100004	None	0.0	1.0	squarewhite.gif	stop																								0.88	0.514456033707	0.000881910324097	0.38434100151100004	1.0	q	1120.75971198																																		2015_Jun_24_1402	59.94123498	LearningTask	1	65	
275	-200.0	q	200.0																	2.0	0.0	2.0	0.0	12.0	2.0	50.0	1.0																													q	1.0	0.468119859695	None	0.0	4.0	hexagonmagenta.gif	go																								3.95	0.514248132706	0.0008981227874760001	0.468119859695	1.0	q	1123.76299596																																		2015_Jun_24_1402	59.94123498	LearningTask	1	65	
276	200.0	w	200.0																	2.0	0.0	2.0	0.0	12.0	3.0	51.0	0.0																													w	1.0	0.417917013168	None	0.0	0.5	crossyellow.gif	go																								0.47	0.514174938202	0.0013628005981400002	0.417917013168	1.0	w	1126.76669812																																		2015_Jun_24_1402	59.94123498	LearningTask	1	65	
277	-200.0	a	-200.0																	2.0	0.0	2.0	0.0	13.0	0.0	52.0	3.0																													a	1.0	0.384393930435	None	0.0	2.0	invertedtrianglecyan.gif	stop																								1.79	0.5141398906710001	0.000917911529541	0.384393930435	1.0	a	1129.77000213																																		2015_Jun_24_1402	59.94123498	LearningTask	1	65	
278	200.0	w	200.0																	2.0	0.0	2.0	0.0	13.0	1.0	53.0	0.0																													w	1.0	0.334632873535	None	0.0	0.5	triangleblue.gif	stop																								0.53	0.513801813126	0.0009448528289790001	0.334632873535	1.0	w	1132.77347612																																		2015_Jun_24_1402	59.94123498	LearningTask	1	65	
279	-200.0	q	200.0																	2.0	0.0	2.0	0.0	13.0	2.0	54.0	1.0																													q	1.0	0.434354066849	None	0.0	2.0	circlegreen.gif	go																								1.86	0.51359295845	0.0009119510650630002	0.434354066849	1.0	q	1135.77662802																																		2015_Jun_24_1402	59.94123498	LearningTask	1	65	
280	200.0	w	200.0																	2.0	0.0	2.0	0.0	13.0	3.0	55.0	0.0																													w	1.0	0.367394924164	None	0.0	2.0	circlegreen.gif	go																								1.89	0.514167070389	0.0009031295776369999	0.367394924164	1.0	w	1138.78021407																																		2015_Jun_24_1402	59.94123498	LearningTask	1	65	
281	200.0	w	200.0																	2.0	0.0	2.0	0.0	14.0	0.0	56.0	0.0																													w	1.0	0.333623170853	None	0.0	1.0	squarewhite.gif	stop																								1.14	0.514369010925	0.000888109207153	0.333623170853	1.0	w	1141.78387713																																		2015_Jun_24_1402	59.94123498	LearningTask	1	65	
282	200.0	w	200.0																	2.0	0.0	2.0	0.0	14.0	1.0	57.0	0.0																													w	1.0	0.334070920944	None	0.0	1.0	squarewhite.gif	stop																								1.02	0.5137360095979999	0.00088906288147	0.334070920944	1.0	w	1144.78670216																																		2015_Jun_24_1402	59.94123498	LearningTask	1	65	
283	200.0	s	-200.0																	2.0	0.0	2.0	0.0	14.0	2.0	58.0	2.0																													s	1.0	0.43417501449600004	None	0.0	1.0	squarewhite.gif	stop																								0.0	0.514512062073	0.0008971691131589999	0.43417501449600004	1.0	s	1147.79005504																																		2015_Jun_24_1402	59.94123498	LearningTask	1	65	
284	-200.0	a	-200.0																	2.0	0.0	2.0	0.0	14.0	3.0	59.0	3.0																													a	1.0	0.383990049362	None	0.0	4.0	hexagonmagenta.gif	go																								4.25	0.514441013336	0.0008981227874760001	0.383990049362	1.0	a	1150.79342508																																		2015_Jun_24_1402	59.94123498	LearningTask	1	65	
285	-200.0	a	-200.0																	2.0	0.0	2.0	0.0	15.0	0.0	60.0	3.0																													a	1.0	0.434239149094	None	0.0	0.5	crossyellow.gif	go																								0.32	0.514338970184	0.000988960266113	0.434239149094	1.0	a	1153.79692507																																		2015_Jun_24_1402	59.94123498	LearningTask	1	65	
286	200.0	s	-200.0																	2.0	0.0	2.0	0.0	15.0	1.0	61.0	2.0																													s	1.0	0.400676012039	None	0.0	0.5	crossyellow.gif	go																								0.67	0.514178991318	0.0012068748474100002	0.400676012039	1.0	s	1156.80008006																																		2015_Jun_24_1402	59.94123498	LearningTask	1	65	
287	200.0	s	-200.0																	2.0	0.0	2.0	0.0	15.0	2.0	62.0	2.0																													s	1.0	0.467609882355	None	0.0	1.0	diamondgray.gif	go																								0.86	0.514470100403	0.0008950233459470001	0.467609882355	1.0	s	1159.80408406																																		2015_Jun_24_1402	59.94123498	LearningTask	1	65	
288	-200.0	q	200.0																	2.0	0.0	2.0	0.0	15.0	3.0	63.0	1.0																													q	1.0	0.517410039902	None	0.0	0.5	triangleblue.gif	stop																								0.65	0.5141038894650001	0.0009589195251460001	0.517410039902	1.0	q	1162.80705714																																		2015_Jun_24_1402	59.94123498	LearningTask	1	65	
289	200.0	w	200.0																	2.0	0.0	2.0	0.0	16.0	0.0	64.0	0.0																													w	1.0	0.4341809749600001	None	0.0	1.0	squarewhite.gif	stop																								0.0	0.514101982117	0.000918865203857	0.4341809749600001	1.0	w	1165.81042004																																		2015_Jun_24_1402	59.94123498	LearningTask	1	65	
290	200.0	s	-200.0																	2.0	0.0	2.0	0.0	16.0	1.0	65.0	2.0																													s	1.0	0.350613117218	None	0.0	4.0	hexagonmagenta.gif	go																								0.0	0.514123916626	0.0008990764617919999	0.350613117218	1.0	s	1168.8138689999998																																		2015_Jun_24_1402	59.94123498	LearningTask	1	65	
291	200.0	w	200.0																	2.0	0.0	2.0	0.0	16.0	2.0	66.0	0.0																													w	1.0	0.384104013443	None	0.0	4.0	lineorange.gif	stop																								4.04	0.51429104805	0.0008919239044189998	0.384104013443	1.0	w	1171.81703115																																		2015_Jun_24_1402	59.94123498	LearningTask	1	65	
292	200.0	s	-200.0																	2.0	0.0	2.0	0.0	16.0	3.0	67.0	2.0																													s	1.0	0.417438030243	None	0.0	1.0	diamondgray.gif	go																								0.0	0.514307975769	0.000938892364502	0.417438030243	1.0	s	1174.82059503																																		2015_Jun_24_1402	59.94123498	LearningTask	1	65	
293	200.0	s	-200.0																	2.0	0.0	2.0	0.0	17.0	0.0	68.0	2.0																													s	1.0	0.36734890937799997	None	0.0	2.0	invertedtrianglecyan.gif	stop																								1.78	0.5143561363220001	0.0008931159973139998	0.36734890937799997	1.0	s	1177.82396603																																		2015_Jun_24_1402	59.94123498	LearningTask	1	65	
