	accuracy	block	chosen_bidding_amount	chosen_bidding_level	left_SSD	num_trial_presentations	paired_with_stopping	possible_bid_1	possible_bid_2	possible_bid_3	possible_bid_4	possible_bid_5	possible_bid_6	quadrant	raw_reward_magnitude	reaction_time	response	right_SSD	stepwise_reward_magnitude	stim_color	stim_reward	stim_shape	stop_signal_trial_type	which_part
0		1.0				1.0	0.0							4.0	41.0	0.49453142064157873	4.0		1.0	8.0	1.0	4.0		part_1
1		1.0				1.0	0.0							2.0	0.0	0.4182185774552636	2.0		0.0	2.0	4.0	6.0		part_1
2		1.0				1.0	0.0							4.0	414.0	0.3950000614859164	4.0		4.0	2.0	4.0	6.0		part_1
3		1.0				1.0	0.0							2.0	0.0	0.340666405914817	2.0		0.0	6.0	3.0	5.0		part_1
4		1.0				1.0	0.0							3.0	118.0	0.38378116744570434	3.0		2.0	1.0	2.0	7.0		part_1
5		1.0				1.0	1.0							3.0	215.0	0.36213438952108845	3.0		3.0	3.0	7.0	1.0		part_1
6		1.0				1.0	0.0							4.0	402.0	0.3527637106599286	4.0		4.0	2.0	4.0	6.0		part_1
7		1.0				1.0	1.0							3.0	57.0	0.34082223748555407	3.0		1.0	4.0	5.0	2.0		part_1
8		1.0				1.0	0.0							3.0	56.0	0.36497743119252846	3.0		1.0	8.0	1.0	4.0		part_1
9		1.0				1.0	1.0							4.0	117.0	0.4330378444865346	4.0		2.0	7.0	6.0	3.0		part_1
10		1.0				1.0	1.0							4.0	178.0	0.3541216949233785	4.0		3.0	3.0	7.0	1.0		part_1
11		1.0				1.0	1.0							3.0	414.0	0.3104535950697027	3.0		4.0	5.0	8.0	8.0		part_1
12		1.0				1.0	0.0							4.0	0.0	0.32101588777732104	4.0		0.0	6.0	3.0	5.0		part_1
13		1.0				1.0	0.0							2.0	0.0	0.3451493608299643	2.0		0.0	6.0	3.0	5.0		part_1
14		1.0				1.0	0.0							3.0	402.0	0.3448774332064204	3.0		4.0	2.0	4.0	6.0		part_1
15		1.0				1.0	1.0							2.0	407.0	0.3815118134371005	2.0		4.0	5.0	8.0	8.0		part_1
16		1.0				1.0	0.0							1.0	0.0	0.3591361034777947	1.0		0.0	6.0	3.0	5.0		part_1
17		1.0				1.0	0.0							4.0	0.0	0.3360151763772592	4.0		0.0	2.0	4.0	6.0		part_1
18		1.0				1.0	0.0							4.0	193.0	0.33713424467714503	4.0		3.0	6.0	3.0	5.0		part_1
19		1.0				1.0	1.0							2.0	74.0	0.35958818590734154	2.0		1.0	4.0	5.0	2.0		part_1
20		1.0				1.0	1.0							3.0	86.0	0.3379332043696195	3.0		2.0	7.0	6.0	3.0		part_1
21		1.0				1.0	1.0							3.0	194.0	0.35024207417154685	3.0		3.0	3.0	7.0	1.0		part_1
22		1.0				1.0	0.0							3.0	86.0	0.3614512074855156	3.0		2.0	1.0	2.0	7.0		part_1
23		1.0				1.0	1.0							4.0	198.0	0.3061480129836127	4.0		3.0	3.0	7.0	1.0		part_1
24		1.0				1.0	0.0							4.0	0.0	0.3844378814683296	4.0		0.0	8.0	1.0	4.0		part_1
25		1.0				1.0	1.0							1.0	30.0	0.3172079081996344	1.0		1.0	4.0	5.0	2.0		part_1
26		1.0				1.0	1.0							2.0	41.0	0.3643785737804137	2.0		1.0	4.0	5.0	2.0		part_1
27		1.0				1.0	1.0							4.0	0.0	0.34113922907272354	4.0		0.0	4.0	5.0	2.0		part_1
28		1.0				1.0	1.0							3.0	0.0	0.3542035907157697	3.0		0.0	3.0	7.0	1.0		part_1
29		1.0				1.0	1.0							4.0	200.0	0.3313491076696664	4.0		3.0	3.0	7.0	1.0		part_1
30		1.0				1.0	0.0							1.0	384.0	0.32142526120878756	1.0		4.0	2.0	4.0	6.0		part_1
31		1.0				1.0	0.0							1.0	108.0	0.35639030393213034	1.0		2.0	1.0	2.0	7.0		part_1
32		1.0				1.0	0.0							1.0	121.0	0.34398111794143915	1.0		2.0	1.0	2.0	7.0		part_1
33		1.0				1.0	1.0							3.0	378.0	0.37833513075020164	3.0		4.0	5.0	8.0	8.0		part_1
34		1.0				1.0	0.0							4.0	69.0	0.38062202150467783	4.0		1.0	8.0	1.0	4.0		part_1
35		1.0				1.0	0.0							2.0	182.0	0.3922987988917157	2.0		3.0	6.0	3.0	5.0		part_1
36		1.0				1.0	1.0							3.0	402.0	0.33551805472234264	3.0		4.0	5.0	8.0	8.0		part_1
37		1.0				1.0	1.0							4.0	108.0	0.313430997019168	4.0		2.0	7.0	6.0	3.0		part_1
38		1.0				1.0	0.0							1.0	414.0	0.2927388558164239	1.0		4.0	2.0	4.0	6.0		part_1
39		1.0				1.0	1.0							4.0	419.0	0.31489487283397466	4.0		4.0	5.0	8.0	8.0		part_1
40		1.0				1.0	0.0							1.0	385.0	0.31483205885160714	1.0		4.0	2.0	4.0	6.0		part_1
41		1.0				1.0	0.0							4.0	425.0	0.3032747067627497	4.0		4.0	2.0	4.0	6.0		part_1
42		1.0				1.0	1.0							2.0	197.0	0.3046545919496566	2.0		3.0	3.0	7.0	1.0		part_1
43		1.0				1.0	0.0							3.0	211.0	0.294114179094322	3.0		3.0	6.0	3.0	5.0		part_1
44		1.0				1.0	0.0							4.0	53.0	0.362301146495156	4.0		1.0	8.0	1.0	4.0		part_1
45		1.0				1.0	1.0							2.0	47.0	0.3967622884083539	2.0		1.0	4.0	5.0	2.0		part_1
46		1.0				1.0	1.0							2.0	125.0	0.35338298842543736	2.0		2.0	7.0	6.0	3.0		part_1
47		1.0				1.0	0.0							4.0	65.0	0.34223597683012486	4.0		1.0	8.0	1.0	4.0		part_1
48		1.0				1.0	0.0							3.0	0.0	0.37623010081006214	3.0		0.0	8.0	1.0	4.0		part_1
49		1.0				1.0	0.0							2.0	120.0	0.3083051037392579	2.0		2.0	1.0	2.0	7.0		part_1
50		1.0				1.0	0.0							4.0	99.0	0.35432919807499275	4.0		2.0	1.0	2.0	7.0		part_1
51		1.0				1.0	0.0							3.0	414.0	0.3992723128176294	3.0		4.0	2.0	4.0	6.0		part_1
52		1.0				1.0	1.0							3.0	209.0	0.366073721437715	3.0		3.0	3.0	7.0	1.0		part_1
53		1.0				1.0	1.0							2.0	178.0	0.37967664492316544	2.0		3.0	3.0	7.0	1.0		part_1
54		1.0				1.0	0.0							1.0	204.0	0.38036478345748037	1.0		3.0	6.0	3.0	5.0		part_1
55		1.0				1.0	0.0							4.0	120.0	0.39156182046281174	4.0		2.0	1.0	2.0	7.0		part_1
56		1.0				1.0	1.0							3.0	64.0	0.3463727597845718	3.0		1.0	4.0	5.0	2.0		part_1
57		1.0				1.0	0.0							2.0	114.0	0.3483949443907477	2.0		2.0	1.0	2.0	7.0		part_1
58		1.0				2.0	1.0							4.0	384.0	0.38069124275352806	4.0		4.0	5.0	8.0	8.0		part_1
59		1.0				1.0	0.0							1.0	0.0	0.39277927397051826	1.0		0.0	8.0	1.0	4.0		part_1
60		1.0				1.0	0.0							1.0	191.0	0.4273516646353528	1.0		3.0	6.0	3.0	5.0		part_1
61		1.0				1.0	1.0							2.0	101.0	0.32731709274230525	2.0		2.0	7.0	6.0	3.0		part_1
62		1.0				1.0	0.0							2.0	219.0	0.417325321235694	2.0		3.0	6.0	3.0	5.0		part_1
63		1.0				1.0	1.0							4.0	414.0	0.5415436224429868	4.0		4.0	5.0	8.0	8.0		part_1
64		1.0				1.0	0.0							2.0	407.0	0.4743633859907277	2.0		4.0	2.0	4.0	6.0		part_1
65		1.0				1.0	1.0							1.0	82.0	0.3632856869371608	1.0		2.0	7.0	6.0	3.0		part_1
66		1.0				1.0	1.0							1.0	381.0	0.4085538166691549	1.0		4.0	5.0	8.0	8.0		part_1
67		1.0				1.0	0.0							4.0	199.0	0.40866475825896487	4.0		3.0	6.0	3.0	5.0		part_1
68		1.0				1.0	1.0							1.0	382.0	0.33090792258735746	1.0		4.0	5.0	8.0	8.0		part_1
69		1.0				1.0	1.0							1.0	381.0	0.3778477996820584	1.0		4.0	5.0	8.0	8.0		part_1
70		1.0				1.0	1.0							1.0	414.0	0.31030304270097986	1.0		4.0	5.0	8.0	8.0		part_1
71		1.0				1.0	1.0							1.0	99.0	0.4793271786766127	1.0		2.0	7.0	6.0	3.0		part_1
72		1.0				1.0	0.0							2.0	396.0	0.40099315490806475	2.0		4.0	2.0	4.0	6.0		part_1
73		1.0				1.0	0.0							3.0	0.0	0.33343889069510624	3.0		0.0	1.0	2.0	7.0		part_1
74		1.0				1.0	1.0							3.0	0.0	0.4463441609404981	3.0		0.0	3.0	7.0	1.0		part_1
75		1.0				1.0	0.0							1.0	0.0	0.3917868419084698	1.0		0.0	6.0	3.0	5.0		part_1
76		1.0				1.0	0.0							2.0	117.0	0.33531317894812673	2.0		2.0	1.0	2.0	7.0		part_1
77		1.0				1.0	0.0							3.0	377.0	0.41361222218256444	3.0		4.0	2.0	4.0	6.0		part_1
78		1.0				1.0	1.0							2.0	0.0	0.3260054999263957	2.0		0.0	7.0	6.0	3.0		part_1
79		1.0				1.0	1.0							2.0	424.0	0.3151589641929604	2.0		4.0	5.0	8.0	8.0		part_1
80		1.0				1.0	0.0							3.0	0.0	0.438283771451097	3.0		0.0	1.0	2.0	7.0		part_1
81		1.0				1.0	0.0							1.0	105.0	0.34920752368634567	1.0		2.0	1.0	2.0	7.0		part_1
82		1.0				1.0	1.0							2.0	397.0	0.36236421443754807	2.0		4.0	5.0	8.0	8.0		part_1
83		1.0				1.0	1.0							3.0	0.0	0.3390378234325908	3.0		0.0	7.0	6.0	3.0		part_1
84		1.0				1.0	1.0							3.0	105.0	0.3731584642082453	3.0		2.0	7.0	6.0	3.0		part_1
85		1.0				1.0	1.0							2.0	0.0	0.3306432520621456	2.0		0.0	3.0	7.0	1.0		part_1
86		1.0				1.0	1.0							3.0	32.0	0.38566506520146504	3.0		1.0	4.0	5.0	2.0		part_1
87		1.0				1.0	0.0							2.0	179.0	0.3308979654102586	2.0		3.0	6.0	3.0	5.0		part_1
88		1.0				1.0	0.0							3.0	419.0	0.4766460586688481	3.0		4.0	2.0	4.0	6.0		part_1
89		1.0				1.0	1.0							4.0	219.0	0.3772851866669953	4.0		3.0	3.0	7.0	1.0		part_1
90		1.0				1.0	1.0							4.0	188.0	0.39836332749109715	4.0		3.0	3.0	7.0	1.0		part_1
91		1.0				1.0	0.0							1.0	44.0	0.4897478837519884	1.0		1.0	8.0	1.0	4.0		part_1
92		1.0				1.0	1.0							4.0	72.0	0.5020353242871352	4.0		1.0	4.0	5.0	2.0		part_1
93		1.0				1.0	0.0							2.0	214.0	0.3348140754387714	2.0		3.0	6.0	3.0	5.0		part_1
94		1.0				1.0	1.0							1.0	29.0	0.42391594854416326	1.0		1.0	4.0	5.0	2.0		part_1
95		1.0				1.0	0.0							4.0	211.0	0.4016262340010144	4.0		3.0	6.0	3.0	5.0		part_1
96		1.0				1.0	0.0							4.0	29.0	0.37968045088928193	4.0		1.0	8.0	1.0	4.0		part_1
97		1.0				1.0	1.0							3.0	86.0	0.42578874569153413	3.0		2.0	7.0	6.0	3.0		part_1
98		1.0				1.0	0.0							4.0	386.0	0.4480217360542156	4.0		4.0	2.0	4.0	6.0		part_1
99		1.0				1.0	1.0							4.0	36.0	0.38084547471953556	4.0		1.0	4.0	5.0	2.0		part_1
100		2.0				1.0	0.0							2.0	0.0	0.4107978096581064	2.0		0.0	1.0	2.0	7.0		part_1
101		2.0				1.0	0.0							1.0	32.0	0.37656808766769245	1.0		1.0	8.0	1.0	4.0		part_1
102		2.0				1.0	1.0							4.0	0.0	0.36682672845199704	4.0		0.0	4.0	5.0	2.0		part_1
103		2.0				1.0	1.0							4.0	81.0	0.3550271332496777	4.0		2.0	7.0	6.0	3.0		part_1
104		2.0				1.0	1.0							3.0	424.0	0.342885211808607	3.0		4.0	5.0	8.0	8.0		part_1
105		2.0				1.0	1.0							4.0	0.0	0.3333700198563747	4.0		0.0	5.0	8.0	8.0		part_1
106		2.0				1.0	1.0							1.0	76.0	0.35724499908974394	1.0		2.0	7.0	6.0	3.0		part_1
107		2.0				1.0	0.0							3.0	209.0	0.35676037101075053	3.0		3.0	6.0	3.0	5.0		part_1
108		2.0				1.0	0.0							2.0	124.0	0.4147800874779932	2.0		2.0	1.0	2.0	7.0		part_1
109		2.0				1.0	0.0							4.0	84.0	0.3801730668055825	4.0		2.0	1.0	2.0	7.0		part_1
110		2.0				1.0	0.0							3.0	57.0	0.34644776867935434	3.0		1.0	8.0	1.0	4.0		part_1
111		2.0				1.0	1.0							4.0	43.0	0.37003503553569317	4.0		1.0	4.0	5.0	2.0		part_1
112		2.0				1.0	0.0							3.0	0.0	0.3712155610555783	3.0		0.0	6.0	3.0	5.0		part_1
113		2.0				1.0	0.0							2.0	101.0	0.34895423921989277	2.0		2.0	1.0	2.0	7.0		part_1
114		2.0				1.0	1.0							4.0	86.0	0.36160205106716603	4.0		2.0	7.0	6.0	3.0		part_1
115		2.0				1.0	0.0							4.0	0.0	0.36084877472603694	4.0		0.0	6.0	3.0	5.0		part_1
116		2.0				1.0	1.0							3.0	55.0	0.36148200323805213	3.0		1.0	4.0	5.0	2.0		part_1
117		2.0				1.0	1.0							2.0	0.0	0.35185880050994456	2.0		0.0	7.0	6.0	3.0		part_1
118		2.0				1.0	1.0							2.0	67.0	0.3290752170723863	2.0		1.0	4.0	5.0	2.0		part_1
119		2.0				1.0	0.0							3.0	86.0	0.38699283078312874	3.0		2.0	1.0	2.0	7.0		part_1
120		2.0				1.0	1.0							4.0	200.0	0.3541331460583024	4.0		3.0	3.0	7.0	1.0		part_1
121		2.0				1.0	1.0							3.0	121.0	0.3643680329550989	3.0		2.0	7.0	6.0	3.0		part_1
122		2.0				1.0	1.0							4.0	394.0	0.3656256329268217	4.0		4.0	5.0	8.0	8.0		part_1
123		2.0				1.0	0.0							1.0	90.0	0.39921906974632293	1.0		2.0	1.0	2.0	7.0		part_1
124		2.0				1.0	0.0							3.0	389.0	0.3891467596986331	3.0		4.0	2.0	4.0	6.0		part_1
125		2.0				1.0	1.0							2.0	97.0	0.34427982452325523	2.0		2.0	7.0	6.0	3.0		part_1
126		2.0				1.0	1.0							3.0	193.0	0.42252474767155945	3.0		3.0	3.0	7.0	1.0		part_1
127		2.0				1.0	1.0							1.0	0.0	0.3900252747698687	1.0		0.0	3.0	7.0	1.0		part_1
128		2.0				1.0	1.0							2.0	0.0	0.3130063490825705	2.0		0.0	7.0	6.0	3.0		part_1
129		2.0				1.0	0.0							2.0	0.0	0.3594302642159164	2.0		0.0	8.0	1.0	4.0		part_1
130		2.0				1.0	0.0							1.0	47.0	0.3601175576332025	1.0		1.0	8.0	1.0	4.0		part_1
131		2.0				1.0	0.0							2.0	381.0	0.30243696173420176	2.0		4.0	2.0	4.0	6.0		part_1
132		2.0				1.0	1.0							2.0	389.0	0.34814889467088506	2.0		4.0	5.0	8.0	8.0		part_1
133		2.0				1.0	1.0							4.0	209.0	0.6186729116598144	4.0		3.0	3.0	7.0	1.0		part_1
134		2.0				1.0	0.0							2.0	198.0	0.3730673270765692	2.0		3.0	6.0	3.0	5.0		part_1
135		2.0				1.0	1.0							4.0	187.0	0.5408921682392247	4.0		3.0	3.0	7.0	1.0		part_1
136		2.0				1.0	0.0							2.0	381.0	0.3521179697709158	2.0		4.0	2.0	4.0	6.0		part_1
137		2.0				1.0	1.0							2.0	179.0	0.39702421793481335	2.0		3.0	3.0	7.0	1.0		part_1
138		2.0				1.0	1.0							2.0	0.0	0.5442444817745127	2.0		0.0	5.0	8.0	8.0		part_1
139		2.0				1.0	1.0							4.0	72.0	0.36293497192673385	4.0		1.0	4.0	5.0	2.0		part_1
140		2.0				1.0	1.0							4.0	65.0	0.3523823267314583	4.0		1.0	4.0	5.0	2.0		part_1
141		2.0				1.0	1.0							1.0	56.0	0.3543579601100646	1.0		1.0	4.0	5.0	2.0		part_1
142		2.0				1.0	0.0							1.0	218.0	0.41075791680486873	1.0		3.0	6.0	3.0	5.0		part_1
143		2.0				1.0	1.0							2.0	26.0	0.35586937167681754	2.0		1.0	4.0	5.0	2.0		part_1
144		2.0				1.0	0.0							3.0	185.0	0.3988362466916442	3.0		3.0	6.0	3.0	5.0		part_1
145		2.0				1.0	1.0							3.0	414.0	0.35523681121412665	3.0		4.0	5.0	8.0	8.0		part_1
146		2.0				1.0	1.0							4.0	0.0	0.38936237420421094	4.0		0.0	3.0	7.0	1.0		part_1
147		2.0				1.0	1.0							4.0	0.0	0.4014157283818349	4.0		0.0	5.0	8.0	8.0		part_1
148		2.0				1.0	1.0							2.0	0.0	0.3691380074014887	2.0		0.0	3.0	7.0	1.0		part_1
149		2.0				1.0	0.0							4.0	408.0	0.43627281818771735	4.0		4.0	2.0	4.0	6.0		part_1
150		2.0				1.0	0.0							3.0	209.0	0.3459894189145416	3.0		3.0	6.0	3.0	5.0		part_1
151		2.0				1.0	0.0							3.0	99.0	0.4149192054173909	3.0		2.0	1.0	2.0	7.0		part_1
152		2.0				1.0	0.0							4.0	418.0	0.42774872411973774	4.0		4.0	2.0	4.0	6.0		part_1
153		2.0				1.0	0.0							4.0	86.0	0.45097415370400995	4.0		2.0	1.0	2.0	7.0		part_1
154		2.0				1.0	0.0							1.0	215.0	0.46263473673025146	1.0		3.0	6.0	3.0	5.0		part_1
155		2.0				1.0	0.0							2.0	72.0	0.40711545618250966	2.0		1.0	8.0	1.0	4.0		part_1
156		2.0				1.0	0.0							2.0	87.0	0.40755932993488386	2.0		2.0	1.0	2.0	7.0		part_1
157		2.0				1.0	0.0							4.0	192.0	0.39553007343783975	4.0		3.0	6.0	3.0	5.0		part_1
158		2.0				1.0	0.0							3.0	81.0	0.6213333024643362	3.0		2.0	1.0	2.0	7.0		part_1
159		2.0				1.0	1.0							4.0	88.0	0.3964315767516382	4.0		2.0	7.0	6.0	3.0		part_1
160		2.0				1.0	1.0							1.0	415.0	0.5665552179561928	1.0		4.0	5.0	8.0	8.0		part_1
161		2.0				1.0	1.0							4.0	419.0	0.4214696104754694	4.0		4.0	5.0	8.0	8.0		part_1
162		2.0				1.0	0.0							2.0	35.0	0.3775639736559242	2.0		1.0	8.0	1.0	4.0		part_1
163		2.0				1.0	1.0							3.0	0.0	0.37679186096647754	3.0		0.0	3.0	7.0	1.0		part_1
164		2.0				1.0	0.0							4.0	0.0	0.4099779827520251	4.0		0.0	1.0	2.0	7.0		part_1
165		2.0				1.0	0.0							4.0	76.0	0.38963047647848725	4.0		2.0	1.0	2.0	7.0		part_1
166		2.0				1.0	1.0							1.0	0.0	0.4678582868655212	1.0		0.0	5.0	8.0	8.0		part_1
167		2.0				1.0	1.0							2.0	188.0	0.3678276884020306	2.0		3.0	3.0	7.0	1.0		part_1
168		2.0				1.0	1.0							4.0	0.0	0.6264792021829635	4.0		0.0	3.0	7.0	1.0		part_1
169		2.0				1.0	1.0							1.0	0.0	0.4470028348150663	1.0		0.0	7.0	6.0	3.0		part_1
170		2.0				1.0	0.0							4.0	386.0	0.424878420017194	4.0		4.0	2.0	4.0	6.0		part_1
171		2.0				1.0	1.0							4.0	108.0	0.3706835936754942	4.0		2.0	7.0	6.0	3.0		part_1
172		2.0				1.0	0.0							4.0	0.0	0.3594354222295806	4.0		0.0	1.0	2.0	7.0		part_1
173		2.0				1.0	1.0							3.0	0.0	0.5290068825124763	3.0		0.0	4.0	5.0	2.0		part_1
174		2.0				1.0	1.0							1.0	182.0	0.5064810336916707	1.0		3.0	3.0	7.0	1.0		part_1
175		2.0				1.0	0.0							2.0	0.0	0.39545906777493656	2.0		0.0	1.0	2.0	7.0		part_1
176		2.0				1.0	0.0							2.0	0.0	0.4057232546620071	2.0		0.0	1.0	2.0	7.0		part_1
177		2.0				1.0	0.0							1.0	0.0	0.553724623459857	1.0		0.0	2.0	4.0	6.0		part_1
178		2.0				1.0	0.0							2.0	189.0	0.39683819271158427	2.0		3.0	6.0	3.0	5.0		part_1
179		2.0				1.0	1.0							4.0	402.0	0.40771798382047564	4.0		4.0	5.0	8.0	8.0		part_1
180		2.0				1.0	1.0							2.0	31.0	0.36341858765808865	2.0		1.0	4.0	5.0	2.0		part_1
181		2.0				1.0	0.0							3.0	402.0	0.38681375642772764	3.0		4.0	2.0	4.0	6.0		part_1
182		2.0				1.0	0.0							2.0	92.0	0.45408479135949165	2.0		2.0	1.0	2.0	7.0		part_1
183		2.0				1.0	0.0							1.0	405.0	0.36587015277473256	1.0		4.0	2.0	4.0	6.0		part_1
184		2.0				1.0	1.0							3.0	38.0	0.43194645224139094	3.0		1.0	4.0	5.0	2.0		part_1
185		2.0				1.0	1.0							4.0	208.0	0.4337850961019285	4.0		3.0	3.0	7.0	1.0		part_1
186		2.0				1.0	1.0							4.0	105.0	0.46724411740433425	4.0		2.0	7.0	6.0	3.0		part_1
187		2.0				1.0	1.0							2.0	388.0	0.35687641019467264	2.0		4.0	5.0	8.0	8.0		part_1
188		2.0				1.0	1.0							3.0	406.0	0.46813034679507837	3.0		4.0	5.0	8.0	8.0		part_1
189		2.0				1.0	1.0							3.0	61.0	0.5022057252353989	3.0		1.0	4.0	5.0	2.0		part_1
190		2.0				1.0	0.0							3.0	423.0	0.5142424749210477	3.0		4.0	2.0	4.0	6.0		part_1
191		2.0				1.0	1.0							2.0	402.0	0.42596108245197684	2.0		4.0	5.0	8.0	8.0		part_1
192		2.0				1.0	1.0							1.0	120.0	0.41472630348289385	1.0		2.0	7.0	6.0	3.0		part_1
193		2.0				1.0	0.0							2.0	0.0	0.37236950115766376	2.0		0.0	8.0	1.0	4.0		part_1
194		2.0				1.0	1.0							3.0	0.0	0.4265308288158849	3.0		0.0	4.0	5.0	2.0		part_1
195		2.0				1.0	0.0							2.0	399.0	0.37320237286621705	2.0		4.0	2.0	4.0	6.0		part_1
196		2.0				1.0	0.0							3.0	50.0	0.37256154452916235	3.0		1.0	8.0	1.0	4.0		part_1
197		2.0				1.0	1.0							2.0	217.0	0.384186792478431	2.0		3.0	3.0	7.0	1.0		part_1
198		2.0				1.0	0.0							1.0	26.0	0.43001019448274747	1.0		1.0	8.0	1.0	4.0		part_1
199		2.0				1.0	1.0							3.0	402.0	0.37317714968230575	3.0		4.0	5.0	8.0	8.0		part_1
200		3.0				1.0	1.0							4.0	396.0	0.37934732192661613	4.0		4.0	5.0	8.0	8.0		part_1
201		3.0				1.0	0.0							2.0	378.0	0.4132566779735498	2.0		4.0	2.0	4.0	6.0		part_1
202		3.0				1.0	1.0							4.0	0.0	0.3561890627024695	4.0		0.0	5.0	8.0	8.0		part_1
203		3.0				1.0	0.0							2.0	26.0	0.4818022734252736	2.0		1.0	8.0	1.0	4.0		part_1
204		3.0				1.0	1.0							4.0	122.0	0.32406384841306135	4.0		2.0	7.0	6.0	3.0		part_1
205		3.0				1.0	1.0							3.0	63.0	0.35860735789174214	3.0		1.0	4.0	5.0	2.0		part_1
206		3.0				1.0	0.0							2.0	116.0	0.38323368766577914	2.0		2.0	1.0	2.0	7.0		part_1
207		3.0				1.0	0.0							2.0	73.0	0.426799887791276	2.0		1.0	8.0	1.0	4.0		part_1
208		3.0				1.0	0.0							1.0	199.0	0.4391144414548762	1.0		3.0	6.0	3.0	5.0		part_1
209		3.0				1.0	1.0							3.0	191.0	0.383301401976496	3.0		3.0	3.0	7.0	1.0		part_1
210		3.0				1.0	1.0							1.0	220.0	0.35156477766577154	1.0		3.0	3.0	7.0	1.0		part_1
211		3.0				1.0	1.0							1.0	0.0	0.3840080294176005	1.0		0.0	7.0	6.0	3.0		part_1
212		3.0				1.0	1.0							4.0	46.0	0.3950522431987338	4.0		1.0	4.0	5.0	2.0		part_1
213		3.0				1.0	1.0							1.0	89.0	0.35134528623893857	1.0		2.0	7.0	6.0	3.0		part_1
214		3.0				1.0	1.0							3.0	199.0	0.3635023594251834	3.0		3.0	3.0	7.0	1.0		part_1
215		3.0				1.0	0.0							1.0	419.0	0.3431591259432025	1.0		4.0	2.0	4.0	6.0		part_1
216		3.0				1.0	1.0							3.0	84.0	0.40936219337163493	3.0		2.0	7.0	6.0	3.0		part_1
217		3.0				1.0	1.0							1.0	418.0	0.5004903406952508	1.0		4.0	5.0	8.0	8.0		part_1
218		3.0				1.0	0.0							2.0	0.0	0.34424037317512557	2.0		0.0	1.0	2.0	7.0		part_1
219		3.0				1.0	1.0							3.0	124.0	0.36512109369505197	3.0		2.0	7.0	6.0	3.0		part_1
220		3.0				1.0	0.0							3.0	105.0	0.5351638442371041	3.0		2.0	1.0	2.0	7.0		part_1
221		3.0				1.0	1.0							3.0	39.0	0.36701733368681744	3.0		1.0	4.0	5.0	2.0		part_1
222		3.0				1.0	1.0							2.0	209.0	0.36826342722633854	2.0		3.0	3.0	7.0	1.0		part_1
223		3.0				1.0	0.0							1.0	218.0	0.3567811586544849	1.0		3.0	6.0	3.0	5.0		part_1
224		3.0				1.0	0.0							4.0	104.0	0.39086732373107225	4.0		2.0	1.0	2.0	7.0		part_1
225		3.0				1.0	0.0							4.0	78.0	0.48143620108021423	4.0		2.0	1.0	2.0	7.0		part_1
226		3.0				1.0	1.0							2.0	52.0	0.3484939009649679	2.0		1.0	4.0	5.0	2.0		part_1
227		3.0				1.0	1.0							1.0	56.0	0.359807618195191	1.0		1.0	4.0	5.0	2.0		part_1
228		3.0				1.0	1.0							1.0	393.0	0.3840215797536075	1.0		4.0	5.0	8.0	8.0		part_1
229		3.0				1.0	0.0							3.0	25.0	0.4166306135011837	3.0		1.0	8.0	1.0	4.0		part_1
230		3.0				1.0	0.0							3.0	42.0	0.33889421238563955	3.0		1.0	8.0	1.0	4.0		part_1
231		3.0				1.0	0.0							1.0	97.0	0.3744236264610663	1.0		2.0	1.0	2.0	7.0		part_1
232		3.0				1.0	0.0							4.0	108.0	0.373036649718415	4.0		2.0	1.0	2.0	7.0		part_1
233		3.0				1.0	0.0							2.0	45.0	0.3289297709707171	2.0		1.0	8.0	1.0	4.0		part_1
234		3.0				1.0	0.0							3.0	0.0	0.3519735739682801	3.0		0.0	1.0	2.0	7.0		part_1
235		3.0				1.0	0.0							1.0	56.0	0.3540613580844365	1.0		1.0	8.0	1.0	4.0		part_1
236		3.0				1.0	0.0							1.0	83.0	0.40948882419615984	1.0		2.0	1.0	2.0	7.0		part_1
237		3.0				1.0	0.0							2.0	38.0	0.3539905399084091	2.0		1.0	8.0	1.0	4.0		part_1
238		3.0				1.0	1.0							4.0	0.0	0.3768728576833382	4.0		0.0	4.0	5.0	2.0		part_1
239		3.0				1.0	0.0							1.0	44.0	0.3560146276722662	1.0		1.0	8.0	1.0	4.0		part_1
240		3.0				1.0	1.0							2.0	42.0	0.332619808439631	2.0		1.0	4.0	5.0	2.0		part_1
241		3.0				1.0	0.0							2.0	96.0	0.31046926241833717	2.0		2.0	1.0	2.0	7.0		part_1
242		3.0				1.0	1.0							2.0	87.0	0.288859645195771	2.0		2.0	7.0	6.0	3.0		part_1
243		3.0				1.0	0.0							4.0	388.0	0.4582386139081791	4.0		4.0	2.0	4.0	6.0		part_1
244		3.0				1.0	1.0							4.0	114.0	0.3792124609462917	4.0		2.0	7.0	6.0	3.0		part_1
245		3.0				1.0	0.0							1.0	94.0	0.39184501179261133	1.0		2.0	1.0	2.0	7.0		part_1
246		3.0				1.0	0.0							1.0	397.0	0.4037624644697644	1.0		4.0	2.0	4.0	6.0		part_1
247		3.0				1.0	0.0							1.0	121.0	0.37079394422471523	1.0		2.0	1.0	2.0	7.0		part_1
248		3.0				1.0	1.0							1.0	222.0	0.31399441172834486	1.0		3.0	3.0	7.0	1.0		part_1
249		3.0				1.0	0.0							3.0	424.0	0.38257663045078516	3.0		4.0	2.0	4.0	6.0		part_1
250		3.0				1.0	1.0							1.0	56.0	0.4409567232360132	1.0		1.0	4.0	5.0	2.0		part_1
251		3.0				1.0	1.0							2.0	0.0	0.3384334845468402	2.0		0.0	3.0	7.0	1.0		part_1
252		3.0				1.0	1.0							4.0	394.0	0.5078842798247933	4.0		4.0	5.0	8.0	8.0		part_1
253		3.0				1.0	1.0							3.0	75.0	0.32899305870523676	3.0		2.0	7.0	6.0	3.0		part_1
254		3.0				1.0	1.0							2.0	378.0	0.3291371847735718	2.0		4.0	5.0	8.0	8.0		part_1
255		3.0				1.0	1.0							1.0	218.0	0.4098058137460612	1.0		3.0	3.0	7.0	1.0		part_1
256		3.0				1.0	0.0							2.0	56.0	0.3411984794656746	2.0		1.0	8.0	1.0	4.0		part_1
257		3.0				1.0	0.0							4.0	180.0	0.38748028548434377	4.0		3.0	6.0	3.0	5.0		part_1
258		3.0				1.0	1.0							3.0	83.0	0.4095046449219808	3.0		2.0	7.0	6.0	3.0		part_1
259		3.0				1.0	1.0							3.0	207.0	0.36597926140530035	3.0		3.0	3.0	7.0	1.0		part_1
260		3.0				1.0	0.0							1.0	378.0	0.36798467952758074	1.0		4.0	2.0	4.0	6.0		part_1
261		3.0				1.0	1.0							3.0	218.0	0.34424989082617685	3.0		3.0	3.0	7.0	1.0		part_1
262		3.0				1.0	1.0							2.0	83.0	0.35652784595731646	2.0		2.0	7.0	6.0	3.0		part_1
263		3.0				1.0	0.0							3.0	200.0	0.3453940959298052	3.0		3.0	6.0	3.0	5.0		part_1
264		3.0				1.0	1.0							1.0	211.0	0.38118999323341995	1.0		3.0	3.0	7.0	1.0		part_1
265		3.0				1.0	1.0							4.0	73.0	0.41355664090951905	4.0		1.0	4.0	5.0	2.0		part_1
266		3.0				1.0	1.0							3.0	187.0	0.3575113574624993	3.0		3.0	3.0	7.0	1.0		part_1
267		3.0				1.0	1.0							4.0	53.0	0.4721594579750672	4.0		1.0	4.0	5.0	2.0		part_1
268		3.0				1.0	0.0							1.0	55.0	0.5394284463836811	1.0		1.0	8.0	1.0	4.0		part_1
269		3.0				1.0	1.0							4.0	0.0	0.39355990703916177	4.0		0.0	4.0	5.0	2.0		part_1
270		3.0				1.0	0.0							3.0	220.0	0.36066512466641143	3.0		3.0	6.0	3.0	5.0		part_1
271		3.0				1.0	0.0							3.0	73.0	0.46217265084851533	3.0		1.0	8.0	1.0	4.0		part_1
272		3.0				1.0	0.0							4.0	0.0	0.49644098337739706	4.0		0.0	8.0	1.0	4.0		part_1
273		3.0				1.0	1.0							2.0	78.0	0.37351090856827796	2.0		2.0	7.0	6.0	3.0		part_1
274		3.0				1.0	0.0							1.0	30.0	0.3967594474670477	1.0		1.0	8.0	1.0	4.0		part_1
275		3.0				1.0	1.0							1.0	50.0	0.41897473606513813	1.0		1.0	4.0	5.0	2.0		part_1
276		3.0				1.0	0.0							3.0	83.0	0.39835370995569974	3.0		2.0	1.0	2.0	7.0		part_1
277		3.0				1.0	1.0							2.0	25.0	0.3543215454556048	2.0		1.0	4.0	5.0	2.0		part_1
278		3.0				1.0	0.0							1.0	111.0	0.3652968432288617	1.0		2.0	1.0	2.0	7.0		part_1
279		3.0				1.0	1.0							2.0	386.0	0.34421090089017525	2.0		4.0	5.0	8.0	8.0		part_1
280		3.0				1.0	1.0							2.0	90.0	0.3898883484653197	2.0		2.0	7.0	6.0	3.0		part_1
281		3.0				1.0	0.0							2.0	0.0	0.36694784968858585	2.0		0.0	6.0	3.0	5.0		part_1
282		3.0				1.0	0.0							2.0	0.0	0.34458185895346105	2.0		0.0	2.0	4.0	6.0		part_1
283		3.0				1.0	1.0							1.0	423.0	0.38047259219456464	1.0		4.0	5.0	8.0	8.0		part_1
284		3.0				1.0	1.0							4.0	388.0	0.3580871989252046	4.0		4.0	5.0	8.0	8.0		part_1
285		3.0				1.0	1.0							1.0	185.0	0.3354807166615501	1.0		3.0	3.0	7.0	1.0		part_1
286		3.0				1.0	0.0							3.0	93.0	0.41514547442784533	3.0		2.0	1.0	2.0	7.0		part_1
287		3.0				1.0	0.0							2.0	52.0	0.3594263229169883	2.0		1.0	8.0	1.0	4.0		part_1
288		3.0				1.0	1.0							4.0	94.0	0.49484271119581535	4.0		2.0	7.0	6.0	3.0		part_1
289		3.0				1.0	1.0							4.0	35.0	0.3604457307374105	4.0		1.0	4.0	5.0	2.0		part_1
290		3.0				1.0	1.0							2.0	399.0	0.42811857361812145	2.0		4.0	5.0	8.0	8.0		part_1
291		3.0				1.0	0.0							4.0	188.0	0.45031539362389594	4.0		3.0	6.0	3.0	5.0		part_1
292		3.0				1.0	1.0							2.0	213.0	0.5764269221108407	2.0		3.0	3.0	7.0	1.0		part_1
293		3.0				1.0	0.0							1.0	200.0	0.5424508009455167	1.0		3.0	6.0	3.0	5.0		part_1
294		3.0				1.0	0.0							3.0	393.0	0.38608554465463385	3.0		4.0	2.0	4.0	6.0		part_1
295		3.0				1.0	1.0							1.0	92.0	0.4761856595869176	1.0		2.0	7.0	6.0	3.0		part_1
296		3.0				1.0	0.0							1.0	424.0	0.39735061494866386	1.0		4.0	2.0	4.0	6.0		part_1
297		3.0				1.0	0.0							2.0	388.0	0.3307962393737398	2.0		4.0	2.0	4.0	6.0		part_1
298		3.0				1.0	1.0							3.0	199.0	0.40984677319647744	3.0		3.0	3.0	7.0	1.0		part_1
299		3.0				1.0	1.0							2.0	99.0	0.35495484876446426	2.0		2.0	7.0	6.0	3.0		part_1
300		4.0				1.0	0.0							3.0	222.0	0.40895989967975765	3.0		3.0	6.0	3.0	5.0		part_1
301		4.0				1.0	0.0							1.0	0.0	0.35431370593141764	1.0		0.0	8.0	1.0	4.0		part_1
302		4.0				1.0	0.0							4.0	198.0	0.3323025656864047	4.0		3.0	6.0	3.0	5.0		part_1
303		4.0				1.0	1.0							2.0	211.0	0.33327398070832714	2.0		3.0	3.0	7.0	1.0		part_1
304		4.0				1.0	0.0							1.0	0.0	0.30000293400371447	1.0		0.0	8.0	1.0	4.0		part_1
305		4.0				1.0	0.0							4.0	178.0	0.3544860114925541	4.0		3.0	6.0	3.0	5.0		part_1
306		4.0				1.0	0.0							1.0	217.0	0.3123059766367078	1.0		3.0	6.0	3.0	5.0		part_1
307		4.0				1.0	1.0							1.0	73.0	0.3235421479330398	1.0		1.0	4.0	5.0	2.0		part_1
308		4.0				1.0	0.0							4.0	88.0	0.2904595844447613	4.0		2.0	1.0	2.0	7.0		part_1
309		4.0				1.0	1.0							1.0	0.0	0.34762175218202174	1.0		0.0	5.0	8.0	8.0		part_1
310		4.0				1.0	0.0							4.0	187.0	0.31253567890962586	4.0		3.0	6.0	3.0	5.0		part_1
311		4.0				1.0	0.0							2.0	394.0	0.3921569586964324	2.0		4.0	2.0	4.0	6.0		part_1
312		4.0				1.0	1.0							4.0	0.0	0.3375654910923913	4.0		0.0	7.0	6.0	3.0		part_1
313		4.0				1.0	0.0							3.0	39.0	0.3933396339416504	3.0		1.0	8.0	1.0	4.0		part_1
314		4.0				1.0	1.0							2.0	0.0	0.3502095771837048	2.0		0.0	4.0	5.0	2.0		part_1
315		4.0				1.0	1.0							2.0	180.0	0.31611840991536155	2.0		3.0	3.0	7.0	1.0		part_1
316		4.0				1.0	1.0							3.0	47.0	0.39546450681518763	3.0		1.0	4.0	5.0	2.0		part_1
317		4.0				1.0	1.0							1.0	96.0	0.3845163403893821	1.0		2.0	7.0	6.0	3.0		part_1
318		4.0				1.0	0.0							1.0	0.0	0.42005546821746975	1.0		0.0	2.0	4.0	6.0		part_1
319		4.0				1.0	0.0							1.0	125.0	0.3847703749779612	1.0		2.0	1.0	2.0	7.0		part_1
320		4.0				1.0	0.0							1.0	414.0	0.3522585614118725	1.0		4.0	2.0	4.0	6.0		part_1
321		4.0				1.0	0.0							3.0	53.0	0.4752706504659727	3.0		1.0	8.0	1.0	4.0		part_1
322		4.0				1.0	0.0							2.0	0.0	0.35298230819171295	2.0		0.0	6.0	3.0	5.0		part_1
323		4.0				1.0	1.0							1.0	0.0	0.3199902070919052	1.0		0.0	4.0	5.0	2.0		part_1
324		4.0				1.0	0.0							2.0	402.0	0.33321400510612875	2.0		4.0	2.0	4.0	6.0		part_1
325		4.0				1.0	1.0							3.0	118.0	0.37658396176993847	3.0		2.0	7.0	6.0	3.0		part_1
326		4.0				1.0	0.0							2.0	0.0	0.36754823121009395	2.0		0.0	1.0	2.0	7.0		part_1
327		4.0				1.0	0.0							3.0	0.0	0.35482188896276057	3.0		0.0	2.0	4.0	6.0		part_1
328		4.0				1.0	0.0							3.0	74.0	0.3559361089137383	3.0		1.0	8.0	1.0	4.0		part_1
329		4.0				1.0	1.0							1.0	183.0	0.3696294937399216	1.0		3.0	3.0	7.0	1.0		part_1
330		4.0				1.0	1.0							1.0	198.0	0.3702016441966407	1.0		3.0	3.0	7.0	1.0		part_1
331		4.0				1.0	1.0							3.0	385.0	0.4815162247396074	3.0		4.0	5.0	8.0	8.0		part_1
332		4.0				1.0	1.0							3.0	408.0	0.47053068422246724	3.0		4.0	5.0	8.0	8.0		part_1
333		4.0				1.0	0.0							3.0	209.0	0.36962815263541415	3.0		3.0	6.0	3.0	5.0		part_1
334		4.0				1.0	0.0							2.0	406.0	0.4054364584153518	2.0		4.0	2.0	4.0	6.0		part_1
335		4.0				1.0	1.0							4.0	0.0	0.43950340000446886	4.0		0.0	7.0	6.0	3.0		part_1
336		4.0				1.0	0.0							2.0	0.0	0.43965843255864456	2.0		0.0	2.0	4.0	6.0		part_1
337		4.0				1.0	0.0							4.0	67.0	0.38307575322687626	4.0		1.0	8.0	1.0	4.0		part_1
338		4.0				1.0	0.0							4.0	0.0	0.37263070547487587	4.0		0.0	2.0	4.0	6.0		part_1
339		4.0				1.0	1.0							2.0	0.0	0.6544957214500755	2.0		0.0	4.0	5.0	2.0		part_1
340		4.0				1.0	0.0							2.0	178.0	0.31849733216222376	2.0		3.0	6.0	3.0	5.0		part_1
341		4.0				1.0	1.0							3.0	0.0	0.3751869995612651	3.0		0.0	7.0	6.0	3.0		part_1
342		4.0				1.0	0.0							3.0	64.0	0.47725954750785604	3.0		1.0	8.0	1.0	4.0		part_1
343		4.0				1.0	0.0							3.0	197.0	0.34232513094320893	3.0		3.0	6.0	3.0	5.0		part_1
344		4.0				1.0	0.0							1.0	207.0	0.3425955767161213	1.0		3.0	6.0	3.0	5.0		part_1
345		4.0				1.0	0.0							3.0	394.0	0.3316798344021663	3.0		4.0	2.0	4.0	6.0		part_1
346		4.0				1.0	0.0							2.0	75.0	0.42377974675036967	2.0		2.0	1.0	2.0	7.0		part_1
347		4.0				1.0	0.0							2.0	187.0	0.37987982446793467	2.0		3.0	6.0	3.0	5.0		part_1
348		4.0				1.0	1.0							2.0	0.0	0.3568202619208023	2.0		0.0	5.0	8.0	8.0		part_1
349		4.0				1.0	0.0							2.0	43.0	0.39056779083330184	2.0		1.0	8.0	1.0	4.0		part_1
350		4.0				1.0	0.0							4.0	36.0	0.4597741849720478	4.0		1.0	8.0	1.0	4.0		part_1
351		4.0				1.0	1.0							4.0	44.0	0.3804664114722982	4.0		1.0	4.0	5.0	2.0		part_1
352		4.0				1.0	0.0							1.0	63.0	0.3255730061791837	1.0		1.0	8.0	1.0	4.0		part_1
353		4.0				1.0	0.0							4.0	0.0	0.3703753988374956	4.0		0.0	2.0	4.0	6.0		part_1
354		4.0				1.0	0.0							1.0	0.0	0.315902553149499	1.0		0.0	6.0	3.0	5.0		part_1
355		4.0				1.0	1.0							3.0	26.0	0.3822204359457828	3.0		1.0	4.0	5.0	2.0		part_1
356		4.0				1.0	0.0							4.0	213.0	0.36023059266153723	4.0		3.0	6.0	3.0	5.0		part_1
357		4.0				1.0	1.0							2.0	69.0	0.3610665339510888	2.0		1.0	4.0	5.0	2.0		part_1
358		4.0				1.0	1.0							2.0	405.0	0.3848715021740645	2.0		4.0	5.0	8.0	8.0		part_1
359		4.0				1.0	0.0							4.0	46.0	0.3616635096841492	4.0		1.0	8.0	1.0	4.0		part_1
360		4.0				1.0	0.0							3.0	82.0	0.509831067698542	3.0		2.0	1.0	2.0	7.0		part_1
361		4.0				1.0	1.0							3.0	0.0	0.3521453198045492	3.0		0.0	5.0	8.0	8.0		part_1
362		4.0				1.0	1.0							2.0	121.0	0.4215095737017691	2.0		2.0	7.0	6.0	3.0		part_1
363		4.0				1.0	0.0							1.0	47.0	0.3886193464277312	1.0		1.0	8.0	1.0	4.0		part_1
364		4.0				1.0	1.0							3.0	120.0	0.34209596674190834	3.0		2.0	7.0	6.0	3.0		part_1
365		4.0				1.0	1.0							3.0	0.0	0.3322878990438767	3.0		0.0	4.0	5.0	2.0		part_1
366		4.0				1.0	1.0							1.0	45.0	0.3217027774080634	1.0		1.0	4.0	5.0	2.0		part_1
367		4.0				1.0	0.0							1.0	183.0	0.7272940606344491	1.0		3.0	6.0	3.0	5.0		part_1
368		4.0				1.0	1.0							2.0	192.0	0.31109653250314295	2.0		3.0	3.0	7.0	1.0		part_1
369		4.0				1.0	0.0							3.0	89.0	0.31232159066712484	3.0		2.0	1.0	2.0	7.0		part_1
370		4.0				1.0	0.0							4.0	61.0	0.3901694607338868	4.0		1.0	8.0	1.0	4.0		part_1
371		4.0				1.0	1.0							1.0	116.0	0.3025273310486227	1.0		2.0	7.0	6.0	3.0		part_1
372		4.0				1.0	1.0							3.0	377.0	0.30206103349337354	3.0		4.0	5.0	8.0	8.0		part_1
373		4.0				1.0	0.0							1.0	415.0	0.3260159459314309	1.0		4.0	2.0	4.0	6.0		part_1
374		4.0				1.0	1.0							4.0	189.0	0.370473385672085	4.0		3.0	3.0	7.0	1.0		part_1
375		4.0				1.0	0.0							3.0	188.0	0.35920214507495984	3.0		3.0	6.0	3.0	5.0		part_1
376		4.0				1.0	1.0							2.0	111.0	0.5403941886615939	2.0		2.0	7.0	6.0	3.0		part_1
377		4.0				1.0	1.0							1.0	204.0	0.31750485190423205	1.0		3.0	3.0	7.0	1.0		part_1
378		4.0				1.0	0.0							4.0	122.0	0.3844864334096201	4.0		2.0	1.0	2.0	7.0		part_1
379		4.0				1.0	1.0							4.0	378.0	0.4178924185107462	4.0		4.0	5.0	8.0	8.0		part_1
380		4.0				1.0	0.0							4.0	382.0	0.4302081388887018	4.0		4.0	2.0	4.0	6.0		part_1
381		4.0				1.0	0.0							2.0	194.0	0.39650453272042796	2.0		3.0	6.0	3.0	5.0		part_1
382		4.0				1.0	1.0							2.0	0.0	0.34231615607859567	2.0		0.0	3.0	7.0	1.0		part_1
383		4.0				1.0	0.0							2.0	72.0	0.5444555645226501	2.0		1.0	8.0	1.0	4.0		part_1
384		4.0				1.0	1.0							1.0	53.0	0.3312958473688923	1.0		1.0	4.0	5.0	2.0		part_1
385		4.0				1.0	0.0							4.0	0.0	0.4562216037302278	4.0		0.0	8.0	1.0	4.0		part_1
386		4.0				1.0	1.0							1.0	386.0	0.39025676919845864	1.0		4.0	5.0	8.0	8.0		part_1
387		4.0				1.0	0.0							4.0	0.0	0.3792477314709686	4.0		0.0	8.0	1.0	4.0		part_1
388		4.0				1.0	0.0							2.0	208.0	0.3800141619867645	2.0		3.0	6.0	3.0	5.0		part_1
389		4.0				1.0	1.0							1.0	93.0	0.3225650024251081	1.0		2.0	7.0	6.0	3.0		part_1
390		4.0				1.0	1.0							3.0	0.0	0.44717184512410313	3.0		0.0	5.0	8.0	8.0		part_1
391		4.0				1.0	1.0							1.0	214.0	0.34741537121590227	1.0		3.0	3.0	7.0	1.0		part_1
392		4.0				1.0	1.0							1.0	425.0	0.3238994619459845	1.0		4.0	5.0	8.0	8.0		part_1
393		4.0				1.0	0.0							4.0	31.0	0.3932640464627184	4.0		1.0	8.0	1.0	4.0		part_1
394		4.0				1.0	0.0							4.0	378.0	0.3601016867905855	4.0		4.0	2.0	4.0	6.0		part_1
395		4.0				1.0	1.0							1.0	104.0	0.38159512472338974	1.0		2.0	7.0	6.0	3.0		part_1
396		4.0				1.0	1.0							1.0	0.0	0.382488987990655	1.0		0.0	5.0	8.0	8.0		part_1
397		4.0				1.0	1.0							1.0	44.0	0.3283776034368202	1.0		1.0	4.0	5.0	2.0		part_1
398		4.0				1.0	1.0							4.0	0.0	0.36122146545676515	4.0		0.0	7.0	6.0	3.0		part_1
399		4.0				1.0	0.0							1.0	0.0	0.3618949351948686	1.0		0.0	2.0	4.0	6.0		part_1
0	1.0	1.0			250.0	0.0	0.0							5.0	0.0	0.5789459670777433	5.0	250.0	3.0	6.0	3.0	5.0	0.0	part_2
1	1.0	1.0			250.0	0.0	0.0							6.0	0.0	0.9383501640404575	6.0	250.0	2.0	1.0	2.0	7.0	0.0	part_2
2	1.0	1.0			250.0	0.0	0.0							6.0	0.0	0.8620003634132445	6.0	250.0	4.0	2.0	4.0	6.0	0.0	part_2
3	4.0	1.0			250.0	0.0	1.0							6.0	0.0	0.0	0.0	250.0	4.0	5.0	8.0	8.0	1.0	part_2
4	1.0	1.0			250.0	0.0	0.0							5.0	0.0	0.7836719943443313	5.0	300.0	2.0	1.0	2.0	7.0	0.0	part_2
5	1.0	1.0			250.0	0.0	0.0							6.0	0.0	0.9535697536775842	6.0	300.0	1.0	8.0	1.0	4.0	0.0	part_2
6	1.0	1.0			250.0	0.0	0.0							5.0	0.0	1.0101254944456741	5.0	300.0	4.0	2.0	4.0	6.0	0.0	part_2
7	4.0	1.0			250.0	0.0	1.0							6.0	0.0	0.0	0.0	300.0	3.0	3.0	7.0	1.0	1.0	part_2
8	4.0	1.0			250.0	0.0	1.0							5.0	0.0	0.0	0.0	350.0	3.0	3.0	7.0	1.0	1.0	part_2
9	1.0	1.0			300.0	0.0	0.0							5.0	0.0	0.7098734873579815	5.0	350.0	4.0	2.0	4.0	6.0	0.0	part_2
10	4.0	1.0			300.0	0.0	1.0							5.0	0.0	0.0	0.0	350.0	1.0	4.0	5.0	2.0	1.0	part_2
11	1.0	1.0			350.0	0.0	1.0							5.0	0.0	0.7450866173603572	5.0	350.0	3.0	3.0	7.0	1.0	0.0	part_2
12	1.0	1.0			350.0	0.0	0.0							5.0	0.0	0.8588085630908608	5.0	350.0	1.0	8.0	1.0	4.0	0.0	part_2
13	1.0	1.0			350.0	0.0	0.0							6.0	0.0	0.7803375876974314	6.0	350.0	3.0	6.0	3.0	5.0	0.0	part_2
14	4.0	1.0			350.0	0.0	1.0							6.0	0.0	0.0	0.0	350.0	3.0	3.0	7.0	1.0	1.0	part_2
15	1.0	1.0			350.0	0.0	0.0							6.0	0.0	0.7695678530726582	6.0	400.0	4.0	2.0	4.0	6.0	0.0	part_2
16	1.0	1.0			350.0	0.0	0.0							5.0	0.0	0.771188912098296	5.0	400.0	3.0	6.0	3.0	5.0	0.0	part_2
17	1.0	1.0			350.0	0.0	0.0							5.0	0.0	0.7504146680585109	5.0	400.0	3.0	6.0	3.0	5.0	0.0	part_2
18	4.0	1.0			350.0	0.0	1.0							5.0	0.0	0.0	0.0	400.0	2.0	7.0	6.0	3.0	1.0	part_2
19	4.0	1.0			400.0	0.0	1.0							5.0	0.0	0.0	0.0	400.0	2.0	7.0	6.0	3.0	1.0	part_2
20	1.0	1.0			450.0	0.0	0.0							6.0	0.0	0.6950741280452348	6.0	400.0	2.0	1.0	2.0	7.0	0.0	part_2
21	4.0	1.0			450.0	0.0	1.0							6.0	0.0	0.0	0.0	400.0	2.0	7.0	6.0	3.0	1.0	part_2
22	1.0	1.0			450.0	0.0	0.0							5.0	0.0	0.6301316323806532	5.0	450.0	2.0	1.0	2.0	7.0	0.0	part_2
23	1.0	1.0			450.0	0.0	0.0							6.0	0.0	0.7666801456944086	6.0	450.0	1.0	8.0	1.0	4.0	0.0	part_2
24	1.0	1.0			450.0	0.0	1.0							6.0	0.0	0.6432673263479955	6.0	450.0	4.0	5.0	8.0	8.0	0.0	part_2
25	1.0	1.0			450.0	0.0	0.0							6.0	0.0	0.9017010380630381	6.0	450.0	3.0	6.0	3.0	5.0	0.0	part_2
26	4.0	1.0			450.0	0.0	1.0							5.0	0.0	0.0	0.0	450.0	4.0	5.0	8.0	8.0	1.0	part_2
27	4.0	1.0			500.0	0.0	1.0							6.0	0.0	0.0	0.0	450.0	4.0	5.0	8.0	8.0	1.0	part_2
28	4.0	1.0			500.0	0.0	1.0							5.0	0.0	0.0	0.0	500.0	1.0	4.0	5.0	2.0	1.0	part_2
29	1.0	1.0			550.0	0.0	0.0							5.0	0.0	0.7829148003947921	5.0	500.0	4.0	2.0	4.0	6.0	0.0	part_2
30	4.0	1.0			550.0	0.0	1.0							6.0	0.0	0.0	0.0	500.0	2.0	7.0	6.0	3.0	1.0	part_2
31	1.0	1.0			550.0	0.0	1.0							5.0	0.0	0.7284657373675145	5.0	550.0	3.0	3.0	7.0	1.0	0.0	part_2
32	1.0	1.0			550.0	0.0	1.0							6.0	0.0	0.8299014759832062	6.0	550.0	4.0	5.0	8.0	8.0	0.0	part_2
33	1.0	1.0			550.0	0.0	0.0							5.0	0.0	0.7751361447153613	5.0	550.0	2.0	1.0	2.0	7.0	0.0	part_2
34	4.0	1.0			550.0	0.0	1.0							6.0	0.0	0.0	0.0	550.0	1.0	4.0	5.0	2.0	1.0	part_2
35	1.0	1.0			550.0	0.0	1.0							5.0	0.0	0.7542441110126674	5.0	600.0	2.0	7.0	6.0	3.0	0.0	part_2
36	1.0	2.0			550.0	0.0	0.0							6.0	0.0	0.30283644038718194	6.0	600.0	3.0	6.0	3.0	5.0	0.0	part_2
37	1.0	2.0			550.0	0.0	0.0							5.0	0.0	0.27010123163927346	5.0	600.0	1.0	8.0	1.0	4.0	0.0	part_2
38	3.0	2.0			550.0	0.0	1.0							6.0	0.0	0.2815097596612759	6.0	600.0	3.0	3.0	7.0	1.0	1.0	part_2
39	1.0	2.0			550.0	0.0	0.0							5.0	0.0	0.2716053260373883	5.0	550.0	1.0	8.0	1.0	4.0	0.0	part_2
40	3.0	2.0			550.0	0.0	1.0							6.0	0.0	0.26036682637641206	6.0	550.0	2.0	7.0	6.0	3.0	1.0	part_2
41	1.0	2.0			550.0	0.0	0.0							5.0	0.0	0.20607708732131869	5.0	500.0	1.0	8.0	1.0	4.0	0.0	part_2
42	3.0	2.0			550.0	0.0	1.0							5.0	0.0	0.296892904676497	5.0	500.0	4.0	5.0	8.0	8.0	1.0	part_2
43	1.0	2.0			500.0	0.0	0.0							6.0	0.0	0.2744332570582628	6.0	500.0	1.0	8.0	1.0	4.0	0.0	part_2
44	1.0	2.0			500.0	0.0	0.0							6.0	0.0	0.30957784864585847	6.0	500.0	2.0	1.0	2.0	7.0	0.0	part_2
45	3.0	2.0			500.0	0.0	1.0							5.0	0.0	0.20814042264828458	5.0	500.0	1.0	4.0	5.0	2.0	1.0	part_2
46	3.0	2.0			450.0	0.0	1.0							5.0	0.0	0.29933883232297376	5.0	500.0	4.0	5.0	8.0	8.0	1.0	part_2
47	3.0	2.0			400.0	0.0	1.0							6.0	0.0	0.25540783040924	6.0	500.0	4.0	5.0	8.0	8.0	1.0	part_2
48	1.0	2.0			400.0	0.0	0.0							6.0	0.0	0.47012530511710793	6.0	450.0	4.0	2.0	4.0	6.0	0.0	part_2
49	3.0	2.0			400.0	0.0	1.0							5.0	0.0	0.24480686499737203	5.0	450.0	4.0	5.0	8.0	8.0	1.0	part_2
50	1.0	2.0			350.0	0.0	0.0							5.0	0.0	0.2696242406964302	5.0	450.0	3.0	6.0	3.0	5.0	0.0	part_2
51	3.0	2.0			350.0	0.0	1.0							5.0	0.0	0.2707067453302443	5.0	450.0	3.0	3.0	7.0	1.0	1.0	part_2
52	3.0	2.0			300.0	0.0	1.0							5.0	0.0	0.28154580073896796	5.0	450.0	1.0	4.0	5.0	2.0	1.0	part_2
53	1.0	2.0			250.0	0.0	0.0							5.0	0.0	0.29523980570957065	5.0	450.0	4.0	2.0	4.0	6.0	0.0	part_2
54	1.0	2.0			250.0	0.0	0.0							5.0	0.0	0.2828024117043242	5.0	450.0	2.0	1.0	2.0	7.0	0.0	part_2
55	1.0	2.0			250.0	0.0	1.0							6.0	0.0	0.2735547350021079	6.0	450.0	3.0	3.0	7.0	1.0	0.0	part_2
56	1.0	2.0			250.0	0.0	0.0							6.0	0.0	0.30754144268576056	6.0	450.0	2.0	1.0	2.0	7.0	0.0	part_2
57	3.0	2.0			250.0	0.0	1.0							6.0	0.0	0.2852557293372229	6.0	450.0	3.0	3.0	7.0	1.0	1.0	part_2
58	1.0	2.0			250.0	0.0	0.0							5.0	0.0	0.2532830013660714	5.0	400.0	3.0	6.0	3.0	5.0	0.0	part_2
59	3.0	2.0			250.0	0.0	1.0							5.0	0.0	0.33278648002306	5.0	400.0	1.0	4.0	5.0	2.0	1.0	part_2
60	1.0	2.0			200.0	0.0	1.0							5.0	0.0	0.2549777530366555	5.0	400.0	2.0	7.0	6.0	3.0	0.0	part_2
61	1.0	2.0			200.0	0.0	0.0							6.0	0.0	0.2568358237040229	6.0	400.0	3.0	6.0	3.0	5.0	0.0	part_2
62	1.0	2.0			200.0	0.0	0.0							5.0	0.0	0.2688173876958899	5.0	400.0	3.0	6.0	3.0	5.0	0.0	part_2
63	3.0	2.0			200.0	0.0	1.0							5.0	0.0	0.2795795510173775	5.0	400.0	4.0	5.0	8.0	8.0	1.0	part_2
64	1.0	2.0			150.0	0.0	1.0							5.0	0.0	0.2703681266284548	5.0	400.0	1.0	4.0	5.0	2.0	0.0	part_2
65	1.0	2.0			150.0	0.0	0.0							6.0	0.0	0.2931959636625834	6.0	400.0	3.0	6.0	3.0	5.0	0.0	part_2
66	1.0	2.0			150.0	0.0	0.0							6.0	0.0	0.2835036989999935	6.0	400.0	3.0	6.0	3.0	5.0	0.0	part_2
67	1.0	2.0			150.0	0.0	0.0							6.0	0.0	0.3057165890932083	6.0	400.0	1.0	8.0	1.0	4.0	0.0	part_2
68	3.0	2.0			150.0	0.0	1.0							5.0	0.0	0.2848141203285195	5.0	400.0	4.0	5.0	8.0	8.0	1.0	part_2
69	3.0	2.0			100.0	0.0	1.0							6.0	0.0	0.21697259531356394	6.0	400.0	3.0	3.0	7.0	1.0	1.0	part_2
70	1.0	2.0			100.0	0.0	0.0							6.0	0.0	0.3093596103717573	6.0	350.0	2.0	1.0	2.0	7.0	0.0	part_2
71	3.0	2.0			100.0	0.0	1.0							5.0	0.0	0.23163282574387267	5.0	350.0	2.0	7.0	6.0	3.0	1.0	part_2
72	3.0	3.0			50.0	0.0	1.0							6.0	0.0	0.45370557002024725	6.0	350.0	3.0	3.0	7.0	1.0	1.0	part_2
73	1.0	3.0			50.0	0.0	0.0							6.0	0.0	0.3201156943687238	6.0	300.0	2.0	1.0	2.0	7.0	0.0	part_2
74	4.0	3.0			50.0	0.0	1.0							5.0	0.0	0.0	0.0	300.0	2.0	7.0	6.0	3.0	1.0	part_2
75	3.0	3.0			100.0	0.0	1.0							6.0	0.0	0.2770690630422905	6.0	300.0	4.0	5.0	8.0	8.0	1.0	part_2
76	1.0	3.0			100.0	0.0	0.0							6.0	0.0	0.480628585384693	6.0	250.0	3.0	6.0	3.0	5.0	0.0	part_2
77	1.0	3.0			100.0	0.0	0.0							6.0	0.0	0.5706052273744717	6.0	250.0	1.0	8.0	1.0	4.0	0.0	part_2
78	1.0	3.0			100.0	0.0	0.0							5.0	0.0	0.4713574927300215	5.0	250.0	4.0	2.0	4.0	6.0	0.0	part_2
79	3.0	3.0			100.0	0.0	1.0							6.0	0.0	0.24545089498860762	6.0	250.0	4.0	5.0	8.0	8.0	1.0	part_2
80	4.0	3.0			100.0	0.0	1.0							6.0	0.0	0.0	0.0	200.0	2.0	7.0	6.0	3.0	1.0	part_2
81	1.0	3.0			100.0	0.0	0.0							5.0	0.0	0.4946692769881338	5.0	250.0	3.0	6.0	3.0	5.0	0.0	part_2
82	1.0	3.0			100.0	0.0	0.0							6.0	0.0	0.6082180304219946	6.0	250.0	1.0	8.0	1.0	4.0	0.0	part_2
83	4.0	3.0			100.0	0.0	1.0							6.0	0.0	0.0	0.0	250.0	3.0	3.0	7.0	1.0	1.0	part_2
84	4.0	3.0			100.0	0.0	1.0							6.0	0.0	0.0	0.0	300.0	1.0	4.0	5.0	2.0	1.0	part_2
85	1.0	3.0			100.0	0.0	0.0							6.0	0.0	0.6329673050204292	6.0	350.0	4.0	2.0	4.0	6.0	0.0	part_2
86	4.0	3.0			100.0	0.0	1.0							5.0	0.0	0.0	0.0	350.0	4.0	5.0	8.0	8.0	1.0	part_2
87	1.0	3.0			150.0	0.0	1.0							5.0	0.0	0.4545171183417551	5.0	350.0	1.0	4.0	5.0	2.0	0.0	part_2
88	4.0	3.0			150.0	0.0	1.0							5.0	0.0	0.0	0.0	350.0	3.0	3.0	7.0	1.0	1.0	part_2
89	4.0	3.0			200.0	0.0	1.0							6.0	0.0	0.0	0.0	350.0	1.0	4.0	5.0	2.0	1.0	part_2
90	1.0	3.0			200.0	0.0	0.0							6.0	0.0	0.4580308123258874	6.0	400.0	1.0	8.0	1.0	4.0	0.0	part_2
91	1.0	3.0			200.0	0.0	1.0							5.0	0.0	0.6397042903699912	5.0	400.0	4.0	5.0	8.0	8.0	0.0	part_2
92	3.0	3.0			200.0	0.0	1.0							6.0	0.0	0.5379270756966434	6.0	400.0	1.0	4.0	5.0	2.0	1.0	part_2
93	4.0	3.0			200.0	0.0	1.0							6.0	0.0	0.0	0.0	350.0	4.0	5.0	8.0	8.0	1.0	part_2
94	4.0	3.0			200.0	0.0	1.0							6.0	0.0	0.0	0.0	400.0	1.0	4.0	5.0	2.0	1.0	part_2
95	1.0	3.0			200.0	0.0	0.0							5.0	0.0	0.9221817576908506	5.0	450.0	1.0	8.0	1.0	4.0	0.0	part_2
96	1.0	3.0			200.0	0.0	0.0							5.0	0.0	0.8338452996686101	5.0	450.0	2.0	1.0	2.0	7.0	0.0	part_2
97	1.0	3.0			200.0	0.0	0.0							6.0	0.0	0.6205797880538739	6.0	450.0	2.0	1.0	2.0	7.0	0.0	part_2
98	1.0	3.0			200.0	0.0	0.0							5.0	0.0	0.6229484630166553	5.0	450.0	3.0	6.0	3.0	5.0	0.0	part_2
99	1.0	3.0			200.0	0.0	0.0							5.0	0.0	0.5888406897429377	5.0	450.0	2.0	1.0	2.0	7.0	0.0	part_2
100	1.0	3.0			200.0	0.0	0.0							6.0	0.0	0.5889872693805955	6.0	450.0	4.0	2.0	4.0	6.0	0.0	part_2
101	3.0	3.0			200.0	0.0	1.0							6.0	0.0	0.6143843660247512	6.0	450.0	1.0	4.0	5.0	2.0	1.0	part_2
102	1.0	3.0			200.0	0.0	0.0							6.0	0.0	0.5577156523941085	6.0	400.0	1.0	8.0	1.0	4.0	0.0	part_2
103	1.0	3.0			200.0	0.0	0.0							6.0	0.0	0.7043862076825462	6.0	400.0	3.0	6.0	3.0	5.0	0.0	part_2
104	4.0	3.0			200.0	0.0	1.0							5.0	0.0	0.0	0.0	400.0	2.0	7.0	6.0	3.0	1.0	part_2
105	1.0	3.0			250.0	0.0	0.0							5.0	0.0	0.6963698134059086	5.0	400.0	2.0	1.0	2.0	7.0	0.0	part_2
106	1.0	3.0			250.0	0.0	0.0							6.0	0.0	0.3467534113442525	6.0	400.0	2.0	1.0	2.0	7.0	0.0	part_2
107	1.0	3.0			250.0	0.0	0.0							5.0	0.0	0.6187339807511307	5.0	400.0	1.0	8.0	1.0	4.0	0.0	part_2
108	1.0	4.0			250.0	0.0	0.0							5.0	0.0	0.3843164216959849	5.0	400.0	3.0	6.0	3.0	5.0	0.0	part_2
109	1.0	4.0			250.0	0.0	0.0							6.0	0.0	0.35300869739148766	6.0	400.0	4.0	2.0	4.0	6.0	0.0	part_2
110	1.0	4.0			250.0	0.0	0.0							6.0	0.0	0.36387559439754114	6.0	400.0	4.0	2.0	4.0	6.0	0.0	part_2
111	4.0	4.0			250.0	0.0	1.0							5.0	0.0	0.0	0.0	400.0	1.0	4.0	5.0	2.0	1.0	part_2
112	1.0	4.0			300.0	0.0	0.0							6.0	0.0	0.44431130500743166	6.0	400.0	4.0	2.0	4.0	6.0	0.0	part_2
113	4.0	4.0			300.0	0.0	1.0							5.0	0.0	0.0	0.0	400.0	1.0	4.0	5.0	2.0	1.0	part_2
114	1.0	4.0			350.0	0.0	0.0							6.0	0.0	0.4585517813684419	6.0	400.0	3.0	6.0	3.0	5.0	0.0	part_2
115	1.0	4.0			350.0	0.0	1.0							5.0	0.0	0.5387603179551661	5.0	400.0	2.0	7.0	6.0	3.0	0.0	part_2
116	1.0	4.0			350.0	0.0	0.0							6.0	0.0	0.6613322020857595	6.0	400.0	3.0	6.0	3.0	5.0	0.0	part_2
117	1.0	4.0			350.0	0.0	0.0							5.0	0.0	0.5045865190331824	5.0	400.0	3.0	6.0	3.0	5.0	0.0	part_2
118	1.0	4.0			350.0	0.0	0.0							5.0	0.0	0.5839288080460392	5.0	400.0	1.0	8.0	1.0	4.0	0.0	part_2
119	3.0	4.0			350.0	0.0	1.0							6.0	0.0	0.5066020790254697	6.0	400.0	1.0	4.0	5.0	2.0	1.0	part_2
120	4.0	4.0			350.0	0.0	1.0							6.0	0.0	0.0	0.0	350.0	2.0	7.0	6.0	3.0	1.0	part_2
121	1.0	4.0			350.0	0.0	0.0							5.0	0.0	0.5310244361171499	5.0	400.0	2.0	1.0	2.0	7.0	0.0	part_2
122	1.0	4.0			350.0	0.0	0.0							5.0	0.0	0.3853463499690406	5.0	400.0	2.0	1.0	2.0	7.0	0.0	part_2
123	3.0	4.0			350.0	0.0	1.0							6.0	0.0	0.354091284039896	6.0	400.0	2.0	7.0	6.0	3.0	1.0	part_2
124	4.0	4.0			350.0	0.0	1.0							5.0	0.0	0.0	0.0	350.0	3.0	3.0	7.0	1.0	1.0	part_2
125	1.0	4.0			400.0	0.0	0.0							5.0	0.0	0.5345910823089071	5.0	350.0	4.0	2.0	4.0	6.0	0.0	part_2
126	1.0	4.0			400.0	0.0	1.0							6.0	0.0	0.6144941616803408	6.0	350.0	1.0	4.0	5.0	2.0	0.0	part_2
127	4.0	4.0			400.0	0.0	1.0							6.0	0.0	0.0	0.0	350.0	4.0	5.0	8.0	8.0	1.0	part_2
128	1.0	4.0			400.0	0.0	0.0							5.0	0.0	0.6609159180661663	5.0	400.0	2.0	1.0	2.0	7.0	0.0	part_2
129	1.0	4.0			400.0	0.0	0.0							5.0	0.0	0.6282652457011864	5.0	400.0	1.0	8.0	1.0	4.0	0.0	part_2
130	4.0	4.0			400.0	0.0	1.0							6.0	0.0	0.0	0.0	400.0	4.0	5.0	8.0	8.0	1.0	part_2
131	1.0	4.0			400.0	0.0	0.0							5.0	0.0	0.6290376773686148	5.0	450.0	4.0	2.0	4.0	6.0	0.0	part_2
132	1.0	4.0			400.0	0.0	0.0							5.0	0.0	0.5524047343060374	5.0	450.0	4.0	2.0	4.0	6.0	0.0	part_2
133	1.0	4.0			400.0	0.0	0.0							5.0	0.0	0.6307453983463347	5.0	450.0	3.0	6.0	3.0	5.0	0.0	part_2
134	4.0	4.0			400.0	0.0	1.0							5.0	0.0	0.0	0.0	450.0	1.0	4.0	5.0	2.0	1.0	part_2
135	1.0	4.0			450.0	0.0	0.0							5.0	0.0	0.4646415830357	5.0	450.0	2.0	1.0	2.0	7.0	0.0	part_2
136	1.0	4.0			450.0	0.0	1.0							6.0	0.0	0.7025172931025736	6.0	450.0	4.0	5.0	8.0	8.0	0.0	part_2
137	1.0	4.0			450.0	0.0	0.0							5.0	0.0	0.6784893006552011	5.0	450.0	3.0	6.0	3.0	5.0	0.0	part_2
138	1.0	4.0			450.0	0.0	0.0							5.0	0.0	0.5453099512960762	5.0	450.0	4.0	2.0	4.0	6.0	0.0	part_2
139	1.0	4.0			450.0	0.0	1.0							5.0	0.0	0.7032516589970328	5.0	450.0	4.0	5.0	8.0	8.0	0.0	part_2
140	3.0	4.0			450.0	0.0	1.0							6.0	0.0	0.6247049820958637	6.0	450.0	1.0	4.0	5.0	2.0	1.0	part_2
141	1.0	4.0			450.0	0.0	0.0							5.0	0.0	0.5599680166924372	5.0	400.0	4.0	2.0	4.0	6.0	0.0	part_2
142	4.0	4.0			450.0	0.0	1.0							5.0	0.0	0.0	0.0	400.0	4.0	5.0	8.0	8.0	1.0	part_2
143	1.0	4.0			500.0	0.0	0.0							6.0	0.0	0.6506289460230619	6.0	400.0	3.0	6.0	3.0	5.0	0.0	part_2
144	5.0	5.0			500.0	0.0	0.0							5.0	0.0	0.0	0.0	400.0	4.0	2.0	4.0	6.0	0.0	part_2
145	4.0	5.0			500.0	0.0	1.0							6.0	0.0	0.0	0.0	400.0	4.0	5.0	8.0	8.0	1.0	part_2
146	3.0	5.0			500.0	0.0	1.0							6.0	0.0	0.6408643550239503	6.0	450.0	3.0	3.0	7.0	1.0	1.0	part_2
147	4.0	5.0			500.0	0.0	1.0							6.0	0.0	0.0	0.0	400.0	2.0	7.0	6.0	3.0	1.0	part_2
148	1.0	5.0			500.0	0.0	0.0							5.0	0.0	0.37198101734975353	5.0	450.0	2.0	1.0	2.0	7.0	0.0	part_2
149	3.0	5.0			500.0	0.0	1.0							5.0	0.0	0.40704248304245993	5.0	450.0	3.0	3.0	7.0	1.0	1.0	part_2
150	1.0	5.0			450.0	0.0	0.0							5.0	0.0	0.6768159573548473	5.0	450.0	2.0	1.0	2.0	7.0	0.0	part_2
151	1.0	5.0			450.0	0.0	0.0							5.0	0.0	0.5879497383721173	5.0	450.0	1.0	8.0	1.0	4.0	0.0	part_2
152	1.0	5.0			450.0	0.0	0.0							6.0	0.0	0.2849043217138387	6.0	450.0	2.0	1.0	2.0	7.0	0.0	part_2
153	1.0	5.0			450.0	0.0	0.0							6.0	0.0	0.6115556237054989	6.0	450.0	1.0	8.0	1.0	4.0	0.0	part_2
154	4.0	5.0			450.0	0.0	1.0							5.0	0.0	0.0	0.0	450.0	4.0	5.0	8.0	8.0	1.0	part_2
155	1.0	5.0			500.0	0.0	0.0							5.0	0.0	0.5795374736771919	5.0	450.0	3.0	6.0	3.0	5.0	0.0	part_2
156	1.0	5.0			500.0	0.0	0.0							6.0	0.0	0.7159777923370712	6.0	450.0	4.0	2.0	4.0	6.0	0.0	part_2
157	4.0	5.0			500.0	0.0	1.0							6.0	0.0	0.0	0.0	450.0	2.0	7.0	6.0	3.0	1.0	part_2
158	1.0	5.0			500.0	0.0	0.0							5.0	0.0	0.8983825063914992	5.0	500.0	2.0	1.0	2.0	7.0	0.0	part_2
159	1.0	5.0			500.0	0.0	0.0							6.0	0.0	0.9314548670081422	6.0	500.0	4.0	2.0	4.0	6.0	0.0	part_2
160	1.0	5.0			500.0	0.0	0.0							6.0	0.0	0.9096849320922047	6.0	500.0	2.0	1.0	2.0	7.0	0.0	part_2
161	1.0	5.0			500.0	0.0	0.0							5.0	0.0	0.7078255286905915	5.0	500.0	3.0	6.0	3.0	5.0	0.0	part_2
162	1.0	5.0			500.0	0.0	1.0							5.0	0.0	0.7996387276798487	5.0	500.0	2.0	7.0	6.0	3.0	0.0	part_2
163	4.0	5.0			500.0	0.0	1.0							5.0	0.0	0.0	0.0	500.0	3.0	3.0	7.0	1.0	1.0	part_2
164	1.0	5.0			550.0	0.0	0.0							5.0	0.0	0.6782094796653837	5.0	500.0	1.0	8.0	1.0	4.0	0.0	part_2
165	1.0	5.0			550.0	0.0	0.0							6.0	0.0	0.6663990583037958	6.0	500.0	1.0	8.0	1.0	4.0	0.0	part_2
166	1.0	5.0			550.0	0.0	0.0							6.0	0.0	0.8245312063372694	6.0	500.0	1.0	8.0	1.0	4.0	0.0	part_2
167	1.0	5.0			550.0	0.0	0.0							6.0	0.0	0.9272169963805936	6.0	500.0	3.0	6.0	3.0	5.0	0.0	part_2
168	1.0	5.0			550.0	0.0	0.0							6.0	0.0	0.7252632513991557	6.0	500.0	1.0	8.0	1.0	4.0	0.0	part_2
169	4.0	5.0			550.0	0.0	1.0							5.0	0.0	0.0	0.0	500.0	4.0	5.0	8.0	8.0	1.0	part_2
170	1.0	5.0			600.0	0.0	0.0							5.0	0.0	0.7041394186671823	5.0	500.0	1.0	8.0	1.0	4.0	0.0	part_2
171	1.0	5.0			600.0	0.0	0.0							6.0	0.0	0.4580044624162838	6.0	500.0	2.0	1.0	2.0	7.0	0.0	part_2
172	1.0	5.0			600.0	0.0	0.0							5.0	0.0	0.6732917963527143	5.0	500.0	2.0	1.0	2.0	7.0	0.0	part_2
173	3.0	5.0			600.0	0.0	1.0							6.0	0.0	0.5142360007157549	6.0	500.0	2.0	7.0	6.0	3.0	1.0	part_2
174	1.0	5.0			600.0	0.0	0.0							6.0	0.0	0.6738015603623353	6.0	450.0	4.0	2.0	4.0	6.0	0.0	part_2
175	1.0	5.0			600.0	0.0	1.0							5.0	0.0	0.41655967733822763	5.0	450.0	3.0	3.0	7.0	1.0	0.0	part_2
176	2.0	5.0			600.0	0.0	1.0							5.0	0.0	0.4054734536912292	6.0	450.0	1.0	4.0	5.0	2.0	0.0	part_2
177	1.0	5.0			600.0	0.0	0.0							5.0	0.0	0.5190901610185392	5.0	450.0	3.0	6.0	3.0	5.0	0.0	part_2
178	1.0	5.0			600.0	0.0	0.0							5.0	0.0	0.552885448327288	5.0	450.0	1.0	8.0	1.0	4.0	0.0	part_2
179	1.0	5.0			600.0	0.0	1.0							6.0	0.0	0.5997057004133239	6.0	450.0	3.0	3.0	7.0	1.0	0.0	part_2
180	1.0	6.0			600.0	0.0	0.0							5.0	0.0	0.45774439204251394	5.0	450.0	3.0	6.0	3.0	5.0	0.0	part_2
181	1.0	6.0			600.0	0.0	0.0							6.0	0.0	0.3575975433923304	6.0	450.0	4.0	2.0	4.0	6.0	0.0	part_2
182	3.0	6.0			600.0	0.0	1.0							5.0	0.0	0.5149738229811192	5.0	450.0	1.0	4.0	5.0	2.0	1.0	part_2
183	3.0	6.0			550.0	0.0	1.0							5.0	0.0	0.6067954900208861	5.0	450.0	3.0	3.0	7.0	1.0	1.0	part_2
184	1.0	6.0			500.0	0.0	0.0							5.0	0.0	0.6178608262562193	5.0	450.0	1.0	8.0	1.0	4.0	0.0	part_2
185	3.0	6.0			500.0	0.0	1.0							5.0	0.0	0.6426478276844136	5.0	450.0	2.0	7.0	6.0	3.0	1.0	part_2
186	4.0	6.0			450.0	0.0	1.0							6.0	0.0	0.0	0.0	450.0	3.0	3.0	7.0	1.0	1.0	part_2
187	4.0	6.0			450.0	0.0	1.0							6.0	0.0	0.0	0.0	500.0	4.0	5.0	8.0	8.0	1.0	part_2
188	1.0	6.0			450.0	0.0	0.0							6.0	0.0	0.6886708780075423	6.0	550.0	3.0	6.0	3.0	5.0	0.0	part_2
189	1.0	6.0			450.0	0.0	0.0							5.0	0.0	0.7352771447040141	5.0	550.0	4.0	2.0	4.0	6.0	0.0	part_2
190	1.0	6.0			450.0	0.0	0.0							5.0	0.0	0.6700549726956524	5.0	550.0	2.0	1.0	2.0	7.0	0.0	part_2
191	1.0	6.0			450.0	0.0	0.0							5.0	0.0	0.624612680694554	5.0	550.0	1.0	8.0	1.0	4.0	0.0	part_2
192	4.0	6.0			450.0	0.0	1.0							6.0	0.0	0.0	0.0	550.0	2.0	7.0	6.0	3.0	1.0	part_2
193	1.0	6.0			450.0	0.0	0.0							6.0	0.0	0.5467442853841931	6.0	600.0	1.0	8.0	1.0	4.0	0.0	part_2
194	1.0	6.0			450.0	0.0	1.0							6.0	0.0	0.7284650224028155	6.0	600.0	2.0	7.0	6.0	3.0	0.0	part_2
195	4.0	6.0			450.0	0.0	1.0							6.0	0.0	0.0	0.0	600.0	2.0	7.0	6.0	3.0	1.0	part_2
196	1.0	6.0			450.0	0.0	0.0							6.0	0.0	0.8543980116955936	6.0	650.0	4.0	2.0	4.0	6.0	0.0	part_2
197	3.0	6.0			450.0	0.0	1.0							5.0	0.0	0.5950882750330493	5.0	650.0	2.0	7.0	6.0	3.0	1.0	part_2
198	3.0	6.0			400.0	0.0	1.0							6.0	0.0	0.8446117703570053	6.0	650.0	3.0	3.0	7.0	1.0	1.0	part_2
199	4.0	6.0			400.0	0.0	1.0							5.0	0.0	0.0	0.0	600.0	4.0	5.0	8.0	8.0	1.0	part_2
200	1.0	6.0			450.0	0.0	0.0							6.0	0.0	0.7230587626690976	6.0	600.0	4.0	2.0	4.0	6.0	0.0	part_2
201	4.0	6.0			450.0	0.0	1.0							6.0	0.0	0.0	0.0	600.0	1.0	4.0	5.0	2.0	1.0	part_2
202	4.0	6.0			450.0	0.0	1.0							5.0	0.0	0.0	0.0	650.0	2.0	7.0	6.0	3.0	1.0	part_2
203	4.0	6.0			500.0	0.0	1.0							5.0	0.0	0.0	0.0	650.0	3.0	3.0	7.0	1.0	1.0	part_2
204	1.0	6.0			550.0	0.0	0.0							6.0	0.0	0.6348264943226241	6.0	650.0	2.0	1.0	2.0	7.0	0.0	part_2
205	1.0	6.0			550.0	0.0	1.0							5.0	0.0	0.7607866906910203	5.0	650.0	1.0	4.0	5.0	2.0	0.0	part_2
206	1.0	6.0			550.0	0.0	0.0							6.0	0.0	0.8516972570796497	6.0	650.0	2.0	1.0	2.0	7.0	0.0	part_2
207	1.0	6.0			550.0	0.0	0.0							6.0	0.0	0.7513201867113821	6.0	650.0	2.0	1.0	2.0	7.0	0.0	part_2
208	1.0	6.0			550.0	0.0	0.0							6.0	0.0	0.8404532726854086	6.0	650.0	3.0	6.0	3.0	5.0	0.0	part_2
209	4.0	6.0			550.0	0.0	1.0							5.0	0.0	0.0	0.0	650.0	4.0	5.0	8.0	8.0	1.0	part_2
210	1.0	6.0			600.0	0.0	0.0							6.0	0.0	0.7759255536948331	6.0	650.0	2.0	1.0	2.0	7.0	0.0	part_2
211	1.0	6.0			600.0	0.0	0.0							5.0	0.0	1.1035416279919446	5.0	650.0	4.0	2.0	4.0	6.0	0.0	part_2
212	1.0	6.0			600.0	0.0	0.0							5.0	0.0	0.9921782853780314	5.0	650.0	3.0	6.0	3.0	5.0	0.0	part_2
213	1.0	6.0			600.0	0.0	0.0							6.0	0.0	0.9355034776963294	6.0	650.0	1.0	8.0	1.0	4.0	0.0	part_2
214	1.0	6.0			600.0	0.0	1.0							5.0	0.0	0.890380940400064	5.0	650.0	2.0	7.0	6.0	3.0	0.0	part_2
215	1.0	6.0			600.0	0.0	1.0							5.0	0.0	0.7802541630226187	5.0	650.0	3.0	3.0	7.0	1.0	0.0	part_2
216	3.0	7.0			600.0	0.0	1.0							5.0	0.0	0.33149466902250424	5.0	650.0	2.0	7.0	6.0	3.0	1.0	part_2
217	3.0	7.0			550.0	0.0	1.0							6.0	0.0	0.4218426896841265	6.0	650.0	1.0	4.0	5.0	2.0	1.0	part_2
218	1.0	7.0			550.0	0.0	1.0							6.0	0.0	0.5458038469660096	6.0	600.0	1.0	4.0	5.0	2.0	0.0	part_2
219	3.0	7.0			550.0	0.0	1.0							6.0	0.0	0.5932415936840698	6.0	600.0	2.0	7.0	6.0	3.0	1.0	part_2
220	1.0	7.0			550.0	0.0	1.0							6.0	0.0	0.6824481040821411	6.0	550.0	2.0	7.0	6.0	3.0	0.0	part_2
221	3.0	7.0			550.0	0.0	1.0							5.0	0.0	0.6056933730724268	5.0	550.0	1.0	4.0	5.0	2.0	1.0	part_2
222	4.0	7.0			500.0	0.0	1.0							6.0	0.0	0.0	0.0	550.0	2.0	7.0	6.0	3.0	1.0	part_2
223	1.0	7.0			500.0	0.0	0.0							6.0	0.0	0.6857079956680536	6.0	600.0	2.0	1.0	2.0	7.0	0.0	part_2
224	1.0	7.0			500.0	0.0	1.0							5.0	0.0	0.6178795240120962	5.0	600.0	2.0	7.0	6.0	3.0	0.0	part_2
225	3.0	7.0			500.0	0.0	1.0							6.0	0.0	0.6414798683254048	6.0	600.0	3.0	3.0	7.0	1.0	1.0	part_2
226	4.0	7.0			500.0	0.0	1.0							6.0	0.0	0.0	0.0	550.0	3.0	3.0	7.0	1.0	1.0	part_2
227	1.0	7.0			500.0	0.0	1.0							5.0	0.0	0.6775807390804403	5.0	600.0	4.0	5.0	8.0	8.0	0.0	part_2
228	1.0	7.0			500.0	0.0	0.0							5.0	0.0	0.7352849617018364	5.0	600.0	4.0	2.0	4.0	6.0	0.0	part_2
229	1.0	7.0			500.0	0.0	0.0							5.0	0.0	1.0048180309822783	5.0	600.0	1.0	8.0	1.0	4.0	0.0	part_2
230	4.0	7.0			500.0	0.0	1.0							5.0	0.0	0.0	0.0	600.0	2.0	7.0	6.0	3.0	1.0	part_2
231	1.0	7.0			550.0	0.0	1.0							5.0	0.0	0.3664845043094829	5.0	600.0	2.0	7.0	6.0	3.0	0.0	part_2
232	1.0	7.0			550.0	0.0	1.0							6.0	0.0	0.6486208272981457	6.0	600.0	1.0	4.0	5.0	2.0	0.0	part_2
233	1.0	7.0			550.0	0.0	0.0							6.0	0.0	0.7054034596658312	6.0	600.0	1.0	8.0	1.0	4.0	0.0	part_2
234	1.0	7.0			550.0	0.0	1.0							6.0	0.0	0.6047724576783367	6.0	600.0	1.0	4.0	5.0	2.0	0.0	part_2
235	1.0	7.0			550.0	0.0	0.0							5.0	0.0	0.8085746797150932	5.0	600.0	4.0	2.0	4.0	6.0	0.0	part_2
236	1.0	7.0			550.0	0.0	0.0							6.0	0.0	0.886620536679402	6.0	600.0	4.0	2.0	4.0	6.0	0.0	part_2
237	4.0	7.0			550.0	0.0	1.0							5.0	0.0	0.0	0.0	600.0	4.0	5.0	8.0	8.0	1.0	part_2
238	4.0	7.0			600.0	0.0	1.0							5.0	0.0	0.0	0.0	600.0	3.0	3.0	7.0	1.0	1.0	part_2
239	1.0	7.0			650.0	0.0	1.0							6.0	0.0	0.7671292506274767	6.0	600.0	1.0	4.0	5.0	2.0	0.0	part_2
240	3.0	7.0			650.0	0.0	1.0							5.0	0.0	0.6587127626989968	5.0	600.0	2.0	7.0	6.0	3.0	1.0	part_2
241	1.0	7.0			600.0	0.0	0.0							5.0	0.0	0.690107895003166	5.0	600.0	1.0	8.0	1.0	4.0	0.0	part_2
242	1.0	7.0			600.0	0.0	0.0							6.0	0.0	0.7353053826955147	6.0	600.0	3.0	6.0	3.0	5.0	0.0	part_2
243	4.0	7.0			600.0	0.0	1.0							5.0	0.0	0.0	0.0	600.0	1.0	4.0	5.0	2.0	1.0	part_2
244	1.0	7.0			650.0	0.0	0.0							5.0	0.0	0.6704157760250382	5.0	600.0	1.0	8.0	1.0	4.0	0.0	part_2
245	3.0	7.0			650.0	0.0	1.0							6.0	0.0	0.7375305510358885	6.0	600.0	2.0	7.0	6.0	3.0	1.0	part_2
246	1.0	7.0			650.0	0.0	0.0							5.0	0.0	0.8969482636894099	5.0	550.0	3.0	6.0	3.0	5.0	0.0	part_2
247	3.0	7.0			650.0	0.0	1.0							6.0	0.0	0.6502491116989404	6.0	550.0	3.0	3.0	7.0	1.0	1.0	part_2
248	1.0	7.0			650.0	0.0	0.0							6.0	0.0	1.0335133756743744	6.0	500.0	3.0	6.0	3.0	5.0	0.0	part_2
249	1.0	7.0			650.0	0.0	0.0							6.0	0.0	0.3702526476699859	6.0	500.0	3.0	6.0	3.0	5.0	0.0	part_2
250	4.0	7.0			650.0	0.0	1.0							6.0	0.0	0.0	0.0	500.0	1.0	4.0	5.0	2.0	1.0	part_2
251	1.0	7.0			650.0	0.0	0.0							6.0	0.0	0.6406486480263993	6.0	550.0	4.0	2.0	4.0	6.0	0.0	part_2
252	1.0	8.0			650.0	0.0	0.0							6.0	0.0	0.26768846466438845	6.0	550.0	3.0	6.0	3.0	5.0	0.0	part_2
253	3.0	8.0			650.0	0.0	1.0							6.0	0.0	0.2804431187105365	6.0	550.0	1.0	4.0	5.0	2.0	1.0	part_2
254	1.0	8.0			650.0	0.0	1.0							6.0	0.0	0.3040923640364781	6.0	500.0	4.0	5.0	8.0	8.0	0.0	part_2
255	3.0	8.0			650.0	0.0	1.0							6.0	0.0	0.2588625206844881	6.0	500.0	1.0	4.0	5.0	2.0	1.0	part_2
256	1.0	8.0			650.0	0.0	1.0							5.0	0.0	0.24891527643194422	5.0	450.0	3.0	3.0	7.0	1.0	0.0	part_2
257	1.0	8.0			650.0	0.0	1.0							5.0	0.0	0.3067479243618436	5.0	450.0	4.0	5.0	8.0	8.0	0.0	part_2
258	3.0	8.0			650.0	0.0	1.0							6.0	0.0	0.27356526406947523	6.0	450.0	3.0	3.0	7.0	1.0	1.0	part_2
259	1.0	8.0			650.0	0.0	1.0							6.0	0.0	0.30753479310078546	6.0	400.0	4.0	5.0	8.0	8.0	0.0	part_2
260	1.0	8.0			650.0	0.0	0.0							6.0	0.0	0.26496035704622045	6.0	400.0	4.0	2.0	4.0	6.0	0.0	part_2
261	1.0	8.0			650.0	0.0	0.0							6.0	0.0	0.26450722670415416	6.0	400.0	1.0	8.0	1.0	4.0	0.0	part_2
262	1.0	8.0			650.0	0.0	0.0							5.0	0.0	0.28861988871358335	5.0	400.0	1.0	8.0	1.0	4.0	0.0	part_2
263	3.0	8.0			650.0	0.0	1.0							6.0	0.0	0.23280469805467874	6.0	400.0	2.0	7.0	6.0	3.0	1.0	part_2
264	1.0	8.0			650.0	0.0	0.0							6.0	0.0	0.3130594933172688	6.0	350.0	4.0	2.0	4.0	6.0	0.0	part_2
265	3.0	8.0			650.0	0.0	1.0							6.0	0.0	0.2792303013266064	6.0	350.0	3.0	3.0	7.0	1.0	1.0	part_2
266	3.0	8.0			650.0	0.0	1.0							5.0	0.0	0.2576934606768191	5.0	300.0	3.0	3.0	7.0	1.0	1.0	part_2
267	1.0	8.0			600.0	0.0	0.0							6.0	0.0	0.3264971870230511	6.0	300.0	1.0	8.0	1.0	4.0	0.0	part_2
268	3.0	8.0			600.0	0.0	1.0							5.0	0.0	0.3264770850655623	5.0	300.0	4.0	5.0	8.0	8.0	1.0	part_2
269	3.0	8.0			550.0	0.0	1.0							5.0	0.0	0.32897680037422106	5.0	300.0	1.0	4.0	5.0	2.0	1.0	part_2
270	1.0	8.0			500.0	0.0	0.0							5.0	0.0	0.41791225562337786	5.0	300.0	4.0	2.0	4.0	6.0	0.0	part_2
271	1.0	8.0			500.0	0.0	0.0							6.0	0.0	0.3974077370367013	6.0	300.0	1.0	8.0	1.0	4.0	0.0	part_2
272	1.0	8.0			500.0	0.0	0.0							5.0	0.0	0.29582714405842125	5.0	300.0	2.0	1.0	2.0	7.0	0.0	part_2
273	3.0	8.0			500.0	0.0	1.0							6.0	0.0	0.25341598072554916	6.0	300.0	4.0	5.0	8.0	8.0	1.0	part_2
274	4.0	8.0			500.0	0.0	1.0							6.0	0.0	0.0	0.0	250.0	4.0	5.0	8.0	8.0	1.0	part_2
275	3.0	8.0			500.0	0.0	1.0							5.0	0.0	0.3546813407447189	5.0	300.0	1.0	4.0	5.0	2.0	1.0	part_2
276	1.0	8.0			450.0	0.0	0.0							5.0	0.0	0.5810806046938524	5.0	300.0	2.0	1.0	2.0	7.0	0.0	part_2
277	1.0	8.0			450.0	0.0	0.0							6.0	0.0	0.3118061167187989	6.0	300.0	2.0	1.0	2.0	7.0	0.0	part_2
278	1.0	8.0			450.0	0.0	1.0							5.0	0.0	0.5149858532822691	5.0	300.0	3.0	3.0	7.0	1.0	0.0	part_2
279	4.0	8.0			450.0	0.0	1.0							6.0	0.0	0.0	0.0	300.0	3.0	3.0	7.0	1.0	1.0	part_2
280	4.0	8.0			450.0	0.0	1.0							6.0	0.0	0.0	0.0	350.0	2.0	7.0	6.0	3.0	1.0	part_2
281	3.0	8.0			450.0	0.0	1.0							5.0	0.0	0.46251218469114974	5.0	400.0	3.0	3.0	7.0	1.0	1.0	part_2
282	1.0	8.0			400.0	0.0	1.0							5.0	0.0	0.6304079433321021	5.0	400.0	3.0	3.0	7.0	1.0	0.0	part_2
283	1.0	8.0			400.0	0.0	0.0							6.0	0.0	0.5429119049804285	6.0	400.0	2.0	1.0	2.0	7.0	0.0	part_2
284	1.0	8.0			400.0	0.0	0.0							5.0	0.0	0.46353313873987645	5.0	400.0	4.0	2.0	4.0	6.0	0.0	part_2
285	4.0	8.0			400.0	0.0	1.0							5.0	0.0	0.0	0.0	400.0	1.0	4.0	5.0	2.0	1.0	part_2
286	3.0	8.0			450.0	0.0	1.0							6.0	0.0	0.432837747677695	6.0	400.0	4.0	5.0	8.0	8.0	1.0	part_2
287	1.0	8.0			450.0	0.0	0.0							5.0	0.0	0.44538443634519354	5.0	350.0	4.0	2.0	4.0	6.0	0.0	part_2
0	0.0	1.0	204.0	6.0	0.0	1.0	0.0	34.0	102.0	136.0	170.0	68.0	204.0	7.0	0.0	4.044540115282871	6.0	0.0	2.0	1.0	2.0	7.0	0.0	part_3
1	0.0	1.0	170.0	5.0	0.0	1.0	0.0	170.0	68.0	34.0	136.0	102.0	204.0	7.0	0.0	2.808903857541736	1.0	0.0	1.0	8.0	1.0	4.0	0.0	part_3
2	0.0	1.0	44.0	1.0	0.0	1.0	1.0	88.0	264.0	44.0	220.0	176.0	132.0	7.0	0.0	1.9120848490856588	3.0	0.0	4.0	5.0	8.0	8.0	0.0	part_3
3	0.0	1.0	147.0	3.0	0.0	1.0	0.0	98.0	49.0	196.0	294.0	245.0	147.0	7.0	0.0	2.710289093258325	6.0	0.0	1.0	8.0	1.0	4.0	0.0	part_3
4	0.0	1.0	245.0	5.0	0.0	1.0	1.0	49.0	196.0	147.0	245.0	98.0	294.0	7.0	0.0	2.0373537495033816	4.0	0.0	2.0	7.0	6.0	3.0	0.0	part_3
5	0.0	1.0	324.0	6.0	0.0	1.0	0.0	324.0	162.0	54.0	108.0	216.0	270.0	7.0	0.0	2.005021345394198	1.0	0.0	4.0	2.0	4.0	6.0	0.0	part_3
6	0.0	1.0	270.0	5.0	0.0	1.0	1.0	162.0	270.0	54.0	324.0	108.0	216.0	7.0	0.0	1.9711721481871791	2.0	0.0	1.0	4.0	5.0	2.0	0.0	part_3
7	0.0	1.0	245.0	5.0	0.0	1.0	1.0	294.0	98.0	245.0	196.0	147.0	49.0	7.0	0.0	2.512427461508196	3.0	0.0	4.0	5.0	8.0	8.0	0.0	part_3
8	0.0	1.0	234.0	6.0	0.0	1.0	1.0	156.0	117.0	234.0	78.0	39.0	195.0	7.0	0.0	2.2436904810601845	3.0	0.0	1.0	4.0	5.0	2.0	0.0	part_3
9	0.0	1.0	39.0	1.0	0.0	1.0	1.0	195.0	117.0	39.0	78.0	156.0	234.0	7.0	0.0	3.302028839418199	3.0	0.0	2.0	7.0	6.0	3.0	0.0	part_3
10	0.0	1.0	204.0	6.0	0.0	1.0	0.0	204.0	68.0	136.0	170.0	102.0	34.0	7.0	0.0	2.7873842921690084	1.0	0.0	4.0	2.0	4.0	6.0	0.0	part_3
11	0.0	1.0	324.0	6.0	0.0	1.0	0.0	108.0	162.0	270.0	216.0	324.0	54.0	7.0	0.0	1.9997970615513623	5.0	0.0	1.0	8.0	1.0	4.0	0.0	part_3
12	0.0	1.0	176.0	4.0	0.0	1.0	0.0	176.0	132.0	220.0	44.0	88.0	264.0	7.0	0.0	1.8437265757238492	1.0	0.0	4.0	2.0	4.0	6.0	0.0	part_3
13	0.0	1.0	234.0	6.0	0.0	1.0	0.0	39.0	117.0	156.0	78.0	195.0	234.0	7.0	0.0	1.5973741924390197	6.0	0.0	3.0	6.0	3.0	5.0	0.0	part_3
14	0.0	1.0	234.0	6.0	0.0	1.0	0.0	78.0	195.0	234.0	39.0	156.0	117.0	7.0	0.0	2.937984612537548	3.0	0.0	4.0	2.0	4.0	6.0	0.0	part_3
15	0.0	1.0	324.0	6.0	0.0	1.0	1.0	54.0	108.0	216.0	270.0	324.0	162.0	7.0	0.0	2.2292353535303846	5.0	0.0	3.0	3.0	7.0	1.0	0.0	part_3
16	0.0	1.0	147.0	3.0	0.0	1.0	0.0	147.0	294.0	49.0	98.0	245.0	196.0	7.0	0.0	2.331072263768874	1.0	0.0	2.0	1.0	2.0	7.0	0.0	part_3
17	0.0	1.0	39.0	1.0	0.0	1.0	0.0	234.0	39.0	78.0	117.0	156.0	195.0	7.0	0.0	1.8037454687291756	2.0	0.0	1.0	8.0	1.0	4.0	0.0	part_3
18	0.0	1.0	44.0	1.0	0.0	1.0	1.0	88.0	176.0	264.0	132.0	220.0	44.0	7.0	0.0	2.5467336698784493	6.0	0.0	2.0	7.0	6.0	3.0	0.0	part_3
19	0.0	1.0	234.0	6.0	0.0	1.0	1.0	195.0	117.0	78.0	156.0	234.0	39.0	7.0	0.0	1.5471829096786678	5.0	0.0	3.0	3.0	7.0	1.0	0.0	part_3
20	0.0	2.0	156.0	4.0	0.0	1.0	1.0	156.0	195.0	117.0	234.0	39.0	78.0	7.0	0.0	2.0632552917231806	1.0	0.0	1.0	4.0	5.0	2.0	0.0	part_3
21	0.0	2.0	294.0	6.0	0.0	1.0	0.0	98.0	49.0	196.0	245.0	147.0	294.0	7.0	0.0	1.6153706184704788	6.0	0.0	3.0	6.0	3.0	5.0	0.0	part_3
22	0.0	2.0	132.0	3.0	0.0	1.0	0.0	220.0	88.0	176.0	264.0	44.0	132.0	7.0	0.0	2.3821490688133053	6.0	0.0	1.0	8.0	1.0	4.0	0.0	part_3
23	0.0	2.0	264.0	6.0	0.0	1.0	0.0	44.0	264.0	88.0	132.0	176.0	220.0	7.0	0.0	2.2701308177784085	2.0	0.0	3.0	6.0	3.0	5.0	0.0	part_3
24	0.0	2.0	170.0	5.0	0.0	1.0	1.0	136.0	68.0	34.0	170.0	204.0	102.0	7.0	0.0	1.3475808511138894	4.0	0.0	2.0	7.0	6.0	3.0	0.0	part_3
25	0.0	2.0	54.0	1.0	0.0	1.0	0.0	54.0	270.0	324.0	216.0	162.0	108.0	7.0	0.0	1.8323119622073136	1.0	0.0	3.0	6.0	3.0	5.0	0.0	part_3
26	0.0	2.0	196.0	4.0	0.0	1.0	0.0	294.0	49.0	147.0	98.0	245.0	196.0	7.0	0.0	3.286292145436164	6.0	0.0	4.0	2.0	4.0	6.0	0.0	part_3
27	0.0	2.0	234.0	6.0	0.0	1.0	1.0	234.0	117.0	78.0	195.0	39.0	156.0	7.0	0.0	2.262146145105362	1.0	0.0	4.0	5.0	8.0	8.0	0.0	part_3
28	0.0	2.0	34.0	1.0	0.0	1.0	1.0	170.0	204.0	136.0	34.0	68.0	102.0	7.0	0.0	2.3438276991364546	4.0	0.0	3.0	3.0	7.0	1.0	0.0	part_3
29	0.0	2.0	294.0	6.0	0.0	1.0	0.0	294.0	98.0	245.0	49.0	147.0	196.0	7.0	0.0	3.176163584808819	1.0	0.0	1.0	8.0	1.0	4.0	0.0	part_3
30	0.0	2.0	102.0	3.0	0.0	1.0	1.0	204.0	102.0	136.0	34.0	170.0	68.0	7.0	0.0	2.8295917285140604	2.0	0.0	4.0	5.0	8.0	8.0	0.0	part_3
31	0.0	2.0	156.0	4.0	0.0	1.0	0.0	195.0	234.0	117.0	78.0	156.0	39.0	7.0	0.0	3.224737388838548	5.0	0.0	4.0	2.0	4.0	6.0	0.0	part_3
32	0.0	2.0	264.0	6.0	0.0	1.0	0.0	88.0	132.0	44.0	264.0	176.0	220.0	7.0	0.0	1.817532830638811	4.0	0.0	2.0	1.0	2.0	7.0	0.0	part_3
33	0.0	2.0	294.0	6.0	0.0	1.0	1.0	294.0	245.0	98.0	49.0	147.0	196.0	7.0	0.0	1.773953088792041	1.0	0.0	2.0	7.0	6.0	3.0	0.0	part_3
34	0.0	2.0	44.0	1.0	0.0	1.0	0.0	264.0	88.0	220.0	176.0	44.0	132.0	7.0	0.0	3.3408047817647457	5.0	0.0	4.0	2.0	4.0	6.0	0.0	part_3
35	0.0	2.0	68.0	2.0	0.0	1.0	1.0	102.0	204.0	170.0	34.0	136.0	68.0	7.0	0.0	1.3951334354933351	6.0	0.0	4.0	5.0	8.0	8.0	0.0	part_3
36	0.0	2.0	34.0	1.0	0.0	1.0	0.0	136.0	34.0	170.0	204.0	102.0	68.0	7.0	0.0	2.508494219800923	2.0	0.0	1.0	8.0	1.0	4.0	0.0	part_3
37	0.0	2.0	294.0	6.0	0.0	1.0	1.0	196.0	147.0	294.0	98.0	49.0	245.0	7.0	0.0	2.475373584078625	3.0	0.0	1.0	4.0	5.0	2.0	0.0	part_3
38	0.0	2.0	264.0	6.0	0.0	1.0	1.0	44.0	132.0	176.0	220.0	264.0	88.0	7.0	0.0	2.0156047553173266	5.0	0.0	4.0	5.0	8.0	8.0	0.0	part_3
39	0.0	2.0	324.0	6.0	0.0	1.0	1.0	54.0	108.0	324.0	216.0	162.0	270.0	7.0	0.0	2.175263795477804	3.0	0.0	1.0	4.0	5.0	2.0	0.0	part_3
40	0.0	3.0	44.0	1.0	0.0	1.0	0.0	132.0	220.0	44.0	88.0	264.0	176.0	7.0	0.0	2.781483680009842	3.0	0.0	1.0	8.0	1.0	4.0	0.0	part_3
41	0.0	3.0	234.0	6.0	0.0	1.0	0.0	39.0	195.0	156.0	234.0	117.0	78.0	7.0	0.0	2.1535187490517274	4.0	0.0	3.0	6.0	3.0	5.0	0.0	part_3
42	0.0	3.0	34.0	1.0	0.0	1.0	1.0	170.0	204.0	34.0	68.0	102.0	136.0	7.0	0.0	2.842278706957586	3.0	0.0	1.0	4.0	5.0	2.0	0.0	part_3
43	0.0	3.0	34.0	1.0	0.0	1.0	0.0	34.0	204.0	170.0	136.0	68.0	102.0	7.0	0.0	2.065819466486573	1.0	0.0	2.0	1.0	2.0	7.0	0.0	part_3
44	0.0	3.0	294.0	6.0	0.0	1.0	0.0	147.0	98.0	294.0	196.0	245.0	49.0	7.0	0.0	3.0463655498460867	3.0	0.0	2.0	1.0	2.0	7.0	0.0	part_3
45	0.0	3.0	294.0	6.0	0.0	1.0	1.0	49.0	294.0	98.0	245.0	196.0	147.0	7.0	0.0	1.5385700911283493	2.0	0.0	3.0	3.0	7.0	1.0	0.0	part_3
46	0.0	3.0	234.0	6.0	0.0	1.0	1.0	234.0	117.0	78.0	156.0	195.0	39.0	7.0	0.0	2.0349955044221133	1.0	0.0	3.0	3.0	7.0	1.0	0.0	part_3
47	0.0	3.0	176.0	4.0	0.0	1.0	0.0	220.0	88.0	132.0	176.0	264.0	44.0	7.0	0.0	2.2723653787979856	4.0	0.0	3.0	6.0	3.0	5.0	0.0	part_3
48	0.0	3.0	108.0	2.0	0.0	1.0	1.0	108.0	324.0	54.0	216.0	162.0	270.0	7.0	0.0	2.373988286126405	1.0	0.0	4.0	5.0	8.0	8.0	0.0	part_3
49	0.0	3.0	102.0	3.0	0.0	1.0	0.0	204.0	34.0	136.0	170.0	68.0	102.0	7.0	0.0	2.0941758967819624	6.0	0.0	4.0	2.0	4.0	6.0	0.0	part_3
50	0.0	3.0	44.0	1.0	0.0	1.0	1.0	88.0	132.0	220.0	264.0	44.0	176.0	7.0	0.0	2.7383136236458085	5.0	0.0	3.0	3.0	7.0	1.0	0.0	part_3
51	0.0	3.0	216.0	4.0	0.0	1.0	0.0	162.0	108.0	270.0	216.0	54.0	324.0	7.0	0.0	2.737504863238428	4.0	0.0	2.0	1.0	2.0	7.0	0.0	part_3
52	0.0	3.0	294.0	6.0	0.0	1.0	1.0	49.0	196.0	245.0	147.0	294.0	98.0	7.0	0.0	1.7724750695633702	5.0	0.0	3.0	3.0	7.0	1.0	0.0	part_3
53	0.0	3.0	34.0	1.0	0.0	1.0	0.0	68.0	34.0	102.0	170.0	136.0	204.0	7.0	0.0	1.6051035526907071	2.0	0.0	3.0	6.0	3.0	5.0	0.0	part_3
54	0.0	3.0	162.0	3.0	0.0	1.0	0.0	216.0	108.0	324.0	54.0	162.0	270.0	7.0	0.0	2.0442253769142553	5.0	0.0	1.0	8.0	1.0	4.0	0.0	part_3
55	0.0	3.0	156.0	4.0	0.0	1.0	1.0	156.0	78.0	39.0	234.0	117.0	195.0	7.0	0.0	1.7297128901118413	1.0	0.0	4.0	5.0	8.0	8.0	0.0	part_3
56	0.0	3.0	324.0	6.0	0.0	1.0	1.0	270.0	108.0	162.0	324.0	54.0	216.0	7.0	0.0	1.7194096891325898	4.0	0.0	2.0	7.0	6.0	3.0	0.0	part_3
57	0.0	3.0	132.0	3.0	0.0	1.0	1.0	264.0	132.0	44.0	176.0	88.0	220.0	7.0	0.0	2.069895103399176	2.0	0.0	3.0	3.0	7.0	1.0	0.0	part_3
58	0.0	3.0	176.0	4.0	0.0	1.0	1.0	88.0	44.0	132.0	220.0	264.0	176.0	7.0	0.0	2.047662304248661	6.0	0.0	2.0	7.0	6.0	3.0	0.0	part_3
59	0.0	3.0	324.0	6.0	0.0	1.0	1.0	54.0	162.0	324.0	216.0	270.0	108.0	7.0	0.0	2.748294234101195	3.0	0.0	4.0	5.0	8.0	8.0	0.0	part_3
60	0.0	4.0	270.0	5.0	0.0	1.0	1.0	108.0	324.0	270.0	216.0	54.0	162.0	7.0	0.0	1.7606297564925626	3.0	0.0	3.0	3.0	7.0	1.0	0.0	part_3
61	0.0	4.0	204.0	6.0	0.0	1.0	1.0	34.0	68.0	136.0	170.0	102.0	204.0	7.0	0.0	1.4370940665248781	6.0	0.0	2.0	7.0	6.0	3.0	0.0	part_3
62	0.0	4.0	294.0	6.0	0.0	1.0	0.0	98.0	196.0	245.0	147.0	294.0	49.0	7.0	0.0	1.3131280103698373	5.0	0.0	3.0	6.0	3.0	5.0	0.0	part_3
63	0.0	4.0	88.0	2.0	0.0	1.0	0.0	176.0	88.0	44.0	220.0	132.0	264.0	7.0	0.0	2.6431102449423634	2.0	0.0	2.0	1.0	2.0	7.0	0.0	part_3
64	0.0	4.0	108.0	2.0	0.0	1.0	0.0	108.0	216.0	324.0	270.0	54.0	162.0	7.0	0.0	2.5078213970991783	1.0	0.0	2.0	1.0	2.0	7.0	0.0	part_3
65	0.0	4.0	270.0	5.0	0.0	1.0	0.0	162.0	270.0	54.0	108.0	216.0	324.0	7.0	0.0	2.9717300161137246	2.0	0.0	4.0	2.0	4.0	6.0	0.0	part_3
66	0.0	4.0	136.0	4.0	0.0	1.0	0.0	170.0	34.0	102.0	68.0	136.0	204.0	7.0	0.0	1.373616447148379	5.0	0.0	3.0	6.0	3.0	5.0	0.0	part_3
67	0.0	4.0	195.0	5.0	0.0	1.0	0.0	117.0	39.0	234.0	156.0	78.0	195.0	7.0	0.0	2.0286044293898158	6.0	0.0	1.0	8.0	1.0	4.0	0.0	part_3
68	0.0	4.0	324.0	6.0	0.0	1.0	0.0	54.0	270.0	162.0	216.0	324.0	108.0	7.0	0.0	2.5806868378422223	5.0	0.0	3.0	6.0	3.0	5.0	0.0	part_3
69	0.0	4.0	98.0	2.0	0.0	1.0	0.0	98.0	49.0	147.0	196.0	245.0	294.0	7.0	0.0	2.3776448755525053	1.0	0.0	4.0	2.0	4.0	6.0	0.0	part_3
70	0.0	4.0	132.0	3.0	0.0	1.0	1.0	176.0	88.0	220.0	264.0	44.0	132.0	7.0	0.0	2.8641400443739258	6.0	0.0	1.0	4.0	5.0	2.0	0.0	part_3
71	0.0	4.0	102.0	3.0	0.0	1.0	1.0	34.0	68.0	102.0	136.0	170.0	204.0	7.0	0.0	2.2119966982281767	3.0	0.0	1.0	4.0	5.0	2.0	0.0	part_3
72	0.0	4.0	39.0	1.0	0.0	1.0	1.0	78.0	234.0	117.0	39.0	156.0	195.0	7.0	0.0	3.41832331410842	4.0	0.0	2.0	7.0	6.0	3.0	0.0	part_3
73	0.0	4.0	264.0	6.0	0.0	1.0	1.0	88.0	132.0	264.0	176.0	220.0	44.0	7.0	0.0	4.036919144098647	3.0	0.0	1.0	4.0	5.0	2.0	0.0	part_3
74	0.0	4.0	195.0	5.0	0.0	1.0	0.0	117.0	156.0	234.0	195.0	39.0	78.0	7.0	0.0	2.429696101404261	4.0	0.0	2.0	1.0	2.0	7.0	0.0	part_3
75	0.0	4.0	234.0	6.0	0.0	1.0	0.0	117.0	156.0	234.0	78.0	195.0	39.0	7.0	0.0	2.498174963402562	3.0	0.0	2.0	1.0	2.0	7.0	0.0	part_3
76	0.0	4.0	68.0	2.0	0.0	1.0	1.0	136.0	102.0	170.0	204.0	34.0	68.0	7.0	0.0	2.9050872197840363	6.0	0.0	3.0	3.0	7.0	1.0	0.0	part_3
77	0.0	4.0	196.0	4.0	0.0	1.0	1.0	294.0	147.0	196.0	245.0	98.0	49.0	7.0	0.0	4.3918301544035785	3.0	0.0	1.0	4.0	5.0	2.0	0.0	part_3
78	0.0	4.0	324.0	6.0	0.0	1.0	1.0	54.0	162.0	324.0	270.0	108.0	216.0	7.0	0.0	2.4576515390654095	3.0	0.0	2.0	7.0	6.0	3.0	0.0	part_3
79	0.0	4.0	98.0	2.0	0.0	1.0	1.0	49.0	196.0	294.0	245.0	98.0	147.0	7.0	0.0	2.829412821389269	5.0	0.0	4.0	5.0	8.0	8.0	0.0	part_3
