	accuracy	block	chosen_bidding_amount	chosen_bidding_level	left_SSD	num_trial_presentations	paired_with_stopping	possible_bid_1	possible_bid_2	possible_bid_3	possible_bid_4	possible_bid_5	possible_bid_6	quadrant	raw_reward_magnitude	reaction_time	response	right_SSD	stepwise_reward_magnitude	stim_color	stim_reward	stim_shape	stop_signal_trial_type	which_part
0		1.0				1.0	1.0							4.0	421.0	0.4912708768970333	4.0		4.0	6.0	8.0	2.0		part_1
1		1.0				1.0	0.0							2.0	423.0	0.35742890305118635	2.0		4.0	8.0	4.0	8.0		part_1
2		1.0				1.0	0.0							3.0	188.0	0.33458552544470876	3.0		3.0	4.0	3.0	6.0		part_1
3		1.0				2.0	1.0							4.0	0.0	0.42618207790656015	4.0		0.0	7.0	7.0	3.0		part_1
4		1.0				1.0	0.0							2.0	118.0	0.30396287189796567	2.0		2.0	1.0	2.0	7.0		part_1
5		1.0				1.0	1.0							2.0	407.0	0.3722100729937665	2.0		4.0	6.0	8.0	2.0		part_1
6		1.0				1.0	0.0							4.0	0.0	0.31438389100367203	4.0		0.0	4.0	3.0	6.0		part_1
7		1.0				1.0	1.0							4.0	95.0	0.39422242203727365	4.0		2.0	2.0	6.0	5.0		part_1
8		1.0				1.0	1.0							2.0	0.0	0.3048609724501148	2.0		0.0	2.0	6.0	5.0		part_1
9		1.0				1.0	1.0							4.0	50.0	0.4622815634938888	4.0		1.0	3.0	5.0	1.0		part_1
10		1.0				5.0	0.0							1.0	79.0	0.3641891204752028	1.0		2.0	1.0	2.0	7.0		part_1
11		1.0				1.0	0.0							2.0	399.0	0.46767117647686973	2.0		4.0	8.0	4.0	8.0		part_1
12		1.0				1.0	0.0							3.0	0.0	0.3093605929752812	3.0		0.0	1.0	2.0	7.0		part_1
13		1.0				1.0	1.0							2.0	393.0	0.3552414574660361	2.0		4.0	6.0	8.0	2.0		part_1
14		1.0				1.0	1.0							3.0	26.0	0.36662221897859126	3.0		1.0	3.0	5.0	1.0		part_1
15		1.0				1.0	1.0							4.0	222.0	0.26503732439596206	4.0		3.0	7.0	7.0	3.0		part_1
16		1.0				1.0	0.0							4.0	59.0	0.2547873464645818	4.0		1.0	5.0	1.0	4.0		part_1
17		1.0				1.0	0.0							2.0	0.0	0.3128315340145491	2.0		0.0	4.0	3.0	6.0		part_1
18		1.0				1.0	1.0							2.0	414.0	0.33551424351753667	2.0		4.0	6.0	8.0	2.0		part_1
19		1.0				1.0	1.0							1.0	375.0	0.3597102669882588	1.0		4.0	6.0	8.0	2.0		part_1
20		1.0				1.0	1.0							2.0	0.0	0.3713013644446619	2.0		0.0	6.0	8.0	2.0		part_1
21		1.0				1.0	1.0							2.0	109.0	0.4053521929308772	2.0		2.0	2.0	6.0	5.0		part_1
22		1.0				1.0	1.0							4.0	194.0	0.338763749867212	4.0		3.0	7.0	7.0	3.0		part_1
23		1.0				1.0	0.0							3.0	215.0	0.34947887249290943	3.0		3.0	4.0	3.0	6.0		part_1
24		1.0				1.0	1.0							1.0	122.0	0.29311937448801473	1.0		2.0	2.0	6.0	5.0		part_1
25		1.0				1.0	0.0							2.0	0.0	0.2937671604449861	2.0		0.0	4.0	3.0	6.0		part_1
26		1.0				1.0	0.0							1.0	34.0	0.29576277546584606	1.0		1.0	5.0	1.0	4.0		part_1
27		1.0				1.0	1.0							4.0	0.0	0.3181062884395942	4.0		0.0	2.0	6.0	5.0		part_1
28		1.0				1.0	1.0							2.0	0.0	0.3535187234519981	2.0		0.0	3.0	5.0	1.0		part_1
29		1.0				1.0	1.0							1.0	42.0	0.29754439648240805	1.0		1.0	3.0	5.0	1.0		part_1
30		1.0				1.0	1.0							3.0	0.0	0.3078099109698087	3.0		0.0	7.0	7.0	3.0		part_1
31		1.0				1.0	1.0							1.0	0.0	0.33147520548664033	1.0		0.0	2.0	6.0	5.0		part_1
32		1.0				1.0	0.0							2.0	0.0	0.2763722484232858	2.0		0.0	4.0	3.0	6.0		part_1
33		1.0				1.0	1.0							2.0	69.0	0.37780705792829394	2.0		1.0	3.0	5.0	1.0		part_1
34		1.0				1.0	1.0							1.0	0.0	0.24429808446438983	1.0		0.0	3.0	5.0	1.0		part_1
35		1.0				1.0	0.0							1.0	0.0	0.34419970045564696	1.0		0.0	5.0	1.0	4.0		part_1
36		1.0				1.0	0.0							2.0	122.0	0.3001624734606594	2.0		2.0	1.0	2.0	7.0		part_1
37		1.0				1.0	1.0							2.0	392.0	0.2897987014730461	2.0		4.0	6.0	8.0	2.0		part_1
38		1.0				1.0	0.0							1.0	25.0	0.2351590954931453	1.0		1.0	5.0	1.0	4.0		part_1
39		1.0				1.0	0.0							4.0	0.0	0.3686816614936106	4.0		0.0	1.0	2.0	7.0		part_1
40		1.0				1.0	1.0							3.0	47.0	0.33642528142081574	3.0		1.0	3.0	5.0	1.0		part_1
41		1.0				1.0	1.0							3.0	382.0	0.3707919509615749	3.0		4.0	6.0	8.0	2.0		part_1
42		1.0				1.0	1.0							1.0	382.0	0.33646654442418367	1.0		4.0	6.0	8.0	2.0		part_1
43		1.0				1.0	0.0							4.0	0.0	0.3601632639183663	4.0		0.0	5.0	1.0	4.0		part_1
44		1.0				1.0	0.0							1.0	58.0	0.6536651114583947	1.0		1.0	5.0	1.0	4.0		part_1
45		1.0				1.0	0.0							3.0	113.0	0.3953575934865512	3.0		2.0	1.0	2.0	7.0		part_1
46		1.0				1.0	1.0							3.0	59.0	0.33881275897147134	3.0		1.0	3.0	5.0	1.0		part_1
47		1.0				1.0	1.0							4.0	197.0	0.31765501043992117	4.0		3.0	7.0	7.0	3.0		part_1
48		1.0				1.0	0.0							3.0	396.0	0.3288577374187298	3.0		4.0	8.0	4.0	8.0		part_1
49		1.0				1.0	1.0							2.0	34.0	0.4086231739493087	2.0		1.0	3.0	5.0	1.0		part_1
50		1.0				1.0	1.0							4.0	0.0	0.29682847240474075	4.0		0.0	2.0	6.0	5.0		part_1
51		1.0				1.0	1.0							3.0	0.0	0.30835495941573754	3.0		0.0	7.0	7.0	3.0		part_1
52		1.0				1.0	0.0							1.0	185.0	0.332445997511968	1.0		3.0	4.0	3.0	6.0		part_1
53		1.0				2.0	1.0							1.0	52.0	0.3453561534988694	1.0		1.0	3.0	5.0	1.0		part_1
54		1.0				1.0	0.0							4.0	394.0	0.30955442594131455	4.0		4.0	8.0	4.0	8.0		part_1
55		1.0				1.0	0.0							2.0	40.0	0.41208989347796887	2.0		1.0	5.0	1.0	4.0		part_1
56		1.0				1.0	0.0							2.0	197.0	0.32442052342230454	2.0		3.0	4.0	3.0	6.0		part_1
57		1.0				1.0	0.0							1.0	207.0	0.4584778964635916	1.0		3.0	4.0	3.0	6.0		part_1
58		1.0				1.0	1.0							3.0	393.0	0.3120728109497577	3.0		4.0	6.0	8.0	2.0		part_1
59		1.0				1.0	1.0							3.0	388.0	0.39172692043939605	3.0		4.0	6.0	8.0	2.0		part_1
60		1.0				1.0	1.0							4.0	405.0	0.3145783574436791	4.0		4.0	6.0	8.0	2.0		part_1
61		1.0				1.0	1.0							1.0	181.0	0.38300626049749553	1.0		3.0	7.0	7.0	3.0		part_1
62		1.0				1.0	1.0							4.0	112.0	0.33714037854224443	4.0		2.0	2.0	6.0	5.0		part_1
63		1.0				1.0	0.0							4.0	42.0	0.32692262990167364	4.0		1.0	5.0	1.0	4.0		part_1
64		1.0				1.0	0.0							1.0	98.0	0.30581543693551794	1.0		2.0	1.0	2.0	7.0		part_1
65		1.0				1.0	1.0							3.0	187.0	0.33939028694294393	3.0		3.0	7.0	7.0	3.0		part_1
66		1.0				1.0	0.0							4.0	86.0	0.3401355129899457	4.0		2.0	1.0	2.0	7.0		part_1
67		1.0				1.0	0.0							1.0	0.0	0.32882728340337053	1.0		0.0	8.0	4.0	8.0		part_1
68		1.0				1.0	0.0							1.0	109.0	0.36306096194311976	1.0		2.0	1.0	2.0	7.0		part_1
69		1.0				1.0	0.0							1.0	223.0	0.3519061789265834	1.0		3.0	4.0	3.0	6.0		part_1
70		1.0				1.0	1.0							3.0	64.0	0.3190549749415368	3.0		1.0	3.0	5.0	1.0		part_1
71		1.0				1.0	0.0							1.0	0.0	0.3210738460184075	1.0		0.0	1.0	2.0	7.0		part_1
72		1.0				1.0	1.0							1.0	0.0	0.28711773245595396	1.0		0.0	6.0	8.0	2.0		part_1
73		1.0				1.0	0.0							4.0	209.0	0.35589935746975243	4.0		3.0	4.0	3.0	6.0		part_1
74		1.0				1.0	0.0							2.0	392.0	0.43531987647293136	2.0		4.0	8.0	4.0	8.0		part_1
75		1.0				1.0	0.0							1.0	64.0	0.3898049454437569	1.0		1.0	5.0	1.0	4.0		part_1
76		1.0				1.0	1.0							4.0	410.0	0.33432907290989533	4.0		4.0	6.0	8.0	2.0		part_1
77		1.0				1.0	1.0							1.0	215.0	0.3698183604865335	1.0		3.0	7.0	7.0	3.0		part_1
78		1.0				1.0	1.0							1.0	71.0	0.30207470391178504	1.0		1.0	3.0	5.0	1.0		part_1
79		1.0				1.0	0.0							1.0	421.0	0.37010009348159656	1.0		4.0	8.0	4.0	8.0		part_1
80		1.0				1.0	0.0							4.0	0.0	0.31431765953311697	4.0		0.0	8.0	4.0	8.0		part_1
81		1.0				1.0	0.0							3.0	0.0	0.3259874834911898	3.0		0.0	5.0	1.0	4.0		part_1
82		1.0				1.0	0.0							4.0	84.0	0.32508982898434624	4.0		2.0	1.0	2.0	7.0		part_1
83		1.0				1.0	1.0							2.0	0.0	0.3939860254758969	2.0		0.0	6.0	8.0	2.0		part_1
84		1.0				1.0	0.0							2.0	0.0	0.32686832098988816	2.0		0.0	1.0	2.0	7.0		part_1
85		1.0				1.0	0.0							1.0	382.0	0.3291340784053318	1.0		4.0	8.0	4.0	8.0		part_1
86		1.0				1.0	1.0							1.0	211.0	0.31696322798961774	1.0		3.0	7.0	7.0	3.0		part_1
87		1.0				1.0	1.0							3.0	80.0	0.316385192447342	3.0		2.0	2.0	6.0	5.0		part_1
88		1.0				1.0	1.0							4.0	43.0	0.34064233489334583	4.0		1.0	3.0	5.0	1.0		part_1
89		1.0				1.0	1.0							3.0	122.0	0.3181573760230094	3.0		2.0	2.0	6.0	5.0		part_1
90		1.0				1.0	0.0							4.0	74.0	0.30713277898030356	4.0		1.0	5.0	1.0	4.0		part_1
91		1.0				1.0	0.0							3.0	90.0	0.29684546997305006	3.0		2.0	1.0	2.0	7.0		part_1
92		1.0				1.0	0.0							3.0	0.0	0.2853494184673764	3.0		0.0	1.0	2.0	7.0		part_1
93		1.0				1.0	1.0							3.0	178.0	0.2649320018826984	3.0		3.0	7.0	7.0	3.0		part_1
94		1.0				1.0	1.0							2.0	40.0	0.3099612375954166	2.0		1.0	3.0	5.0	1.0		part_1
95		1.0				1.0	1.0							4.0	193.0	0.332118468999397	4.0		3.0	7.0	7.0	3.0		part_1
96		1.0				1.0	1.0							4.0	84.0	0.3226599534973502	4.0		2.0	2.0	6.0	5.0		part_1
97		1.0				1.0	0.0							3.0	72.0	0.3122627334087156	3.0		1.0	5.0	1.0	4.0		part_1
98		1.0				1.0	1.0							4.0	219.0	0.28974128188565373	4.0		3.0	7.0	7.0	3.0		part_1
99		1.0				1.0	1.0							2.0	72.0	0.33477213996229693	2.0		1.0	3.0	5.0	1.0		part_1
100		2.0				1.0	0.0							2.0	419.0	0.45726363704307005	2.0		4.0	8.0	4.0	8.0		part_1
101		2.0				1.0	1.0							2.0	213.0	0.33550346142146736	2.0		3.0	7.0	7.0	3.0		part_1
102		2.0				1.0	1.0							2.0	25.0	0.3246074694325216	2.0		1.0	3.0	5.0	1.0		part_1
103		2.0				1.0	0.0							4.0	69.0	0.32420097291469574	4.0		1.0	5.0	1.0	4.0		part_1
104		2.0				1.0	1.0							3.0	0.0	0.38034985441481695	3.0		0.0	6.0	8.0	2.0		part_1
105		2.0				1.0	0.0							4.0	100.0	0.3023684980580583	4.0		2.0	1.0	2.0	7.0		part_1
106		2.0				1.0	1.0							1.0	207.0	0.28086192189948633	1.0		3.0	7.0	7.0	3.0		part_1
107		2.0				1.0	0.0							4.0	0.0	0.30363348743412644	4.0		0.0	4.0	3.0	6.0		part_1
108		2.0				1.0	1.0							4.0	0.0	0.269531128462404	4.0		0.0	7.0	7.0	3.0		part_1
109		2.0				1.0	0.0							4.0	184.0	0.28326401696540415	4.0		3.0	4.0	3.0	6.0		part_1
110		2.0				1.0	0.0							2.0	28.0	0.34012474748305976	2.0		1.0	5.0	1.0	4.0		part_1
111		2.0				1.0	1.0							2.0	35.0	0.3394337265053764	2.0		1.0	3.0	5.0	1.0		part_1
112		2.0				1.0	0.0							2.0	204.0	0.3411587629234418	2.0		3.0	4.0	3.0	6.0		part_1
113		2.0				1.0	0.0							1.0	407.0	0.46485148946521804	1.0		4.0	8.0	4.0	8.0		part_1
114		2.0				1.0	1.0							3.0	407.0	0.4201456919545308	3.0		4.0	6.0	8.0	2.0		part_1
115		2.0				1.0	1.0							3.0	120.0	0.34142000996507704	3.0		2.0	2.0	6.0	5.0		part_1
116		2.0				1.0	1.0							2.0	41.0	0.3537304669735022	2.0		1.0	3.0	5.0	1.0		part_1
117		2.0				1.0	0.0							1.0	0.0	0.30999240797245875	1.0		0.0	8.0	4.0	8.0		part_1
118		2.0				1.0	0.0							2.0	379.0	0.3095540920039639	2.0		4.0	8.0	4.0	8.0		part_1
119		2.0				1.0	1.0							4.0	392.0	0.3114380619372241	4.0		4.0	6.0	8.0	2.0		part_1
120		2.0				1.0	1.0							3.0	185.0	0.3323086083983071	3.0		3.0	7.0	7.0	3.0		part_1
121		2.0				1.0	1.0							4.0	212.0	0.322334025404416	4.0		3.0	7.0	7.0	3.0		part_1
122		2.0				1.0	0.0							2.0	191.0	0.30135665694251657	2.0		3.0	4.0	3.0	6.0		part_1
123		2.0				1.0	0.0							1.0	110.0	0.3027877319836989	1.0		2.0	1.0	2.0	7.0		part_1
124		2.0				1.0	0.0							4.0	47.0	0.3361999840126373	4.0		1.0	5.0	1.0	4.0		part_1
125		2.0				1.0	0.0							2.0	382.0	0.2925654564751312	2.0		4.0	8.0	4.0	8.0		part_1
126		2.0				1.0	1.0							1.0	393.0	0.2930742080206983	1.0		4.0	6.0	8.0	2.0		part_1
127		2.0				1.0	1.0							2.0	184.0	0.29197155142901465	2.0		3.0	7.0	7.0	3.0		part_1
128		2.0				1.0	1.0							1.0	0.0	0.2698981139692478	1.0		0.0	3.0	5.0	1.0		part_1
129		2.0				1.0	0.0							2.0	26.0	0.28226048295618966	2.0		1.0	5.0	1.0	4.0		part_1
130		2.0				2.0	0.0							3.0	414.0	0.29509803745895624	3.0		4.0	8.0	4.0	8.0		part_1
131		2.0				1.0	1.0							1.0	70.0	0.3189657889888622	1.0		1.0	3.0	5.0	1.0		part_1
132		2.0				1.0	0.0							3.0	0.0	0.2834640285000205	3.0		0.0	4.0	3.0	6.0		part_1
133		2.0				1.0	0.0							3.0	401.0	0.29635771841276437	3.0		4.0	8.0	4.0	8.0		part_1
134		2.0				1.0	1.0							4.0	28.0	0.32994602294638753	4.0		1.0	3.0	5.0	1.0		part_1
135		2.0				1.0	1.0							1.0	50.0	0.36432476504705846	1.0		1.0	3.0	5.0	1.0		part_1
136		2.0				1.0	0.0							4.0	91.0	0.2972179494681768	4.0		2.0	1.0	2.0	7.0		part_1
137		2.0				1.0	0.0							4.0	30.0	0.30950918392045423	4.0		1.0	5.0	1.0	4.0		part_1
138		2.0				1.0	1.0							1.0	0.0	0.3208904224447906	1.0		0.0	2.0	6.0	5.0		part_1
139		2.0				1.0	0.0							1.0	212.0	0.3213607784709893	1.0		3.0	4.0	3.0	6.0		part_1
140		2.0				1.0	1.0							3.0	215.0	0.3211532174027525	3.0		3.0	7.0	7.0	3.0		part_1
141		2.0				1.0	1.0							3.0	58.0	0.33413452602690086	3.0		1.0	3.0	5.0	1.0		part_1
142		2.0				1.0	1.0							2.0	61.0	0.34514433093136176	2.0		1.0	3.0	5.0	1.0		part_1
143		2.0				1.0	1.0							3.0	217.0	0.33527113503078	3.0		3.0	7.0	7.0	3.0		part_1
144		2.0				1.0	1.0							2.0	396.0	0.33706200594315305	2.0		4.0	6.0	8.0	2.0		part_1
145		2.0				1.0	0.0							3.0	415.0	0.357842305500526	3.0		4.0	8.0	4.0	8.0		part_1
146		2.0				1.0	1.0							4.0	204.0	0.3258861694484949	4.0		3.0	7.0	7.0	3.0		part_1
147		2.0				1.0	0.0							4.0	222.0	0.3264126559952274	4.0		3.0	4.0	3.0	6.0		part_1
148		2.0				1.0	0.0							4.0	393.0	0.33750112052075565	4.0		4.0	8.0	4.0	8.0		part_1
149		2.0				1.0	1.0							2.0	0.0	0.3059367144596763	2.0		0.0	6.0	8.0	2.0		part_1
150		2.0				1.0	0.0							2.0	42.0	0.3274604210164398	2.0		1.0	5.0	1.0	4.0		part_1
151		2.0				1.0	0.0							1.0	377.0	0.4300100639811717	1.0		4.0	8.0	4.0	8.0		part_1
152		2.0				1.0	0.0							1.0	193.0	0.33996645704610273	1.0		3.0	4.0	3.0	6.0		part_1
153		2.0				1.0	1.0							2.0	0.0	0.30760950496187434	2.0		0.0	7.0	7.0	3.0		part_1
154		2.0				1.0	0.0							3.0	122.0	0.3406141218729317	3.0		2.0	1.0	2.0	7.0		part_1
155		2.0				1.0	1.0							3.0	203.0	0.3194135939120315	3.0		3.0	7.0	7.0	3.0		part_1
156		2.0				1.0	0.0							2.0	0.0	0.4325239190366119	2.0		0.0	8.0	4.0	8.0		part_1
157		2.0				1.0	0.0							1.0	393.0	0.3086886734236032	1.0		4.0	8.0	4.0	8.0		part_1
158		2.0				1.0	0.0							4.0	0.0	0.33162572752917185	4.0		0.0	5.0	1.0	4.0		part_1
159		2.0				1.0	1.0							2.0	399.0	0.3211349805351347	2.0		4.0	6.0	8.0	2.0		part_1
160		2.0				1.0	0.0							4.0	384.0	0.35652059846324846	4.0		4.0	8.0	4.0	8.0		part_1
161		2.0				1.0	0.0							4.0	213.0	0.3334714054944925	4.0		3.0	4.0	3.0	6.0		part_1
162		2.0				1.0	1.0							4.0	211.0	0.3561880009365268	4.0		3.0	7.0	7.0	3.0		part_1
163		2.0				1.0	0.0							3.0	405.0	0.34503199491882697	3.0		4.0	8.0	4.0	8.0		part_1
164		2.0				1.0	0.0							2.0	101.0	0.3592705079354346	2.0		2.0	1.0	2.0	7.0		part_1
165		2.0				1.0	0.0							3.0	410.0	0.33690435643075034	3.0		4.0	8.0	4.0	8.0		part_1
166		2.0				1.0	1.0							1.0	0.0	0.37186500744428486	1.0		0.0	7.0	7.0	3.0		part_1
167		2.0				1.0	1.0							4.0	0.0	0.32617856899742037	4.0		0.0	6.0	8.0	2.0		part_1
168		2.0				1.0	1.0							3.0	0.0	0.33722341345855966	3.0		0.0	7.0	7.0	3.0		part_1
169		2.0				1.0	0.0							2.0	404.0	0.3391439795377664	2.0		4.0	8.0	4.0	8.0		part_1
170		2.0				1.0	1.0							2.0	32.0	0.38530396949499846	2.0		1.0	3.0	5.0	1.0		part_1
171		2.0				1.0	0.0							2.0	400.0	0.3054369469755329	2.0		4.0	8.0	4.0	8.0		part_1
172		2.0				1.0	1.0							2.0	401.0	0.2957980283536017	2.0		4.0	6.0	8.0	2.0		part_1
173		2.0				1.0	0.0							2.0	213.0	0.2837886764900759	2.0		3.0	4.0	3.0	6.0		part_1
174		2.0				1.0	0.0							3.0	41.0	0.3297783490270376	3.0		1.0	5.0	1.0	4.0		part_1
175		2.0				1.0	1.0							2.0	87.0	0.28516705200308934	2.0		2.0	2.0	6.0	5.0		part_1
176		2.0				1.0	1.0							4.0	225.0	0.35455152444774285	4.0		3.0	7.0	7.0	3.0		part_1
177		2.0				1.0	1.0							1.0	182.0	0.29783017793670297	1.0		3.0	7.0	7.0	3.0		part_1
178		2.0				1.0	1.0							3.0	0.0	0.33215776103315875	3.0		0.0	7.0	7.0	3.0		part_1
179		2.0				1.0	1.0							3.0	79.0	0.3554400750435889	3.0		2.0	2.0	6.0	5.0		part_1
180		2.0				1.0	1.0							1.0	113.0	0.35647675645304844	1.0		2.0	2.0	6.0	5.0		part_1
181		2.0				1.0	0.0							4.0	0.0	0.36767992097884417	4.0		0.0	4.0	3.0	6.0		part_1
182		2.0				1.0	0.0							2.0	80.0	0.3340838238946162	2.0		2.0	1.0	2.0	7.0		part_1
183		2.0				1.0	0.0							4.0	117.0	0.30054093239596114	4.0		2.0	1.0	2.0	7.0		part_1
184		2.0				1.0	1.0							2.0	198.0	0.34632463345769793	2.0		3.0	7.0	7.0	3.0		part_1
185		2.0				1.0	0.0							2.0	193.0	0.32487368740839884	2.0		3.0	4.0	3.0	6.0		part_1
186		2.0				1.0	0.0							2.0	81.0	0.3250985639751889	2.0		2.0	1.0	2.0	7.0		part_1
187		2.0				1.0	1.0							3.0	98.0	0.31388636148767546	3.0		2.0	2.0	6.0	5.0		part_1
188		2.0				1.0	0.0							4.0	83.0	0.34775983198778704	4.0		2.0	1.0	2.0	7.0		part_1
189		2.0				1.0	0.0							1.0	407.0	0.37147354695480317	1.0		4.0	8.0	4.0	8.0		part_1
190		2.0				1.0	1.0							2.0	83.0	0.31755527801578864	2.0		2.0	2.0	6.0	5.0		part_1
191		2.0				1.0	0.0							4.0	403.0	0.29404290800448507	4.0		4.0	8.0	4.0	8.0		part_1
192		2.0				1.0	1.0							2.0	0.0	0.3057343139080331	2.0		0.0	7.0	7.0	3.0		part_1
193		2.0				1.0	1.0							4.0	59.0	0.4422695889370516	4.0		1.0	3.0	5.0	1.0		part_1
194		2.0				1.0	0.0							3.0	96.0	0.3297164799878374	3.0		2.0	1.0	2.0	7.0		part_1
195		2.0				1.0	0.0							3.0	52.0	0.3627092870301567	3.0		1.0	5.0	1.0	4.0		part_1
196		2.0				1.0	1.0							4.0	119.0	0.2971444039721973	4.0		2.0	2.0	6.0	5.0		part_1
197		2.0				1.0	1.0							4.0	379.0	0.3416008989443071	4.0		4.0	6.0	8.0	2.0		part_1
198		2.0				1.0	1.0							3.0	68.0	0.3319631030317396	3.0		1.0	3.0	5.0	1.0		part_1
199		2.0				1.0	1.0							2.0	214.0	0.34410753194242716	2.0		3.0	7.0	7.0	3.0		part_1
200		3.0				1.0	1.0							3.0	193.0	0.3232733948971145	3.0		3.0	7.0	7.0	3.0		part_1
201		3.0				1.0	1.0							4.0	0.0	0.2902679484686814	4.0		0.0	6.0	8.0	2.0		part_1
202		3.0				1.0	0.0							3.0	182.0	0.30173924192786217	3.0		3.0	4.0	3.0	6.0		part_1
203		3.0				1.0	0.0							4.0	407.0	0.3374348424258642	4.0		4.0	8.0	4.0	8.0		part_1
204		3.0				1.0	0.0							1.0	0.0	0.34958884346997365	1.0		0.0	1.0	2.0	7.0		part_1
205		3.0				1.0	1.0							4.0	0.0	0.3034639514517039	4.0		0.0	3.0	5.0	1.0		part_1
206		3.0				1.0	0.0							4.0	194.0	0.2932878728606738	4.0		3.0	4.0	3.0	6.0		part_1
207		3.0				1.0	0.0							3.0	79.0	0.3167013525380753	3.0		2.0	1.0	2.0	7.0		part_1
208		3.0				1.0	1.0							2.0	81.0	0.3068726410274394	2.0		2.0	2.0	6.0	5.0		part_1
209		3.0				1.0	0.0							4.0	221.0	0.2960770719218999	4.0		3.0	4.0	3.0	6.0		part_1
210		3.0				1.0	0.0							2.0	0.0	0.3076843614107929	2.0		0.0	5.0	1.0	4.0		part_1
211		3.0				1.0	0.0							1.0	197.0	0.3184066209360026	1.0		3.0	4.0	3.0	6.0		part_1
212		3.0				1.0	1.0							3.0	0.0	0.29701466753613204	3.0		0.0	7.0	7.0	3.0		part_1
213		3.0				1.0	0.0							3.0	52.0	0.31887844688026235	3.0		1.0	5.0	1.0	4.0		part_1
214		3.0				1.0	1.0							4.0	95.0	0.30989872943609953	4.0		2.0	2.0	6.0	5.0		part_1
215		3.0				1.0	0.0							4.0	215.0	0.28799286094726995	4.0		3.0	4.0	3.0	6.0		part_1
216		3.0				1.0	1.0							3.0	26.0	0.29981879296246916	3.0		1.0	3.0	5.0	1.0		part_1
217		3.0				1.0	0.0							1.0	110.0	0.3900654959725216	1.0		2.0	1.0	2.0	7.0		part_1
218		3.0				1.0	1.0							4.0	413.0	0.3121627969085239	4.0		4.0	6.0	8.0	2.0		part_1
219		3.0				1.0	0.0							3.0	122.0	0.2880492937983945	3.0		2.0	1.0	2.0	7.0		part_1
220		3.0				1.0	0.0							3.0	0.0	0.31253061891766265	3.0		0.0	8.0	4.0	8.0		part_1
221		3.0				1.0	1.0							3.0	90.0	0.27832711004884914	3.0		2.0	2.0	6.0	5.0		part_1
222		3.0				1.0	1.0							2.0	176.0	0.32504815905122086	2.0		3.0	7.0	7.0	3.0		part_1
223		3.0				1.0	1.0							3.0	377.0	0.2911499469773844	3.0		4.0	6.0	8.0	2.0		part_1
224		3.0				1.0	0.0							3.0	0.0	0.3134210134157911	3.0		0.0	8.0	4.0	8.0		part_1
225		3.0				1.0	0.0							3.0	176.0	0.29240938293514773	3.0		3.0	4.0	3.0	6.0		part_1
226		3.0				1.0	0.0							3.0	68.0	0.2702971584512852	3.0		1.0	5.0	1.0	4.0		part_1
227		3.0				1.0	0.0							2.0	59.0	0.29475493350764737	2.0		1.0	5.0	1.0	4.0		part_1
228		3.0				1.0	0.0							4.0	26.0	0.33866062748711556	4.0		1.0	5.0	1.0	4.0		part_1
229		3.0				1.0	1.0							1.0	74.0	0.26034045952837914	1.0		1.0	3.0	5.0	1.0		part_1
230		3.0				1.0	1.0							1.0	91.0	0.28405235544778407	1.0		2.0	2.0	6.0	5.0		part_1
231		3.0				1.0	0.0							3.0	105.0	0.2947385894949548	3.0		2.0	1.0	2.0	7.0		part_1
232		3.0				1.0	1.0							1.0	105.0	0.29635219543706626	1.0		2.0	2.0	6.0	5.0		part_1
233		3.0				1.0	0.0							4.0	388.0	0.3304116019862704	4.0		4.0	8.0	4.0	8.0		part_1
234		3.0				1.0	0.0							4.0	61.0	0.34334144147578627	4.0		1.0	5.0	1.0	4.0		part_1
235		3.0				1.0	0.0							4.0	392.0	0.3215565264108591	4.0		4.0	8.0	4.0	8.0		part_1
236		3.0				1.0	1.0							4.0	395.0	0.2768096359795891	4.0		4.0	6.0	8.0	2.0		part_1
237		3.0				1.0	1.0							4.0	30.0	0.37882379547227174	4.0		1.0	3.0	5.0	1.0		part_1
238		3.0				1.0	1.0							3.0	394.0	0.33375167549820617	3.0		4.0	6.0	8.0	2.0		part_1
239		3.0				1.0	1.0							2.0	404.0	0.32346558303106576	2.0		4.0	6.0	8.0	2.0		part_1
240		3.0				1.0	0.0							2.0	71.0	0.324560314998962	2.0		1.0	5.0	1.0	4.0		part_1
241		3.0				1.0	0.0							2.0	104.0	0.32349513802910224	2.0		2.0	1.0	2.0	7.0		part_1
242		3.0				1.0	1.0							1.0	403.0	0.3259801939711906	1.0		4.0	6.0	8.0	2.0		part_1
243		3.0				1.0	0.0							3.0	104.0	0.28992836899124086	3.0		2.0	1.0	2.0	7.0		part_1
244		3.0				1.0	1.0							1.0	0.0	0.3928072829730809	1.0		0.0	6.0	8.0	2.0		part_1
245		3.0				1.0	1.0							1.0	96.0	0.3375000889063813	1.0		2.0	2.0	6.0	5.0		part_1
246		3.0				1.0	1.0							2.0	71.0	0.29235171346226707	2.0		1.0	3.0	5.0	1.0		part_1
247		3.0				1.0	0.0							2.0	218.0	0.30566179851302877	2.0		3.0	4.0	3.0	6.0		part_1
248		3.0				1.0	1.0							3.0	0.0	0.4064882440143265	3.0		0.0	2.0	6.0	5.0		part_1
249		3.0				1.0	1.0							4.0	98.0	0.36192887189099565	4.0		2.0	2.0	6.0	5.0		part_1
250		3.0				1.0	0.0							3.0	50.0	0.35126248898450285	3.0		1.0	5.0	1.0	4.0		part_1
251		3.0				1.0	0.0							1.0	115.0	0.3309197774506174	1.0		2.0	1.0	2.0	7.0		part_1
252		3.0				1.0	1.0							4.0	0.0	0.3513176219421439	4.0		0.0	2.0	6.0	5.0		part_1
253		3.0				1.0	0.0							1.0	59.0	0.3522771984571591	1.0		1.0	5.0	1.0	4.0		part_1
254		3.0				1.0	0.0							2.0	71.0	0.3082912070094608	2.0		1.0	5.0	1.0	4.0		part_1
255		3.0				1.0	1.0							3.0	0.0	0.28558478999184445	3.0		0.0	3.0	5.0	1.0		part_1
256		3.0				1.0	1.0							2.0	100.0	0.35418981697876006	2.0		2.0	2.0	6.0	5.0		part_1
257		3.0				1.0	0.0							1.0	403.0	0.32129120046738535	1.0		4.0	8.0	4.0	8.0		part_1
258		3.0				1.0	0.0							3.0	386.0	0.32256836246233433	3.0		4.0	8.0	4.0	8.0		part_1
259		3.0				1.0	0.0							3.0	187.0	0.3220945244538598	3.0		3.0	4.0	3.0	6.0		part_1
260		3.0				1.0	0.0							4.0	98.0	0.3227739805006422	4.0		2.0	1.0	2.0	7.0		part_1
261		3.0				1.0	0.0							2.0	87.0	0.36816396249923855	2.0		2.0	1.0	2.0	7.0		part_1
262		3.0				1.0	1.0							4.0	52.0	0.3247873004875146	4.0		1.0	3.0	5.0	1.0		part_1
263		3.0				1.0	1.0							1.0	60.0	0.3586396244354546	1.0		1.0	3.0	5.0	1.0		part_1
264		3.0				1.0	1.0							3.0	110.0	0.3135511149885133	3.0		2.0	2.0	6.0	5.0		part_1
265		3.0				1.0	1.0							2.0	104.0	0.2703658110112883	2.0		2.0	2.0	6.0	5.0		part_1
266		3.0				1.0	1.0							4.0	384.0	0.3388378819799982	4.0		4.0	6.0	8.0	2.0		part_1
267		3.0				1.0	0.0							2.0	0.0	0.32817229692591354	2.0		0.0	1.0	2.0	7.0		part_1
268		3.0				1.0	1.0							1.0	182.0	0.3162831920199096	1.0		3.0	7.0	7.0	3.0		part_1
269		3.0				1.0	0.0							4.0	217.0	0.3044152260408737	4.0		3.0	4.0	3.0	6.0		part_1
270		3.0				1.0	1.0							4.0	419.0	0.3165650084265508	4.0		4.0	6.0	8.0	2.0		part_1
271		3.0				1.0	0.0							3.0	47.0	0.2943900345126167	3.0		1.0	5.0	1.0	4.0		part_1
272		3.0				1.0	1.0							2.0	424.0	0.3069838639930822	2.0		4.0	6.0	8.0	2.0		part_1
273		3.0				1.0	1.0							1.0	122.0	0.3076278354274109	1.0		2.0	2.0	6.0	5.0		part_1
274		3.0				1.0	0.0							4.0	381.0	0.2527895814855583	4.0		4.0	8.0	4.0	8.0		part_1
275		3.0				1.0	0.0							4.0	95.0	0.34151607047533616	4.0		2.0	1.0	2.0	7.0		part_1
276		3.0				1.0	0.0							2.0	90.0	0.29780646093422547	2.0		2.0	1.0	2.0	7.0		part_1
277		3.0				1.0	1.0							3.0	47.0	0.31096295348834246	3.0		1.0	3.0	5.0	1.0		part_1
278		3.0				1.0	1.0							4.0	407.0	0.27663748897612095	4.0		4.0	6.0	8.0	2.0		part_1
279		3.0				1.0	0.0							4.0	203.0	0.288286097405944	4.0		3.0	4.0	3.0	6.0		part_1
280		3.0				1.0	0.0							1.0	0.0	0.33404739043908194	1.0		0.0	4.0	3.0	6.0		part_1
281		3.0				1.0	0.0							1.0	120.0	0.3578833399224095	1.0		2.0	1.0	2.0	7.0		part_1
282		3.0				1.0	1.0							3.0	197.0	0.3014689109986648	3.0		3.0	7.0	7.0	3.0		part_1
283		3.0				1.0	0.0							3.0	0.0	0.32508698501624167	3.0		0.0	8.0	4.0	8.0		part_1
284		3.0				1.0	1.0							1.0	90.0	0.35831467394018546	1.0		2.0	2.0	6.0	5.0		part_1
285		3.0				1.0	1.0							2.0	104.0	0.31388846144545823	2.0		2.0	2.0	6.0	5.0		part_1
286		3.0				1.0	0.0							3.0	211.0	0.31577349844155833	3.0		3.0	4.0	3.0	6.0		part_1
287		3.0				1.0	1.0							4.0	186.0	0.31522843247512355	4.0		3.0	7.0	7.0	3.0		part_1
288		3.0				1.0	0.0							3.0	68.0	0.36008964595384896	3.0		1.0	5.0	1.0	4.0		part_1
289		3.0				1.0	0.0							4.0	413.0	0.33952457894338295	4.0		4.0	8.0	4.0	8.0		part_1
290		3.0				1.0	1.0							1.0	184.0	0.3518125904374756	1.0		3.0	7.0	7.0	3.0		part_1
291		3.0				1.0	0.0							4.0	96.0	0.3514752615010366	4.0		2.0	1.0	2.0	7.0		part_1
292		3.0				1.0	0.0							2.0	34.0	0.3631119339261204	2.0		1.0	5.0	1.0	4.0		part_1
293		3.0				1.0	0.0							3.0	424.0	0.32903197343694046	3.0		4.0	8.0	4.0	8.0		part_1
294		3.0				1.0	0.0							2.0	406.0	0.33069251844426617	2.0		4.0	8.0	4.0	8.0		part_1
295		3.0				1.0	0.0							2.0	184.0	0.3307873049634509	2.0		3.0	4.0	3.0	6.0		part_1
296		3.0				1.0	1.0							1.0	0.0	0.29741015849867836	1.0		0.0	6.0	8.0	2.0		part_1
297		3.0				1.0	1.0							3.0	87.0	0.2973121044342406	3.0		2.0	2.0	6.0	5.0		part_1
298		3.0				1.0	0.0							4.0	0.0	0.3215377689921297	4.0		0.0	4.0	3.0	6.0		part_1
299		3.0				1.0	1.0							3.0	191.0	0.31010902143316343	3.0		3.0	7.0	7.0	3.0		part_1
300		4.0				1.0	0.0							3.0	375.0	0.5998070354689844	3.0		4.0	8.0	4.0	8.0		part_1
301		4.0				1.0	1.0							3.0	223.0	0.3092671544291079	3.0		3.0	7.0	7.0	3.0		part_1
302		4.0				1.0	0.0							3.0	0.0	0.3421323640504852	3.0		0.0	8.0	4.0	8.0		part_1
303		4.0				1.0	0.0							3.0	64.0	0.33275952946860343	3.0		1.0	5.0	1.0	4.0		part_1
304		4.0				1.0	0.0							1.0	52.0	0.34412635501939803	1.0		1.0	5.0	1.0	4.0		part_1
305		4.0				1.0	1.0							3.0	42.0	0.3338339324109256	3.0		1.0	3.0	5.0	1.0		part_1
306		4.0				1.0	1.0							2.0	118.0	0.25453637493774295	2.0		2.0	2.0	6.0	5.0		part_1
307		4.0				1.0	0.0							1.0	95.0	0.33538917248370126	1.0		2.0	1.0	2.0	7.0		part_1
308		4.0				1.0	1.0							2.0	110.0	0.25678152148611844	2.0		2.0	2.0	6.0	5.0		part_1
309		4.0				1.0	1.0							1.0	68.0	0.2908275159425102	1.0		1.0	3.0	5.0	1.0		part_1
310		4.0				1.0	1.0							2.0	413.0	0.33690730441594496	2.0		4.0	6.0	8.0	2.0		part_1
311		4.0				1.0	0.0							1.0	176.0	0.2804246894083917	1.0		3.0	4.0	3.0	6.0		part_1
312		4.0				1.0	1.0							1.0	407.0	0.3382180994958617	1.0		4.0	6.0	8.0	2.0		part_1
313		4.0				1.0	1.0							4.0	34.0	0.33806546387495473	4.0		1.0	3.0	5.0	1.0		part_1
314		4.0				1.0	1.0							3.0	422.0	0.314182064961642	3.0		4.0	6.0	8.0	2.0		part_1
315		4.0				1.0	1.0							3.0	90.0	0.36195996950846165	3.0		2.0	2.0	6.0	5.0		part_1
316		4.0				1.0	1.0							2.0	213.0	0.3289165769238025	2.0		3.0	7.0	7.0	3.0		part_1
317		4.0				1.0	1.0							1.0	115.0	0.28474996046861634	1.0		2.0	2.0	6.0	5.0		part_1
318		4.0				1.0	0.0							2.0	26.0	0.26101602747803554	2.0		1.0	5.0	1.0	4.0		part_1
319		4.0				1.0	1.0							3.0	0.0	0.27248121448792517	3.0		0.0	2.0	6.0	5.0		part_1
320		4.0				1.0	1.0							1.0	64.0	0.39736246544634923	1.0		1.0	3.0	5.0	1.0		part_1
321		4.0				1.0	0.0							4.0	0.0	0.3297017234726809	4.0		0.0	1.0	2.0	7.0		part_1
322		4.0				1.0	0.0							2.0	186.0	0.2859763979213312	2.0		3.0	4.0	3.0	6.0		part_1
323		4.0				1.0	1.0							1.0	86.0	0.2994967664126307	1.0		2.0	2.0	6.0	5.0		part_1
324		4.0				1.0	0.0							3.0	175.0	0.3765672669396736	3.0		3.0	4.0	3.0	6.0		part_1
325		4.0				1.0	1.0							2.0	0.0	0.3098845424829051	2.0		0.0	3.0	5.0	1.0		part_1
326		4.0				1.0	0.0							2.0	0.0	0.3011697955080308	2.0		0.0	8.0	4.0	8.0		part_1
327		4.0				1.0	1.0							2.0	175.0	0.3339781458489597	2.0		3.0	7.0	7.0	3.0		part_1
328		4.0				1.0	0.0							1.0	178.0	0.3127274289727211	1.0		3.0	4.0	3.0	6.0		part_1
329		4.0				1.0	1.0							1.0	399.0	0.31219191546551883	1.0		4.0	6.0	8.0	2.0		part_1
330		4.0				1.0	0.0							2.0	0.0	0.30332815187284723	2.0		0.0	4.0	3.0	6.0		part_1
331		4.0				1.0	0.0							1.0	47.0	0.2590841269120574	1.0		1.0	5.0	1.0	4.0		part_1
332		4.0				1.0	1.0							3.0	0.0	0.325514942931477	3.0		0.0	3.0	5.0	1.0		part_1
333		4.0				1.0	0.0							1.0	399.0	0.38287761743413284	1.0		4.0	8.0	4.0	8.0		part_1
334		4.0				1.0	1.0							1.0	381.0	0.3278052318491973	1.0		4.0	6.0	8.0	2.0		part_1
335		4.0				2.0	0.0							4.0	0.0	0.32869166403543204	4.0		0.0	5.0	1.0	4.0		part_1
336		4.0				1.0	0.0							1.0	87.0	0.34046066796872765	1.0		2.0	1.0	2.0	7.0		part_1
337		4.0				1.0	1.0							1.0	386.0	0.3060132359387353	1.0		4.0	6.0	8.0	2.0		part_1
338		4.0				1.0	0.0							2.0	413.0	0.31953858450287953	2.0		4.0	8.0	4.0	8.0		part_1
339		4.0				1.0	0.0							2.0	214.0	0.297232796496246	2.0		3.0	4.0	3.0	6.0		part_1
340		4.0				1.0	1.0							3.0	0.0	0.3190086043905467	3.0		0.0	3.0	5.0	1.0		part_1
341		4.0				1.0	1.0							3.0	117.0	0.37620883801719174	3.0		2.0	2.0	6.0	5.0		part_1
342		4.0				2.0	1.0							4.0	0.0	0.3563499989104457	4.0		0.0	3.0	5.0	1.0		part_1
343		4.0				1.0	0.0							1.0	201.0	0.32105760741978884	1.0		3.0	4.0	3.0	6.0		part_1
344		4.0				1.0	1.0							1.0	188.0	0.31035541696473956	1.0		3.0	7.0	7.0	3.0		part_1
345		4.0				1.0	1.0							4.0	112.0	0.32199990446679294	4.0		2.0	2.0	6.0	5.0		part_1
346		4.0				1.0	1.0							1.0	176.0	0.3578191664419137	1.0		3.0	7.0	7.0	3.0		part_1
347		4.0				1.0	1.0							3.0	423.0	0.3674323878949508	3.0		4.0	6.0	8.0	2.0		part_1
348		4.0				1.0	1.0							4.0	26.0	0.32314362697070464	4.0		1.0	3.0	5.0	1.0		part_1
349		4.0				1.0	1.0							1.0	0.0	0.33518243802245706	1.0		0.0	6.0	8.0	2.0		part_1
350		4.0				1.0	0.0							2.0	0.0	0.2917347834445536	2.0		0.0	5.0	1.0	4.0		part_1
351		4.0				1.0	1.0							3.0	47.0	0.3254444749909453	3.0		1.0	3.0	5.0	1.0		part_1
352		4.0				1.0	1.0							1.0	221.0	0.3278456779080443	1.0		3.0	7.0	7.0	3.0		part_1
353		4.0				1.0	1.0							4.0	0.0	0.32746211445191875	4.0		0.0	2.0	6.0	5.0		part_1
354		4.0				1.0	0.0							3.0	181.0	0.35007607244187966	3.0		3.0	4.0	3.0	6.0		part_1
355		4.0				1.0	0.0							1.0	112.0	0.30560746043920517	1.0		2.0	1.0	2.0	7.0		part_1
356		4.0				1.0	0.0							1.0	44.0	0.36230757139855996	1.0		1.0	5.0	1.0	4.0		part_1
357		4.0				1.0	1.0							1.0	400.0	0.3299632764537819	1.0		4.0	6.0	8.0	2.0		part_1
358		4.0				1.0	0.0							1.0	0.0	0.34108767547877505	1.0		0.0	1.0	2.0	7.0		part_1
359		4.0				1.0	1.0							2.0	201.0	0.32950111641548574	2.0		3.0	7.0	7.0	3.0		part_1
360		4.0				1.0	0.0							4.0	50.0	0.3762874439707957	4.0		1.0	5.0	1.0	4.0		part_1
361		4.0				1.0	0.0							3.0	182.0	0.3534173014340922	3.0		3.0	4.0	3.0	6.0		part_1
362		4.0				1.0	1.0							2.0	0.0	0.34413837792817503	2.0		0.0	2.0	6.0	5.0		part_1
363		4.0				1.0	0.0							2.0	225.0	0.2886828274349682	2.0		3.0	4.0	3.0	6.0		part_1
364		4.0				1.0	0.0							2.0	70.0	0.29903801751788706	2.0		1.0	5.0	1.0	4.0		part_1
365		4.0				1.0	0.0							4.0	0.0	0.3224939244100824	4.0		0.0	5.0	1.0	4.0		part_1
366		4.0				1.0	0.0							3.0	395.0	0.34427512099500746	3.0		4.0	8.0	4.0	8.0		part_1
367		4.0				1.0	0.0							3.0	90.0	0.34528034436516464	3.0		2.0	1.0	2.0	7.0		part_1
368		4.0				1.0	0.0							3.0	0.0	0.3337869739625603	3.0		0.0	5.0	1.0	4.0		part_1
369		4.0				1.0	1.0							3.0	403.0	0.31269138149218634	3.0		4.0	6.0	8.0	2.0		part_1
370		4.0				1.0	0.0							1.0	219.0	0.3031905415118672	1.0		3.0	4.0	3.0	6.0		part_1
371		4.0				1.0	0.0							3.0	198.0	0.3475828139926307	3.0		3.0	4.0	3.0	6.0		part_1
372		4.0				1.0	1.0							1.0	79.0	0.30350249441107735	1.0		2.0	2.0	6.0	5.0		part_1
373		4.0				1.0	0.0							4.0	393.0	0.337620721955318	4.0		4.0	8.0	4.0	8.0		part_1
374		4.0				1.0	1.0							1.0	44.0	0.35073118045693263	1.0		1.0	3.0	5.0	1.0		part_1
375		4.0				1.0	1.0							2.0	209.0	0.36173286446137354	2.0		3.0	7.0	7.0	3.0		part_1
376		4.0				1.0	1.0							2.0	218.0	0.328015728504397	2.0		3.0	7.0	7.0	3.0		part_1
377		4.0				1.0	0.0							2.0	0.0	0.36349655844969675	2.0		0.0	8.0	4.0	8.0		part_1
378		4.0				1.0	1.0							3.0	415.0	0.35176735295681283	3.0		4.0	6.0	8.0	2.0		part_1
379		4.0				1.0	0.0							1.0	407.0	0.3301175569067709	1.0		4.0	8.0	4.0	8.0		part_1
380		4.0				1.0	0.0							3.0	87.0	0.3521973210154101	3.0		2.0	1.0	2.0	7.0		part_1
381		4.0				1.0	1.0							4.0	59.0	0.3645885984878987	4.0		1.0	3.0	5.0	1.0		part_1
382		4.0				1.0	0.0							2.0	0.0	0.3214546633535065	2.0		0.0	5.0	1.0	4.0		part_1
383		4.0				1.0	0.0							1.0	32.0	0.2996848518960178	1.0		1.0	5.0	1.0	4.0		part_1
384		4.0				1.0	1.0							4.0	86.0	0.33383955201134086	4.0		2.0	2.0	6.0	5.0		part_1
385		4.0				1.0	1.0							2.0	87.0	0.3215302314492874	2.0		2.0	2.0	6.0	5.0		part_1
386		4.0				1.0	0.0							2.0	119.0	0.3457632164354436	2.0		2.0	1.0	2.0	7.0		part_1
387		4.0				1.0	0.0							2.0	86.0	0.31187787203816697	2.0		2.0	1.0	2.0	7.0		part_1
388		4.0				1.0	0.0							4.0	43.0	0.35769690852612257	4.0		1.0	5.0	1.0	4.0		part_1
389		4.0				1.0	0.0							1.0	60.0	0.3361241894890554	1.0		1.0	5.0	1.0	4.0		part_1
390		4.0				1.0	1.0							1.0	406.0	0.33616711298236623	1.0		4.0	6.0	8.0	2.0		part_1
391		4.0				1.0	1.0							4.0	52.0	0.35822086641564965	4.0		1.0	3.0	5.0	1.0		part_1
392		4.0				1.0	1.0							4.0	96.0	0.37048263393808156	4.0		2.0	2.0	6.0	5.0		part_1
393		4.0				1.0	1.0							3.0	0.0	0.47271247539902106	3.0		0.0	3.0	5.0	1.0		part_1
394		4.0				1.0	0.0							1.0	422.0	0.3599799909279682	1.0		4.0	8.0	4.0	8.0		part_1
395		4.0				1.0	0.0							4.0	211.0	0.33876255800714716	4.0		3.0	4.0	3.0	6.0		part_1
396		4.0				1.0	1.0							4.0	101.0	0.32730295398505405	4.0		2.0	2.0	6.0	5.0		part_1
397		4.0				1.0	0.0							4.0	112.0	0.3499802994192578	4.0		2.0	1.0	2.0	7.0		part_1
398		4.0				1.0	0.0							3.0	35.0	0.4417470264597796	3.0		1.0	5.0	1.0	4.0		part_1
399		4.0				1.0	0.0							3.0	0.0	0.3741634809994139	3.0		0.0	1.0	2.0	7.0		part_1
0	1.0	1.0			250.0	0.0	0.0							6.0	0.0	0.30879791849292815	6.0	250.0	3.0	4.0	3.0	6.0	0.0	part_2
1	4.0	1.0			250.0	0.0	1.0							5.0	0.0	0.0	0.0	250.0	3.0	7.0	7.0	3.0	1.0	part_2
2	4.0	1.0			300.0	0.0	1.0							6.0	0.0	0.0	0.0	250.0	2.0	2.0	6.0	5.0	1.0	part_2
3	3.0	1.0			300.0	0.0	1.0							5.0	0.0	0.3446933883242309	1.0	300.0	1.0	3.0	5.0	1.0	1.0	part_2
4	1.0	1.0			250.0	0.0	0.0							6.0	0.0	0.5374960975605063	6.0	300.0	2.0	1.0	2.0	7.0	0.0	part_2
5	3.0	1.0			250.0	0.0	1.0							6.0	0.0	0.42435188934905455	6.0	300.0	4.0	6.0	8.0	2.0	1.0	part_2
6	4.0	1.0			250.0	0.0	1.0							5.0	0.0	0.0	0.0	250.0	3.0	7.0	7.0	3.0	1.0	part_2
7	2.0	1.0			300.0	0.0	1.0							5.0	0.0	0.6638704485376365	1.0	250.0	4.0	6.0	8.0	2.0	0.0	part_2
8	1.0	1.0			300.0	0.0	0.0							6.0	0.0	0.596120057569351	6.0	250.0	4.0	8.0	4.0	8.0	0.0	part_2
9	1.0	1.0			300.0	0.0	0.0							6.0	0.0	0.3941426318488084	6.0	250.0	4.0	8.0	4.0	8.0	0.0	part_2
10	2.0	1.0			300.0	0.0	0.0							5.0	0.0	0.47455703548621386	1.0	250.0	4.0	8.0	4.0	8.0	0.0	part_2
11	4.0	1.0			300.0	0.0	1.0							6.0	0.0	0.0	0.0	250.0	3.0	7.0	7.0	3.0	1.0	part_2
12	2.0	1.0			300.0	0.0	0.0							5.0	0.0	0.4637138852267526	1.0	300.0	1.0	5.0	1.0	4.0	0.0	part_2
13	4.0	1.0			300.0	0.0	1.0							6.0	0.0	0.0	0.0	300.0	1.0	3.0	5.0	1.0	1.0	part_2
14	2.0	1.0			300.0	0.0	0.0							5.0	0.0	0.6120160138234496	1.0	350.0	3.0	4.0	3.0	6.0	0.0	part_2
15	4.0	1.0			300.0	0.0	1.0							5.0	0.0	0.0	0.0	350.0	3.0	7.0	7.0	3.0	1.0	part_2
16	2.0	1.0			350.0	0.0	0.0							5.0	0.0	0.579783856344875	1.0	350.0	4.0	8.0	4.0	8.0	0.0	part_2
17	2.0	1.0			350.0	0.0	0.0							5.0	0.0	0.7389329042634927	1.0	350.0	3.0	4.0	3.0	6.0	0.0	part_2
18	1.0	1.0			350.0	0.0	0.0							6.0	0.0	0.7383544443291612	6.0	350.0	2.0	1.0	2.0	7.0	0.0	part_2
19	1.0	1.0			350.0	0.0	1.0							6.0	0.0	0.5708010762464255	6.0	350.0	1.0	3.0	5.0	1.0	0.0	part_2
20	1.0	1.0			350.0	0.0	0.0							6.0	0.0	0.8428149746614508	6.0	350.0	2.0	1.0	2.0	7.0	0.0	part_2
21	2.0	1.0			350.0	0.0	0.0							5.0	0.0	0.5387553509208374	1.0	350.0	3.0	4.0	3.0	6.0	0.0	part_2
22	4.0	1.0			350.0	0.0	1.0							5.0	0.0	0.0	0.0	350.0	4.0	6.0	8.0	2.0	1.0	part_2
23	4.0	1.0			400.0	0.0	1.0							6.0	0.0	0.0	0.0	350.0	2.0	2.0	6.0	5.0	1.0	part_2
24	1.0	1.0			400.0	0.0	0.0							6.0	0.0	0.5412604045704938	6.0	400.0	2.0	1.0	2.0	7.0	0.0	part_2
25	1.0	1.0			400.0	0.0	0.0							6.0	0.0	0.609463875531219	6.0	400.0	4.0	8.0	4.0	8.0	0.0	part_2
26	2.0	1.0			400.0	0.0	0.0							5.0	0.0	0.5330781359807588	1.0	400.0	4.0	8.0	4.0	8.0	0.0	part_2
27	1.0	1.0			400.0	0.0	0.0							6.0	0.0	0.7815927976043895	6.0	400.0	1.0	5.0	1.0	4.0	0.0	part_2
28	3.0	1.0			400.0	0.0	1.0							5.0	0.0	0.37571853247936815	1.0	400.0	1.0	3.0	5.0	1.0	1.0	part_2
29	1.0	1.0			350.0	0.0	0.0							6.0	0.0	0.6916095622582361	6.0	400.0	4.0	8.0	4.0	8.0	0.0	part_2
30	4.0	1.0			350.0	0.0	1.0							5.0	0.0	0.0	0.0	400.0	2.0	2.0	6.0	5.0	1.0	part_2
31	2.0	1.0			400.0	0.0	0.0							5.0	0.0	0.6599213617155328	1.0	400.0	2.0	1.0	2.0	7.0	0.0	part_2
32	4.0	1.0			400.0	0.0	1.0							6.0	0.0	0.0	0.0	400.0	1.0	3.0	5.0	1.0	1.0	part_2
33	2.0	1.0			400.0	0.0	0.0							5.0	0.0	0.651791071286425	1.0	450.0	3.0	4.0	3.0	6.0	0.0	part_2
34	4.0	1.0			400.0	0.0	1.0							6.0	0.0	0.0	0.0	450.0	4.0	6.0	8.0	2.0	1.0	part_2
35	2.0	1.0			400.0	0.0	0.0							5.0	0.0	0.8108029791619629	1.0	500.0	1.0	5.0	1.0	4.0	0.0	part_2
36	3.0	2.0			400.0	0.0	1.0							5.0	0.0	0.4136256704805419	5.0	500.0	3.0	7.0	7.0	3.0	1.0	part_2
37	1.0	2.0			350.0	0.0	0.0							6.0	0.0	0.6269972916343249	6.0	500.0	1.0	5.0	1.0	4.0	0.0	part_2
38	1.0	2.0			350.0	0.0	0.0							5.0	0.0	0.4595751565066166	5.0	500.0	4.0	8.0	4.0	8.0	0.0	part_2
39	1.0	2.0			350.0	0.0	0.0							5.0	0.0	0.6287089614779688	5.0	500.0	4.0	8.0	4.0	8.0	0.0	part_2
40	4.0	2.0			350.0	0.0	1.0							5.0	0.0	0.0	0.0	500.0	3.0	7.0	7.0	3.0	1.0	part_2
41	3.0	2.0			400.0	0.0	1.0							5.0	0.0	0.5070522122550756	5.0	500.0	2.0	2.0	6.0	5.0	1.0	part_2
42	1.0	2.0			350.0	0.0	1.0							6.0	0.0	0.5765415715286508	6.0	500.0	2.0	2.0	6.0	5.0	0.0	part_2
43	1.0	2.0			350.0	0.0	1.0							5.0	0.0	0.6220399915473536	5.0	500.0	4.0	6.0	8.0	2.0	0.0	part_2
44	4.0	2.0			350.0	0.0	1.0							5.0	0.0	0.0	0.0	500.0	3.0	7.0	7.0	3.0	1.0	part_2
45	1.0	2.0			400.0	0.0	0.0							5.0	0.0	0.6789554174756631	5.0	500.0	1.0	5.0	1.0	4.0	0.0	part_2
46	1.0	2.0			400.0	0.0	0.0							6.0	0.0	0.5902562284027226	6.0	500.0	2.0	1.0	2.0	7.0	0.0	part_2
47	1.0	2.0			400.0	0.0	0.0							5.0	0.0	0.7148143496597186	5.0	500.0	1.0	5.0	1.0	4.0	0.0	part_2
48	1.0	2.0			400.0	0.0	1.0							6.0	0.0	0.7714423805009574	6.0	500.0	1.0	3.0	5.0	1.0	0.0	part_2
49	3.0	2.0			400.0	0.0	1.0							5.0	0.0	0.42481218092143536	5.0	500.0	4.0	6.0	8.0	2.0	1.0	part_2
50	1.0	2.0			350.0	0.0	0.0							6.0	0.0	0.4703766102902591	6.0	500.0	2.0	1.0	2.0	7.0	0.0	part_2
51	1.0	2.0			350.0	0.0	0.0							5.0	0.0	0.7848537831450813	5.0	500.0	2.0	1.0	2.0	7.0	0.0	part_2
52	4.0	2.0			350.0	0.0	1.0							5.0	0.0	0.0	0.0	500.0	4.0	6.0	8.0	2.0	1.0	part_2
53	1.0	2.0			400.0	0.0	0.0							5.0	0.0	0.7087227188749239	5.0	500.0	1.0	5.0	1.0	4.0	0.0	part_2
54	1.0	2.0			400.0	0.0	0.0							6.0	0.0	0.4840430226759054	6.0	500.0	2.0	1.0	2.0	7.0	0.0	part_2
55	3.0	2.0			400.0	0.0	1.0							6.0	0.0	0.5183722622459754	6.0	500.0	3.0	7.0	7.0	3.0	1.0	part_2
56	4.0	2.0			400.0	0.0	1.0							5.0	0.0	0.0	0.0	450.0	1.0	3.0	5.0	1.0	1.0	part_2
57	4.0	2.0			450.0	0.0	1.0							5.0	0.0	0.0	0.0	450.0	4.0	6.0	8.0	2.0	1.0	part_2
58	1.0	2.0			500.0	0.0	0.0							5.0	0.0	0.6782149010105059	5.0	450.0	3.0	4.0	3.0	6.0	0.0	part_2
59	1.0	2.0			500.0	0.0	0.0							6.0	0.0	0.7036898041842505	6.0	450.0	3.0	4.0	3.0	6.0	0.0	part_2
60	3.0	2.0			500.0	0.0	1.0							6.0	0.0	0.3985409375745803	6.0	450.0	3.0	7.0	7.0	3.0	1.0	part_2
61	1.0	2.0			500.0	0.0	0.0							5.0	0.0	0.5688036616193131	5.0	400.0	4.0	8.0	4.0	8.0	0.0	part_2
62	1.0	2.0			500.0	0.0	1.0							5.0	0.0	0.87270960630849	5.0	400.0	2.0	2.0	6.0	5.0	0.0	part_2
63	3.0	2.0			500.0	0.0	1.0							5.0	0.0	0.3452016866649501	5.0	400.0	3.0	7.0	7.0	3.0	1.0	part_2
64	3.0	2.0			450.0	0.0	1.0							5.0	0.0	0.5941212776233442	5.0	400.0	3.0	7.0	7.0	3.0	1.0	part_2
65	1.0	2.0			400.0	0.0	1.0							6.0	0.0	0.7524580616736785	6.0	400.0	1.0	3.0	5.0	1.0	0.0	part_2
66	4.0	2.0			400.0	0.0	1.0							5.0	0.0	0.0	0.0	400.0	1.0	3.0	5.0	1.0	1.0	part_2
67	1.0	2.0			450.0	0.0	0.0							5.0	0.0	0.7095975042320788	5.0	400.0	2.0	1.0	2.0	7.0	0.0	part_2
68	1.0	2.0			450.0	0.0	1.0							6.0	0.0	0.6083719885209575	6.0	400.0	3.0	7.0	7.0	3.0	0.0	part_2
69	4.0	2.0			450.0	0.0	1.0							5.0	0.0	0.0	0.0	400.0	2.0	2.0	6.0	5.0	1.0	part_2
70	4.0	2.0			500.0	0.0	1.0							6.0	0.0	0.0	0.0	400.0	4.0	6.0	8.0	2.0	1.0	part_2
71	1.0	2.0			500.0	0.0	0.0							5.0	0.0	0.611241381149739	5.0	450.0	4.0	8.0	4.0	8.0	0.0	part_2
72	3.0	3.0			500.0	0.0	1.0							6.0	0.0	0.5541333936271258	6.0	450.0	2.0	2.0	6.0	5.0	1.0	part_2
73	1.0	3.0			500.0	0.0	0.0							5.0	0.0	0.623880669940263	5.0	400.0	4.0	8.0	4.0	8.0	0.0	part_2
74	1.0	3.0			500.0	0.0	0.0							5.0	0.0	0.4772969268960878	5.0	400.0	2.0	1.0	2.0	7.0	0.0	part_2
75	1.0	3.0			500.0	0.0	0.0							6.0	0.0	0.42309472372289747	6.0	400.0	1.0	5.0	1.0	4.0	0.0	part_2
76	1.0	3.0			500.0	0.0	1.0							6.0	0.0	0.5810327645158395	6.0	400.0	2.0	2.0	6.0	5.0	0.0	part_2
77	1.0	3.0			500.0	0.0	1.0							6.0	0.0	0.5142052355222404	6.0	400.0	3.0	7.0	7.0	3.0	0.0	part_2
78	1.0	3.0			500.0	0.0	0.0							6.0	0.0	0.4145871676155366	6.0	400.0	3.0	4.0	3.0	6.0	0.0	part_2
79	1.0	3.0			500.0	0.0	0.0							6.0	0.0	0.494305370899383	6.0	400.0	2.0	1.0	2.0	7.0	0.0	part_2
80	1.0	3.0			500.0	0.0	1.0							5.0	0.0	0.4372068012598902	5.0	400.0	3.0	7.0	7.0	3.0	0.0	part_2
81	1.0	3.0			500.0	0.0	0.0							6.0	0.0	0.3476334259030409	6.0	400.0	3.0	4.0	3.0	6.0	0.0	part_2
82	3.0	3.0			500.0	0.0	1.0							6.0	0.0	0.41772382793715224	6.0	400.0	2.0	2.0	6.0	5.0	1.0	part_2
83	4.0	3.0			500.0	0.0	1.0							6.0	0.0	0.0	0.0	350.0	4.0	6.0	8.0	2.0	1.0	part_2
84	1.0	3.0			500.0	0.0	0.0							6.0	0.0	0.5080527788377367	6.0	400.0	2.0	1.0	2.0	7.0	0.0	part_2
85	3.0	3.0			500.0	0.0	1.0							6.0	0.0	0.4205698764999397	6.0	400.0	2.0	2.0	6.0	5.0	1.0	part_2
86	4.0	3.0			500.0	0.0	1.0							5.0	0.0	0.0	0.0	350.0	2.0	2.0	6.0	5.0	1.0	part_2
87	1.0	3.0			550.0	0.0	0.0							5.0	0.0	0.6461384872091003	5.0	350.0	3.0	4.0	3.0	6.0	0.0	part_2
88	4.0	3.0			550.0	0.0	1.0							6.0	0.0	0.0	0.0	350.0	2.0	2.0	6.0	5.0	1.0	part_2
89	1.0	3.0			550.0	0.0	0.0							5.0	0.0	0.6702659585280344	5.0	400.0	3.0	4.0	3.0	6.0	0.0	part_2
90	3.0	3.0			550.0	0.0	1.0							5.0	0.0	0.4020979617489502	5.0	400.0	1.0	3.0	5.0	1.0	1.0	part_2
91	1.0	3.0			500.0	0.0	0.0							6.0	0.0	0.6040378581383266	6.0	400.0	3.0	4.0	3.0	6.0	0.0	part_2
92	1.0	3.0			500.0	0.0	0.0							5.0	0.0	0.6390044271247461	5.0	400.0	1.0	5.0	1.0	4.0	0.0	part_2
93	1.0	3.0			500.0	0.0	1.0							6.0	0.0	0.6749898875132203	6.0	400.0	2.0	2.0	6.0	5.0	0.0	part_2
94	1.0	3.0			500.0	0.0	1.0							6.0	0.0	0.776877709897235	6.0	400.0	4.0	6.0	8.0	2.0	0.0	part_2
95	1.0	3.0			500.0	0.0	0.0							5.0	0.0	0.708981943607796	5.0	400.0	3.0	4.0	3.0	6.0	0.0	part_2
96	3.0	3.0			500.0	0.0	1.0							6.0	0.0	0.36106528248637915	6.0	400.0	2.0	2.0	6.0	5.0	1.0	part_2
97	1.0	3.0			500.0	0.0	1.0							6.0	0.0	0.5657581329578534	6.0	350.0	2.0	2.0	6.0	5.0	0.0	part_2
98	4.0	3.0			500.0	0.0	1.0							6.0	0.0	0.0	0.0	350.0	1.0	3.0	5.0	1.0	1.0	part_2
99	4.0	3.0			500.0	0.0	1.0							6.0	0.0	0.0	0.0	400.0	1.0	3.0	5.0	1.0	1.0	part_2
100	1.0	3.0			500.0	0.0	0.0							5.0	0.0	0.499288049293682	5.0	450.0	1.0	5.0	1.0	4.0	0.0	part_2
101	3.0	3.0			500.0	0.0	1.0							6.0	0.0	0.5351210815715604	6.0	450.0	4.0	6.0	8.0	2.0	1.0	part_2
102	4.0	3.0			500.0	0.0	1.0							6.0	0.0	0.0	0.0	400.0	3.0	7.0	7.0	3.0	1.0	part_2
103	4.0	3.0			500.0	0.0	1.0							6.0	0.0	0.0	0.0	450.0	4.0	6.0	8.0	2.0	1.0	part_2
104	1.0	3.0			500.0	0.0	0.0							5.0	0.0	0.5927231717505492	5.0	500.0	1.0	5.0	1.0	4.0	0.0	part_2
105	1.0	3.0			500.0	0.0	0.0							6.0	0.0	0.6381426992593333	6.0	500.0	1.0	5.0	1.0	4.0	0.0	part_2
106	3.0	3.0			500.0	0.0	1.0							5.0	0.0	0.5486671177204698	5.0	500.0	4.0	6.0	8.0	2.0	1.0	part_2
107	1.0	3.0			450.0	0.0	0.0							6.0	0.0	0.5956381999421865	6.0	500.0	4.0	8.0	4.0	8.0	0.0	part_2
108	3.0	4.0			450.0	0.0	1.0							6.0	0.0	0.6300677065155469	6.0	500.0	2.0	2.0	6.0	5.0	1.0	part_2
109	3.0	4.0			450.0	0.0	1.0							6.0	0.0	0.5518619669601321	6.0	450.0	4.0	6.0	8.0	2.0	1.0	part_2
110	1.0	4.0			450.0	0.0	0.0							6.0	0.0	0.5431814758921973	6.0	400.0	1.0	5.0	1.0	4.0	0.0	part_2
111	1.0	4.0			450.0	0.0	0.0							6.0	0.0	0.48709782160585746	6.0	400.0	1.0	5.0	1.0	4.0	0.0	part_2
112	1.0	4.0			450.0	0.0	1.0							5.0	0.0	0.6222320052329451	5.0	400.0	2.0	2.0	6.0	5.0	0.0	part_2
113	4.0	4.0			450.0	0.0	1.0							5.0	0.0	0.0	0.0	400.0	4.0	6.0	8.0	2.0	1.0	part_2
114	4.0	4.0			500.0	0.0	1.0							5.0	0.0	0.0	0.0	400.0	3.0	7.0	7.0	3.0	1.0	part_2
115	3.0	4.0			550.0	0.0	1.0							5.0	0.0	0.5685813408344984	5.0	400.0	2.0	2.0	6.0	5.0	1.0	part_2
116	1.0	4.0			500.0	0.0	0.0							6.0	0.0	0.7827451313496567	6.0	400.0	1.0	5.0	1.0	4.0	0.0	part_2
117	4.0	4.0			500.0	0.0	1.0							6.0	0.0	0.0	0.0	400.0	4.0	6.0	8.0	2.0	1.0	part_2
118	4.0	4.0			500.0	0.0	1.0							6.0	0.0	0.0	0.0	450.0	3.0	7.0	7.0	3.0	1.0	part_2
119	4.0	4.0			500.0	0.0	1.0							5.0	0.0	0.0	0.0	500.0	2.0	2.0	6.0	5.0	1.0	part_2
120	1.0	4.0			550.0	0.0	1.0							6.0	0.0	0.7419680965249427	6.0	500.0	3.0	7.0	7.0	3.0	0.0	part_2
121	4.0	4.0			550.0	0.0	1.0							5.0	0.0	0.0	0.0	500.0	3.0	7.0	7.0	3.0	1.0	part_2
122	4.0	4.0			600.0	0.0	1.0							5.0	0.0	0.0	0.0	500.0	2.0	2.0	6.0	5.0	1.0	part_2
123	1.0	4.0			650.0	0.0	0.0							6.0	0.0	0.6654583073104732	6.0	500.0	4.0	8.0	4.0	8.0	0.0	part_2
124	1.0	4.0			650.0	0.0	1.0							5.0	0.0	0.6881465342594311	5.0	500.0	2.0	2.0	6.0	5.0	0.0	part_2
125	4.0	4.0			650.0	0.0	1.0							5.0	0.0	0.0	0.0	500.0	4.0	6.0	8.0	2.0	1.0	part_2
126	1.0	4.0			700.0	0.0	0.0							6.0	0.0	0.7348746525822207	6.0	500.0	2.0	1.0	2.0	7.0	0.0	part_2
127	4.0	4.0			700.0	0.0	1.0							6.0	0.0	0.0	0.0	500.0	3.0	7.0	7.0	3.0	1.0	part_2
128	1.0	4.0			700.0	0.0	0.0							5.0	0.0	0.8605419748346321	5.0	550.0	4.0	8.0	4.0	8.0	0.0	part_2
129	1.0	4.0			700.0	0.0	0.0							5.0	0.0	0.8719659635098651	5.0	550.0	3.0	4.0	3.0	6.0	0.0	part_2
130	1.0	4.0			700.0	0.0	0.0							5.0	0.0	0.9744323683553375	5.0	550.0	3.0	4.0	3.0	6.0	0.0	part_2
131	1.0	4.0			700.0	0.0	0.0							5.0	0.0	0.7968584885820746	5.0	550.0	2.0	1.0	2.0	7.0	0.0	part_2
132	1.0	4.0			700.0	0.0	0.0							5.0	0.0	0.5165177065064199	5.0	550.0	1.0	5.0	1.0	4.0	0.0	part_2
133	3.0	4.0			700.0	0.0	1.0							6.0	0.0	0.5843041232437827	6.0	550.0	1.0	3.0	5.0	1.0	1.0	part_2
134	1.0	4.0			700.0	0.0	0.0							5.0	0.0	0.5850849119015038	5.0	500.0	4.0	8.0	4.0	8.0	0.0	part_2
135	1.0	4.0			700.0	0.0	0.0							5.0	0.0	0.7423478173441254	5.0	500.0	3.0	4.0	3.0	6.0	0.0	part_2
136	3.0	4.0			700.0	0.0	1.0							5.0	0.0	0.5514499055570923	5.0	500.0	2.0	2.0	6.0	5.0	1.0	part_2
137	1.0	4.0			650.0	0.0	0.0							6.0	0.0	0.520583632227499	6.0	500.0	4.0	8.0	4.0	8.0	0.0	part_2
138	1.0	4.0			650.0	0.0	1.0							5.0	0.0	0.7231827500509098	5.0	500.0	3.0	7.0	7.0	3.0	0.0	part_2
139	4.0	4.0			650.0	0.0	1.0							5.0	0.0	0.0	0.0	500.0	1.0	3.0	5.0	1.0	1.0	part_2
140	3.0	4.0			700.0	0.0	1.0							5.0	0.0	0.7478415843215771	5.0	500.0	1.0	3.0	5.0	1.0	1.0	part_2
141	4.0	4.0			650.0	0.0	1.0							5.0	0.0	0.0	0.0	500.0	2.0	2.0	6.0	5.0	1.0	part_2
142	1.0	4.0			700.0	0.0	0.0							6.0	0.0	0.6376032482949086	6.0	500.0	3.0	4.0	3.0	6.0	0.0	part_2
143	1.0	4.0			700.0	0.0	1.0							5.0	0.0	0.8503242255537771	5.0	500.0	4.0	6.0	8.0	2.0	0.0	part_2
144	1.0	5.0			700.0	0.0	0.0							5.0	0.0	1.0381661595893092	5.0	500.0	1.0	5.0	1.0	4.0	0.0	part_2
145	3.0	5.0			700.0	0.0	1.0							6.0	0.0	0.3078140593133867	6.0	500.0	2.0	2.0	6.0	5.0	1.0	part_2
146	1.0	5.0			700.0	0.0	0.0							5.0	0.0	0.6692807439249009	5.0	450.0	4.0	8.0	4.0	8.0	0.0	part_2
147	1.0	5.0			700.0	0.0	1.0							5.0	0.0	0.5444446953479201	5.0	450.0	3.0	7.0	7.0	3.0	0.0	part_2
148	1.0	5.0			700.0	0.0	1.0							5.0	0.0	0.41145081794820726	5.0	450.0	3.0	7.0	7.0	3.0	0.0	part_2
149	1.0	5.0			700.0	0.0	0.0							6.0	0.0	0.4349087345181033	6.0	450.0	3.0	4.0	3.0	6.0	0.0	part_2
150	1.0	5.0			700.0	0.0	1.0							5.0	0.0	0.299130319559481	5.0	450.0	1.0	3.0	5.0	1.0	0.0	part_2
151	1.0	5.0			700.0	0.0	0.0							6.0	0.0	0.3246096585644409	6.0	450.0	1.0	5.0	1.0	4.0	0.0	part_2
152	1.0	5.0			700.0	0.0	0.0							5.0	0.0	0.5045512019423768	5.0	450.0	3.0	4.0	3.0	6.0	0.0	part_2
153	1.0	5.0			700.0	0.0	0.0							6.0	0.0	0.25682576512917876	6.0	450.0	1.0	5.0	1.0	4.0	0.0	part_2
154	3.0	5.0			700.0	0.0	1.0							6.0	0.0	0.3382984613417648	6.0	450.0	3.0	7.0	7.0	3.0	1.0	part_2
155	1.0	5.0			700.0	0.0	0.0							6.0	0.0	0.5960967121645808	6.0	400.0	1.0	5.0	1.0	4.0	0.0	part_2
156	1.0	5.0			700.0	0.0	0.0							6.0	0.0	0.31596255727345124	6.0	400.0	1.0	5.0	1.0	4.0	0.0	part_2
157	1.0	5.0			700.0	0.0	0.0							6.0	0.0	0.474308296572417	6.0	400.0	3.0	4.0	3.0	6.0	0.0	part_2
158	3.0	5.0			700.0	0.0	1.0							6.0	0.0	0.5547455772175454	6.0	400.0	4.0	6.0	8.0	2.0	1.0	part_2
159	1.0	5.0			700.0	0.0	0.0							6.0	0.0	0.6338389809825458	6.0	350.0	3.0	4.0	3.0	6.0	0.0	part_2
160	3.0	5.0			700.0	0.0	1.0							6.0	0.0	0.4885987406014465	6.0	350.0	4.0	6.0	8.0	2.0	1.0	part_2
161	1.0	5.0			700.0	0.0	0.0							5.0	0.0	0.4556802216102369	5.0	300.0	2.0	1.0	2.0	7.0	0.0	part_2
162	1.0	5.0			700.0	0.0	0.0							6.0	0.0	0.5457021312322468	6.0	300.0	3.0	4.0	3.0	6.0	0.0	part_2
163	3.0	5.0			700.0	0.0	1.0							5.0	0.0	0.5252152398461476	5.0	300.0	3.0	7.0	7.0	3.0	1.0	part_2
164	1.0	5.0			650.0	0.0	0.0							5.0	0.0	0.6713019098388031	5.0	300.0	2.0	1.0	2.0	7.0	0.0	part_2
165	1.0	5.0			650.0	0.0	0.0							5.0	0.0	0.5947428315412253	5.0	300.0	4.0	8.0	4.0	8.0	0.0	part_2
166	1.0	5.0			650.0	0.0	0.0							6.0	0.0	0.38105393294245005	6.0	300.0	2.0	1.0	2.0	7.0	0.0	part_2
167	4.0	5.0			650.0	0.0	1.0							6.0	0.0	0.0	0.0	300.0	2.0	2.0	6.0	5.0	1.0	part_2
168	4.0	5.0			650.0	0.0	1.0							6.0	0.0	0.0	0.0	350.0	2.0	2.0	6.0	5.0	1.0	part_2
169	4.0	5.0			650.0	0.0	1.0							6.0	0.0	0.0	0.0	400.0	3.0	7.0	7.0	3.0	1.0	part_2
170	1.0	5.0			650.0	0.0	0.0							6.0	0.0	0.4978371605393477	6.0	450.0	3.0	4.0	3.0	6.0	0.0	part_2
171	1.0	5.0			650.0	0.0	0.0							6.0	0.0	0.48675070027820766	6.0	450.0	4.0	8.0	4.0	8.0	0.0	part_2
172	1.0	5.0			650.0	0.0	1.0							5.0	0.0	0.37388222332810983	5.0	450.0	4.0	6.0	8.0	2.0	0.0	part_2
173	1.0	5.0			650.0	0.0	0.0							6.0	0.0	0.36345393251394853	6.0	450.0	2.0	1.0	2.0	7.0	0.0	part_2
174	3.0	5.0			650.0	0.0	1.0							6.0	0.0	0.3530291949864477	6.0	450.0	3.0	7.0	7.0	3.0	1.0	part_2
175	1.0	5.0			650.0	0.0	0.0							5.0	0.0	0.4678752315812744	5.0	400.0	1.0	5.0	1.0	4.0	0.0	part_2
176	4.0	5.0			650.0	0.0	1.0							6.0	0.0	0.0	0.0	400.0	4.0	6.0	8.0	2.0	1.0	part_2
177	1.0	5.0			650.0	0.0	0.0							5.0	0.0	0.5255890289554372	5.0	450.0	2.0	1.0	2.0	7.0	0.0	part_2
178	1.0	5.0			650.0	0.0	0.0							6.0	0.0	0.6394161428906955	6.0	450.0	4.0	8.0	4.0	8.0	0.0	part_2
179	1.0	5.0			650.0	0.0	1.0							5.0	0.0	0.6048662893590517	5.0	450.0	4.0	6.0	8.0	2.0	0.0	part_2
180	3.0	6.0			650.0	0.0	1.0							5.0	0.0	0.5839895149110816	5.0	450.0	4.0	6.0	8.0	2.0	1.0	part_2
181	1.0	6.0			600.0	0.0	0.0							5.0	0.0	0.49342513392912224	5.0	450.0	2.0	1.0	2.0	7.0	0.0	part_2
182	1.0	6.0			600.0	0.0	0.0							6.0	0.0	0.2805291461991146	6.0	450.0	1.0	5.0	1.0	4.0	0.0	part_2
183	1.0	6.0			600.0	0.0	0.0							5.0	0.0	0.22508705750806257	5.0	450.0	3.0	4.0	3.0	6.0	0.0	part_2
184	2.0	6.0			600.0	0.0	0.0							5.0	0.0	0.23641468735877424	6.0	450.0	3.0	4.0	3.0	6.0	0.0	part_2
185	3.0	6.0			600.0	0.0	1.0							5.0	0.0	0.27286512963473797	5.0	450.0	2.0	2.0	6.0	5.0	1.0	part_2
186	1.0	6.0			550.0	0.0	0.0							6.0	0.0	0.4300046659191139	6.0	450.0	1.0	5.0	1.0	4.0	0.0	part_2
187	1.0	6.0			550.0	0.0	0.0							5.0	0.0	0.29582448047585785	5.0	450.0	2.0	1.0	2.0	7.0	0.0	part_2
188	1.0	6.0			550.0	0.0	1.0							5.0	0.0	0.2858012665528804	5.0	450.0	2.0	2.0	6.0	5.0	0.0	part_2
189	1.0	6.0			550.0	0.0	0.0							6.0	0.0	0.36481581232510507	6.0	450.0	2.0	1.0	2.0	7.0	0.0	part_2
190	3.0	6.0			550.0	0.0	1.0							5.0	0.0	0.25307601096574217	5.0	450.0	3.0	7.0	7.0	3.0	1.0	part_2
191	1.0	6.0			500.0	0.0	0.0							6.0	0.0	0.5130802887724712	6.0	450.0	1.0	5.0	1.0	4.0	0.0	part_2
192	3.0	6.0			500.0	0.0	1.0							6.0	0.0	0.4355145665467717	6.0	450.0	2.0	2.0	6.0	5.0	1.0	part_2
193	3.0	6.0			500.0	0.0	1.0							6.0	0.0	0.41032741230446845	6.0	400.0	2.0	2.0	6.0	5.0	1.0	part_2
194	1.0	6.0			500.0	0.0	1.0							6.0	0.0	0.459490641602315	6.0	350.0	1.0	3.0	5.0	1.0	0.0	part_2
195	1.0	6.0			500.0	0.0	0.0							6.0	0.0	0.4702535982360132	6.0	350.0	4.0	8.0	4.0	8.0	0.0	part_2
196	1.0	6.0			500.0	0.0	0.0							5.0	0.0	0.30346051149535924	5.0	350.0	2.0	1.0	2.0	7.0	0.0	part_2
197	3.0	6.0			500.0	0.0	1.0							5.0	0.0	0.3387121714768	5.0	350.0	1.0	3.0	5.0	1.0	1.0	part_2
198	3.0	6.0			450.0	0.0	1.0							6.0	0.0	0.47381079220212996	6.0	350.0	4.0	6.0	8.0	2.0	1.0	part_2
199	1.0	6.0			450.0	0.0	0.0							5.0	0.0	0.5750986932544038	5.0	300.0	4.0	8.0	4.0	8.0	0.0	part_2
200	4.0	6.0			450.0	0.0	1.0							6.0	0.0	0.0	0.0	300.0	4.0	6.0	8.0	2.0	1.0	part_2
201	1.0	6.0			450.0	0.0	0.0							5.0	0.0	0.5325775169185363	5.0	350.0	3.0	4.0	3.0	6.0	0.0	part_2
202	1.0	6.0			450.0	0.0	0.0							5.0	0.0	0.47640371532179415	5.0	350.0	2.0	1.0	2.0	7.0	0.0	part_2
203	1.0	6.0			450.0	0.0	0.0							6.0	0.0	0.5679597724811174	6.0	350.0	3.0	4.0	3.0	6.0	0.0	part_2
204	1.0	6.0			450.0	0.0	0.0							5.0	0.0	0.2868870079400949	5.0	350.0	2.0	1.0	2.0	7.0	0.0	part_2
205	1.0	6.0			450.0	0.0	0.0							6.0	0.0	0.5028843962936662	6.0	350.0	3.0	4.0	3.0	6.0	0.0	part_2
206	1.0	6.0			450.0	0.0	0.0							6.0	0.0	0.3462712339241989	6.0	350.0	2.0	1.0	2.0	7.0	0.0	part_2
207	3.0	6.0			450.0	0.0	1.0							5.0	0.0	0.2667814500746317	5.0	350.0	3.0	7.0	7.0	3.0	1.0	part_2
208	3.0	6.0			400.0	0.0	1.0							6.0	0.0	0.44904037960805	6.0	350.0	3.0	7.0	7.0	3.0	1.0	part_2
209	1.0	6.0			400.0	0.0	0.0							5.0	0.0	0.44924559333594516	5.0	300.0	4.0	8.0	4.0	8.0	0.0	part_2
210	1.0	6.0			400.0	0.0	0.0							5.0	0.0	0.41569929849356413	5.0	300.0	3.0	4.0	3.0	6.0	0.0	part_2
211	1.0	6.0			400.0	0.0	0.0							5.0	0.0	0.3615431576035917	5.0	300.0	2.0	1.0	2.0	7.0	0.0	part_2
212	1.0	6.0			400.0	0.0	0.0							6.0	0.0	0.40637019253335893	6.0	300.0	4.0	8.0	4.0	8.0	0.0	part_2
213	4.0	6.0			400.0	0.0	1.0							6.0	0.0	0.0	0.0	300.0	1.0	3.0	5.0	1.0	1.0	part_2
214	3.0	6.0			400.0	0.0	1.0							5.0	0.0	0.47567583655472845	5.0	350.0	1.0	3.0	5.0	1.0	1.0	part_2
215	1.0	6.0			350.0	0.0	0.0							6.0	0.0	0.4660945493960753	6.0	350.0	3.0	4.0	3.0	6.0	0.0	part_2
216	4.0	7.0			350.0	0.0	1.0							6.0	0.0	0.0	0.0	350.0	4.0	6.0	8.0	2.0	1.0	part_2
217	1.0	7.0			350.0	0.0	0.0							6.0	0.0	0.28179068892495707	6.0	400.0	3.0	4.0	3.0	6.0	0.0	part_2
218	3.0	7.0			350.0	0.0	1.0							5.0	0.0	0.2598592138965614	5.0	400.0	1.0	3.0	5.0	1.0	1.0	part_2
219	1.0	7.0			300.0	0.0	0.0							5.0	0.0	0.4978725443361327	5.0	400.0	1.0	5.0	1.0	4.0	0.0	part_2
220	1.0	7.0			300.0	0.0	0.0							5.0	0.0	0.34055019344668835	5.0	400.0	2.0	1.0	2.0	7.0	0.0	part_2
221	1.0	7.0			300.0	0.0	1.0							6.0	0.0	0.3076139583135955	6.0	400.0	3.0	7.0	7.0	3.0	0.0	part_2
222	1.0	7.0			300.0	0.0	0.0							6.0	0.0	0.2976925279945135	6.0	400.0	4.0	8.0	4.0	8.0	0.0	part_2
223	4.0	7.0			300.0	0.0	1.0							6.0	0.0	0.0	0.0	400.0	4.0	6.0	8.0	2.0	1.0	part_2
224	1.0	7.0			300.0	0.0	0.0							6.0	0.0	0.5470579979009926	6.0	450.0	1.0	5.0	1.0	4.0	0.0	part_2
225	1.0	7.0			300.0	0.0	0.0							5.0	0.0	0.48098637483781204	5.0	450.0	2.0	1.0	2.0	7.0	0.0	part_2
226	1.0	7.0			300.0	0.0	0.0							6.0	0.0	0.36821553751360625	6.0	450.0	4.0	8.0	4.0	8.0	0.0	part_2
227	1.0	7.0			300.0	0.0	0.0							5.0	0.0	0.2559989073779434	5.0	450.0	1.0	5.0	1.0	4.0	0.0	part_2
228	1.0	7.0			300.0	0.0	0.0							6.0	0.0	0.3699199246475473	6.0	450.0	4.0	8.0	4.0	8.0	0.0	part_2
229	3.0	7.0			300.0	0.0	1.0							5.0	0.0	0.336712863529101	5.0	450.0	1.0	3.0	5.0	1.0	1.0	part_2
230	1.0	7.0			250.0	0.0	1.0							5.0	0.0	0.6200602955068462	5.0	450.0	2.0	2.0	6.0	5.0	0.0	part_2
231	1.0	7.0			250.0	0.0	0.0							5.0	0.0	0.5295507020200603	5.0	450.0	4.0	8.0	4.0	8.0	0.0	part_2
232	1.0	7.0			250.0	0.0	0.0							5.0	0.0	0.4184670772519894	5.0	450.0	2.0	1.0	2.0	7.0	0.0	part_2
233	1.0	7.0			250.0	0.0	1.0							6.0	0.0	0.7561774252681062	6.0	450.0	4.0	6.0	8.0	2.0	0.0	part_2
234	4.0	7.0			250.0	0.0	1.0							5.0	0.0	0.0	0.0	450.0	2.0	2.0	6.0	5.0	1.0	part_2
235	1.0	7.0			300.0	0.0	0.0							6.0	0.0	0.5114258443936706	6.0	450.0	2.0	1.0	2.0	7.0	0.0	part_2
236	3.0	7.0			300.0	0.0	1.0							5.0	0.0	0.33088862418662757	5.0	450.0	2.0	2.0	6.0	5.0	1.0	part_2
237	1.0	7.0			250.0	0.0	0.0							5.0	0.0	0.4908311975887045	5.0	450.0	3.0	4.0	3.0	6.0	0.0	part_2
238	1.0	7.0			250.0	0.0	0.0							6.0	0.0	0.4449124119710177	6.0	450.0	3.0	4.0	3.0	6.0	0.0	part_2
239	3.0	7.0			250.0	0.0	1.0							6.0	0.0	0.47949170717038214	6.0	450.0	1.0	3.0	5.0	1.0	1.0	part_2
240	1.0	7.0			250.0	0.0	0.0							5.0	0.0	0.616058713523671	5.0	400.0	1.0	5.0	1.0	4.0	0.0	part_2
241	4.0	7.0			250.0	0.0	1.0							5.0	0.0	0.0	0.0	400.0	4.0	6.0	8.0	2.0	1.0	part_2
242	1.0	7.0			300.0	0.0	1.0							5.0	0.0	0.6957951325457543	5.0	400.0	4.0	6.0	8.0	2.0	0.0	part_2
243	4.0	7.0			300.0	0.0	1.0							5.0	0.0	0.0	0.0	400.0	1.0	3.0	5.0	1.0	1.0	part_2
244	4.0	7.0			350.0	0.0	1.0							5.0	0.0	0.0	0.0	400.0	4.0	6.0	8.0	2.0	1.0	part_2
245	1.0	7.0			400.0	0.0	0.0							6.0	0.0	0.4746234659687616	6.0	400.0	1.0	5.0	1.0	4.0	0.0	part_2
246	1.0	7.0			400.0	0.0	0.0							5.0	0.0	0.43996778246946633	5.0	400.0	3.0	4.0	3.0	6.0	0.0	part_2
247	4.0	7.0			400.0	0.0	1.0							5.0	0.0	0.0	0.0	400.0	2.0	2.0	6.0	5.0	1.0	part_2
248	3.0	7.0			450.0	0.0	1.0							6.0	0.0	0.5322796760010533	6.0	400.0	3.0	7.0	7.0	3.0	1.0	part_2
249	1.0	7.0			450.0	0.0	0.0							6.0	0.0	0.4881959260092117	6.0	350.0	4.0	8.0	4.0	8.0	0.0	part_2
250	1.0	7.0			450.0	0.0	0.0							5.0	0.0	0.5458038419601507	5.0	350.0	4.0	8.0	4.0	8.0	0.0	part_2
251	1.0	7.0			450.0	0.0	0.0							5.0	0.0	0.680498797504697	5.0	350.0	1.0	5.0	1.0	4.0	0.0	part_2
252	4.0	8.0			450.0	0.0	1.0							6.0	0.0	0.0	0.0	350.0	4.0	6.0	8.0	2.0	1.0	part_2
253	3.0	8.0			450.0	0.0	1.0							6.0	0.0	0.3622133972821757	6.0	400.0	1.0	3.0	5.0	1.0	1.0	part_2
254	1.0	8.0			450.0	0.0	0.0							5.0	0.0	0.4750249949283898	5.0	350.0	4.0	8.0	4.0	8.0	0.0	part_2
255	1.0	8.0			450.0	0.0	0.0							5.0	0.0	0.36248180957045406	5.0	350.0	1.0	5.0	1.0	4.0	0.0	part_2
256	3.0	8.0			450.0	0.0	1.0							5.0	0.0	0.4622635205159895	5.0	350.0	1.0	3.0	5.0	1.0	1.0	part_2
257	1.0	8.0			400.0	0.0	1.0							5.0	0.0	0.7365096512367018	5.0	350.0	1.0	3.0	5.0	1.0	0.0	part_2
258	1.0	8.0			400.0	0.0	0.0							6.0	0.0	0.4670829342212528	6.0	350.0	2.0	1.0	2.0	7.0	0.0	part_2
259	1.0	8.0			400.0	0.0	0.0							6.0	0.0	0.5571258859126829	6.0	350.0	1.0	5.0	1.0	4.0	0.0	part_2
260	1.0	8.0			400.0	0.0	0.0							6.0	0.0	0.6362030883319676	6.0	350.0	2.0	1.0	2.0	7.0	0.0	part_2
261	1.0	8.0			400.0	0.0	0.0							5.0	0.0	0.6376583024393767	5.0	350.0	1.0	5.0	1.0	4.0	0.0	part_2
262	1.0	8.0			400.0	0.0	0.0							6.0	0.0	0.5026901212404482	6.0	350.0	4.0	8.0	4.0	8.0	0.0	part_2
263	1.0	8.0			400.0	0.0	0.0							6.0	0.0	0.3582920131739229	6.0	350.0	3.0	4.0	3.0	6.0	0.0	part_2
264	4.0	8.0			400.0	0.0	1.0							5.0	0.0	0.0	0.0	350.0	1.0	3.0	5.0	1.0	1.0	part_2
265	1.0	8.0			450.0	0.0	1.0							5.0	0.0	0.6756110361311585	5.0	350.0	3.0	7.0	7.0	3.0	0.0	part_2
266	3.0	8.0			450.0	0.0	1.0							6.0	0.0	0.49545062182005495	6.0	350.0	1.0	3.0	5.0	1.0	1.0	part_2
267	1.0	8.0			450.0	0.0	1.0							5.0	0.0	0.6425217722426169	5.0	300.0	4.0	6.0	8.0	2.0	0.0	part_2
268	1.0	8.0			450.0	0.0	1.0							5.0	0.0	0.6442487257882021	5.0	300.0	1.0	3.0	5.0	1.0	0.0	part_2
269	4.0	8.0			450.0	0.0	1.0							6.0	0.0	0.0	0.0	300.0	3.0	7.0	7.0	3.0	1.0	part_2
270	4.0	8.0			450.0	0.0	1.0							6.0	0.0	0.0	0.0	350.0	1.0	3.0	5.0	1.0	1.0	part_2
271	1.0	8.0			450.0	0.0	0.0							5.0	0.0	0.42020379583118483	5.0	400.0	4.0	8.0	4.0	8.0	0.0	part_2
272	3.0	8.0			450.0	0.0	1.0							6.0	0.0	0.4118173378519714	6.0	400.0	1.0	3.0	5.0	1.0	1.0	part_2
273	1.0	8.0			450.0	0.0	1.0							6.0	0.0	0.32051105436403304	6.0	350.0	1.0	3.0	5.0	1.0	0.0	part_2
274	1.0	8.0			450.0	0.0	0.0							6.0	0.0	0.4916669366066344	6.0	350.0	1.0	5.0	1.0	4.0	0.0	part_2
275	4.0	8.0			450.0	0.0	1.0							6.0	0.0	0.0	0.0	350.0	3.0	7.0	7.0	3.0	1.0	part_2
276	1.0	8.0			450.0	0.0	1.0							6.0	0.0	0.6391868878272362	6.0	400.0	1.0	3.0	5.0	1.0	0.0	part_2
277	1.0	8.0			450.0	0.0	0.0							6.0	0.0	0.5378117765067145	6.0	400.0	4.0	8.0	4.0	8.0	0.0	part_2
278	1.0	8.0			450.0	0.0	0.0							6.0	0.0	0.5725730715203099	6.0	400.0	3.0	4.0	3.0	6.0	0.0	part_2
279	1.0	8.0			450.0	0.0	0.0							6.0	0.0	0.462357651849743	6.0	400.0	4.0	8.0	4.0	8.0	0.0	part_2
280	4.0	8.0			450.0	0.0	1.0							5.0	0.0	0.0	0.0	400.0	1.0	3.0	5.0	1.0	1.0	part_2
281	1.0	8.0			500.0	0.0	0.0							5.0	0.0	0.6200842332909815	5.0	400.0	1.0	5.0	1.0	4.0	0.0	part_2
282	3.0	8.0			500.0	0.0	1.0							6.0	0.0	0.49713356274878606	6.0	400.0	2.0	2.0	6.0	5.0	1.0	part_2
283	3.0	8.0			500.0	0.0	1.0							5.0	0.0	0.6220768949133344	5.0	350.0	4.0	6.0	8.0	2.0	1.0	part_2
284	4.0	8.0			450.0	0.0	1.0							6.0	0.0	0.0	0.0	350.0	3.0	7.0	7.0	3.0	1.0	part_2
285	1.0	8.0			450.0	0.0	0.0							6.0	0.0	0.6124533865367994	6.0	400.0	2.0	1.0	2.0	7.0	0.0	part_2
286	4.0	8.0			450.0	0.0	1.0							6.0	0.0	0.0	0.0	400.0	1.0	3.0	5.0	1.0	1.0	part_2
287	1.0	8.0			450.0	0.0	0.0							5.0	0.0	0.8392946776002645	5.0	450.0	2.0	1.0	2.0	7.0	0.0	part_2
0	0.0	1.0	324.0	6.0	0.0	1.0	0.0	216.0	270.0	54.0	162.0	324.0	108.0	7.0	0.0	2.9792032201658003	5.0	0.0	4.0	8.0	4.0	8.0	0.0	part_3
1	0.0	1.0	68.0	2.0	0.0	1.0	0.0	204.0	34.0	136.0	102.0	170.0	68.0	7.0	0.0	3.8129848408862017	6.0	0.0	2.0	1.0	2.0	7.0	0.0	part_3
2	0.0	1.0	234.0	6.0	0.0	1.0	1.0	156.0	234.0	195.0	117.0	78.0	39.0	7.0	0.0	3.3985928190522827	2.0	0.0	4.0	6.0	8.0	2.0	0.0	part_3
3	0.0	1.0	234.0	6.0	0.0	1.0	0.0	234.0	195.0	78.0	39.0	117.0	156.0	7.0	0.0	4.288868656905834	1.0	0.0	4.0	8.0	4.0	8.0	0.0	part_3
4	0.0	1.0	98.0	2.0	0.0	2.0	0.0	196.0	49.0	98.0	245.0	294.0	147.0	7.0	0.0	0.7286967404652387	3.0	0.0	2.0	1.0	2.0	7.0	0.0	part_3
5	0.0	1.0	78.0	2.0	0.0	1.0	0.0	156.0	234.0	39.0	195.0	78.0	117.0	7.0	0.0	2.2930008005932905	5.0	0.0	1.0	5.0	1.0	4.0	0.0	part_3
6	0.0	1.0	78.0	2.0	0.0	1.0	0.0	195.0	234.0	117.0	156.0	39.0	78.0	7.0	0.0	2.4406513977446593	6.0	0.0	1.0	5.0	1.0	4.0	0.0	part_3
7	0.0	1.0	170.0	5.0	0.0	1.0	1.0	102.0	204.0	34.0	170.0	136.0	68.0	7.0	0.0	2.2835907003027387	4.0	0.0	4.0	6.0	8.0	2.0	0.0	part_3
8	0.0	1.0	88.0	2.0	0.0	1.0	1.0	132.0	220.0	264.0	176.0	44.0	88.0	7.0	0.0	2.4086472244816832	6.0	0.0	3.0	7.0	7.0	3.0	0.0	part_3
9	0.0	1.0	324.0	6.0	0.0	1.0	0.0	54.0	162.0	324.0	216.0	270.0	108.0	7.0	0.0	2.1957224754150957	3.0	0.0	4.0	8.0	4.0	8.0	0.0	part_3
10	0.0	1.0	34.0	1.0	0.0	1.0	1.0	102.0	204.0	34.0	136.0	170.0	68.0	7.0	0.0	2.0290450869943015	3.0	0.0	2.0	2.0	6.0	5.0	0.0	part_3
11	0.0	1.0	88.0	2.0	0.0	1.0	0.0	264.0	88.0	176.0	132.0	44.0	220.0	7.0	0.0	2.5145773887634277	2.0	0.0	3.0	4.0	3.0	6.0	0.0	part_3
12	0.0	1.0	54.0	1.0	0.0	1.0	0.0	162.0	108.0	54.0	216.0	324.0	270.0	7.0	0.0	2.649850540445186	3.0	0.0	3.0	4.0	3.0	6.0	0.0	part_3
13	0.0	1.0	195.0	5.0	0.0	1.0	1.0	156.0	234.0	117.0	78.0	195.0	39.0	7.0	0.0	3.1249031593906693	5.0	0.0	4.0	6.0	8.0	2.0	0.0	part_3
14	0.0	1.0	78.0	2.0	0.0	1.0	1.0	234.0	39.0	156.0	195.0	78.0	117.0	7.0	0.0	1.9762878922047094	5.0	0.0	1.0	3.0	5.0	1.0	0.0	part_3
15	0.0	1.0	117.0	3.0	0.0	1.0	1.0	195.0	78.0	156.0	234.0	117.0	39.0	7.0	0.0	1.6182599503081292	5.0	0.0	2.0	2.0	6.0	5.0	0.0	part_3
16	0.0	1.0	132.0	3.0	0.0	1.0	0.0	220.0	88.0	44.0	264.0	176.0	132.0	7.0	0.0	2.012659113330301	6.0	0.0	2.0	1.0	2.0	7.0	0.0	part_3
17	0.0	1.0	88.0	2.0	0.0	1.0	1.0	220.0	132.0	264.0	44.0	88.0	176.0	7.0	0.0	2.0601131326984614	5.0	0.0	1.0	3.0	5.0	1.0	0.0	part_3
18	0.0	1.0	88.0	2.0	0.0	1.0	0.0	132.0	220.0	176.0	264.0	44.0	88.0	7.0	0.0	1.9144871025928296	6.0	0.0	1.0	5.0	1.0	4.0	0.0	part_3
19	0.0	1.0	294.0	6.0	0.0	1.0	0.0	49.0	98.0	294.0	245.0	147.0	196.0	7.0	0.0	1.386123229691293	3.0	0.0	4.0	8.0	4.0	8.0	0.0	part_3
20	0.0	2.0	68.0	2.0	0.0	1.0	1.0	204.0	102.0	34.0	170.0	68.0	136.0	7.0	0.0	1.6143440473242663	5.0	0.0	3.0	7.0	7.0	3.0	0.0	part_3
21	0.0	2.0	88.0	2.0	0.0	1.0	1.0	264.0	176.0	44.0	220.0	88.0	132.0	7.0	0.0	2.7066013348521665	5.0	0.0	1.0	3.0	5.0	1.0	0.0	part_3
22	0.0	2.0	88.0	2.0	0.0	1.0	1.0	220.0	88.0	176.0	264.0	132.0	44.0	7.0	0.0	1.5022555082687177	2.0	0.0	2.0	2.0	6.0	5.0	0.0	part_3
23	0.0	2.0	245.0	5.0	0.0	1.0	1.0	49.0	196.0	98.0	245.0	294.0	147.0	7.0	0.0	1.3347482341341674	4.0	0.0	4.0	6.0	8.0	2.0	0.0	part_3
24	0.0	2.0	156.0	4.0	0.0	1.0	0.0	156.0	117.0	234.0	78.0	195.0	39.0	7.0	0.0	2.393827923981007	1.0	0.0	3.0	4.0	3.0	6.0	0.0	part_3
25	0.0	2.0	234.0	6.0	0.0	1.0	0.0	195.0	234.0	117.0	156.0	78.0	39.0	7.0	0.0	1.8547550021321513	2.0	0.0	4.0	8.0	4.0	8.0	0.0	part_3
26	0.0	2.0	264.0	6.0	0.0	1.0	0.0	220.0	44.0	264.0	176.0	88.0	132.0	7.0	0.0	2.2955745008657686	3.0	0.0	4.0	8.0	4.0	8.0	0.0	part_3
27	0.0	2.0	78.0	2.0	0.0	1.0	1.0	117.0	234.0	78.0	39.0	195.0	156.0	7.0	0.0	2.9709891152451746	3.0	0.0	3.0	7.0	7.0	3.0	0.0	part_3
28	0.0	2.0	68.0	2.0	0.0	1.0	1.0	68.0	204.0	170.0	102.0	136.0	34.0	7.0	0.0	2.8029448241577484	1.0	0.0	1.0	3.0	5.0	1.0	0.0	part_3
29	0.0	2.0	49.0	1.0	0.0	1.0	1.0	98.0	245.0	49.0	294.0	196.0	147.0	7.0	0.0	1.2414147960371338	3.0	0.0	3.0	7.0	7.0	3.0	0.0	part_3
30	0.0	2.0	88.0	2.0	0.0	1.0	0.0	88.0	220.0	264.0	176.0	44.0	132.0	7.0	0.0	2.2086270844447426	1.0	0.0	1.0	5.0	1.0	4.0	0.0	part_3
31	0.0	2.0	49.0	1.0	0.0	1.0	0.0	98.0	49.0	147.0	294.0	245.0	196.0	7.0	0.0	1.1857796854455955	2.0	0.0	1.0	5.0	1.0	4.0	0.0	part_3
32	0.0	2.0	136.0	4.0	0.0	1.0	0.0	170.0	34.0	68.0	204.0	102.0	136.0	7.0	0.0	2.0089146321988665	6.0	0.0	3.0	4.0	3.0	6.0	0.0	part_3
33	0.0	2.0	98.0	2.0	0.0	1.0	1.0	294.0	49.0	196.0	245.0	98.0	147.0	7.0	0.0	1.4711260846233927	5.0	0.0	2.0	2.0	6.0	5.0	0.0	part_3
34	0.0	2.0	54.0	1.0	0.0	1.0	0.0	324.0	108.0	54.0	270.0	162.0	216.0	7.0	0.0	1.8644200431881472	3.0	0.0	1.0	5.0	1.0	4.0	0.0	part_3
35	0.0	2.0	156.0	4.0	0.0	1.0	0.0	195.0	117.0	39.0	156.0	234.0	78.0	7.0	0.0	1.6310467583243735	4.0	0.0	3.0	4.0	3.0	6.0	0.0	part_3
36	0.0	2.0	54.0	1.0	0.0	1.0	1.0	108.0	162.0	216.0	54.0	270.0	324.0	7.0	0.0	1.8116558424662799	4.0	0.0	1.0	3.0	5.0	1.0	0.0	part_3
37	0.0	2.0	68.0	2.0	0.0	1.0	0.0	68.0	170.0	34.0	102.0	136.0	204.0	7.0	0.0	1.7110859187087044	1.0	0.0	2.0	1.0	2.0	7.0	0.0	part_3
38	0.0	2.0	98.0	2.0	0.0	1.0	1.0	245.0	294.0	98.0	49.0	196.0	147.0	7.0	0.0	1.8245026000076905	3.0	0.0	2.0	2.0	6.0	5.0	0.0	part_3
39	0.0	2.0	204.0	6.0	0.0	1.0	1.0	170.0	102.0	204.0	68.0	34.0	136.0	7.0	0.0	1.5549781961599365	3.0	0.0	4.0	6.0	8.0	2.0	0.0	part_3
40	0.0	3.0	102.0	3.0	0.0	1.0	1.0	34.0	170.0	68.0	204.0	102.0	136.0	7.0	0.0	2.3939831419847906	5.0	0.0	2.0	2.0	6.0	5.0	0.0	part_3
41	0.0	3.0	39.0	1.0	0.0	1.0	1.0	234.0	117.0	39.0	78.0	195.0	156.0	7.0	0.0	1.4732997210230678	3.0	0.0	3.0	7.0	7.0	3.0	0.0	part_3
42	0.0	3.0	245.0	5.0	0.0	1.0	1.0	98.0	196.0	245.0	294.0	147.0	49.0	7.0	0.0	1.607957586296834	3.0	0.0	4.0	6.0	8.0	2.0	0.0	part_3
43	0.0	3.0	54.0	1.0	0.0	1.0	1.0	270.0	324.0	108.0	54.0	216.0	162.0	7.0	0.0	1.5864090350805782	4.0	0.0	1.0	3.0	5.0	1.0	0.0	part_3
44	0.0	3.0	264.0	6.0	0.0	1.0	1.0	264.0	44.0	132.0	88.0	176.0	220.0	7.0	0.0	2.0145526908454485	1.0	0.0	4.0	6.0	8.0	2.0	0.0	part_3
45	0.0	3.0	204.0	6.0	0.0	1.0	0.0	136.0	34.0	204.0	68.0	170.0	102.0	7.0	0.0	2.071776517899707	3.0	0.0	4.0	8.0	4.0	8.0	0.0	part_3
46	0.0	3.0	78.0	2.0	0.0	1.0	0.0	78.0	234.0	39.0	117.0	195.0	156.0	7.0	0.0	2.592619957285933	1.0	0.0	2.0	1.0	2.0	7.0	0.0	part_3
47	0.0	3.0	49.0	1.0	0.0	1.0	0.0	98.0	294.0	245.0	49.0	147.0	196.0	7.0	0.0	2.3683257604716346	4.0	0.0	2.0	1.0	2.0	7.0	0.0	part_3
48	0.0	3.0	44.0	1.0	0.0	1.0	1.0	88.0	264.0	132.0	176.0	220.0	44.0	7.0	0.0	1.8838052246137522	6.0	0.0	3.0	7.0	7.0	3.0	0.0	part_3
49	0.0	3.0	78.0	2.0	0.0	1.0	1.0	39.0	195.0	117.0	234.0	156.0	78.0	7.0	0.0	2.436472840141505	6.0	0.0	2.0	2.0	6.0	5.0	0.0	part_3
50	0.0	3.0	132.0	3.0	0.0	1.0	0.0	176.0	88.0	220.0	44.0	132.0	264.0	7.0	0.0	2.1357702299719676	5.0	0.0	3.0	4.0	3.0	6.0	0.0	part_3
51	0.0	3.0	270.0	5.0	0.0	1.0	1.0	54.0	324.0	216.0	162.0	108.0	270.0	7.0	0.0	2.1242525205598213	6.0	0.0	4.0	6.0	8.0	2.0	0.0	part_3
52	0.0	3.0	264.0	6.0	0.0	1.0	1.0	264.0	88.0	176.0	220.0	132.0	44.0	7.0	0.0	1.8553062346181832	1.0	0.0	4.0	6.0	8.0	2.0	0.0	part_3
53	0.0	3.0	108.0	2.0	0.0	1.0	0.0	270.0	162.0	108.0	324.0	54.0	216.0	7.0	0.0	2.307313147583045	3.0	0.0	2.0	1.0	2.0	7.0	0.0	part_3
54	0.0	3.0	49.0	1.0	0.0	1.0	1.0	245.0	98.0	147.0	49.0	196.0	294.0	7.0	0.0	2.2624251695815474	4.0	0.0	3.0	7.0	7.0	3.0	0.0	part_3
55	0.0	3.0	39.0	1.0	0.0	1.0	1.0	78.0	117.0	156.0	195.0	234.0	39.0	7.0	0.0	1.7912474962649867	6.0	0.0	1.0	3.0	5.0	1.0	0.0	part_3
56	0.0	3.0	147.0	3.0	0.0	1.0	0.0	294.0	196.0	245.0	147.0	49.0	98.0	7.0	0.0	3.029722414794378	4.0	0.0	3.0	4.0	3.0	6.0	0.0	part_3
57	0.0	3.0	54.0	1.0	0.0	1.0	1.0	108.0	324.0	162.0	54.0	270.0	216.0	7.0	0.0	3.2569886179990135	4.0	0.0	3.0	7.0	7.0	3.0	0.0	part_3
58	0.0	3.0	54.0	1.0	0.0	1.0	1.0	108.0	270.0	216.0	324.0	54.0	162.0	7.0	0.0	2.0531765351770446	5.0	0.0	3.0	7.0	7.0	3.0	0.0	part_3
59	0.0	3.0	34.0	1.0	0.0	1.0	1.0	102.0	136.0	68.0	34.0	170.0	204.0	7.0	0.0	1.6261671353131533	4.0	0.0	1.0	3.0	5.0	1.0	0.0	part_3
60	0.0	4.0	147.0	3.0	0.0	1.0	0.0	245.0	196.0	98.0	49.0	147.0	294.0	7.0	0.0	2.1359129081247374	5.0	0.0	3.0	4.0	3.0	6.0	0.0	part_3
61	0.0	4.0	102.0	3.0	0.0	1.0	0.0	102.0	170.0	34.0	204.0	136.0	68.0	7.0	0.0	1.923432155395858	1.0	0.0	1.0	5.0	1.0	4.0	0.0	part_3
62	0.0	4.0	108.0	2.0	0.0	1.0	1.0	324.0	270.0	54.0	108.0	162.0	216.0	7.0	0.0	1.8801543091540225	4.0	0.0	2.0	2.0	6.0	5.0	0.0	part_3
63	0.0	4.0	88.0	2.0	0.0	1.0	1.0	264.0	220.0	44.0	88.0	176.0	132.0	7.0	0.0	1.215318800706882	4.0	0.0	2.0	2.0	6.0	5.0	0.0	part_3
64	0.0	4.0	204.0	6.0	0.0	1.0	0.0	170.0	136.0	204.0	102.0	34.0	68.0	7.0	0.0	1.599246353318449	3.0	0.0	4.0	8.0	4.0	8.0	0.0	part_3
65	0.0	4.0	108.0	2.0	0.0	1.0	0.0	324.0	108.0	270.0	54.0	216.0	162.0	7.0	0.0	1.6023235245374963	2.0	0.0	1.0	5.0	1.0	4.0	0.0	part_3
66	0.0	4.0	102.0	3.0	0.0	1.0	0.0	136.0	102.0	204.0	170.0	34.0	68.0	7.0	0.0	1.8056785101653077	2.0	0.0	1.0	5.0	1.0	4.0	0.0	part_3
67	0.0	4.0	49.0	1.0	0.0	1.0	1.0	196.0	245.0	294.0	147.0	98.0	49.0	7.0	0.0	2.099103046581149	6.0	0.0	1.0	3.0	5.0	1.0	0.0	part_3
68	0.0	4.0	49.0	1.0	0.0	1.0	0.0	147.0	98.0	294.0	49.0	196.0	245.0	7.0	0.0	3.1007267985260114	4.0	0.0	1.0	5.0	1.0	4.0	0.0	part_3
69	0.0	4.0	136.0	4.0	0.0	1.0	0.0	136.0	170.0	34.0	102.0	204.0	68.0	7.0	0.0	2.101537915354129	1.0	0.0	3.0	4.0	3.0	6.0	0.0	part_3
70	0.0	4.0	220.0	5.0	0.0	1.0	0.0	44.0	88.0	220.0	132.0	264.0	176.0	7.0	0.0	1.6509853507159278	3.0	0.0	4.0	8.0	4.0	8.0	0.0	part_3
71	0.0	4.0	49.0	1.0	0.0	1.0	1.0	49.0	147.0	98.0	294.0	196.0	245.0	7.0	0.0	2.159360960184131	1.0	0.0	1.0	3.0	5.0	1.0	0.0	part_3
72	0.0	4.0	54.0	1.0	0.0	1.0	0.0	108.0	270.0	54.0	216.0	324.0	162.0	7.0	0.0	2.903811263618991	3.0	0.0	2.0	1.0	2.0	7.0	0.0	part_3
73	0.0	4.0	108.0	2.0	0.0	1.0	1.0	216.0	162.0	54.0	324.0	108.0	270.0	7.0	0.0	2.4651514037395827	5.0	0.0	2.0	2.0	6.0	5.0	0.0	part_3
74	0.0	4.0	270.0	5.0	0.0	1.0	1.0	216.0	162.0	270.0	324.0	54.0	108.0	7.0	0.0	1.959707966831047	3.0	0.0	4.0	6.0	8.0	2.0	0.0	part_3
75	0.0	4.0	294.0	6.0	0.0	1.0	0.0	294.0	196.0	245.0	147.0	98.0	49.0	7.0	0.0	2.04035100270994	1.0	0.0	4.0	8.0	4.0	8.0	0.0	part_3
76	0.0	4.0	108.0	2.0	0.0	1.0	0.0	216.0	108.0	162.0	270.0	324.0	54.0	7.0	0.0	2.8957479418604635	2.0	0.0	3.0	4.0	3.0	6.0	0.0	part_3
77	0.0	4.0	78.0	2.0	0.0	1.0	0.0	234.0	39.0	156.0	117.0	195.0	78.0	7.0	0.0	2.153720767761115	6.0	0.0	2.0	1.0	2.0	7.0	0.0	part_3
78	0.0	4.0	68.0	2.0	0.0	1.0	1.0	34.0	102.0	204.0	170.0	68.0	136.0	7.0	0.0	1.3908489687019028	5.0	0.0	3.0	7.0	7.0	3.0	0.0	part_3
79	0.0	4.0	88.0	2.0	0.0	1.0	0.0	220.0	88.0	176.0	264.0	44.0	132.0	7.0	0.0	1.919646215334069	2.0	0.0	2.0	1.0	2.0	7.0	0.0	part_3
