	accuracy	block	chosen_bidding_amount	chosen_bidding_level	left_SSD	num_trial_presentations	paired_with_stopping	possible_bid_1	possible_bid_2	possible_bid_3	possible_bid_4	possible_bid_5	possible_bid_6	quadrant	raw_reward_magnitude	reaction_time	response	right_SSD	stepwise_reward_magnitude	stim_color	stim_reward	stim_shape	stop_signal_trial_type	which_part
0		1.0				1.0	1.0							2.0	418.0	0.3803809517339687	2.0		4.0	5.0	8.0	6.0		part_1
1		1.0				1.0	1.0							1.0	48.0	0.44718655897668214	1.0		1.0	1.0	5.0	2.0		part_1
2		1.0				1.0	1.0							4.0	118.0	0.3926859999883163	4.0		2.0	7.0	6.0	7.0		part_1
3		1.0				1.0	0.0							4.0	93.0	0.4363536969995039	4.0		2.0	6.0	2.0	4.0		part_1
4		1.0				1.0	0.0							3.0	42.0	0.32646384522740846	3.0		1.0	4.0	1.0	1.0		part_1
5		1.0				1.0	0.0							1.0	25.0	0.3500812492293335	1.0		1.0	4.0	1.0	1.0		part_1
6		1.0				1.0	0.0							1.0	107.0	0.395431040227777	1.0		2.0	6.0	2.0	4.0		part_1
7		1.0				1.0	1.0							4.0	215.0	0.38334389297597227	4.0		3.0	2.0	7.0	8.0		part_1
8		1.0				1.0	0.0							3.0	185.0	0.315426718976596	3.0		3.0	8.0	3.0	5.0		part_1
9		1.0				1.0	0.0							1.0	0.0	0.36334916774467274	1.0		0.0	6.0	2.0	4.0		part_1
10		1.0				1.0	0.0							2.0	180.0	0.3621485502389987	2.0		3.0	8.0	3.0	5.0		part_1
11		1.0				1.0	1.0							3.0	403.0	0.29514041098627786	3.0		4.0	5.0	8.0	6.0		part_1
12		1.0				1.0	1.0							2.0	0.0	0.4992991754934337	2.0		0.0	1.0	5.0	2.0		part_1
13		1.0				1.0	0.0							2.0	110.0	0.3186005307452433	2.0		2.0	6.0	2.0	4.0		part_1
14		1.0				1.0	1.0							4.0	381.0	0.29827000998920994	4.0		4.0	5.0	8.0	6.0		part_1
15		1.0				1.0	1.0							2.0	189.0	0.3541938164817111	2.0		3.0	2.0	7.0	8.0		part_1
16		1.0				1.0	0.0							4.0	107.0	0.36552730848052306	4.0		2.0	6.0	2.0	4.0		part_1
17		1.0				1.0	1.0							4.0	48.0	0.3221608447329345	4.0		1.0	1.0	5.0	2.0		part_1
18		1.0				1.0	1.0							1.0	119.0	0.311705551974228	1.0		2.0	7.0	6.0	7.0		part_1
19		1.0				1.0	1.0							2.0	224.0	0.3462833214944112	2.0		3.0	2.0	7.0	8.0		part_1
20		1.0				1.0	0.0							3.0	0.0	0.289400569481586	3.0		0.0	6.0	2.0	4.0		part_1
21		1.0				1.0	0.0							1.0	55.0	0.3017063014813175	1.0		1.0	4.0	1.0	1.0		part_1
22		1.0				1.0	0.0							4.0	385.0	0.32466255274630385	4.0		4.0	3.0	4.0	3.0		part_1
23		1.0				1.0	1.0							2.0	46.0	0.26927817123942077	2.0		1.0	1.0	5.0	2.0		part_1
24		1.0				1.0	0.0							4.0	0.0	0.31350473949351	4.0		0.0	3.0	4.0	3.0		part_1
25		1.0				1.0	0.0							2.0	376.0	0.31449481148229097	2.0		4.0	3.0	4.0	3.0		part_1
26		1.0				1.0	0.0							3.0	108.0	0.34788109149303637	3.0		2.0	6.0	2.0	4.0		part_1
27		1.0				1.0	1.0							2.0	424.0	0.2716286504819436	2.0		4.0	5.0	8.0	6.0		part_1
28		1.0				1.0	0.0							2.0	389.0	0.2826610662286839	2.0		4.0	3.0	4.0	3.0		part_1
29		1.0				1.0	1.0							4.0	101.0	0.3270041287451022	4.0		2.0	7.0	6.0	7.0		part_1
30		1.0				1.0	0.0							3.0	35.0	0.31598678949376335	3.0		1.0	4.0	1.0	1.0		part_1
31		1.0				1.0	1.0							3.0	419.0	0.28392133148190624	3.0		4.0	5.0	8.0	6.0		part_1
32		1.0				1.0	0.0							2.0	403.0	0.34084998648177134	2.0		4.0	3.0	4.0	3.0		part_1
33		1.0				1.0	0.0							3.0	0.0	0.31834108897419355	3.0		0.0	6.0	2.0	4.0		part_1
34		1.0				1.0	1.0							4.0	214.0	0.262757373495333	4.0		3.0	2.0	7.0	8.0		part_1
35		1.0				1.0	0.0							1.0	218.0	0.353797675745227	1.0		3.0	8.0	3.0	5.0		part_1
36		1.0				1.0	1.0							3.0	176.0	0.33130085497577966	3.0		3.0	2.0	7.0	8.0		part_1
37		1.0				1.0	0.0							1.0	101.0	0.48956427697521576	1.0		2.0	6.0	2.0	4.0		part_1
38		1.0				1.0	0.0							1.0	0.0	0.3116329877448152	1.0		0.0	8.0	3.0	5.0		part_1
39		1.0				1.0	0.0							3.0	65.0	0.3217753957342211	3.0		1.0	4.0	1.0	1.0		part_1
40		1.0				1.0	0.0							2.0	207.0	0.3121059634941048	2.0		3.0	8.0	3.0	5.0		part_1
41		1.0				1.0	1.0							3.0	108.0	0.28933009448155644	3.0		2.0	7.0	6.0	7.0		part_1
42		1.0				1.0	0.0							2.0	107.0	0.32303069574663823	2.0		2.0	6.0	2.0	4.0		part_1
43		1.0				1.0	0.0							2.0	392.0	0.2571987912288023	2.0		4.0	3.0	4.0	3.0		part_1
44		1.0				1.0	1.0							1.0	92.0	0.26918093597487314	1.0		2.0	7.0	6.0	7.0		part_1
45		1.0				1.0	0.0							2.0	89.0	0.2913211662289541	2.0		2.0	6.0	2.0	4.0		part_1
46		1.0				1.0	0.0							4.0	381.0	0.38133334273516084	4.0		4.0	3.0	4.0	3.0		part_1
47		1.0				1.0	0.0							2.0	223.0	0.43916859074670356	2.0		3.0	8.0	3.0	5.0		part_1
48		1.0				1.0	0.0							1.0	117.0	0.3498368372402183	1.0		2.0	6.0	2.0	4.0		part_1
49		1.0				1.0	1.0							4.0	55.0	0.36263301123835845	4.0		1.0	1.0	5.0	2.0		part_1
50		1.0				1.0	1.0							4.0	83.0	0.3957926125058293	4.0		2.0	7.0	6.0	7.0		part_1
51		1.0				1.0	0.0							2.0	0.0	0.3295009929861408	2.0		0.0	8.0	3.0	5.0		part_1
52		1.0				1.0	1.0							3.0	185.0	0.2954453639758867	3.0		3.0	2.0	7.0	8.0		part_1
53		1.0				1.0	1.0							1.0	424.0	0.31855430722862366	1.0		4.0	5.0	8.0	6.0		part_1
54		1.0				1.0	0.0							2.0	0.0	0.2736753074823355	2.0		0.0	8.0	3.0	5.0		part_1
55		1.0				1.0	0.0							4.0	0.0	0.27373004698711156	4.0		0.0	3.0	4.0	3.0		part_1
56		1.0				1.0	1.0							1.0	395.0	0.3198953099999926	1.0		4.0	5.0	8.0	6.0		part_1
57		1.0				1.0	0.0							4.0	30.0	0.2535782127342827	4.0		1.0	4.0	1.0	1.0		part_1
58		1.0				1.0	1.0							4.0	192.0	0.3202671289873251	4.0		3.0	2.0	7.0	8.0		part_1
59		1.0				1.0	0.0							4.0	84.0	0.34402036772189604	4.0		2.0	6.0	2.0	4.0		part_1
60		1.0				1.0	1.0							4.0	115.0	0.31152085523899586	4.0		2.0	7.0	6.0	7.0		part_1
61		1.0				1.0	0.0							1.0	176.0	0.34539130973462306	1.0		3.0	8.0	3.0	5.0		part_1
62		1.0				1.0	0.0							1.0	418.0	0.3137608472552529	1.0		4.0	3.0	4.0	3.0		part_1
63		1.0				1.0	1.0							1.0	0.0	0.32495204948099854	1.0		0.0	2.0	7.0	8.0		part_1
64		1.0				1.0	1.0							2.0	0.0	0.3028026844949636	2.0		0.0	5.0	8.0	6.0		part_1
65		1.0				1.0	0.0							3.0	186.0	0.31262806398808607	3.0		3.0	8.0	3.0	5.0		part_1
66		1.0				1.0	1.0							4.0	72.0	0.3027733577218896	4.0		1.0	1.0	5.0	2.0		part_1
67		1.0				2.0	1.0							1.0	42.0	0.32618441598788195	1.0		1.0	1.0	5.0	2.0		part_1
68		1.0				1.0	1.0							3.0	198.0	0.3164362467468891	3.0		3.0	2.0	7.0	8.0		part_1
69		1.0				1.0	0.0							4.0	29.0	0.31615996349319175	4.0		1.0	4.0	1.0	1.0		part_1
70		1.0				1.0	1.0							3.0	80.0	0.34045229899857077	3.0		2.0	7.0	6.0	7.0		part_1
71		1.0				1.0	1.0							4.0	200.0	0.3408405472400773	4.0		3.0	2.0	7.0	8.0		part_1
72		1.0				1.0	0.0							4.0	224.0	0.3075958647459629	4.0		3.0	8.0	3.0	5.0		part_1
73		1.0				1.0	0.0							3.0	48.0	0.45291942073345126	3.0		1.0	4.0	1.0	1.0		part_1
74		1.0				1.0	1.0							4.0	210.0	0.31852142448224186	4.0		3.0	2.0	7.0	8.0		part_1
75		1.0				1.0	0.0							1.0	48.0	0.34188924572299584	1.0		1.0	4.0	1.0	1.0		part_1
76		1.0				1.0	1.0							3.0	25.0	0.3204584129889554	3.0		1.0	1.0	5.0	2.0		part_1
77		1.0				1.0	1.0							3.0	0.0	0.3662643907337042	3.0		0.0	2.0	7.0	8.0		part_1
78		1.0				1.0	1.0							2.0	52.0	0.32314434898762556	2.0		1.0	1.0	5.0	2.0		part_1
79		1.0				1.0	1.0							1.0	201.0	0.4352702144824434	1.0		3.0	2.0	7.0	8.0		part_1
80		1.0				1.0	1.0							4.0	0.0	0.3912599662271532	4.0		0.0	7.0	6.0	7.0		part_1
81		1.0				1.0	1.0							1.0	107.0	0.3466624579868949	1.0		2.0	7.0	6.0	7.0		part_1
82		1.0				1.0	1.0							1.0	107.0	0.34637869249490905	1.0		2.0	7.0	6.0	7.0		part_1
83		1.0				1.0	0.0							4.0	412.0	0.325422108746352	4.0		4.0	3.0	4.0	3.0		part_1
84		1.0				1.0	1.0							1.0	223.0	0.3018421274937282	1.0		3.0	2.0	7.0	8.0		part_1
85		1.0				1.0	0.0							2.0	27.0	0.3269474584940326	2.0		1.0	4.0	1.0	1.0		part_1
86		1.0				1.0	1.0							2.0	0.0	0.2932802269770036	2.0		0.0	1.0	5.0	2.0		part_1
87		1.0				1.0	1.0							2.0	99.0	0.32691204522780026	2.0		2.0	7.0	6.0	7.0		part_1
88		1.0				1.0	0.0							1.0	71.0	0.29296651173353894	1.0		1.0	4.0	1.0	1.0		part_1
89		1.0				1.0	1.0							4.0	395.0	0.36052630523954576	4.0		4.0	5.0	8.0	6.0		part_1
90		1.0				1.0	1.0							4.0	407.0	0.3292119269990508	4.0		4.0	5.0	8.0	6.0		part_1
91		1.0				2.0	0.0							1.0	215.0	0.4304385899886256	1.0		3.0	8.0	3.0	5.0		part_1
92		1.0				1.0	1.0							1.0	0.0	0.3409001517466095	1.0		0.0	5.0	8.0	6.0		part_1
93		1.0				1.0	1.0							2.0	209.0	0.38787066173426865	2.0		3.0	2.0	7.0	8.0		part_1
94		1.0				1.0	0.0							3.0	122.0	0.34293700049420295	3.0		2.0	6.0	2.0	4.0		part_1
95		1.0				1.0	1.0							3.0	47.0	0.43291973924169724	3.0		1.0	1.0	5.0	2.0		part_1
96		1.0				1.0	1.0							4.0	0.0	0.3994896279891691	4.0		0.0	2.0	7.0	8.0		part_1
97		1.0				1.0	1.0							1.0	122.0	0.3450063739746838	1.0		2.0	7.0	6.0	7.0		part_1
98		1.0				1.0	0.0							1.0	394.0	0.37775840297581453	1.0		4.0	3.0	4.0	3.0		part_1
99		1.0				1.0	0.0							4.0	42.0	0.32266130473362864	4.0		1.0	4.0	1.0	1.0		part_1
100		2.0				1.0	0.0							1.0	0.0	0.4368087317343452	1.0		0.0	6.0	2.0	4.0		part_1
101		2.0				1.0	1.0							2.0	401.0	0.369050414987214	2.0		4.0	5.0	8.0	6.0		part_1
102		2.0				1.0	0.0							4.0	216.0	0.40300414872217516	4.0		3.0	8.0	3.0	5.0		part_1
103		2.0				1.0	1.0							3.0	77.0	0.3027382167347241	3.0		2.0	7.0	6.0	7.0		part_1
104		2.0				1.0	1.0							3.0	176.0	0.31396102773396706	3.0		3.0	2.0	7.0	8.0		part_1
105		2.0				1.0	1.0							4.0	72.0	0.5725070697335468	4.0		1.0	1.0	5.0	2.0		part_1
106		2.0				1.0	1.0							1.0	418.0	0.3387231334945682	1.0		4.0	5.0	8.0	6.0		part_1
107		2.0				1.0	0.0							2.0	89.0	0.418179477481317	2.0		2.0	6.0	2.0	4.0		part_1
108		2.0				1.0	1.0							4.0	120.0	0.5068394529880607	4.0		2.0	7.0	6.0	7.0		part_1
109		2.0				1.0	1.0							3.0	117.0	0.3842779724927823	3.0		2.0	7.0	6.0	7.0		part_1
110		2.0				1.0	0.0							1.0	195.0	0.3395331424926553	1.0		3.0	8.0	3.0	5.0		part_1
111		2.0				1.0	0.0							3.0	419.0	0.3389628349868872	3.0		4.0	3.0	4.0	3.0		part_1
112		2.0				1.0	0.0							2.0	0.0	0.2848116274944914	2.0		0.0	4.0	1.0	1.0		part_1
113		2.0				1.0	1.0							1.0	84.0	0.3421786352282652	1.0		2.0	7.0	6.0	7.0		part_1
114		2.0				1.0	1.0							1.0	223.0	0.4090256442414102	1.0		3.0	2.0	7.0	8.0		part_1
115		2.0				1.0	1.0							1.0	62.0	0.35517142773278465	1.0		1.0	1.0	5.0	2.0		part_1
116		2.0				1.0	1.0							1.0	0.0	0.41122653473394166	1.0		0.0	2.0	7.0	8.0		part_1
117		2.0				1.0	1.0							3.0	420.0	0.31023072700008925	3.0		4.0	5.0	8.0	6.0		part_1
118		2.0				1.0	0.0							2.0	0.0	0.37803279474610463	2.0		0.0	6.0	2.0	4.0		part_1
119		2.0				1.0	0.0							2.0	111.0	0.4005507042402314	2.0		2.0	6.0	2.0	4.0		part_1
120		2.0				1.0	1.0							2.0	30.0	0.33366692749405047	2.0		1.0	1.0	5.0	2.0		part_1
121		2.0				1.0	1.0							1.0	395.0	0.4360274842274521	1.0		4.0	5.0	8.0	6.0		part_1
122		2.0				1.0	1.0							2.0	97.0	0.36865534149364976	2.0		2.0	7.0	6.0	7.0		part_1
123		2.0				1.0	0.0							1.0	376.0	0.3572726702404907	1.0		4.0	3.0	4.0	3.0		part_1
124		2.0				1.0	1.0							4.0	385.0	0.3357539904809528	4.0		4.0	5.0	8.0	6.0		part_1
125		2.0				1.0	0.0							1.0	0.0	0.3381696504948195	1.0		0.0	6.0	2.0	4.0		part_1
126		2.0				1.0	0.0							4.0	72.0	0.4043491049869772	4.0		1.0	4.0	1.0	1.0		part_1
127		2.0				1.0	0.0							1.0	189.0	0.31631924249268195	1.0		3.0	8.0	3.0	5.0		part_1
128		2.0				2.0	0.0							4.0	0.0	0.4175376759885694	4.0		0.0	4.0	1.0	1.0		part_1
129		2.0				1.0	0.0							3.0	110.0	0.41980028774560196	3.0		2.0	6.0	2.0	4.0		part_1
130		2.0				1.0	0.0							1.0	407.0	0.4746476549880754	1.0		4.0	3.0	4.0	3.0		part_1
131		2.0				1.0	0.0							4.0	117.0	0.4296626039995317	4.0		2.0	6.0	2.0	4.0		part_1
132		2.0				1.0	0.0							1.0	395.0	0.3744696622397896	1.0		4.0	3.0	4.0	3.0		part_1
133		2.0				1.0	1.0							4.0	395.0	0.3524501284937287	4.0		4.0	5.0	8.0	6.0		part_1
134		2.0				1.0	0.0							3.0	203.0	0.3878219864818675	3.0		3.0	8.0	3.0	5.0		part_1
135		2.0				1.0	0.0							4.0	200.0	0.39792953274627507	4.0		3.0	8.0	3.0	5.0		part_1
136		2.0				1.0	0.0							1.0	0.0	0.4782112979755766	1.0		0.0	4.0	1.0	1.0		part_1
137		2.0				1.0	0.0							4.0	0.0	0.34289932698811754	4.0		0.0	4.0	1.0	1.0		part_1
138		2.0				1.0	0.0							2.0	198.0	0.31188954498793464	2.0		3.0	8.0	3.0	5.0		part_1
139		2.0				1.0	0.0							2.0	0.0	0.37814342422825575	2.0		0.0	4.0	1.0	1.0		part_1
140		2.0				1.0	0.0							4.0	177.0	0.424336235239025	4.0		3.0	8.0	3.0	5.0		part_1
141		2.0				1.0	0.0							2.0	0.0	0.39118239148228895	2.0		0.0	6.0	2.0	4.0		part_1
142		2.0				1.0	1.0							2.0	376.0	0.3354752137329342	2.0		4.0	5.0	8.0	6.0		part_1
143		2.0				1.0	0.0							4.0	185.0	0.33488456173290615	4.0		3.0	8.0	3.0	5.0		part_1
144		2.0				1.0	1.0							3.0	63.0	0.38234433649449784	3.0		1.0	1.0	5.0	2.0		part_1
145		2.0				1.0	0.0							3.0	398.0	0.3930756437330274	3.0		4.0	3.0	4.0	3.0		part_1
146		2.0				1.0	1.0							2.0	47.0	0.6413673414936056	2.0		1.0	1.0	5.0	2.0		part_1
147		2.0				1.0	0.0							1.0	388.0	0.5854269594947255	1.0		4.0	3.0	4.0	3.0		part_1
148		2.0				1.0	1.0							4.0	207.0	0.33803586924113915	4.0		3.0	2.0	7.0	8.0		part_1
149		2.0				1.0	1.0							4.0	0.0	0.5536912637344358	4.0		0.0	2.0	7.0	8.0		part_1
150		2.0				1.0	0.0							3.0	424.0	0.35157758574678155	3.0		4.0	3.0	4.0	3.0		part_1
151		2.0				1.0	1.0							2.0	419.0	0.3063630877459218	2.0		4.0	5.0	8.0	6.0		part_1
152		2.0				1.0	1.0							4.0	60.0	0.31706531324016396	4.0		1.0	1.0	5.0	2.0		part_1
153		2.0				1.0	0.0							2.0	424.0	0.3198081319878838	2.0		4.0	3.0	4.0	3.0		part_1
154		2.0				1.0	0.0							1.0	395.0	0.4096899792402837	1.0		4.0	3.0	4.0	3.0		part_1
155		2.0				1.0	0.0							3.0	44.0	0.31944328473400674	3.0		1.0	4.0	1.0	1.0		part_1
156		2.0				1.0	1.0							2.0	188.0	0.28607384197675856	2.0		3.0	2.0	7.0	8.0		part_1
157		2.0				1.0	1.0							2.0	203.0	0.35389308049525425	2.0		3.0	2.0	7.0	8.0		part_1
158		2.0				1.0	1.0							4.0	396.0	0.3555410757453501	4.0		4.0	5.0	8.0	6.0		part_1
159		2.0				1.0	0.0							3.0	51.0	0.34470772597524046	3.0		1.0	4.0	1.0	1.0		part_1
160		2.0				1.0	1.0							1.0	0.0	0.3452540307334857	1.0		0.0	5.0	8.0	6.0		part_1
161		2.0				1.0	1.0							1.0	48.0	0.3907882954827073	1.0		1.0	1.0	5.0	2.0		part_1
162		2.0				1.0	1.0							2.0	0.0	0.3699543274815369	2.0		0.0	1.0	5.0	2.0		part_1
163		2.0				1.0	1.0							2.0	177.0	0.3590857737472106	2.0		3.0	2.0	7.0	8.0		part_1
164		2.0				1.0	1.0							3.0	189.0	0.3923113262280822	3.0		3.0	2.0	7.0	8.0		part_1
165		2.0				1.0	1.0							3.0	198.0	0.3467164122284885	3.0		3.0	2.0	7.0	8.0		part_1
166		2.0				1.0	0.0							2.0	52.0	0.3598399307211366	2.0		1.0	4.0	1.0	1.0		part_1
167		2.0				1.0	1.0							1.0	93.0	0.3951675092393998	1.0		2.0	7.0	6.0	7.0		part_1
168		2.0				1.0	1.0							1.0	412.0	0.40644355848235136	1.0		4.0	5.0	8.0	6.0		part_1
169		2.0				1.0	0.0							3.0	223.0	0.31549772897596995	3.0		3.0	8.0	3.0	5.0		part_1
170		2.0				1.0	0.0							4.0	210.0	0.3623068004817469	4.0		3.0	8.0	3.0	5.0		part_1
171		2.0				1.0	0.0							2.0	218.0	0.3169932734945178	2.0		3.0	8.0	3.0	5.0		part_1
172		2.0				1.0	0.0							1.0	417.0	0.3286765774828382	1.0		4.0	3.0	4.0	3.0		part_1
173		2.0				1.0	1.0							3.0	0.0	0.3077860217454145	3.0		0.0	5.0	8.0	6.0		part_1
174		2.0				1.0	0.0							2.0	177.0	0.33032888749403355	2.0		3.0	8.0	3.0	5.0		part_1
175		2.0				1.0	0.0							4.0	200.0	0.4326861172266945	4.0		3.0	8.0	3.0	5.0		part_1
176		2.0				1.0	0.0							4.0	188.0	0.35357350674712507	4.0		3.0	8.0	3.0	5.0		part_1
177		2.0				1.0	0.0							3.0	424.0	0.534184086987807	3.0		4.0	3.0	4.0	3.0		part_1
178		2.0				1.0	1.0							3.0	398.0	0.3435552584942343	3.0		4.0	5.0	8.0	6.0		part_1
179		2.0				1.0	0.0							3.0	176.0	0.32056888522674853	3.0		3.0	8.0	3.0	5.0		part_1
180		2.0				1.0	1.0							4.0	208.0	0.4000863297460455	4.0		3.0	2.0	7.0	8.0		part_1
181		2.0				1.0	1.0							2.0	0.0	0.49187696873559617	2.0		0.0	1.0	5.0	2.0		part_1
182		2.0				1.0	0.0							2.0	55.0	0.3233402084806585	2.0		1.0	4.0	1.0	1.0		part_1
183		2.0				1.0	1.0							2.0	120.0	0.31385676373429305	2.0		2.0	7.0	6.0	7.0		part_1
184		2.0				1.0	0.0							4.0	379.0	0.35806451997632394	4.0		4.0	3.0	4.0	3.0		part_1
185		2.0				1.0	1.0							4.0	195.0	0.32486130323923135	4.0		3.0	2.0	7.0	8.0		part_1
186		2.0				1.0	1.0							3.0	392.0	0.2915079992271785	3.0		4.0	5.0	8.0	6.0		part_1
187		2.0				1.0	0.0							3.0	72.0	0.34873709274688736	3.0		1.0	4.0	1.0	1.0		part_1
188		2.0				1.0	0.0							3.0	420.0	0.3261854224947456	3.0		4.0	3.0	4.0	3.0		part_1
189		2.0				1.0	0.0							2.0	0.0	0.3043233024945948	2.0		0.0	3.0	4.0	3.0		part_1
190		2.0				1.0	0.0							4.0	0.0	0.3383801402287645	4.0		0.0	4.0	1.0	1.0		part_1
191		2.0				1.0	0.0							3.0	0.0	0.25949402649530384	3.0		0.0	6.0	2.0	4.0		part_1
192		2.0				1.0	0.0							1.0	0.0	0.3511350957342074	1.0		0.0	3.0	4.0	3.0		part_1
193		2.0				1.0	0.0							4.0	30.0	0.28437910574575653	4.0		1.0	4.0	1.0	1.0		part_1
194		2.0				1.0	1.0							2.0	197.0	0.2850514929741621	2.0		3.0	2.0	7.0	8.0		part_1
195		2.0				1.0	0.0							2.0	0.0	0.37577218097612786	2.0		0.0	4.0	1.0	1.0		part_1
196		2.0				1.0	0.0							4.0	48.0	0.37619980249473883	4.0		1.0	4.0	1.0	1.0		part_1
197		2.0				1.0	1.0							2.0	125.0	0.3318608434929047	2.0		2.0	7.0	6.0	7.0		part_1
198		2.0				1.0	0.0							4.0	72.0	0.3205026527339214	4.0		1.0	4.0	1.0	1.0		part_1
199		2.0				1.0	1.0							2.0	384.0	0.29996118449525966	2.0		4.0	5.0	8.0	6.0		part_1
200		3.0				1.0	1.0							2.0	42.0	0.36177905573276803	2.0		1.0	1.0	5.0	2.0		part_1
201		3.0				1.0	1.0							1.0	0.0	0.396077651228552	1.0		0.0	2.0	7.0	8.0		part_1
202		3.0				1.0	0.0							2.0	384.0	0.3290090237333061	2.0		4.0	3.0	4.0	3.0		part_1
203		3.0				1.0	1.0							2.0	89.0	0.3177512244819809	2.0		2.0	7.0	6.0	7.0		part_1
204		3.0				1.0	1.0							2.0	62.0	0.3183400242396601	2.0		1.0	1.0	5.0	2.0		part_1
205		3.0				1.0	0.0							2.0	120.0	0.31966462223863346	2.0		2.0	6.0	2.0	4.0		part_1
206		3.0				1.0	1.0							3.0	193.0	0.3411707544928504	3.0		3.0	2.0	7.0	8.0		part_1
207		3.0				1.0	0.0							3.0	77.0	0.33153749149278156	3.0		2.0	6.0	2.0	4.0		part_1
208		3.0				1.0	1.0							3.0	389.0	0.3769874972404068	3.0		4.0	5.0	8.0	6.0		part_1
209		3.0				1.0	0.0							4.0	0.0	0.5913728052400984	4.0		0.0	3.0	4.0	3.0		part_1
210		3.0				1.0	1.0							3.0	0.0	0.3330830107224756	3.0		0.0	7.0	6.0	7.0		part_1
211		3.0				1.0	1.0							3.0	0.0	0.32242756597588595	3.0		0.0	5.0	8.0	6.0		part_1
212		3.0				1.0	0.0							2.0	62.0	0.3347044612401078	2.0		1.0	4.0	1.0	1.0		part_1
213		3.0				1.0	1.0							4.0	0.0	0.40211666772120225	4.0		0.0	7.0	6.0	7.0		part_1
214		3.0				1.0	1.0							1.0	394.0	0.35748275148216635	1.0		4.0	5.0	8.0	6.0		part_1
215		3.0				1.0	1.0							2.0	420.0	0.38224029949378746	2.0		4.0	5.0	8.0	6.0		part_1
216		3.0				1.0	0.0							3.0	85.0	0.30225274623990117	3.0		2.0	6.0	2.0	4.0		part_1
217		3.0				1.0	1.0							1.0	105.0	0.42819781648177013	1.0		2.0	7.0	6.0	7.0		part_1
218		3.0				1.0	0.0							2.0	0.0	0.3393673069876968	2.0		0.0	8.0	3.0	5.0		part_1
219		3.0				1.0	1.0							4.0	381.0	0.33894152598804794	4.0		4.0	5.0	8.0	6.0		part_1
220		3.0				1.0	0.0							1.0	0.0	0.5972205487214524	1.0		0.0	3.0	4.0	3.0		part_1
221		3.0				1.0	1.0							4.0	0.0	0.36191280722778174	4.0		0.0	1.0	5.0	2.0		part_1
222		3.0				1.0	0.0							1.0	179.0	0.29586110922718944	1.0		3.0	8.0	3.0	5.0		part_1
223		3.0				1.0	1.0							1.0	388.0	0.3533756854940293	1.0		4.0	5.0	8.0	6.0		part_1
224		3.0				1.0	0.0							3.0	0.0	0.34141404024012445	3.0		0.0	6.0	2.0	4.0		part_1
225		3.0				1.0	0.0							3.0	54.0	0.33025338498737256	3.0		1.0	4.0	1.0	1.0		part_1
226		3.0				1.0	1.0							1.0	218.0	0.32111701525354874	1.0		3.0	2.0	7.0	8.0		part_1
227		3.0				1.0	0.0							1.0	0.0	0.3214762217448879	1.0		0.0	3.0	4.0	3.0		part_1
228		3.0				1.0	1.0							1.0	51.0	0.34438755198789295	1.0		1.0	1.0	5.0	2.0		part_1
229		3.0				1.0	0.0							1.0	0.0	0.3339131582270056	1.0		0.0	3.0	4.0	3.0		part_1
230		3.0				1.0	0.0							1.0	120.0	0.366609887987579	1.0		2.0	6.0	2.0	4.0		part_1
231		3.0				1.0	0.0							2.0	63.0	0.3800504312275734	2.0		1.0	4.0	1.0	1.0		part_1
232		3.0				1.0	1.0							3.0	72.0	0.3681203179748991	3.0		1.0	1.0	5.0	2.0		part_1
233		3.0				1.0	0.0							3.0	46.0	0.38143292723907507	3.0		1.0	4.0	1.0	1.0		part_1
234		3.0				2.0	0.0							4.0	80.0	0.43650714549403347	4.0		2.0	6.0	2.0	4.0		part_1
235		3.0				1.0	0.0							3.0	378.0	0.33656290522776544	3.0		4.0	3.0	4.0	3.0		part_1
236		3.0				1.0	1.0							3.0	57.0	0.3584481379893987	3.0		1.0	1.0	5.0	2.0		part_1
237		3.0				1.0	0.0							3.0	401.0	0.337667764228172	3.0		4.0	3.0	4.0	3.0		part_1
238		3.0				1.0	1.0							3.0	110.0	0.32765870674484177	3.0		2.0	7.0	6.0	7.0		part_1
239		3.0				1.0	1.0							4.0	71.0	0.39591995748196496	4.0		1.0	1.0	5.0	2.0		part_1
240		3.0				1.0	0.0							3.0	381.0	0.3604516227333079	3.0		4.0	3.0	4.0	3.0		part_1
241		3.0				1.0	0.0							2.0	119.0	0.33999680948181776	2.0		2.0	6.0	2.0	4.0		part_1
242		3.0				1.0	1.0							2.0	376.0	0.3289965923777345	2.0		4.0	5.0	8.0	6.0		part_1
243		3.0				1.0	0.0							4.0	81.0	0.363868222988458	4.0		2.0	6.0	2.0	4.0		part_1
244		3.0				1.0	0.0							3.0	79.0	0.32928432322842127	3.0		2.0	6.0	2.0	4.0		part_1
245		3.0				1.0	0.0							2.0	209.0	0.4212985647336609	2.0		3.0	8.0	3.0	5.0		part_1
246		3.0				1.0	1.0							1.0	406.0	0.3982064087467734	1.0		4.0	5.0	8.0	6.0		part_1
247		3.0				1.0	1.0							3.0	0.0	0.521972570239086	3.0		0.0	2.0	7.0	8.0		part_1
248		3.0				1.0	0.0							4.0	56.0	0.33202525822707685	4.0		1.0	4.0	1.0	1.0		part_1
249		3.0				1.0	0.0							4.0	396.0	0.3884129317339102	4.0		4.0	3.0	4.0	3.0		part_1
250		3.0				1.0	1.0							1.0	55.0	0.37959726349436096	1.0		1.0	1.0	5.0	2.0		part_1
251		3.0				1.0	0.0							3.0	0.0	0.3446792412287323	3.0		0.0	4.0	1.0	1.0		part_1
252		3.0				1.0	1.0							4.0	185.0	0.42475878999903216	4.0		3.0	2.0	7.0	8.0		part_1
253		3.0				1.0	0.0							2.0	424.0	0.35819899074522255	2.0		4.0	3.0	4.0	3.0		part_1
254		3.0				1.0	1.0							3.0	85.0	0.3132998402288649	3.0		2.0	7.0	6.0	7.0		part_1
255		3.0				1.0	0.0							2.0	44.0	0.3149415382267762	2.0		1.0	4.0	1.0	1.0		part_1
256		3.0				1.0	1.0							3.0	42.0	0.3143968267213495	3.0		1.0	1.0	5.0	2.0		part_1
257		3.0				1.0	1.0							4.0	102.0	0.3599504002413596	4.0		2.0	7.0	6.0	7.0		part_1
258		3.0				1.0	1.0							3.0	379.0	0.3267075637450034	3.0		4.0	5.0	8.0	6.0		part_1
259		3.0				1.0	1.0							3.0	0.0	0.2818742132403713	3.0		0.0	5.0	8.0	6.0		part_1
260		3.0				1.0	0.0							1.0	0.0	0.3515276037342119	1.0		0.0	8.0	3.0	5.0		part_1
261		3.0				1.0	0.0							3.0	223.0	0.36263292673356773	3.0		3.0	8.0	3.0	5.0		part_1
262		3.0				2.0	0.0							1.0	0.0	0.40788146998784214	1.0		0.0	8.0	3.0	5.0		part_1
263		3.0				1.0	0.0							2.0	193.0	0.3515183710005658	2.0		3.0	8.0	3.0	5.0		part_1
264		3.0				1.0	0.0							1.0	77.0	0.44377927749337687	1.0		2.0	6.0	2.0	4.0		part_1
265		3.0				1.0	1.0							2.0	203.0	0.3772236729873839	2.0		3.0	2.0	7.0	8.0		part_1
266		3.0				1.0	0.0							3.0	0.0	0.3430146202281321	3.0		0.0	3.0	4.0	3.0		part_1
267		3.0				1.0	0.0							4.0	385.0	0.34246485424046114	4.0		4.0	3.0	4.0	3.0		part_1
268		3.0				1.0	0.0							3.0	200.0	0.5343941797327716	3.0		3.0	8.0	3.0	5.0		part_1
269		3.0				1.0	0.0							1.0	93.0	0.43534212922895676	1.0		2.0	6.0	2.0	4.0		part_1
270		3.0				1.0	1.0							1.0	112.0	0.42330461649362405	1.0		2.0	7.0	6.0	7.0		part_1
271		3.0				1.0	1.0							1.0	424.0	0.6831785909889732	1.0		4.0	5.0	8.0	6.0		part_1
272		3.0				1.0	1.0							3.0	56.0	0.3458348949861829	3.0		1.0	1.0	5.0	2.0		part_1
273		3.0				1.0	1.0							4.0	385.0	0.3576110307349154	4.0		4.0	5.0	8.0	6.0		part_1
274		3.0				1.0	0.0							3.0	0.0	0.41628183449392964	3.0		0.0	8.0	3.0	5.0		part_1
275		3.0				1.0	0.0							4.0	112.0	0.3584414959877904	4.0		2.0	6.0	2.0	4.0		part_1
276		3.0				1.0	1.0							3.0	77.0	0.3256817329747719	3.0		2.0	7.0	6.0	7.0		part_1
277		3.0				1.0	0.0							4.0	395.0	0.3382900392407464	4.0		4.0	3.0	4.0	3.0		part_1
278		3.0				1.0	0.0							1.0	393.0	0.4615441177338653	1.0		4.0	3.0	4.0	3.0		part_1
279		3.0				1.0	1.0							3.0	401.0	0.3941227912400791	3.0		4.0	5.0	8.0	6.0		part_1
280		3.0				1.0	0.0							2.0	104.0	0.5190753389761085	2.0		2.0	6.0	2.0	4.0		part_1
281		3.0				1.0	1.0							4.0	417.0	0.3615994802385103	4.0		4.0	5.0	8.0	6.0		part_1
282		3.0				1.0	0.0							3.0	105.0	0.35244702049385523	3.0		2.0	6.0	2.0	4.0		part_1
283		3.0				1.0	1.0							2.0	378.0	0.40852580722821585	2.0		4.0	5.0	8.0	6.0		part_1
284		3.0				1.0	0.0							3.0	395.0	0.31793235073382675	3.0		4.0	3.0	4.0	3.0		part_1
285		3.0				1.0	1.0							4.0	37.0	0.37450080249436724	4.0		1.0	1.0	5.0	2.0		part_1
286		3.0				1.0	0.0							3.0	214.0	0.44442487874584913	3.0		3.0	8.0	3.0	5.0		part_1
287		3.0				1.0	0.0							4.0	203.0	0.35371988324004633	4.0		3.0	8.0	3.0	5.0		part_1
288		3.0				1.0	1.0							4.0	0.0	0.3669792214950576	4.0		0.0	7.0	6.0	7.0		part_1
289		3.0				1.0	1.0							3.0	0.0	0.3768389372398815	3.0		0.0	1.0	5.0	2.0		part_1
290		3.0				1.0	1.0							4.0	0.0	0.3334318834949954	4.0		0.0	5.0	8.0	6.0		part_1
291		3.0				1.0	1.0							3.0	44.0	0.3115834687341703	3.0		1.0	1.0	5.0	2.0		part_1
292		3.0				1.0	1.0							3.0	381.0	0.3229338614819426	3.0		4.0	5.0	8.0	6.0		part_1
293		3.0				1.0	1.0							2.0	0.0	0.3580486374812608	2.0		0.0	2.0	7.0	8.0		part_1
294		3.0				1.0	1.0							1.0	63.0	0.3912854819882341	1.0		1.0	1.0	5.0	2.0		part_1
295		3.0				1.0	1.0							1.0	0.0	0.35953299598804733	1.0		0.0	1.0	5.0	2.0		part_1
296		3.0				1.0	0.0							1.0	118.0	0.348232165493755	1.0		2.0	6.0	2.0	4.0		part_1
297		3.0				1.0	1.0							4.0	27.0	0.37174897898876225	4.0		1.0	1.0	5.0	2.0		part_1
298		3.0				1.0	0.0							1.0	34.0	0.39413007149414625	1.0		1.0	4.0	1.0	1.0		part_1
299		3.0				1.0	0.0							2.0	77.0	0.42817331349397136	2.0		2.0	6.0	2.0	4.0		part_1
300		4.0				1.0	0.0							2.0	72.0	0.6438324202281365	2.0		1.0	4.0	1.0	1.0		part_1
301		4.0				1.0	1.0							1.0	182.0	0.4546747637214139	1.0		3.0	2.0	7.0	8.0		part_1
302		4.0				1.0	0.0							2.0	198.0	0.5671725684933335	2.0		3.0	8.0	3.0	5.0		part_1
303		4.0				1.0	1.0							2.0	223.0	0.3979469852292823	2.0		3.0	2.0	7.0	8.0		part_1
304		4.0				1.0	0.0							2.0	418.0	0.3663157182272698	2.0		4.0	3.0	4.0	3.0		part_1
305		4.0				1.0	0.0							2.0	47.0	0.3554017567457777	2.0		1.0	4.0	1.0	1.0		part_1
306		4.0				1.0	1.0							2.0	0.0	0.36653835049401096	2.0		0.0	7.0	6.0	7.0		part_1
307		4.0				1.0	1.0							2.0	30.0	0.32190505123980984	2.0		1.0	1.0	5.0	2.0		part_1
308		4.0				1.0	0.0							1.0	37.0	0.4019618392267148	1.0		1.0	4.0	1.0	1.0		part_1
309		4.0				1.0	1.0							2.0	0.0	0.3675505482387962	2.0		0.0	7.0	6.0	7.0		part_1
310		4.0				1.0	0.0							2.0	62.0	0.41324628773509176	2.0		1.0	4.0	1.0	1.0		part_1
311		4.0				1.0	1.0							2.0	0.0	0.3695620054822939	2.0		0.0	1.0	5.0	2.0		part_1
312		4.0				1.0	0.0							4.0	0.0	0.37969038048140646	4.0		0.0	4.0	1.0	1.0		part_1
313		4.0				1.0	1.0							4.0	99.0	0.34810876773372	4.0		2.0	7.0	6.0	7.0		part_1
314		4.0				1.0	0.0							4.0	401.0	0.7522758689756301	4.0		4.0	3.0	4.0	3.0		part_1
315		4.0				1.0	1.0							2.0	107.0	0.37046795649257547	2.0		2.0	7.0	6.0	7.0		part_1
316		4.0				1.0	0.0							1.0	192.0	0.3618552207462926	1.0		3.0	8.0	3.0	5.0		part_1
317		4.0				1.0	1.0							3.0	0.0	0.37114524473508936	3.0		0.0	5.0	8.0	6.0		part_1
318		4.0				1.0	0.0							2.0	419.0	0.36295517322832893	2.0		4.0	3.0	4.0	3.0		part_1
319		4.0				1.0	1.0							2.0	33.0	0.34103625849456876	2.0		1.0	1.0	5.0	2.0		part_1
320		4.0				1.0	1.0							2.0	0.0	0.31787110249388206	2.0		0.0	5.0	8.0	6.0		part_1
321		4.0				1.0	0.0							4.0	0.0	0.36210202249276335	4.0		0.0	3.0	4.0	3.0		part_1
322		4.0				1.0	0.0							3.0	99.0	0.36468194024018885	3.0		2.0	6.0	2.0	4.0		part_1
323		4.0				1.0	1.0							4.0	29.0	0.4101445342275838	4.0		1.0	1.0	5.0	2.0		part_1
324		4.0				1.0	0.0							1.0	0.0	0.33122657223975693	1.0		0.0	8.0	3.0	5.0		part_1
325		4.0				1.0	0.0							1.0	223.0	0.3781019929992908	1.0		3.0	8.0	3.0	5.0		part_1
326		4.0				1.0	1.0							4.0	81.0	0.4783250734944886	4.0		2.0	7.0	6.0	7.0		part_1
327		4.0				1.0	0.0							4.0	0.0	0.37772208099886484	4.0		0.0	8.0	3.0	5.0		part_1
328		4.0				1.0	1.0							4.0	104.0	0.3564317074815335	4.0		2.0	7.0	6.0	7.0		part_1
329		4.0				1.0	1.0							4.0	0.0	0.3551656067229487	4.0		0.0	5.0	8.0	6.0		part_1
330		4.0				1.0	1.0							2.0	401.0	0.3800059109871654	2.0		4.0	5.0	8.0	6.0		part_1
331		4.0				1.0	0.0							3.0	81.0	0.35804543273297895	3.0		2.0	6.0	2.0	4.0		part_1
332		4.0				1.0	1.0							2.0	81.0	0.3130555032275879	2.0		2.0	7.0	6.0	7.0		part_1
333		4.0				1.0	0.0							3.0	381.0	0.35794448624073993	3.0		4.0	3.0	4.0	3.0		part_1
334		4.0				1.0	1.0							2.0	0.0	0.4038599042396527	2.0		0.0	7.0	6.0	7.0		part_1
335		4.0				1.0	1.0							1.0	0.0	0.3815619309880276	1.0		0.0	7.0	6.0	7.0		part_1
336		4.0				1.0	0.0							1.0	51.0	0.3487178922387102	1.0		1.0	4.0	1.0	1.0		part_1
337		4.0				2.0	1.0							4.0	37.0	0.37256032999903255	4.0		1.0	1.0	5.0	2.0		part_1
338		4.0				1.0	0.0							4.0	47.0	0.6196170649873238	4.0		1.0	4.0	1.0	1.0		part_1
339		4.0				1.0	1.0							3.0	0.0	0.4294062494936952	3.0		0.0	7.0	6.0	7.0		part_1
340		4.0				1.0	0.0							2.0	420.0	0.31759424824122107	2.0		4.0	3.0	4.0	3.0		part_1
341		4.0				1.0	0.0							1.0	97.0	0.4863568349755951	1.0		2.0	6.0	2.0	4.0		part_1
342		4.0				1.0	0.0							3.0	201.0	0.34009100824005145	3.0		3.0	8.0	3.0	5.0		part_1
343		4.0				1.0	1.0							1.0	72.0	0.3539039081115334	1.0		1.0	1.0	5.0	2.0		part_1
344		4.0				1.0	0.0							4.0	189.0	0.3638930882407294	4.0		3.0	8.0	3.0	5.0		part_1
345		4.0				1.0	1.0							3.0	93.0	0.3762565107354021	3.0		2.0	7.0	6.0	7.0		part_1
346		4.0				1.0	1.0							1.0	0.0	0.41052951399979065	1.0		0.0	1.0	5.0	2.0		part_1
347		4.0				1.0	1.0							1.0	218.0	0.3550314777330641	1.0		3.0	2.0	7.0	8.0		part_1
348		4.0				1.0	0.0							3.0	0.0	0.31164195098608616	3.0		0.0	4.0	1.0	1.0		part_1
349		4.0				1.0	0.0							1.0	182.0	0.33370076148275984	1.0		3.0	8.0	3.0	5.0		part_1
350		4.0				1.0	1.0							4.0	223.0	0.3340814174807747	4.0		3.0	2.0	7.0	8.0		part_1
351		4.0				1.0	0.0							4.0	33.0	0.3577096112403524	4.0		1.0	4.0	1.0	1.0		part_1
352		4.0				1.0	0.0							3.0	0.0	0.3345776784935879	3.0		0.0	8.0	3.0	5.0		part_1
353		4.0				1.0	1.0							3.0	65.0	0.3378549912395101	3.0		1.0	1.0	5.0	2.0		part_1
354		4.0				1.0	0.0							1.0	57.0	0.42633722424034204	1.0		1.0	4.0	1.0	1.0		part_1
355		4.0				1.0	1.0							3.0	200.0	0.33607723449495097	3.0		3.0	2.0	7.0	8.0		part_1
356		4.0				1.0	1.0							1.0	180.0	0.3820685977352696	1.0		3.0	2.0	7.0	8.0		part_1
357		4.0				1.0	1.0							2.0	35.0	0.3723560022390302	2.0		1.0	1.0	5.0	2.0		part_1
358		4.0				1.0	0.0							4.0	406.0	0.3621977454931766	4.0		4.0	3.0	4.0	3.0		part_1
359		4.0				1.0	1.0							2.0	89.0	0.3276941284948407	2.0		2.0	7.0	6.0	7.0		part_1
360		4.0				1.0	0.0							4.0	87.0	0.4516620472404611	4.0		2.0	6.0	2.0	4.0		part_1
361		4.0				1.0	0.0							2.0	42.0	0.397106913238531	2.0		1.0	4.0	1.0	1.0		part_1
362		4.0				1.0	1.0							2.0	200.0	0.4088017592403048	2.0		3.0	2.0	7.0	8.0		part_1
363		4.0				1.0	1.0							4.0	0.0	0.365128824747444	4.0		0.0	1.0	5.0	2.0		part_1
364		4.0				1.0	0.0							4.0	407.0	0.4206426239998109	4.0		4.0	3.0	4.0	3.0		part_1
365		4.0				1.0	1.0							3.0	51.0	0.36470915049358155	3.0		1.0	1.0	5.0	2.0		part_1
366		4.0				1.0	0.0							4.0	102.0	0.3554218072404183	4.0		2.0	6.0	2.0	4.0		part_1
367		4.0				1.0	0.0							1.0	37.0	0.37800911749400257	1.0		1.0	4.0	1.0	1.0		part_1
368		4.0				1.0	1.0							1.0	216.0	0.4113384034826595	1.0		3.0	2.0	7.0	8.0		part_1
369		4.0				1.0	1.0							2.0	44.0	0.3681250134832226	2.0		1.0	1.0	5.0	2.0		part_1
370		4.0				1.0	1.0							2.0	110.0	0.3682376729884709	2.0		2.0	7.0	6.0	7.0		part_1
371		4.0				1.0	0.0							1.0	99.0	0.44754644122804166	1.0		2.0	6.0	2.0	4.0		part_1
372		4.0				1.0	0.0							3.0	63.0	0.4255817977445986	3.0		1.0	4.0	1.0	1.0		part_1
373		4.0				1.0	1.0							1.0	0.0	0.6050960724933248	1.0		0.0	2.0	7.0	8.0		part_1
374		4.0				1.0	1.0							1.0	186.0	0.45032490797530045	1.0		3.0	2.0	7.0	8.0		part_1
375		4.0				1.0	0.0							2.0	0.0	0.36037115173348866	2.0		0.0	6.0	2.0	4.0		part_1
376		4.0				1.0	0.0							1.0	208.0	0.35940230523920036	1.0		3.0	8.0	3.0	5.0		part_1
377		4.0				1.0	0.0							2.0	197.0	0.417714700975921	2.0		3.0	8.0	3.0	5.0		part_1
378		4.0				1.0	1.0							4.0	0.0	0.3620736539523932	4.0		0.0	7.0	6.0	7.0		part_1
379		4.0				1.0	1.0							1.0	34.0	0.3392739452283422	1.0		1.0	1.0	5.0	2.0		part_1
380		4.0				1.0	1.0							1.0	54.0	0.36246076748284395	1.0		1.0	1.0	5.0	2.0		part_1
381		4.0				1.0	1.0							1.0	87.0	0.35307555049439543	1.0		2.0	7.0	6.0	7.0		part_1
382		4.0				1.0	1.0							3.0	424.0	0.4303023214924906	3.0		4.0	5.0	8.0	6.0		part_1
383		4.0				1.0	0.0							4.0	92.0	0.4096479827458097	4.0		2.0	6.0	2.0	4.0		part_1
384		4.0				1.0	1.0							4.0	117.0	0.4206589432396868	4.0		2.0	7.0	6.0	7.0		part_1
385		4.0				1.0	0.0							3.0	115.0	0.4101527257334965	3.0		2.0	6.0	2.0	4.0		part_1
386		4.0				1.0	1.0							3.0	79.0	0.37707796748145483	3.0		2.0	7.0	6.0	7.0		part_1
387		4.0				1.0	1.0							1.0	407.0	0.42189166500065767	1.0		4.0	5.0	8.0	6.0		part_1
388		4.0				1.0	1.0							3.0	177.0	0.4108032607455243	3.0		3.0	2.0	7.0	8.0		part_1
389		4.0				1.0	0.0							1.0	401.0	0.3686040852280712	1.0		4.0	3.0	4.0	3.0		part_1
390		4.0				1.0	0.0							2.0	125.0	0.3691628392898565	2.0		2.0	6.0	2.0	4.0		part_1
391		4.0				1.0	0.0							1.0	60.0	0.30170018423996225	1.0		1.0	4.0	1.0	1.0		part_1
392		4.0				1.0	0.0							3.0	210.0	0.5365030007342284	3.0		3.0	8.0	3.0	5.0		part_1
393		4.0				1.0	1.0							1.0	210.0	0.3470227249763411	1.0		3.0	2.0	7.0	8.0		part_1
394		4.0				1.0	1.0							3.0	179.0	0.3588940162280778	3.0		3.0	2.0	7.0	8.0		part_1
395		4.0				1.0	1.0							3.0	0.0	0.4594984329996805	3.0		0.0	2.0	7.0	8.0		part_1
396		4.0				1.0	1.0							2.0	111.0	0.34887455449461413	2.0		2.0	7.0	6.0	7.0		part_1
397		4.0				1.0	1.0							3.0	77.0	0.34982796122858417	3.0		2.0	7.0	6.0	7.0		part_1
398		4.0				1.0	0.0							1.0	83.0	0.33824332297626825	1.0		2.0	6.0	2.0	4.0		part_1
399		4.0				1.0	1.0							4.0	393.0	0.360298132745811	4.0		4.0	5.0	8.0	6.0		part_1
0	3.0	1.0			250.0	0.0	1.0							6.0	0.0	0.5804514248447958	6.0	250.0	2.0	7.0	6.0	7.0	1.0	part_2
1	4.0	1.0			250.0	0.0	1.0							6.0	0.0	0.0	0.0	200.0	1.0	1.0	5.0	2.0	1.0	part_2
2	1.0	1.0			250.0	0.0	0.0							5.0	0.0	0.5971603600391973	5.0	250.0	2.0	6.0	2.0	4.0	0.0	part_2
3	1.0	1.0			250.0	0.0	0.0							6.0	0.0	0.7439660569216358	6.0	250.0	3.0	8.0	3.0	5.0	0.0	part_2
4	1.0	1.0			250.0	0.0	0.0							6.0	0.0	0.8469546289597929	6.0	250.0	2.0	6.0	2.0	4.0	0.0	part_2
5	4.0	1.0			250.0	0.0	1.0							5.0	0.0	0.0	0.0	250.0	2.0	7.0	6.0	7.0	1.0	part_2
6	1.0	1.0			300.0	0.0	1.0							5.0	0.0	0.7364887116909813	5.0	250.0	2.0	7.0	6.0	7.0	0.0	part_2
7	4.0	1.0			300.0	0.0	1.0							5.0	0.0	0.0	0.0	250.0	1.0	1.0	5.0	2.0	1.0	part_2
8	1.0	1.0			350.0	0.0	1.0							6.0	0.0	0.7271909628070716	6.0	250.0	3.0	2.0	7.0	8.0	0.0	part_2
9	4.0	1.0			350.0	0.0	1.0							5.0	0.0	0.0	0.0	250.0	1.0	1.0	5.0	2.0	1.0	part_2
10	1.0	1.0			400.0	0.0	0.0							5.0	0.0	0.6953792639233143	5.0	250.0	4.0	3.0	4.0	3.0	0.0	part_2
11	4.0	1.0			400.0	0.0	1.0							6.0	0.0	0.0	0.0	250.0	1.0	1.0	5.0	2.0	1.0	part_2
12	4.0	1.0			400.0	0.0	1.0							6.0	0.0	0.0	0.0	300.0	3.0	2.0	7.0	8.0	1.0	part_2
13	4.0	1.0			400.0	0.0	1.0							6.0	0.0	0.0	0.0	350.0	4.0	5.0	8.0	6.0	1.0	part_2
14	1.0	1.0			400.0	0.0	0.0							5.0	0.0	0.6407658360003552	5.0	400.0	1.0	4.0	1.0	1.0	0.0	part_2
15	1.0	1.0			400.0	0.0	1.0							5.0	0.0	0.9112340888441395	5.0	400.0	3.0	2.0	7.0	8.0	0.0	part_2
16	1.0	1.0			400.0	0.0	0.0							5.0	0.0	0.7550583287684276	5.0	400.0	4.0	3.0	4.0	3.0	0.0	part_2
17	4.0	1.0			400.0	0.0	1.0							5.0	0.0	0.0	0.0	400.0	4.0	5.0	8.0	6.0	1.0	part_2
18	1.0	1.0			450.0	0.0	0.0							6.0	0.0	1.0056151438839152	6.0	400.0	4.0	3.0	4.0	3.0	0.0	part_2
19	4.0	1.0			450.0	0.0	1.0							5.0	0.0	0.0	0.0	400.0	3.0	2.0	7.0	8.0	1.0	part_2
20	1.0	1.0			500.0	0.0	0.0							5.0	0.0	0.816178371767819	5.0	400.0	2.0	6.0	2.0	4.0	0.0	part_2
21	1.0	1.0			500.0	0.0	1.0							6.0	0.0	0.9282356508847442	6.0	400.0	1.0	1.0	5.0	2.0	0.0	part_2
22	4.0	1.0			500.0	0.0	1.0							6.0	0.0	0.0	0.0	400.0	2.0	7.0	6.0	7.0	1.0	part_2
23	1.0	1.0			500.0	0.0	0.0							5.0	0.0	0.6254282408845029	5.0	450.0	4.0	3.0	4.0	3.0	0.0	part_2
24	4.0	1.0			500.0	0.0	1.0							5.0	0.0	0.0	0.0	450.0	1.0	1.0	5.0	2.0	1.0	part_2
25	1.0	1.0			550.0	0.0	0.0							5.0	0.0	0.8302536968058121	5.0	450.0	1.0	4.0	1.0	1.0	0.0	part_2
26	4.0	1.0			550.0	0.0	1.0							5.0	0.0	0.0	0.0	450.0	3.0	2.0	7.0	8.0	1.0	part_2
27	3.0	1.0			600.0	0.0	1.0							6.0	0.0	0.5505621959237033	6.0	450.0	1.0	1.0	5.0	2.0	1.0	part_2
28	1.0	1.0			600.0	0.0	1.0							6.0	0.0	0.810322549807097	6.0	400.0	4.0	5.0	8.0	6.0	0.0	part_2
29	1.0	1.0			600.0	0.0	0.0							6.0	0.0	0.9455270920389012	6.0	400.0	2.0	6.0	2.0	4.0	0.0	part_2
30	1.0	1.0			600.0	0.0	0.0							5.0	0.0	0.8339741059226071	5.0	400.0	4.0	3.0	4.0	3.0	0.0	part_2
31	4.0	1.0			600.0	0.0	1.0							5.0	0.0	0.0	0.0	400.0	4.0	5.0	8.0	6.0	1.0	part_2
32	4.0	1.0			650.0	0.0	1.0							5.0	0.0	0.0	0.0	400.0	3.0	2.0	7.0	8.0	1.0	part_2
33	1.0	1.0			700.0	0.0	0.0							6.0	0.0	0.9269014101155335	6.0	400.0	1.0	4.0	1.0	1.0	0.0	part_2
34	1.0	1.0			700.0	0.0	0.0							6.0	0.0	0.8499708308063418	6.0	400.0	4.0	3.0	4.0	3.0	0.0	part_2
35	3.0	1.0			700.0	0.0	1.0							5.0	0.0	0.815651023924147	5.0	400.0	3.0	2.0	7.0	8.0	1.0	part_2
36	4.0	2.0			650.0	0.0	1.0							5.0	0.0	0.0	0.0	400.0	4.0	5.0	8.0	6.0	1.0	part_2
37	1.0	2.0			700.0	0.0	0.0							6.0	0.0	0.8936511586907727	6.0	400.0	2.0	6.0	2.0	4.0	0.0	part_2
38	1.0	2.0			700.0	0.0	0.0							6.0	0.0	0.715142551000099	6.0	400.0	1.0	4.0	1.0	1.0	0.0	part_2
39	1.0	2.0			700.0	0.0	1.0							5.0	0.0	0.4122283618835354	5.0	400.0	3.0	2.0	7.0	8.0	0.0	part_2
40	1.0	2.0			700.0	0.0	1.0							6.0	0.0	0.6493115428838792	6.0	400.0	3.0	2.0	7.0	8.0	0.0	part_2
41	1.0	2.0			700.0	0.0	0.0							6.0	0.0	0.5691460198086133	6.0	400.0	4.0	3.0	4.0	3.0	0.0	part_2
42	1.0	2.0			700.0	0.0	0.0							5.0	0.0	0.5700939949601889	5.0	400.0	3.0	8.0	3.0	5.0	0.0	part_2
43	3.0	2.0			700.0	0.0	1.0							5.0	0.0	0.5720727237294341	5.0	400.0	4.0	5.0	8.0	6.0	1.0	part_2
44	1.0	2.0			650.0	0.0	0.0							6.0	0.0	0.5625420338437834	6.0	400.0	2.0	6.0	2.0	4.0	0.0	part_2
45	4.0	2.0			650.0	0.0	1.0							6.0	0.0	0.0	0.0	400.0	3.0	2.0	7.0	8.0	1.0	part_2
46	1.0	2.0			650.0	0.0	0.0							5.0	0.0	0.6190305479613016	5.0	450.0	2.0	6.0	2.0	4.0	0.0	part_2
47	3.0	2.0			650.0	0.0	1.0							5.0	0.0	0.7883541539613361	5.0	450.0	4.0	5.0	8.0	6.0	1.0	part_2
48	5.0	2.0			600.0	0.0	1.0							6.0	0.0	0.0	0.0	450.0	2.0	7.0	6.0	7.0	0.0	part_2
49	1.0	2.0			600.0	0.0	0.0							5.0	0.0	0.7914878388073703	5.0	450.0	2.0	6.0	2.0	4.0	0.0	part_2
50	3.0	2.0			600.0	0.0	1.0							5.0	0.0	0.6561446949599485	5.0	450.0	1.0	1.0	5.0	2.0	1.0	part_2
51	1.0	2.0			550.0	0.0	0.0							6.0	0.0	0.7134867168060737	6.0	450.0	3.0	8.0	3.0	5.0	0.0	part_2
52	1.0	2.0			550.0	0.0	0.0							6.0	0.0	0.7480377506926743	6.0	450.0	2.0	6.0	2.0	4.0	0.0	part_2
53	1.0	2.0			550.0	0.0	0.0							5.0	0.0	0.7148684320000029	5.0	450.0	1.0	4.0	1.0	1.0	0.0	part_2
54	4.0	2.0			550.0	0.0	1.0							5.0	0.0	0.0	0.0	450.0	3.0	2.0	7.0	8.0	1.0	part_2
55	3.0	2.0			600.0	0.0	1.0							6.0	0.0	0.34565569184451306	6.0	450.0	2.0	7.0	6.0	7.0	1.0	part_2
56	1.0	2.0			600.0	0.0	0.0							6.0	0.0	0.7282725978839153	6.0	400.0	1.0	4.0	1.0	1.0	0.0	part_2
57	1.0	2.0			600.0	0.0	0.0							5.0	0.0	0.674251556807576	5.0	400.0	3.0	8.0	3.0	5.0	0.0	part_2
58	1.0	2.0			600.0	0.0	0.0							6.0	0.0	0.6285126488837705	6.0	400.0	2.0	6.0	2.0	4.0	0.0	part_2
59	1.0	2.0			600.0	0.0	0.0							5.0	0.0	0.6764532007309754	5.0	400.0	4.0	3.0	4.0	3.0	0.0	part_2
60	1.0	2.0			600.0	0.0	1.0							5.0	0.0	0.4291133488077321	5.0	400.0	2.0	7.0	6.0	7.0	0.0	part_2
61	4.0	2.0			600.0	0.0	1.0							6.0	0.0	0.0	0.0	400.0	1.0	1.0	5.0	2.0	1.0	part_2
62	1.0	2.0			600.0	0.0	1.0							6.0	0.0	0.4409654368446354	6.0	450.0	2.0	7.0	6.0	7.0	0.0	part_2
63	3.0	2.0			600.0	0.0	1.0							6.0	0.0	0.431872521960031	6.0	450.0	4.0	5.0	8.0	6.0	1.0	part_2
64	1.0	2.0			600.0	0.0	0.0							6.0	0.0	0.49882249869187945	6.0	400.0	1.0	4.0	1.0	1.0	0.0	part_2
65	3.0	2.0			600.0	0.0	1.0							6.0	0.0	0.47695450100036396	6.0	400.0	3.0	2.0	7.0	8.0	1.0	part_2
66	1.0	2.0			600.0	0.0	0.0							6.0	0.0	0.601505552924209	6.0	350.0	3.0	8.0	3.0	5.0	0.0	part_2
67	3.0	2.0			600.0	0.0	1.0							5.0	0.0	0.6358312488846423	5.0	350.0	4.0	5.0	8.0	6.0	1.0	part_2
68	1.0	2.0			550.0	0.0	0.0							5.0	0.0	0.6268544058839325	5.0	350.0	3.0	8.0	3.0	5.0	0.0	part_2
69	1.0	2.0			550.0	0.0	0.0							5.0	0.0	0.356411287730225	5.0	350.0	1.0	4.0	1.0	1.0	0.0	part_2
70	1.0	2.0			550.0	0.0	1.0							6.0	0.0	0.30127749680650595	6.0	350.0	2.0	7.0	6.0	7.0	0.0	part_2
71	3.0	2.0			550.0	0.0	1.0							5.0	0.0	0.6052824399230303	5.0	350.0	1.0	1.0	5.0	2.0	1.0	part_2
72	1.0	3.0			500.0	0.0	0.0							6.0	0.0	0.6224420207690855	6.0	350.0	1.0	4.0	1.0	1.0	0.0	part_2
73	4.0	3.0			500.0	0.0	1.0							6.0	0.0	0.0	0.0	350.0	4.0	5.0	8.0	6.0	1.0	part_2
74	1.0	3.0			500.0	0.0	0.0							6.0	0.0	0.5131910697673447	6.0	400.0	3.0	8.0	3.0	5.0	0.0	part_2
75	4.0	3.0			500.0	0.0	1.0							5.0	0.0	0.0	0.0	400.0	1.0	1.0	5.0	2.0	1.0	part_2
76	1.0	3.0			550.0	0.0	0.0							5.0	0.0	0.5692185758070991	5.0	400.0	3.0	8.0	3.0	5.0	0.0	part_2
77	4.0	3.0			550.0	0.0	1.0							5.0	0.0	0.0	0.0	400.0	2.0	7.0	6.0	7.0	1.0	part_2
78	3.0	3.0			600.0	0.0	1.0							5.0	0.0	0.6511276568453468	5.0	400.0	2.0	7.0	6.0	7.0	1.0	part_2
79	3.0	3.0			550.0	0.0	1.0							5.0	0.0	0.5954476839233394	5.0	400.0	3.0	2.0	7.0	8.0	1.0	part_2
80	1.0	3.0			500.0	0.0	0.0							6.0	0.0	0.6733546016912442	6.0	400.0	4.0	3.0	4.0	3.0	0.0	part_2
81	1.0	3.0			500.0	0.0	1.0							5.0	0.0	0.6752744188452198	5.0	400.0	4.0	5.0	8.0	6.0	0.0	part_2
82	4.0	3.0			500.0	0.0	1.0							6.0	0.0	0.0	0.0	400.0	1.0	1.0	5.0	2.0	1.0	part_2
83	1.0	3.0			500.0	0.0	1.0							6.0	0.0	0.7885211718839855	6.0	450.0	3.0	2.0	7.0	8.0	0.0	part_2
84	1.0	3.0			500.0	0.0	0.0							6.0	0.0	0.9139712729993335	6.0	450.0	2.0	6.0	2.0	4.0	0.0	part_2
85	1.0	3.0			500.0	0.0	0.0							6.0	0.0	0.7583277888443263	6.0	450.0	3.0	8.0	3.0	5.0	0.0	part_2
86	1.0	3.0			500.0	0.0	0.0							5.0	0.0	0.7240050937307387	5.0	450.0	1.0	4.0	1.0	1.0	0.0	part_2
87	3.0	3.0			500.0	0.0	1.0							5.0	0.0	0.612158150806863	5.0	450.0	3.0	2.0	7.0	8.0	1.0	part_2
88	1.0	3.0			450.0	0.0	0.0							5.0	0.0	0.6470753859230172	5.0	450.0	2.0	6.0	2.0	4.0	0.0	part_2
89	1.0	3.0			450.0	0.0	0.0							5.0	0.0	0.7611550029596401	5.0	450.0	2.0	6.0	2.0	4.0	0.0	part_2
90	4.0	3.0			450.0	0.0	1.0							6.0	0.0	0.0	0.0	450.0	3.0	2.0	7.0	8.0	1.0	part_2
91	1.0	3.0			450.0	0.0	1.0							6.0	0.0	0.8183134999217145	6.0	500.0	1.0	1.0	5.0	2.0	0.0	part_2
92	1.0	3.0			450.0	0.0	0.0							6.0	0.0	0.876154300844064	6.0	500.0	2.0	6.0	2.0	4.0	0.0	part_2
93	1.0	3.0			450.0	0.0	0.0							6.0	0.0	0.8662624048847647	6.0	500.0	4.0	3.0	4.0	3.0	0.0	part_2
94	1.0	3.0			450.0	0.0	0.0							6.0	0.0	0.899023917843806	6.0	500.0	1.0	4.0	1.0	1.0	0.0	part_2
95	1.0	3.0			450.0	0.0	1.0							6.0	0.0	0.7889625867665018	6.0	500.0	4.0	5.0	8.0	6.0	0.0	part_2
96	1.0	3.0			450.0	0.0	0.0							6.0	0.0	0.9242784206908254	6.0	500.0	3.0	8.0	3.0	5.0	0.0	part_2
97	4.0	3.0			450.0	0.0	1.0							6.0	0.0	0.0	0.0	500.0	4.0	5.0	8.0	6.0	1.0	part_2
98	1.0	3.0			450.0	0.0	0.0							6.0	0.0	0.7565580389236857	6.0	550.0	4.0	3.0	4.0	3.0	0.0	part_2
99	1.0	3.0			450.0	0.0	0.0							5.0	0.0	0.9373326728073152	5.0	550.0	4.0	3.0	4.0	3.0	0.0	part_2
100	4.0	3.0			450.0	0.0	1.0							5.0	0.0	0.0	0.0	550.0	3.0	2.0	7.0	8.0	1.0	part_2
101	3.0	3.0			500.0	0.0	1.0							6.0	0.0	0.4452443556911021	6.0	550.0	4.0	5.0	8.0	6.0	1.0	part_2
102	1.0	3.0			500.0	0.0	1.0							6.0	0.0	0.6144246189232945	6.0	500.0	4.0	5.0	8.0	6.0	0.0	part_2
103	3.0	3.0			500.0	0.0	1.0							5.0	0.0	0.6372075088838756	5.0	500.0	4.0	5.0	8.0	6.0	1.0	part_2
104	4.0	3.0			450.0	0.0	1.0							6.0	0.0	0.0	0.0	500.0	2.0	7.0	6.0	7.0	1.0	part_2
105	4.0	3.0			450.0	0.0	1.0							5.0	0.0	0.0	0.0	550.0	2.0	7.0	6.0	7.0	1.0	part_2
106	1.0	3.0			500.0	0.0	0.0							5.0	0.0	0.7407823037301569	5.0	550.0	1.0	4.0	1.0	1.0	0.0	part_2
107	1.0	3.0			500.0	0.0	0.0							5.0	0.0	0.7304877869592019	5.0	550.0	1.0	4.0	1.0	1.0	0.0	part_2
108	3.0	4.0			500.0	0.0	1.0							5.0	0.0	0.5121620478057594	5.0	550.0	3.0	2.0	7.0	8.0	1.0	part_2
109	3.0	4.0			450.0	0.0	1.0							5.0	0.0	0.344034103807644	5.0	550.0	1.0	1.0	5.0	2.0	1.0	part_2
110	1.0	4.0			400.0	0.0	0.0							6.0	0.0	0.536193490766891	6.0	550.0	2.0	6.0	2.0	4.0	0.0	part_2
111	1.0	4.0			400.0	0.0	0.0							6.0	0.0	0.5712248229228862	6.0	550.0	3.0	8.0	3.0	5.0	0.0	part_2
112	1.0	4.0			400.0	0.0	0.0							6.0	0.0	0.44728565395962505	6.0	550.0	1.0	4.0	1.0	1.0	0.0	part_2
113	1.0	4.0			400.0	0.0	0.0							5.0	0.0	0.458709232883848	5.0	550.0	3.0	8.0	3.0	5.0	0.0	part_2
114	3.0	4.0			400.0	0.0	1.0							6.0	0.0	0.4038383037677704	6.0	550.0	1.0	1.0	5.0	2.0	1.0	part_2
115	4.0	4.0			400.0	0.0	1.0							5.0	0.0	0.0	0.0	500.0	2.0	7.0	6.0	7.0	1.0	part_2
116	3.0	4.0			450.0	0.0	1.0							6.0	0.0	0.5419761397297407	6.0	500.0	3.0	2.0	7.0	8.0	1.0	part_2
117	1.0	4.0			450.0	0.0	0.0							5.0	0.0	0.6089266348062665	5.0	450.0	3.0	8.0	3.0	5.0	0.0	part_2
118	1.0	4.0			450.0	0.0	0.0							5.0	0.0	0.5983932499602815	5.0	450.0	2.0	6.0	2.0	4.0	0.0	part_2
119	3.0	4.0			450.0	0.0	1.0							5.0	0.0	0.6332931678080058	5.0	450.0	1.0	1.0	5.0	2.0	1.0	part_2
120	4.0	4.0			400.0	0.0	1.0							5.0	0.0	0.0	0.0	450.0	2.0	7.0	6.0	7.0	1.0	part_2
121	3.0	4.0			450.0	0.0	1.0							6.0	0.0	0.431601646116178	6.0	450.0	2.0	7.0	6.0	7.0	1.0	part_2
122	1.0	4.0			450.0	0.0	0.0							5.0	0.0	0.6254508119236561	5.0	400.0	4.0	3.0	4.0	3.0	0.0	part_2
123	4.0	4.0			450.0	0.0	1.0							5.0	0.0	0.0	0.0	400.0	2.0	7.0	6.0	7.0	1.0	part_2
124	4.0	4.0			500.0	0.0	1.0							6.0	0.0	0.0	0.0	400.0	2.0	7.0	6.0	7.0	1.0	part_2
125	1.0	4.0			500.0	0.0	1.0							6.0	0.0	0.7067034049232461	6.0	450.0	1.0	1.0	5.0	2.0	0.0	part_2
126	1.0	4.0			500.0	0.0	0.0							5.0	0.0	0.763528706960642	5.0	450.0	2.0	6.0	2.0	4.0	0.0	part_2
127	3.0	4.0			500.0	0.0	1.0							6.0	0.0	0.6285222868082201	6.0	450.0	3.0	2.0	7.0	8.0	1.0	part_2
128	1.0	4.0			500.0	0.0	0.0							6.0	0.0	0.7093319149607851	6.0	400.0	2.0	6.0	2.0	4.0	0.0	part_2
129	1.0	4.0			500.0	0.0	0.0							6.0	0.0	0.6409321319606534	6.0	400.0	4.0	3.0	4.0	3.0	0.0	part_2
130	1.0	4.0			500.0	0.0	0.0							5.0	0.0	0.6871705670000665	5.0	400.0	4.0	3.0	4.0	3.0	0.0	part_2
131	4.0	4.0			500.0	0.0	1.0							5.0	0.0	0.0	0.0	400.0	4.0	5.0	8.0	6.0	1.0	part_2
132	1.0	4.0			550.0	0.0	0.0							6.0	0.0	0.666158557000017	6.0	400.0	4.0	3.0	4.0	3.0	0.0	part_2
133	1.0	4.0			550.0	0.0	0.0							6.0	0.0	0.5653379848827171	6.0	400.0	1.0	4.0	1.0	1.0	0.0	part_2
134	4.0	4.0			550.0	0.0	1.0							6.0	0.0	0.0	0.0	400.0	2.0	7.0	6.0	7.0	1.0	part_2
135	1.0	4.0			550.0	0.0	0.0							5.0	0.0	0.36467709784301405	5.0	450.0	2.0	6.0	2.0	4.0	0.0	part_2
136	1.0	4.0			550.0	0.0	0.0							5.0	0.0	0.6581915787301114	5.0	450.0	3.0	8.0	3.0	5.0	0.0	part_2
137	1.0	4.0			550.0	0.0	0.0							6.0	0.0	0.4352978898841684	6.0	450.0	4.0	3.0	4.0	3.0	0.0	part_2
138	1.0	4.0			550.0	0.0	1.0							5.0	0.0	0.8187194888832892	5.0	450.0	3.0	2.0	7.0	8.0	0.0	part_2
139	4.0	4.0			550.0	0.0	1.0							6.0	0.0	0.0	0.0	450.0	2.0	7.0	6.0	7.0	1.0	part_2
140	1.0	4.0			550.0	0.0	0.0							6.0	0.0	0.5500053277683037	6.0	500.0	4.0	3.0	4.0	3.0	0.0	part_2
141	1.0	4.0			550.0	0.0	0.0							6.0	0.0	0.37080880884423095	6.0	500.0	4.0	3.0	4.0	3.0	0.0	part_2
142	1.0	4.0			550.0	0.0	0.0							5.0	0.0	0.6641601699611783	5.0	500.0	3.0	8.0	3.0	5.0	0.0	part_2
143	1.0	4.0			550.0	0.0	0.0							5.0	0.0	0.6301581957686722	5.0	500.0	3.0	8.0	3.0	5.0	0.0	part_2
144	3.0	5.0			550.0	0.0	1.0							6.0	0.0	0.4646814928855747	6.0	500.0	1.0	1.0	5.0	2.0	1.0	part_2
145	4.0	5.0			550.0	0.0	1.0							6.0	0.0	0.0	0.0	450.0	4.0	5.0	8.0	6.0	1.0	part_2
146	1.0	5.0			550.0	0.0	1.0							5.0	0.0	0.36472967288500513	5.0	500.0	2.0	7.0	6.0	7.0	0.0	part_2
147	3.0	5.0			550.0	0.0	1.0							5.0	0.0	0.5800416128076904	5.0	500.0	2.0	7.0	6.0	7.0	1.0	part_2
148	1.0	5.0			500.0	0.0	0.0							5.0	0.0	0.5457652707682428	5.0	500.0	2.0	6.0	2.0	4.0	0.0	part_2
149	1.0	5.0			500.0	0.0	0.0							5.0	0.0	0.7832955320391193	5.0	500.0	1.0	4.0	1.0	1.0	0.0	part_2
150	1.0	5.0			500.0	0.0	1.0							6.0	0.0	0.7949754821565875	6.0	500.0	4.0	5.0	8.0	6.0	0.0	part_2
151	3.0	5.0			500.0	0.0	1.0							6.0	0.0	0.43486665496129717	6.0	500.0	4.0	5.0	8.0	6.0	1.0	part_2
152	4.0	5.0			500.0	0.0	1.0							6.0	0.0	0.0	0.0	450.0	2.0	7.0	6.0	7.0	1.0	part_2
153	1.0	5.0			500.0	0.0	0.0							5.0	0.0	0.40493796588452824	5.0	500.0	4.0	3.0	4.0	3.0	0.0	part_2
154	1.0	5.0			500.0	0.0	0.0							5.0	0.0	0.38227570673006994	5.0	500.0	4.0	3.0	4.0	3.0	0.0	part_2
155	3.0	5.0			500.0	0.0	1.0							5.0	0.0	0.6416731658446224	5.0	500.0	4.0	5.0	8.0	6.0	1.0	part_2
156	1.0	5.0			450.0	0.0	0.0							5.0	0.0	0.553562160806905	5.0	500.0	4.0	3.0	4.0	3.0	0.0	part_2
157	1.0	5.0			450.0	0.0	0.0							5.0	0.0	0.6092357387296943	5.0	500.0	2.0	6.0	2.0	4.0	0.0	part_2
158	1.0	5.0			450.0	0.0	0.0							5.0	0.0	0.6334472620383167	5.0	500.0	1.0	4.0	1.0	1.0	0.0	part_2
159	1.0	5.0			450.0	0.0	0.0							5.0	0.0	0.6905260646508395	5.0	500.0	3.0	8.0	3.0	5.0	0.0	part_2
160	1.0	5.0			450.0	0.0	0.0							5.0	0.0	0.758270235690361	5.0	500.0	1.0	4.0	1.0	1.0	0.0	part_2
161	1.0	5.0			450.0	0.0	0.0							6.0	0.0	0.8273900448075437	6.0	500.0	3.0	8.0	3.0	5.0	0.0	part_2
162	1.0	5.0			450.0	0.0	1.0							6.0	0.0	0.804582949844189	6.0	500.0	1.0	1.0	5.0	2.0	0.0	part_2
163	4.0	5.0			450.0	0.0	1.0							5.0	0.0	0.0	0.0	500.0	4.0	5.0	8.0	6.0	1.0	part_2
164	1.0	5.0			500.0	0.0	1.0							6.0	0.0	0.625633009845842	6.0	500.0	2.0	7.0	6.0	7.0	0.0	part_2
165	1.0	5.0			500.0	0.0	0.0							5.0	0.0	0.7064926799230307	5.0	500.0	2.0	6.0	2.0	4.0	0.0	part_2
166	1.0	5.0			500.0	0.0	0.0							6.0	0.0	0.6283684329609969	6.0	500.0	3.0	8.0	3.0	5.0	0.0	part_2
167	3.0	5.0			500.0	0.0	1.0							5.0	0.0	0.6621752617684251	5.0	500.0	3.0	2.0	7.0	8.0	1.0	part_2
168	1.0	5.0			450.0	0.0	0.0							5.0	0.0	0.5291352700405696	5.0	500.0	4.0	3.0	4.0	3.0	0.0	part_2
169	4.0	5.0			450.0	0.0	1.0							5.0	0.0	0.0	0.0	500.0	2.0	7.0	6.0	7.0	1.0	part_2
170	1.0	5.0			500.0	0.0	1.0							6.0	0.0	0.6540754289999313	6.0	500.0	3.0	2.0	7.0	8.0	0.0	part_2
171	1.0	5.0			500.0	0.0	0.0							6.0	0.0	0.6441814777681429	6.0	500.0	4.0	3.0	4.0	3.0	0.0	part_2
172	4.0	5.0			500.0	0.0	1.0							5.0	0.0	0.0	0.0	500.0	3.0	2.0	7.0	8.0	1.0	part_2
173	4.0	5.0			550.0	0.0	1.0							5.0	0.0	0.0	0.0	500.0	3.0	2.0	7.0	8.0	1.0	part_2
174	1.0	5.0			600.0	0.0	0.0							5.0	0.0	0.7247669389616931	5.0	500.0	1.0	4.0	1.0	1.0	0.0	part_2
175	1.0	5.0			600.0	0.0	0.0							6.0	0.0	0.6594118980010535	6.0	500.0	1.0	4.0	1.0	1.0	0.0	part_2
176	4.0	5.0			600.0	0.0	1.0							6.0	0.0	0.0	0.0	500.0	3.0	2.0	7.0	8.0	1.0	part_2
177	3.0	5.0			600.0	0.0	1.0							6.0	0.0	0.5466258559226844	6.0	550.0	4.0	5.0	8.0	6.0	1.0	part_2
178	1.0	5.0			600.0	0.0	0.0							6.0	0.0	0.7048474797684321	6.0	500.0	1.0	4.0	1.0	1.0	0.0	part_2
179	3.0	5.0			600.0	0.0	1.0							5.0	0.0	0.6496112250006263	5.0	500.0	3.0	2.0	7.0	8.0	1.0	part_2
180	1.0	6.0			550.0	0.0	0.0							6.0	0.0	0.6145530106514343	6.0	500.0	4.0	3.0	4.0	3.0	0.0	part_2
181	1.0	6.0			550.0	0.0	1.0							6.0	0.0	0.5376955249230377	6.0	500.0	1.0	1.0	5.0	2.0	0.0	part_2
182	1.0	6.0			550.0	0.0	0.0							6.0	0.0	0.5726655797679996	6.0	500.0	4.0	3.0	4.0	3.0	0.0	part_2
183	1.0	6.0			550.0	0.0	1.0							6.0	0.0	0.7648783218446624	6.0	500.0	3.0	2.0	7.0	8.0	0.0	part_2
184	1.0	6.0			550.0	0.0	0.0							5.0	0.0	0.6863139749239053	5.0	500.0	3.0	8.0	3.0	5.0	0.0	part_2
185	1.0	6.0			550.0	0.0	0.0							5.0	0.0	0.6308657099998527	5.0	500.0	2.0	6.0	2.0	4.0	0.0	part_2
186	1.0	6.0			550.0	0.0	0.0							6.0	0.0	0.7430762128078641	6.0	500.0	2.0	6.0	2.0	4.0	0.0	part_2
187	4.0	6.0			550.0	0.0	1.0							6.0	0.0	0.0	0.0	500.0	2.0	7.0	6.0	7.0	1.0	part_2
188	4.0	6.0			550.0	0.0	1.0							6.0	0.0	0.0	0.0	550.0	3.0	2.0	7.0	8.0	1.0	part_2
189	1.0	6.0			550.0	0.0	0.0							5.0	0.0	0.7240240749233635	5.0	600.0	2.0	6.0	2.0	4.0	0.0	part_2
190	4.0	6.0			550.0	0.0	1.0							5.0	0.0	0.0	0.0	600.0	2.0	7.0	6.0	7.0	1.0	part_2
191	1.0	6.0			600.0	0.0	1.0							5.0	0.0	0.7828097136916767	5.0	600.0	1.0	1.0	5.0	2.0	0.0	part_2
192	1.0	6.0			600.0	0.0	0.0							5.0	0.0	0.7483049137317721	5.0	600.0	3.0	8.0	3.0	5.0	0.0	part_2
193	1.0	6.0			600.0	0.0	0.0							5.0	0.0	0.490459502883823	5.0	600.0	3.0	8.0	3.0	5.0	0.0	part_2
194	3.0	6.0			600.0	0.0	1.0							5.0	0.0	0.5248644867679104	5.0	600.0	1.0	1.0	5.0	2.0	1.0	part_2
195	1.0	6.0			550.0	0.0	0.0							5.0	0.0	0.6383332249242812	5.0	600.0	1.0	4.0	1.0	1.0	0.0	part_2
196	3.0	6.0			550.0	0.0	1.0							6.0	0.0	0.6173998270387528	6.0	600.0	2.0	7.0	6.0	7.0	1.0	part_2
197	1.0	6.0			550.0	0.0	0.0							5.0	0.0	0.6525082927673793	5.0	550.0	1.0	4.0	1.0	1.0	0.0	part_2
198	3.0	6.0			550.0	0.0	1.0							5.0	0.0	0.6531818738440052	5.0	550.0	3.0	2.0	7.0	8.0	1.0	part_2
199	3.0	6.0			500.0	0.0	1.0							6.0	0.0	0.6073640886515932	6.0	550.0	1.0	1.0	5.0	2.0	1.0	part_2
200	3.0	6.0			500.0	0.0	1.0							5.0	0.0	0.6538098468827229	5.0	500.0	2.0	7.0	6.0	7.0	1.0	part_2
201	1.0	6.0			450.0	0.0	0.0							5.0	0.0	0.5878898148075677	5.0	500.0	3.0	8.0	3.0	5.0	0.0	part_2
202	1.0	6.0			450.0	0.0	0.0							6.0	0.0	0.47675722088388284	6.0	500.0	1.0	4.0	1.0	1.0	0.0	part_2
203	1.0	6.0			450.0	0.0	1.0							6.0	0.0	0.7813991220409662	6.0	500.0	1.0	1.0	5.0	2.0	0.0	part_2
204	1.0	6.0			450.0	0.0	1.0							6.0	0.0	0.4667734149224998	6.0	500.0	1.0	1.0	5.0	2.0	0.0	part_2
205	1.0	6.0			450.0	0.0	0.0							6.0	0.0	0.4675893928451842	6.0	500.0	2.0	6.0	2.0	4.0	0.0	part_2
206	1.0	6.0			450.0	0.0	0.0							6.0	0.0	0.4574358507306897	6.0	500.0	4.0	3.0	4.0	3.0	0.0	part_2
207	4.0	6.0			450.0	0.0	1.0							5.0	0.0	0.0	0.0	500.0	2.0	7.0	6.0	7.0	1.0	part_2
208	1.0	6.0			500.0	0.0	0.0							6.0	0.0	0.7051830478449119	6.0	500.0	3.0	8.0	3.0	5.0	0.0	part_2
209	1.0	6.0			500.0	0.0	0.0							5.0	0.0	0.4246565137673315	5.0	500.0	4.0	3.0	4.0	3.0	0.0	part_2
210	4.0	6.0			500.0	0.0	1.0							6.0	0.0	0.0	0.0	500.0	4.0	5.0	8.0	6.0	1.0	part_2
211	1.0	6.0			500.0	0.0	0.0							5.0	0.0	0.5742635208080173	5.0	550.0	4.0	3.0	4.0	3.0	0.0	part_2
212	1.0	6.0			500.0	0.0	0.0							5.0	0.0	0.7989446108058473	5.0	550.0	3.0	8.0	3.0	5.0	0.0	part_2
213	3.0	6.0			500.0	0.0	1.0							5.0	0.0	0.4391087939238787	5.0	550.0	2.0	7.0	6.0	7.0	1.0	part_2
214	1.0	6.0			450.0	0.0	0.0							5.0	0.0	0.4747916979231377	5.0	550.0	4.0	3.0	4.0	3.0	0.0	part_2
215	1.0	6.0			450.0	0.0	0.0							6.0	0.0	0.7001907488447614	6.0	550.0	2.0	6.0	2.0	4.0	0.0	part_2
216	3.0	7.0			450.0	0.0	1.0							5.0	0.0	0.5163647387671517	5.0	550.0	4.0	5.0	8.0	6.0	1.0	part_2
217	3.0	7.0			400.0	0.0	1.0							5.0	0.0	0.5057459473027848	5.0	550.0	4.0	5.0	8.0	6.0	1.0	part_2
218	1.0	7.0			350.0	0.0	0.0							5.0	0.0	0.5522437970375904	5.0	550.0	1.0	4.0	1.0	1.0	0.0	part_2
219	1.0	7.0			350.0	0.0	0.0							5.0	0.0	0.6209086937305983	5.0	550.0	4.0	3.0	4.0	3.0	0.0	part_2
220	1.0	7.0			350.0	0.0	0.0							6.0	0.0	0.35091104788261873	6.0	550.0	4.0	3.0	4.0	3.0	0.0	part_2
221	1.0	7.0			350.0	0.0	0.0							6.0	0.0	0.4659187716915767	6.0	550.0	4.0	3.0	4.0	3.0	0.0	part_2
222	3.0	7.0			350.0	0.0	1.0							6.0	0.0	0.624061084807181	6.0	550.0	2.0	7.0	6.0	7.0	1.0	part_2
223	1.0	7.0			350.0	0.0	1.0							6.0	0.0	0.5342999810400215	6.0	500.0	2.0	7.0	6.0	7.0	0.0	part_2
224	4.0	7.0			350.0	0.0	1.0							5.0	0.0	0.0	0.0	500.0	1.0	1.0	5.0	2.0	1.0	part_2
225	1.0	7.0			400.0	0.0	0.0							6.0	0.0	0.5238147110012505	6.0	500.0	3.0	8.0	3.0	5.0	0.0	part_2
226	1.0	7.0			400.0	0.0	0.0							6.0	0.0	0.4571647020002274	6.0	500.0	3.0	8.0	3.0	5.0	0.0	part_2
227	4.0	7.0			400.0	0.0	1.0							5.0	0.0	0.0	0.0	500.0	1.0	1.0	5.0	2.0	1.0	part_2
228	3.0	7.0			450.0	0.0	1.0							6.0	0.0	0.4030965068832302	6.0	500.0	4.0	5.0	8.0	6.0	1.0	part_2
229	1.0	7.0			450.0	0.0	0.0							6.0	0.0	0.6407759939611424	6.0	450.0	1.0	4.0	1.0	1.0	0.0	part_2
230	4.0	7.0			450.0	0.0	1.0							5.0	0.0	0.0	0.0	450.0	4.0	5.0	8.0	6.0	1.0	part_2
231	4.0	7.0			500.0	0.0	1.0							6.0	0.0	0.0	0.0	450.0	3.0	2.0	7.0	8.0	1.0	part_2
232	4.0	7.0			500.0	0.0	1.0							6.0	0.0	0.0	0.0	500.0	4.0	5.0	8.0	6.0	1.0	part_2
233	1.0	7.0			500.0	0.0	0.0							6.0	0.0	0.6207884860396007	6.0	550.0	1.0	4.0	1.0	1.0	0.0	part_2
234	3.0	7.0			500.0	0.0	1.0							6.0	0.0	0.6555764088461729	6.0	550.0	3.0	2.0	7.0	8.0	1.0	part_2
235	1.0	7.0			500.0	0.0	0.0							6.0	0.0	0.587959037766268	6.0	500.0	3.0	8.0	3.0	5.0	0.0	part_2
236	1.0	7.0			500.0	0.0	0.0							6.0	0.0	0.6802817579591647	6.0	500.0	2.0	6.0	2.0	4.0	0.0	part_2
237	3.0	7.0			500.0	0.0	1.0							5.0	0.0	0.6251189688828163	5.0	500.0	2.0	7.0	6.0	7.0	1.0	part_2
238	1.0	7.0			450.0	0.0	0.0							6.0	0.0	0.6265083617290657	6.0	500.0	2.0	6.0	2.0	4.0	0.0	part_2
239	4.0	7.0			450.0	0.0	1.0							6.0	0.0	0.0	0.0	500.0	1.0	1.0	5.0	2.0	1.0	part_2
240	1.0	7.0			450.0	0.0	0.0							6.0	0.0	0.6610856339611928	6.0	550.0	3.0	8.0	3.0	5.0	0.0	part_2
241	1.0	7.0			450.0	0.0	1.0							6.0	0.0	0.49196455795936345	6.0	550.0	3.0	2.0	7.0	8.0	0.0	part_2
242	1.0	7.0			450.0	0.0	0.0							5.0	0.0	0.627802916960718	5.0	550.0	4.0	3.0	4.0	3.0	0.0	part_2
243	4.0	7.0			450.0	0.0	1.0							5.0	0.0	0.0	0.0	550.0	1.0	1.0	5.0	2.0	1.0	part_2
244	1.0	7.0			500.0	0.0	0.0							5.0	0.0	0.6970333499230037	5.0	550.0	3.0	8.0	3.0	5.0	0.0	part_2
245	1.0	7.0			500.0	0.0	0.0							5.0	0.0	0.5745484897670394	5.0	550.0	2.0	6.0	2.0	4.0	0.0	part_2
246	1.0	7.0			500.0	0.0	1.0							5.0	0.0	0.6652450158853753	5.0	550.0	4.0	5.0	8.0	6.0	0.0	part_2
247	1.0	7.0			500.0	0.0	1.0							6.0	0.0	0.30690931492245	6.0	550.0	4.0	5.0	8.0	6.0	0.0	part_2
248	1.0	7.0			500.0	0.0	0.0							6.0	0.0	0.27298017195971624	6.0	550.0	3.0	8.0	3.0	5.0	0.0	part_2
249	1.0	7.0			500.0	0.0	0.0							5.0	0.0	0.45525937180718756	5.0	550.0	3.0	8.0	3.0	5.0	0.0	part_2
250	1.0	7.0			500.0	0.0	0.0							6.0	0.0	0.611977161039249	6.0	550.0	2.0	6.0	2.0	4.0	0.0	part_2
251	1.0	7.0			500.0	0.0	0.0							5.0	0.0	0.5451292948073387	5.0	550.0	2.0	6.0	2.0	4.0	0.0	part_2
252	3.0	8.0			500.0	0.0	1.0							5.0	0.0	0.5761329569613736	5.0	550.0	1.0	1.0	5.0	2.0	1.0	part_2
253	1.0	8.0			450.0	0.0	0.0							6.0	0.0	0.339117023806466	6.0	550.0	1.0	4.0	1.0	1.0	0.0	part_2
254	1.0	8.0			450.0	0.0	0.0							6.0	0.0	0.41886216495913686	6.0	550.0	1.0	4.0	1.0	1.0	0.0	part_2
255	1.0	8.0			450.0	0.0	0.0							6.0	0.0	0.5769900910399883	6.0	550.0	3.0	8.0	3.0	5.0	0.0	part_2
256	1.0	8.0			450.0	0.0	1.0							6.0	0.0	0.3995011977676768	6.0	550.0	1.0	1.0	5.0	2.0	0.0	part_2
257	3.0	8.0			450.0	0.0	1.0							6.0	0.0	0.5913154779991601	6.0	550.0	1.0	1.0	5.0	2.0	1.0	part_2
258	3.0	8.0			450.0	0.0	1.0							6.0	0.0	0.6017936558073416	6.0	500.0	2.0	7.0	6.0	7.0	1.0	part_2
259	1.0	8.0			450.0	0.0	0.0							5.0	0.0	0.31043091396168165	5.0	450.0	1.0	4.0	1.0	1.0	0.0	part_2
260	1.0	8.0			450.0	0.0	0.0							6.0	0.0	0.5037150748448767	6.0	450.0	1.0	4.0	1.0	1.0	0.0	part_2
261	1.0	8.0			450.0	0.0	0.0							6.0	0.0	0.6381910907675774	6.0	450.0	4.0	3.0	4.0	3.0	0.0	part_2
262	4.0	8.0			450.0	0.0	1.0							6.0	0.0	0.0	0.0	450.0	3.0	2.0	7.0	8.0	1.0	part_2
263	1.0	8.0			450.0	0.0	0.0							5.0	0.0	0.6851504418445984	5.0	500.0	2.0	6.0	2.0	4.0	0.0	part_2
264	1.0	8.0			450.0	0.0	0.0							5.0	0.0	0.5398901359239971	5.0	500.0	2.0	6.0	2.0	4.0	0.0	part_2
265	3.0	8.0			450.0	0.0	1.0							5.0	0.0	0.5975986917674163	5.0	500.0	4.0	5.0	8.0	6.0	1.0	part_2
266	1.0	8.0			400.0	0.0	0.0							5.0	0.0	0.5638220268829173	5.0	500.0	1.0	4.0	1.0	1.0	0.0	part_2
267	4.0	8.0			400.0	0.0	1.0							5.0	0.0	0.0	0.0	500.0	4.0	5.0	8.0	6.0	1.0	part_2
268	1.0	8.0			450.0	0.0	0.0							6.0	0.0	0.6551631436905154	6.0	500.0	3.0	8.0	3.0	5.0	0.0	part_2
269	4.0	8.0			450.0	0.0	1.0							6.0	0.0	0.0	0.0	500.0	4.0	5.0	8.0	6.0	1.0	part_2
270	1.0	8.0			450.0	0.0	1.0							5.0	0.0	0.6917502156920818	5.0	550.0	4.0	5.0	8.0	6.0	0.0	part_2
271	1.0	8.0			450.0	0.0	0.0							6.0	0.0	0.6476250759606046	6.0	550.0	1.0	4.0	1.0	1.0	0.0	part_2
272	1.0	8.0			450.0	0.0	1.0							5.0	0.0	0.7031391801883728	5.0	550.0	2.0	7.0	6.0	7.0	0.0	part_2
273	1.0	8.0			450.0	0.0	0.0							5.0	0.0	0.501860347807451	5.0	550.0	1.0	4.0	1.0	1.0	0.0	part_2
274	1.0	8.0			450.0	0.0	0.0							5.0	0.0	0.5594800760773069	5.0	550.0	1.0	4.0	1.0	1.0	0.0	part_2
275	1.0	8.0			450.0	0.0	0.0							6.0	0.0	0.6730035149612377	6.0	550.0	3.0	8.0	3.0	5.0	0.0	part_2
276	1.0	8.0			450.0	0.0	0.0							6.0	0.0	0.5500426747694291	6.0	550.0	2.0	6.0	2.0	4.0	0.0	part_2
277	1.0	8.0			450.0	0.0	0.0							6.0	0.0	0.5840031719999388	6.0	550.0	1.0	4.0	1.0	1.0	0.0	part_2
278	3.0	8.0			450.0	0.0	1.0							6.0	0.0	0.6527025737304939	6.0	550.0	3.0	2.0	7.0	8.0	1.0	part_2
279	4.0	8.0			450.0	0.0	1.0							5.0	0.0	0.0	0.0	500.0	1.0	1.0	5.0	2.0	1.0	part_2
280	1.0	8.0			500.0	0.0	0.0							5.0	0.0	0.620061708807043	5.0	500.0	4.0	3.0	4.0	3.0	0.0	part_2
281	1.0	8.0			500.0	0.0	1.0							6.0	0.0	0.6439781209228386	6.0	500.0	4.0	5.0	8.0	6.0	0.0	part_2
282	1.0	8.0			500.0	0.0	0.0							5.0	0.0	0.6009358627670736	5.0	500.0	3.0	8.0	3.0	5.0	0.0	part_2
283	3.0	8.0			500.0	0.0	1.0							5.0	0.0	0.6571377320397005	5.0	500.0	1.0	1.0	5.0	2.0	1.0	part_2
284	4.0	8.0			450.0	0.0	1.0							5.0	0.0	0.0	0.0	500.0	1.0	1.0	5.0	2.0	1.0	part_2
285	1.0	8.0			500.0	0.0	0.0							6.0	0.0	0.5793327300398232	6.0	500.0	2.0	6.0	2.0	4.0	0.0	part_2
286	4.0	8.0			500.0	0.0	1.0							5.0	0.0	0.0	0.0	500.0	3.0	2.0	7.0	8.0	1.0	part_2
287	4.0	8.0			550.0	0.0	1.0							5.0	0.0	0.0	0.0	500.0	1.0	1.0	5.0	2.0	1.0	part_2
0	0.0	1.0	204.0	6.0	0.0	2.0	0.0	136.0	102.0	170.0	204.0	34.0	68.0	7.0	0.0	2.932035589557927	4.0	0.0	4.0	3.0	4.0	3.0	0.0	part_3
1	0.0	1.0	245.0	5.0	0.0	1.0	0.0	196.0	294.0	49.0	98.0	245.0	147.0	7.0	0.0	3.269163005088558	5.0	0.0	1.0	4.0	1.0	1.0	0.0	part_3
2	0.0	1.0	117.0	3.0	0.0	1.0	0.0	156.0	195.0	234.0	39.0	117.0	78.0	7.0	0.0	2.978382181323468	5.0	0.0	4.0	3.0	4.0	3.0	0.0	part_3
3	0.0	1.0	220.0	5.0	0.0	1.0	0.0	264.0	88.0	176.0	132.0	44.0	220.0	7.0	0.0	4.149585882323663	6.0	0.0	2.0	6.0	2.0	4.0	0.0	part_3
4	0.0	1.0	245.0	5.0	0.0	1.0	0.0	49.0	147.0	98.0	294.0	245.0	196.0	7.0	0.0	4.490973527617825	5.0	0.0	4.0	3.0	4.0	3.0	0.0	part_3
5	0.0	1.0	136.0	4.0	0.0	1.0	1.0	68.0	136.0	102.0	34.0	170.0	204.0	7.0	0.0	4.707300377940555	2.0	0.0	2.0	7.0	6.0	7.0	0.0	part_3
6	0.0	1.0	136.0	4.0	0.0	1.0	0.0	102.0	136.0	204.0	170.0	34.0	68.0	7.0	0.0	3.9071236538511585	2.0	0.0	3.0	8.0	3.0	5.0	0.0	part_3
7	0.0	1.0	136.0	4.0	0.0	1.0	0.0	204.0	34.0	136.0	68.0	102.0	170.0	7.0	0.0	4.81719520047227	3.0	0.0	2.0	6.0	2.0	4.0	0.0	part_3
8	0.0	1.0	117.0	3.0	0.0	1.0	1.0	39.0	195.0	234.0	78.0	117.0	156.0	7.0	0.0	4.279221423706986	5.0	0.0	3.0	2.0	7.0	8.0	0.0	part_3
9	0.0	1.0	176.0	4.0	0.0	1.0	1.0	132.0	176.0	88.0	264.0	220.0	44.0	7.0	0.0	2.921960359557488	2.0	0.0	1.0	1.0	5.0	2.0	0.0	part_3
10	0.0	1.0	234.0	6.0	0.0	1.0	0.0	39.0	78.0	156.0	195.0	234.0	117.0	7.0	0.0	2.7527395740889915	5.0	0.0	4.0	3.0	4.0	3.0	0.0	part_3
11	0.0	1.0	132.0	3.0	0.0	1.0	1.0	132.0	44.0	264.0	88.0	176.0	220.0	7.0	0.0	2.25966572355901	1.0	0.0	3.0	2.0	7.0	8.0	0.0	part_3
12	0.0	1.0	196.0	4.0	0.0	1.0	0.0	98.0	294.0	49.0	245.0	147.0	196.0	7.0	0.0	3.3288493444706546	6.0	0.0	1.0	4.0	1.0	1.0	0.0	part_3
13	0.0	1.0	147.0	3.0	0.0	2.0	1.0	98.0	294.0	49.0	196.0	147.0	245.0	7.0	0.0	0.7292554389405268	5.0	0.0	1.0	1.0	5.0	2.0	0.0	part_3
14	0.0	1.0	156.0	4.0	0.0	1.0	0.0	117.0	156.0	78.0	234.0	39.0	195.0	7.0	0.0	1.9563383507065737	2.0	0.0	1.0	4.0	1.0	1.0	0.0	part_3
15	0.0	1.0	294.0	6.0	0.0	1.0	1.0	49.0	196.0	245.0	98.0	294.0	147.0	7.0	0.0	2.486724081940338	5.0	0.0	2.0	7.0	6.0	7.0	0.0	part_3
16	0.0	1.0	102.0	3.0	0.0	1.0	1.0	204.0	102.0	170.0	34.0	136.0	68.0	7.0	0.0	1.6313741419999133	2.0	0.0	2.0	7.0	6.0	7.0	0.0	part_3
17	0.0	1.0	176.0	4.0	0.0	1.0	1.0	88.0	176.0	44.0	132.0	220.0	264.0	7.0	0.0	2.937976220233395	2.0	0.0	1.0	1.0	5.0	2.0	0.0	part_3
18	0.0	1.0	68.0	2.0	0.0	1.0	1.0	204.0	102.0	136.0	170.0	34.0	68.0	7.0	0.0	1.7138250070893264	6.0	0.0	3.0	2.0	7.0	8.0	0.0	part_3
19	0.0	1.0	264.0	6.0	0.0	1.0	1.0	264.0	220.0	44.0	132.0	176.0	88.0	7.0	0.0	1.6572037885580357	1.0	0.0	4.0	5.0	8.0	6.0	0.0	part_3
20	0.0	2.0	78.0	2.0	0.0	1.0	1.0	195.0	78.0	234.0	117.0	156.0	39.0	7.0	0.0	1.8415178013237892	2.0	0.0	3.0	2.0	7.0	8.0	0.0	part_3
21	0.0	2.0	162.0	3.0	0.0	1.0	1.0	108.0	216.0	324.0	270.0	54.0	162.0	7.0	0.0	1.1776527788515523	6.0	0.0	3.0	2.0	7.0	8.0	0.0	part_3
22	0.0	2.0	88.0	2.0	0.0	1.0	1.0	176.0	44.0	220.0	132.0	88.0	264.0	7.0	0.0	1.2128165295580402	5.0	0.0	3.0	2.0	7.0	8.0	0.0	part_3
23	0.0	2.0	132.0	3.0	0.0	1.0	0.0	264.0	220.0	176.0	88.0	44.0	132.0	7.0	0.0	1.3932513082345395	6.0	0.0	1.0	4.0	1.0	1.0	0.0	part_3
24	0.0	2.0	98.0	2.0	0.0	1.0	1.0	98.0	147.0	294.0	245.0	196.0	49.0	7.0	0.0	1.9250717090890248	1.0	0.0	3.0	2.0	7.0	8.0	0.0	part_3
25	0.0	2.0	234.0	6.0	0.0	1.0	1.0	195.0	117.0	156.0	78.0	234.0	39.0	7.0	0.0	1.555061227940314	5.0	0.0	4.0	5.0	8.0	6.0	0.0	part_3
26	0.0	2.0	216.0	4.0	0.0	1.0	0.0	162.0	324.0	54.0	216.0	108.0	270.0	7.0	0.0	1.847335509088225	4.0	0.0	2.0	6.0	2.0	4.0	0.0	part_3
27	0.0	2.0	204.0	6.0	0.0	1.0	1.0	136.0	102.0	170.0	34.0	204.0	68.0	7.0	0.0	1.3202887054703751	5.0	0.0	4.0	5.0	8.0	6.0	0.0	part_3
28	0.0	2.0	162.0	3.0	0.0	1.0	0.0	216.0	54.0	270.0	324.0	162.0	108.0	7.0	0.0	1.423057653941214	5.0	0.0	4.0	3.0	4.0	3.0	0.0	part_3
29	0.0	2.0	204.0	6.0	0.0	1.0	1.0	170.0	34.0	204.0	102.0	136.0	68.0	7.0	0.0	1.8723878760883963	3.0	0.0	4.0	5.0	8.0	6.0	0.0	part_3
30	0.0	2.0	170.0	5.0	0.0	1.0	1.0	102.0	136.0	204.0	34.0	170.0	68.0	7.0	0.0	1.5153015006180794	5.0	0.0	1.0	1.0	5.0	2.0	0.0	part_3
31	0.0	2.0	136.0	4.0	0.0	1.0	0.0	68.0	136.0	34.0	170.0	102.0	204.0	7.0	0.0	1.1676483260889654	2.0	0.0	1.0	4.0	1.0	1.0	0.0	part_3
32	0.0	2.0	264.0	6.0	0.0	1.0	1.0	176.0	264.0	220.0	88.0	132.0	44.0	7.0	0.0	1.9658491619393317	2.0	0.0	4.0	5.0	8.0	6.0	0.0	part_3
33	0.0	2.0	170.0	5.0	0.0	1.0	0.0	136.0	34.0	204.0	102.0	68.0	170.0	7.0	0.0	1.5066192309404869	6.0	0.0	2.0	6.0	2.0	4.0	0.0	part_3
34	0.0	2.0	78.0	2.0	0.0	1.0	1.0	156.0	195.0	39.0	117.0	78.0	234.0	7.0	0.0	1.7667294969996874	5.0	0.0	4.0	5.0	8.0	6.0	0.0	part_3
35	0.0	2.0	147.0	3.0	0.0	1.0	0.0	245.0	49.0	196.0	147.0	98.0	294.0	7.0	0.0	2.048086709706695	4.0	0.0	4.0	3.0	4.0	3.0	0.0	part_3
36	0.0	2.0	324.0	6.0	0.0	1.0	1.0	216.0	54.0	162.0	108.0	324.0	270.0	7.0	0.0	1.3865879936183774	5.0	0.0	4.0	5.0	8.0	6.0	0.0	part_3
37	0.0	2.0	117.0	3.0	0.0	1.0	0.0	39.0	78.0	234.0	195.0	156.0	117.0	7.0	0.0	2.1180418559397367	6.0	0.0	3.0	8.0	3.0	5.0	0.0	part_3
38	0.0	2.0	195.0	5.0	0.0	1.0	1.0	234.0	39.0	78.0	156.0	195.0	117.0	7.0	0.0	1.7825474547062186	5.0	0.0	1.0	1.0	5.0	2.0	0.0	part_3
39	0.0	2.0	132.0	3.0	0.0	1.0	0.0	264.0	44.0	88.0	220.0	132.0	176.0	7.0	0.0	1.5574806038530369	5.0	0.0	4.0	3.0	4.0	3.0	0.0	part_3
40	0.0	3.0	216.0	4.0	0.0	1.0	1.0	324.0	108.0	216.0	54.0	162.0	270.0	7.0	0.0	1.2196147175582155	3.0	0.0	1.0	1.0	5.0	2.0	0.0	part_3
41	0.0	3.0	147.0	3.0	0.0	1.0	0.0	49.0	294.0	147.0	98.0	245.0	196.0	7.0	0.0	2.2106746230892895	3.0	0.0	2.0	6.0	2.0	4.0	0.0	part_3
42	0.0	3.0	117.0	3.0	0.0	1.0	1.0	195.0	234.0	39.0	117.0	156.0	78.0	7.0	0.0	1.22129975200005	4.0	0.0	2.0	7.0	6.0	7.0	0.0	part_3
43	0.0	3.0	102.0	3.0	0.0	1.0	0.0	68.0	102.0	136.0	170.0	34.0	204.0	7.0	0.0	0.850847686851921	2.0	0.0	1.0	4.0	1.0	1.0	0.0	part_3
44	0.0	3.0	88.0	2.0	0.0	1.0	0.0	220.0	264.0	44.0	176.0	132.0	88.0	7.0	0.0	0.8852629187058483	6.0	0.0	3.0	8.0	3.0	5.0	0.0	part_3
45	0.0	3.0	196.0	4.0	0.0	1.0	1.0	294.0	49.0	245.0	196.0	147.0	98.0	7.0	0.0	0.6722412387061922	4.0	0.0	2.0	7.0	6.0	7.0	0.0	part_3
46	0.0	3.0	98.0	2.0	0.0	1.0	0.0	294.0	49.0	245.0	98.0	147.0	196.0	7.0	0.0	1.877030489322351	4.0	0.0	2.0	6.0	2.0	4.0	0.0	part_3
47	0.0	3.0	216.0	4.0	0.0	1.0	0.0	324.0	270.0	54.0	108.0	162.0	216.0	7.0	0.0	1.4058008029405755	6.0	0.0	3.0	8.0	3.0	5.0	0.0	part_3
48	0.0	3.0	49.0	1.0	0.0	1.0	1.0	245.0	147.0	49.0	98.0	294.0	196.0	7.0	0.0	1.0706277472345391	3.0	0.0	3.0	2.0	7.0	8.0	0.0	part_3
49	0.0	3.0	220.0	5.0	0.0	1.0	0.0	88.0	176.0	132.0	44.0	220.0	264.0	7.0	0.0	0.9690672228534822	5.0	0.0	4.0	3.0	4.0	3.0	0.0	part_3
50	0.0	3.0	270.0	5.0	0.0	1.0	1.0	108.0	54.0	324.0	270.0	162.0	216.0	7.0	0.0	1.3542524990880338	4.0	0.0	2.0	7.0	6.0	7.0	0.0	part_3
51	0.0	3.0	264.0	6.0	0.0	1.0	0.0	132.0	88.0	44.0	176.0	220.0	264.0	7.0	0.0	1.781322618089689	6.0	0.0	3.0	8.0	3.0	5.0	0.0	part_3
52	0.0	3.0	132.0	3.0	0.0	1.0	1.0	264.0	44.0	132.0	176.0	220.0	88.0	7.0	0.0	1.3771611976171698	3.0	0.0	2.0	7.0	6.0	7.0	0.0	part_3
53	0.0	3.0	156.0	4.0	0.0	1.0	0.0	117.0	234.0	78.0	156.0	195.0	39.0	7.0	0.0	1.2770159082338068	4.0	0.0	2.0	6.0	2.0	4.0	0.0	part_3
54	0.0	3.0	162.0	3.0	0.0	1.0	0.0	108.0	216.0	270.0	54.0	162.0	324.0	7.0	0.0	0.9191255589412322	5.0	0.0	4.0	3.0	4.0	3.0	0.0	part_3
55	0.0	3.0	136.0	4.0	0.0	1.0	1.0	102.0	34.0	170.0	68.0	204.0	136.0	7.0	0.0	1.4828418879405945	6.0	0.0	1.0	1.0	5.0	2.0	0.0	part_3
56	0.0	3.0	196.0	4.0	0.0	1.0	0.0	147.0	196.0	294.0	245.0	98.0	49.0	7.0	0.0	2.0573761597061093	2.0	0.0	3.0	8.0	3.0	5.0	0.0	part_3
57	0.0	3.0	294.0	6.0	0.0	1.0	1.0	196.0	49.0	98.0	245.0	294.0	147.0	7.0	0.0	0.9774614723246486	5.0	0.0	4.0	5.0	8.0	6.0	0.0	part_3
58	0.0	3.0	132.0	3.0	0.0	1.0	0.0	176.0	132.0	88.0	220.0	264.0	44.0	7.0	0.0	1.8130278864719003	2.0	0.0	1.0	4.0	1.0	1.0	0.0	part_3
59	0.0	3.0	170.0	5.0	0.0	1.0	0.0	204.0	34.0	102.0	170.0	136.0	68.0	7.0	0.0	1.2049161693521455	4.0	0.0	4.0	3.0	4.0	3.0	0.0	part_3
60	0.0	4.0	98.0	2.0	0.0	1.0	1.0	245.0	196.0	294.0	98.0	147.0	49.0	7.0	0.0	0.4190713514726667	4.0	0.0	1.0	1.0	5.0	2.0	0.0	part_3
61	0.0	4.0	294.0	6.0	0.0	1.0	1.0	196.0	147.0	245.0	294.0	49.0	98.0	7.0	0.0	0.735999946235097	4.0	0.0	4.0	5.0	8.0	6.0	0.0	part_3
62	0.0	4.0	264.0	6.0	0.0	1.0	0.0	44.0	132.0	220.0	88.0	176.0	264.0	7.0	0.0	0.4883316948526044	6.0	0.0	2.0	6.0	2.0	4.0	0.0	part_3
63	0.0	4.0	270.0	5.0	0.0	1.0	0.0	270.0	162.0	108.0	324.0	216.0	54.0	7.0	0.0	0.8724490987060562	1.0	0.0	1.0	4.0	1.0	1.0	0.0	part_3
64	0.0	4.0	162.0	3.0	0.0	1.0	1.0	108.0	216.0	162.0	54.0	324.0	270.0	7.0	0.0	1.7294427867054765	3.0	0.0	3.0	2.0	7.0	8.0	0.0	part_3
65	0.0	4.0	162.0	3.0	0.0	1.0	0.0	108.0	54.0	324.0	270.0	162.0	216.0	7.0	0.0	0.6489106622339023	5.0	0.0	3.0	8.0	3.0	5.0	0.0	part_3
66	0.0	4.0	78.0	2.0	0.0	1.0	0.0	39.0	117.0	78.0	234.0	156.0	195.0	7.0	0.0	1.068233289382988	3.0	0.0	3.0	8.0	3.0	5.0	0.0	part_3
67	0.0	4.0	39.0	1.0	0.0	1.0	0.0	78.0	156.0	117.0	234.0	195.0	39.0	7.0	0.0	0.966752282323796	6.0	0.0	1.0	4.0	1.0	1.0	0.0	part_3
68	0.0	4.0	132.0	3.0	0.0	1.0	1.0	88.0	132.0	264.0	176.0	44.0	220.0	7.0	0.0	2.115584405941263	2.0	0.0	2.0	7.0	6.0	7.0	0.0	part_3
69	0.0	4.0	117.0	3.0	0.0	1.0	1.0	78.0	195.0	156.0	234.0	39.0	117.0	7.0	0.0	1.7561437324711733	6.0	0.0	1.0	1.0	5.0	2.0	0.0	part_3
70	0.0	4.0	216.0	4.0	0.0	1.0	1.0	54.0	216.0	270.0	324.0	162.0	108.0	7.0	0.0	2.5338764659409208	2.0	0.0	1.0	1.0	5.0	2.0	0.0	part_3
71	0.0	4.0	162.0	3.0	0.0	1.0	1.0	324.0	270.0	216.0	54.0	162.0	108.0	7.0	0.0	1.285719427471122	5.0	0.0	2.0	7.0	6.0	7.0	0.0	part_3
72	0.0	4.0	195.0	5.0	0.0	1.0	1.0	78.0	117.0	39.0	156.0	234.0	195.0	7.0	0.0	1.827043838940881	6.0	0.0	2.0	7.0	6.0	7.0	0.0	part_3
73	0.0	4.0	136.0	4.0	0.0	1.0	0.0	170.0	102.0	136.0	68.0	34.0	204.0	7.0	0.0	1.6942852672345907	3.0	0.0	3.0	8.0	3.0	5.0	0.0	part_3
74	0.0	4.0	162.0	3.0	0.0	1.0	0.0	324.0	162.0	270.0	108.0	54.0	216.0	7.0	0.0	1.2112058030888875	2.0	0.0	2.0	6.0	2.0	4.0	0.0	part_3
75	0.0	4.0	324.0	6.0	0.0	1.0	1.0	54.0	108.0	162.0	216.0	324.0	270.0	7.0	0.0	1.6627428882347886	5.0	0.0	4.0	5.0	8.0	6.0	0.0	part_3
76	0.0	4.0	39.0	1.0	0.0	1.0	0.0	156.0	195.0	234.0	39.0	78.0	117.0	7.0	0.0	0.49206795423378935	4.0	0.0	2.0	6.0	2.0	4.0	0.0	part_3
77	0.0	4.0	136.0	4.0	0.0	1.0	1.0	204.0	136.0	68.0	102.0	34.0	170.0	7.0	0.0	1.4163413187052356	2.0	0.0	3.0	2.0	7.0	8.0	0.0	part_3
78	0.0	4.0	108.0	2.0	0.0	1.0	0.0	108.0	216.0	270.0	162.0	324.0	54.0	7.0	0.0	2.272324350940835	1.0	0.0	1.0	4.0	1.0	1.0	0.0	part_3
79	0.0	4.0	49.0	1.0	0.0	1.0	0.0	98.0	147.0	294.0	49.0	196.0	245.0	7.0	0.0	1.3852692870877945	4.0	0.0	3.0	8.0	3.0	5.0	0.0	part_3
