	accuracy	block	chosen_bidding_amount	chosen_bidding_level	left_SSD	num_trial_presentations	paired_with_stopping	possible_bid_1	possible_bid_2	possible_bid_3	possible_bid_4	possible_bid_5	possible_bid_6	quadrant	raw_reward_magnitude	reaction_time	response	right_SSD	stepwise_reward_magnitude	stim_color	stim_reward	stim_shape	stop_signal_trial_type	which_part
0		1.0				1.0	0.0							3.0	107.0	0.41126928202356794	3.0		2.0	1.0	2.0	2.0		part_1
1		1.0				1.0	0.0							2.0	414.0	0.39079627302362496	2.0		4.0	4.0	4.0	5.0		part_1
2		1.0				1.0	1.0							1.0	45.0	0.6042116006142351	1.0		1.0	6.0	5.0	1.0		part_1
3		1.0				1.0	1.0							4.0	0.0	0.44761196461422514	4.0		0.0	3.0	8.0	3.0		part_1
4		1.0				1.0	1.0							1.0	105.0	0.4800793256142697	1.0		2.0	2.0	6.0	4.0		part_1
5		1.0				1.0	0.0							2.0	95.0	0.4361964554093447	2.0		2.0	1.0	2.0	2.0		part_1
6		1.0				1.0	0.0							2.0	108.0	0.4255477998187871	2.0		2.0	1.0	2.0	2.0		part_1
7		1.0				1.0	1.0							1.0	208.0	0.46131744322815393	1.0		3.0	5.0	7.0	8.0		part_1
8		1.0				1.0	1.0							4.0	0.0	0.6846635110234729	4.0		0.0	6.0	5.0	1.0		part_1
9		1.0				1.0	0.0							4.0	83.0	0.6646652562046711	4.0		2.0	1.0	2.0	2.0		part_1
10		1.0				1.0	1.0							2.0	0.0	0.4737898106375269	2.0		0.0	5.0	7.0	8.0		part_1
11		1.0				1.0	1.0							2.0	0.0	0.4059400060234566	2.0		0.0	5.0	7.0	8.0		part_1
12		1.0				1.0	1.0							1.0	379.0	0.45184115043298334	1.0		4.0	3.0	8.0	3.0		part_1
13		1.0				1.0	0.0							3.0	80.0	0.4285712724329187	3.0		2.0	1.0	2.0	2.0		part_1
14		1.0				1.0	0.0							2.0	0.0	0.4539732922046369	2.0		0.0	1.0	2.0	2.0		part_1
15		1.0				1.0	1.0							4.0	108.0	0.48609338061419294	4.0		2.0	2.0	6.0	4.0		part_1
16		1.0				1.0	1.0							2.0	0.0	0.4533395426142306	2.0		0.0	3.0	8.0	3.0		part_1
17		1.0				1.0	0.0							2.0	0.0	0.5903559130233589	2.0		0.0	7.0	3.0	6.0		part_1
18		1.0				1.0	0.0							3.0	383.0	0.5005512092282061	3.0		4.0	4.0	4.0	5.0		part_1
19		1.0				1.0	1.0							1.0	409.0	0.4098734736376173	1.0		4.0	3.0	8.0	3.0		part_1
20		1.0				1.0	1.0							3.0	383.0	0.4331428802281607	3.0		4.0	3.0	8.0	3.0		part_1
21		1.0				1.0	1.0							4.0	393.0	0.47878649561425846	4.0		4.0	3.0	8.0	3.0		part_1
22		1.0				1.0	1.0							1.0	119.0	0.43603697002345143	1.0		2.0	2.0	6.0	4.0		part_1
23		1.0				1.0	1.0							1.0	211.0	0.4683361958188925	1.0		3.0	5.0	7.0	8.0		part_1
24		1.0				1.0	1.0							3.0	58.0	0.4914252062046671	3.0		1.0	6.0	5.0	1.0		part_1
25		1.0				1.0	1.0							3.0	399.0	0.43603901540927836	3.0		4.0	3.0	8.0	3.0		part_1
26		1.0				1.0	1.0							4.0	95.0	0.7513887548188904	4.0		2.0	2.0	6.0	4.0		part_1
27		1.0				1.0	0.0							2.0	415.0	0.5847517634329051	2.0		4.0	4.0	4.0	5.0		part_1
28		1.0				1.0	1.0							1.0	187.0	0.4259238940235264	1.0		3.0	5.0	7.0	8.0		part_1
29		1.0				1.0	0.0							4.0	73.0	0.4382631476141796	4.0		1.0	8.0	1.0	7.0		part_1
30		1.0				1.0	1.0							3.0	199.0	0.43964869384240046	3.0		3.0	5.0	7.0	8.0		part_1
31		1.0				1.0	0.0							4.0	399.0	0.4726654194093953	4.0		4.0	4.0	4.0	5.0		part_1
32		1.0				1.0	0.0							1.0	0.0	0.4171267212282146	1.0		0.0	4.0	4.0	5.0		part_1
33		1.0				1.0	0.0							1.0	394.0	0.5191576170234384	1.0		4.0	4.0	4.0	5.0		part_1
34		1.0				1.0	0.0							1.0	63.0	0.620236726023677	1.0		1.0	8.0	1.0	7.0		part_1
35		1.0				1.0	1.0							4.0	0.0	0.47569229840951266	4.0		0.0	3.0	8.0	3.0		part_1
36		1.0				1.0	1.0							2.0	0.0	0.4307448980234767	2.0		0.0	6.0	5.0	1.0		part_1
37		1.0				1.0	1.0							2.0	0.0	0.40852405622808874	2.0		0.0	6.0	5.0	1.0		part_1
38		1.0				1.0	0.0							3.0	379.0	0.3981608742046774	3.0		4.0	4.0	4.0	5.0		part_1
39		1.0				1.0	0.0							2.0	89.0	0.46758525040922905	2.0		2.0	1.0	2.0	2.0		part_1
40		1.0				1.0	0.0							4.0	104.0	0.500150186818928	4.0		2.0	1.0	2.0	2.0		part_1
41		1.0				1.0	1.0							4.0	27.0	0.43287822240949936	4.0		1.0	6.0	5.0	1.0		part_1
42		1.0				1.0	1.0							3.0	0.0	0.3562269038188788	3.0		0.0	5.0	7.0	8.0		part_1
43		1.0				1.0	0.0							4.0	104.0	0.4796903066376217	4.0		2.0	1.0	2.0	2.0		part_1
44		1.0				1.0	1.0							2.0	107.0	0.7064092984094259	2.0		2.0	2.0	6.0	4.0		part_1
45		1.0				1.0	0.0							4.0	58.0	0.4360103516376057	4.0		1.0	8.0	1.0	7.0		part_1
46		1.0				1.0	0.0							4.0	0.0	0.37991381461415585	4.0		0.0	8.0	1.0	7.0		part_1
47		1.0				1.0	1.0							4.0	92.0	0.5606728326540633	4.0		2.0	2.0	6.0	4.0		part_1
48		1.0				1.0	0.0							2.0	59.0	0.4374663914093162	2.0		1.0	8.0	1.0	7.0		part_1
49		1.0				1.0	1.0							3.0	389.0	0.43715131240924165	3.0		4.0	3.0	8.0	3.0		part_1
50		1.0				1.0	0.0							1.0	76.0	0.4608540354092838	1.0		2.0	1.0	2.0	2.0		part_1
51		1.0				1.0	0.0							4.0	0.0	0.38240296102344473	4.0		0.0	7.0	3.0	6.0		part_1
52		1.0				1.0	0.0							3.0	88.0	0.4279162644329517	3.0		2.0	1.0	2.0	2.0		part_1
53		1.0				1.0	0.0							1.0	185.0	0.3400215868186933	1.0		3.0	7.0	3.0	6.0		part_1
54		1.0				1.0	0.0							3.0	204.0	0.33986371561422857	3.0		3.0	7.0	3.0	6.0		part_1
55		1.0				1.0	1.0							4.0	64.0	0.474460147637501	4.0		1.0	6.0	5.0	1.0		part_1
56		1.0				1.0	1.0							1.0	63.0	0.5108357884093948	1.0		1.0	6.0	5.0	1.0		part_1
57		1.0				1.0	1.0							2.0	225.0	0.48726111863743427	2.0		3.0	5.0	7.0	8.0		part_1
58		1.0				1.0	0.0							1.0	53.0	0.6109775768188683	1.0		1.0	8.0	1.0	7.0		part_1
59		1.0				1.0	0.0							3.0	389.0	0.4200032914093299	3.0		4.0	4.0	4.0	5.0		part_1
60		1.0				1.0	1.0							3.0	193.0	0.5222245484092127	3.0		3.0	5.0	7.0	8.0		part_1
61		1.0				1.0	1.0							2.0	0.0	0.4106183088188118	2.0		0.0	3.0	8.0	3.0		part_1
62		1.0				1.0	1.0							3.0	113.0	0.805298140023524	3.0		2.0	2.0	6.0	4.0		part_1
63		1.0				1.0	0.0							1.0	83.0	0.4021508018422537	1.0		2.0	1.0	2.0	2.0		part_1
64		1.0				1.0	1.0							4.0	40.0	0.49020507740942776	4.0		1.0	6.0	5.0	1.0		part_1
65		1.0				1.0	1.0							1.0	67.0	0.46996469663758944	1.0		1.0	6.0	5.0	1.0		part_1
66		1.0				1.0	1.0							4.0	198.0	0.5374371888424321	4.0		3.0	5.0	7.0	8.0		part_1
67		1.0				1.0	1.0							3.0	0.0	0.44808519263733615	3.0		0.0	3.0	8.0	3.0		part_1
68		1.0				1.0	0.0							2.0	34.0	0.38231031761438317	2.0		1.0	8.0	1.0	7.0		part_1
69		1.0				1.0	1.0							1.0	189.0	0.5051445828187298	1.0		3.0	5.0	7.0	8.0		part_1
70		1.0				1.0	1.0							1.0	191.0	0.4609118954092537	1.0		3.0	5.0	7.0	8.0		part_1
71		1.0				1.0	0.0							4.0	201.0	0.41527030481893235	4.0		3.0	7.0	3.0	6.0		part_1
72		1.0				1.0	1.0							4.0	0.0	0.3953571916142664	4.0		0.0	2.0	6.0	4.0		part_1
73		1.0				1.0	1.0							1.0	53.0	0.294561151614289	1.0		1.0	6.0	5.0	1.0		part_1
74		1.0				1.0	1.0							2.0	383.0	0.35017770402350834	2.0		4.0	3.0	8.0	3.0		part_1
75		1.0				1.0	0.0							2.0	222.0	0.36322352984234385	2.0		3.0	7.0	3.0	6.0		part_1
76		1.0				1.0	0.0							3.0	199.0	0.48536790902358007	3.0		3.0	7.0	3.0	6.0		part_1
77		1.0				1.0	1.0							1.0	0.0	0.4310185542046838	1.0		0.0	3.0	8.0	3.0		part_1
78		1.0				1.0	1.0							4.0	48.0	0.43258805920459054	4.0		1.0	6.0	5.0	1.0		part_1
79		1.0				1.0	1.0							4.0	0.0	0.6242455754093044	4.0		0.0	2.0	6.0	4.0		part_1
80		1.0				1.0	0.0							4.0	32.0	0.43247056740938206	4.0		1.0	8.0	1.0	7.0		part_1
81		1.0				1.0	1.0							3.0	0.0	0.36500096143299743	3.0		0.0	2.0	6.0	4.0		part_1
82		1.0				1.0	0.0							1.0	419.0	0.4686042298187658	1.0		4.0	4.0	4.0	5.0		part_1
83		1.0				1.0	1.0							3.0	30.0	0.502405201818874	3.0		1.0	6.0	5.0	1.0		part_1
84		1.0				1.0	0.0							1.0	107.0	0.6478749886141486	1.0		2.0	1.0	2.0	2.0		part_1
85		1.0				1.0	0.0							3.0	422.0	0.29987191940927005	3.0		4.0	4.0	4.0	5.0		part_1
86		1.0				1.0	1.0							4.0	383.0	0.4372843304327034	4.0		4.0	3.0	8.0	3.0		part_1
87		1.0				1.0	1.0							1.0	0.0	0.5595774582047852	1.0		0.0	6.0	5.0	1.0		part_1
88		1.0				1.0	0.0							1.0	419.0	0.40258078922829554	1.0		4.0	4.0	4.0	5.0		part_1
89		1.0				1.0	0.0							1.0	0.0	0.45948915640929044	1.0		0.0	4.0	4.0	5.0		part_1
90		1.0				1.0	1.0							2.0	398.0	0.3600082302282317	2.0		4.0	3.0	8.0	3.0		part_1
91		1.0				1.0	0.0							4.0	73.0	0.5279809904093327	4.0		1.0	8.0	1.0	7.0		part_1
92		1.0				1.0	1.0							4.0	209.0	0.3720502496141762	4.0		3.0	5.0	7.0	8.0		part_1
93		1.0				1.0	1.0							3.0	34.0	0.4049484412282709	3.0		1.0	6.0	5.0	1.0		part_1
94		1.0				1.0	0.0							2.0	75.0	0.32880985681890706	2.0		1.0	8.0	1.0	7.0		part_1
95		1.0				1.0	0.0							4.0	409.0	0.3501942142045209	4.0		4.0	4.0	4.0	5.0		part_1
96		1.0				1.0	1.0							1.0	0.0	0.5321205708189609	1.0		0.0	3.0	8.0	3.0		part_1
97		1.0				1.0	0.0							3.0	389.0	0.35251126163734625	3.0		4.0	4.0	4.0	5.0		part_1
98		1.0				1.0	1.0							3.0	415.0	0.39825195740945674	3.0		4.0	3.0	8.0	3.0		part_1
99		1.0				1.0	0.0							3.0	0.0	0.3867723568423571	3.0		0.0	4.0	4.0	5.0		part_1
100		2.0				1.0	1.0							1.0	0.0	0.6618453644327928	1.0		0.0	6.0	5.0	1.0		part_1
101		2.0				1.0	0.0							1.0	0.0	0.3805230888424376	1.0		0.0	1.0	2.0	2.0		part_1
102		2.0				1.0	1.0							2.0	0.0	0.47168604084231447	2.0		0.0	5.0	7.0	8.0		part_1
103		2.0				1.0	0.0							2.0	212.0	0.3597620572281812	2.0		3.0	7.0	3.0	6.0		part_1
104		2.0				1.0	1.0							4.0	423.0	0.36063124900010735	4.0		4.0	3.0	8.0	3.0		part_1
105		2.0				1.0	0.0							1.0	0.0	0.33902359281887584	1.0		0.0	7.0	3.0	6.0		part_1
106		2.0				1.0	0.0							1.0	94.0	0.6311303678189688	1.0		2.0	1.0	2.0	2.0		part_1
107		2.0				1.0	0.0							2.0	0.0	0.3746268628187863	2.0		0.0	7.0	3.0	6.0		part_1
108		2.0				1.0	0.0							4.0	197.0	0.38476166281884616	4.0		3.0	7.0	3.0	6.0		part_1
109		2.0				1.0	0.0							3.0	49.0	0.30781640843292735	3.0		1.0	8.0	1.0	7.0		part_1
110		2.0				1.0	0.0							2.0	77.0	0.38694367140919894	2.0		2.0	1.0	2.0	2.0		part_1
111		2.0				1.0	0.0							3.0	83.0	0.3524349700235234	3.0		2.0	1.0	2.0	2.0		part_1
112		2.0				1.0	1.0							3.0	83.0	0.4212284234092749	3.0		2.0	2.0	6.0	4.0		part_1
113		2.0				1.0	0.0							4.0	74.0	0.4216156334093739	4.0		1.0	8.0	1.0	7.0		part_1
114		2.0				1.0	0.0							1.0	40.0	0.34298918340937234	1.0		1.0	8.0	1.0	7.0		part_1
115		2.0				1.0	1.0							3.0	209.0	0.47856119881885206	3.0		3.0	5.0	7.0	8.0		part_1
116		2.0				2.0	0.0							4.0	112.0	0.3910831072048495	4.0		2.0	1.0	2.0	2.0		part_1
117		2.0				1.0	1.0							2.0	40.0	0.5380195564328005	2.0		1.0	6.0	5.0	1.0		part_1
118		2.0				1.0	1.0							2.0	402.0	0.6055699720234315	2.0		4.0	3.0	8.0	3.0		part_1
119		2.0				1.0	0.0							2.0	0.0	0.48131472661407315	2.0		0.0	7.0	3.0	6.0		part_1
120		2.0				1.0	1.0							1.0	89.0	0.5834247568423052	1.0		2.0	2.0	6.0	4.0		part_1
121		2.0				1.0	0.0							2.0	116.0	0.48303681720472014	2.0		2.0	1.0	2.0	2.0		part_1
122		2.0				1.0	0.0							2.0	398.0	0.41619122122801855	2.0		4.0	4.0	4.0	5.0		part_1
123		2.0				1.0	1.0							2.0	104.0	0.36160664484236804	2.0		2.0	2.0	6.0	4.0		part_1
124		2.0				1.0	0.0							1.0	0.0	0.4516676182045103	1.0		0.0	1.0	2.0	2.0		part_1
125		2.0				1.0	1.0							2.0	207.0	0.384340455204665	2.0		3.0	5.0	7.0	8.0		part_1
126		2.0				1.0	0.0							1.0	0.0	0.5081736356141846	1.0		0.0	1.0	2.0	2.0		part_1
127		2.0				1.0	1.0							4.0	0.0	0.7113022782045846	4.0		0.0	6.0	5.0	1.0		part_1
128		2.0				1.0	1.0							2.0	106.0	0.44228384343296057	2.0		2.0	2.0	6.0	4.0		part_1
129		2.0				1.0	0.0							3.0	0.0	0.37385186699998485	3.0		0.0	4.0	4.0	5.0		part_1
130		2.0				1.0	0.0							3.0	200.0	0.5204363080235908	3.0		3.0	7.0	3.0	6.0		part_1
131		2.0				1.0	0.0							4.0	0.0	0.6239448164094483	4.0		0.0	8.0	1.0	7.0		part_1
132		2.0				1.0	1.0							3.0	100.0	0.364024075023508	3.0		2.0	2.0	6.0	4.0		part_1
133		2.0				1.0	0.0							1.0	184.0	0.3874940126142974	1.0		3.0	7.0	3.0	6.0		part_1
134		2.0				1.0	1.0							3.0	0.0	0.3310431154093294	3.0		0.0	5.0	7.0	8.0		part_1
135		2.0				1.0	0.0							4.0	91.0	0.40016084740932456	4.0		2.0	1.0	2.0	2.0		part_1
136		2.0				1.0	0.0							2.0	418.0	0.3793488708188306	2.0		4.0	4.0	4.0	5.0		part_1
137		2.0				1.0	0.0							3.0	0.0	0.33365668443275354	3.0		0.0	8.0	1.0	7.0		part_1
138		2.0				1.0	0.0							4.0	0.0	0.40199605643283576	4.0		0.0	1.0	2.0	2.0		part_1
139		2.0				1.0	0.0							1.0	225.0	0.3804251986143754	1.0		3.0	7.0	3.0	6.0		part_1
140		2.0				1.0	1.0							2.0	91.0	0.5722808286375312	2.0		2.0	2.0	6.0	4.0		part_1
141		2.0				2.0	0.0							1.0	175.0	0.640611655614066	1.0		3.0	7.0	3.0	6.0		part_1
142		2.0				1.0	0.0							4.0	190.0	0.49377990043285536	4.0		3.0	7.0	3.0	6.0		part_1
143		2.0				1.0	0.0							2.0	0.0	0.4285246322046987	2.0		0.0	1.0	2.0	2.0		part_1
144		2.0				1.0	1.0							1.0	414.0	0.4282507014092971	1.0		4.0	3.0	8.0	3.0		part_1
145		2.0				1.0	1.0							1.0	0.0	0.42916908561414857	1.0		0.0	5.0	7.0	8.0		part_1
146		2.0				1.0	1.0							2.0	51.0	0.7221000184092645	2.0		1.0	6.0	5.0	1.0		part_1
147		2.0				1.0	0.0							1.0	0.0	0.507957755614143	1.0		0.0	7.0	3.0	6.0		part_1
148		2.0				2.0	0.0							4.0	204.0	0.6672163718187676	4.0		3.0	7.0	3.0	6.0		part_1
149		2.0				1.0	0.0							2.0	402.0	0.6336723866143075	2.0		4.0	4.0	4.0	5.0		part_1
150		2.0				1.0	1.0							1.0	379.0	0.5792403704094795	1.0		4.0	3.0	8.0	3.0		part_1
151		2.0				1.0	1.0							2.0	418.0	0.6016592442281308	2.0		4.0	3.0	8.0	3.0		part_1
152		2.0				1.0	0.0							1.0	183.0	0.47845427922811723	1.0		3.0	7.0	3.0	6.0		part_1
153		2.0				1.0	1.0							2.0	392.0	0.4780662684092931	2.0		4.0	3.0	8.0	3.0		part_1
154		2.0				1.0	0.0							2.0	0.0	0.46790586122824607	2.0		0.0	4.0	4.0	5.0		part_1
155		2.0				1.0	1.0							3.0	0.0	0.4125681716375311	3.0		0.0	5.0	7.0	8.0		part_1
156		2.0				1.0	0.0							4.0	119.0	0.45762381340932734	4.0		2.0	1.0	2.0	2.0		part_1
157		2.0				1.0	1.0							3.0	0.0	0.5371445480234343	3.0		0.0	5.0	7.0	8.0		part_1
158		2.0				1.0	1.0							2.0	204.0	0.38183195302349304	2.0		3.0	5.0	7.0	8.0		part_1
159		2.0				1.0	1.0							4.0	178.0	0.47084373963753023	4.0		3.0	5.0	7.0	8.0		part_1
160		2.0				1.0	1.0							2.0	117.0	0.40374142902373933	2.0		2.0	2.0	6.0	4.0		part_1
161		2.0				1.0	1.0							3.0	73.0	0.3481573944327465	3.0		1.0	6.0	5.0	1.0		part_1
162		2.0				1.0	1.0							2.0	83.0	0.42715476663761365	2.0		2.0	2.0	6.0	4.0		part_1
163		2.0				1.0	0.0							3.0	413.0	0.41779151784248825	3.0		4.0	4.0	4.0	5.0		part_1
164		2.0				1.0	0.0							3.0	199.0	0.46139645261428086	3.0		3.0	7.0	3.0	6.0		part_1
165		2.0				1.0	0.0							1.0	28.0	0.48560074479519244	1.0		1.0	8.0	1.0	7.0		part_1
166		2.0				1.0	1.0							4.0	47.0	0.5089420594092644	4.0		1.0	6.0	5.0	1.0		part_1
167		2.0				1.0	1.0							3.0	390.0	0.4757967920234023	3.0		4.0	3.0	8.0	3.0		part_1
168		2.0				1.0	0.0							4.0	62.0	0.5309863434329145	4.0		1.0	8.0	1.0	7.0		part_1
169		2.0				1.0	1.0							2.0	413.0	0.3184086974329148	2.0		4.0	3.0	8.0	3.0		part_1
170		2.0				1.0	1.0							4.0	97.0	0.5095294058189666	4.0		2.0	2.0	6.0	4.0		part_1
171		2.0				1.0	0.0							4.0	0.0	0.4674000056375007	4.0		0.0	8.0	1.0	7.0		part_1
172		2.0				1.0	0.0							4.0	64.0	0.5330860780236435	4.0		1.0	8.0	1.0	7.0		part_1
173		2.0				1.0	0.0							2.0	27.0	0.36515423384230417	2.0		1.0	8.0	1.0	7.0		part_1
174		2.0				1.0	0.0							1.0	220.0	0.5363675126141061	1.0		3.0	7.0	3.0	6.0		part_1
175		2.0				1.0	0.0							2.0	182.0	0.4916069944092669	2.0		3.0	7.0	3.0	6.0		part_1
176		2.0				1.0	1.0							1.0	116.0	0.5937572964326137	1.0		2.0	2.0	6.0	4.0		part_1
177		2.0				1.0	1.0							4.0	67.0	0.41381532422838063	4.0		1.0	6.0	5.0	1.0		part_1
178		2.0				1.0	0.0							3.0	113.0	0.41276350888938396	3.0		2.0	1.0	2.0	2.0		part_1
179		2.0				1.0	1.0							4.0	88.0	0.650214014298399	4.0		2.0	2.0	6.0	4.0		part_1
180		2.0				1.0	1.0							1.0	53.0	0.49507314999982555	1.0		1.0	6.0	5.0	1.0		part_1
181		2.0				1.0	1.0							4.0	32.0	0.4604860886847746	4.0		1.0	6.0	5.0	1.0		part_1
182		2.0				1.0	0.0							3.0	0.0	0.39362865129851343	3.0		0.0	8.0	1.0	7.0		part_1
183		2.0				1.0	1.0							3.0	106.0	0.43788590320491494	3.0		2.0	2.0	6.0	4.0		part_1
184		2.0				1.0	0.0							2.0	44.0	0.5524388544095018	2.0		1.0	8.0	1.0	7.0		part_1
185		2.0				1.0	1.0							4.0	213.0	0.6421195594330129	4.0		3.0	5.0	7.0	8.0		part_1
186		2.0				1.0	0.0							1.0	92.0	0.5637607266380655	1.0		2.0	1.0	2.0	2.0		part_1
187		2.0				1.0	1.0							2.0	376.0	0.8116806302050463	2.0		4.0	3.0	8.0	3.0		part_1
188		2.0				1.0	0.0							3.0	180.0	0.39537691902341976	3.0		3.0	7.0	3.0	6.0		part_1
189		2.0				1.0	1.0							4.0	104.0	0.4643512744328291	4.0		2.0	2.0	6.0	4.0		part_1
190		2.0				1.0	0.0							1.0	380.0	0.39792296181894926	1.0		4.0	4.0	4.0	5.0		part_1
191		2.0				1.0	1.0							1.0	204.0	0.6116006088186623	1.0		3.0	5.0	7.0	8.0		part_1
192		2.0				1.0	0.0							3.0	412.0	0.5446201524091521	3.0		4.0	4.0	4.0	5.0		part_1
193		2.0				1.0	1.0							2.0	59.0	0.4783238348422856	2.0		1.0	6.0	5.0	1.0		part_1
194		2.0				1.0	1.0							2.0	215.0	0.4451508030238074	2.0		3.0	5.0	7.0	8.0		part_1
195		2.0				1.0	1.0							4.0	175.0	0.42272542163755134	4.0		3.0	5.0	7.0	8.0		part_1
196		2.0				1.0	0.0							4.0	0.0	0.5360512812285378	4.0		0.0	4.0	4.0	5.0		part_1
197		2.0				1.0	0.0							4.0	193.0	0.44722239761404126	4.0		3.0	7.0	3.0	6.0		part_1
198		2.0				1.0	1.0							3.0	78.0	0.367827146023501	3.0		2.0	2.0	6.0	4.0		part_1
199		2.0				1.0	0.0							3.0	190.0	0.4705190626377771	3.0		3.0	7.0	3.0	6.0		part_1
200		3.0				1.0	0.0							1.0	208.0	0.3697355056142442	1.0		3.0	7.0	3.0	6.0		part_1
201		3.0				1.0	1.0							1.0	112.0	0.3819822434093112	1.0		2.0	2.0	6.0	4.0		part_1
202		3.0				1.0	0.0							4.0	77.0	0.4382894970235611	4.0		2.0	1.0	2.0	2.0		part_1
203		3.0				2.0	1.0							3.0	102.0	0.4601658022047559	3.0		2.0	2.0	6.0	4.0		part_1
204		3.0				1.0	0.0							1.0	209.0	0.32634542481855533	1.0		3.0	7.0	3.0	6.0		part_1
205		3.0				1.0	0.0							2.0	198.0	0.44016875661418453	2.0		3.0	7.0	3.0	6.0		part_1
206		3.0				1.0	0.0							1.0	118.0	0.41680123120522694	1.0		2.0	1.0	2.0	2.0		part_1
207		3.0				1.0	1.0							4.0	38.0	0.4068666934090288	4.0		1.0	6.0	5.0	1.0		part_1
208		3.0				1.0	0.0							3.0	204.0	0.8796493062282025	3.0		3.0	7.0	3.0	6.0		part_1
209		3.0				1.0	1.0							1.0	190.0	0.5648272624093806	1.0		3.0	5.0	7.0	8.0		part_1
210		3.0				1.0	0.0							3.0	120.0	0.4193592796145822	3.0		2.0	1.0	2.0	2.0		part_1
211		3.0				1.0	0.0							1.0	390.0	0.38569053022865774	1.0		4.0	4.0	4.0	5.0		part_1
212		3.0				1.0	0.0							2.0	423.0	0.46583689343287915	2.0		4.0	4.0	4.0	5.0		part_1
213		3.0				1.0	1.0							1.0	77.0	0.45435435643275923	1.0		2.0	2.0	6.0	4.0		part_1
214		3.0				1.0	0.0							3.0	113.0	0.6121409866141221	3.0		2.0	1.0	2.0	2.0		part_1
215		3.0				1.0	0.0							1.0	78.0	0.3900213068186531	1.0		2.0	1.0	2.0	2.0		part_1
216		3.0				1.0	0.0							3.0	51.0	0.3430250912047086	3.0		1.0	8.0	1.0	7.0		part_1
217		3.0				1.0	0.0							2.0	0.0	0.3444873864091278	2.0		0.0	8.0	1.0	7.0		part_1
218		3.0				1.0	0.0							3.0	0.0	0.43620912840924575	3.0		0.0	1.0	2.0	2.0		part_1
219		3.0				1.0	1.0							3.0	0.0	0.5479392836141415	3.0		0.0	2.0	6.0	4.0		part_1
220		3.0				1.0	0.0							3.0	211.0	0.40162588640941976	3.0		3.0	7.0	3.0	6.0		part_1
221		3.0				1.0	0.0							2.0	198.0	0.35782150061459106	2.0		3.0	7.0	3.0	6.0		part_1
222		3.0				2.0	1.0							4.0	380.0	0.6859210866141439	4.0		4.0	3.0	8.0	3.0		part_1
223		3.0				1.0	1.0							3.0	399.0	0.3698905506139454	3.0		4.0	3.0	8.0	3.0		part_1
224		3.0				1.0	1.0							3.0	73.0	0.4951126110236146	3.0		1.0	6.0	5.0	1.0		part_1
225		3.0				1.0	0.0							4.0	383.0	0.5070699804327887	4.0		4.0	4.0	4.0	5.0		part_1
226		3.0				2.0	1.0							2.0	64.0	0.44029489422837287	2.0		1.0	6.0	5.0	1.0		part_1
227		3.0				1.0	1.0							4.0	83.0	0.36164425020524504	4.0		2.0	2.0	6.0	4.0		part_1
228		3.0				1.0	0.0							2.0	191.0	0.34195301440922776	2.0		3.0	7.0	3.0	6.0		part_1
229		3.0				1.0	0.0							4.0	0.0	0.499956069023483	4.0		0.0	8.0	1.0	7.0		part_1
230		3.0				1.0	0.0							3.0	400.0	0.35252434040967273	3.0		4.0	4.0	4.0	5.0		part_1
231		3.0				1.0	0.0							4.0	215.0	0.4990868392283119	4.0		3.0	7.0	3.0	6.0		part_1
232		3.0				1.0	0.0							3.0	0.0	0.5220240814328463	3.0		0.0	4.0	4.0	5.0		part_1
233		3.0				1.0	1.0							4.0	204.0	0.36665432440941004	4.0		3.0	5.0	7.0	8.0		part_1
234		3.0				1.0	0.0							3.0	53.0	0.3222350936375733	3.0		1.0	8.0	1.0	7.0		part_1
235		3.0				1.0	1.0							2.0	95.0	0.48015278940920325	2.0		2.0	2.0	6.0	4.0		part_1
236		3.0				1.0	1.0							3.0	389.0	0.37754965284239006	3.0		4.0	3.0	8.0	3.0		part_1
237		3.0				1.0	1.0							3.0	80.0	0.42385429261412355	3.0		2.0	2.0	6.0	4.0		part_1
238		3.0				1.0	1.0							2.0	76.0	0.3473294220234493	2.0		2.0	2.0	6.0	4.0		part_1
239		3.0				1.0	1.0							1.0	413.0	0.4045069158187289	1.0		4.0	3.0	8.0	3.0		part_1
240		3.0				1.0	1.0							2.0	422.0	0.4367382340237782	2.0		4.0	3.0	8.0	3.0		part_1
241		3.0				1.0	0.0							4.0	408.0	0.3922811782285862	4.0		4.0	4.0	4.0	5.0		part_1
242		3.0				1.0	1.0							2.0	392.0	0.46032674720481737	2.0		4.0	3.0	8.0	3.0		part_1
243		3.0				1.0	1.0							3.0	39.0	0.35988476902321054	3.0		1.0	6.0	5.0	1.0		part_1
244		3.0				1.0	1.0							2.0	0.0	0.4388245902282506	2.0		0.0	2.0	6.0	4.0		part_1
245		3.0				1.0	1.0							4.0	0.0	0.45030309861431306	4.0		0.0	2.0	6.0	4.0		part_1
246		3.0				1.0	1.0							4.0	419.0	0.349716931614239	4.0		4.0	3.0	8.0	3.0		part_1
247		3.0				1.0	0.0							3.0	51.0	0.4850206670234911	3.0		1.0	8.0	1.0	7.0		part_1
248		3.0				1.0	0.0							2.0	215.0	0.3404068876375277	2.0		3.0	7.0	3.0	6.0		part_1
249		3.0				1.0	0.0							1.0	67.0	0.4323715078421628	1.0		1.0	8.0	1.0	7.0		part_1
250		3.0				1.0	0.0							2.0	106.0	0.35383112881891066	2.0		2.0	1.0	2.0	2.0		part_1
251		3.0				1.0	1.0							1.0	0.0	0.43204872822843754	1.0		0.0	2.0	6.0	4.0		part_1
252		3.0				1.0	1.0							4.0	40.0	0.4766388908424233	4.0		1.0	6.0	5.0	1.0		part_1
253		3.0				1.0	0.0							4.0	40.0	0.3995800566140133	4.0		1.0	8.0	1.0	7.0		part_1
254		3.0				1.0	0.0							1.0	386.0	0.8060978834096204	1.0		4.0	4.0	4.0	5.0		part_1
255		3.0				1.0	1.0							2.0	222.0	0.4117852850235977	2.0		3.0	5.0	7.0	8.0		part_1
256		3.0				1.0	0.0							2.0	100.0	0.5258619874089163	2.0		2.0	1.0	2.0	2.0		part_1
257		3.0				1.0	0.0							3.0	58.0	0.5142091828420234	3.0		1.0	8.0	1.0	7.0		part_1
258		3.0				1.0	1.0							2.0	377.0	0.36848530302358995	2.0		4.0	3.0	8.0	3.0		part_1
259		3.0				2.0	1.0							1.0	0.0	0.42687529602335417	1.0		0.0	6.0	5.0	1.0		part_1
260		3.0				1.0	1.0							1.0	412.0	0.5059240298419354	1.0		4.0	3.0	8.0	3.0		part_1
261		3.0				1.0	1.0							1.0	51.0	0.42624075422827445	1.0		1.0	6.0	5.0	1.0		part_1
262		3.0				1.0	1.0							2.0	61.0	0.4283603654325816	2.0		1.0	6.0	5.0	1.0		part_1
263		3.0				1.0	1.0							4.0	403.0	0.3603451364092507	4.0		4.0	3.0	8.0	3.0		part_1
264		3.0				1.0	1.0							1.0	400.0	0.38441945559043234	1.0		4.0	3.0	8.0	3.0		part_1
265		3.0				1.0	1.0							4.0	221.0	0.37252207784240454	4.0		3.0	5.0	7.0	8.0		part_1
266		3.0				1.0	1.0							3.0	34.0	0.5638384579997364	3.0		1.0	6.0	5.0	1.0		part_1
267		3.0				1.0	0.0							4.0	194.0	0.35199602102329663	4.0		3.0	7.0	3.0	6.0		part_1
268		3.0				1.0	0.0							4.0	61.0	0.34057578820466006	4.0		1.0	8.0	1.0	7.0		part_1
269		3.0				1.0	0.0							1.0	106.0	0.38743959063776856	1.0		2.0	1.0	2.0	2.0		part_1
270		3.0				1.0	1.0							1.0	422.0	0.42181743181845377	1.0		4.0	3.0	8.0	3.0		part_1
271		3.0				1.0	0.0							3.0	209.0	0.40933220002352755	3.0		3.0	7.0	3.0	6.0		part_1
272		3.0				1.0	0.0							2.0	413.0	0.4676072500233204	2.0		4.0	4.0	4.0	5.0		part_1
273		3.0				1.0	1.0							3.0	200.0	0.4893284992281224	3.0		3.0	5.0	7.0	8.0		part_1
274		3.0				1.0	0.0							2.0	394.0	0.42178097143278137	2.0		4.0	4.0	4.0	5.0		part_1
275		3.0				1.0	1.0							1.0	44.0	0.5585254106140383	1.0		1.0	6.0	5.0	1.0		part_1
276		3.0				1.0	0.0							1.0	212.0	0.9527303360232509	1.0		3.0	7.0	3.0	6.0		part_1
277		3.0				1.0	0.0							2.0	97.0	0.39195464063777763	2.0		2.0	1.0	2.0	2.0		part_1
278		3.0				1.0	1.0							3.0	184.0	0.3573642984329126	3.0		3.0	5.0	7.0	8.0		part_1
279		3.0				1.0	1.0							1.0	48.0	0.35767542400026286	1.0		1.0	6.0	5.0	1.0		part_1
280		3.0				1.0	0.0							4.0	189.0	0.3697118634090657	4.0		3.0	7.0	3.0	6.0		part_1
281		3.0				1.0	1.0							3.0	184.0	0.4274406296140114	3.0		3.0	5.0	7.0	8.0		part_1
282		3.0				1.0	1.0							4.0	419.0	0.3605548596378867	4.0		4.0	3.0	8.0	3.0		part_1
283		3.0				1.0	0.0							1.0	34.0	0.35988853461412873	1.0		1.0	8.0	1.0	7.0		part_1
284		3.0				1.0	1.0							2.0	39.0	0.4609222660233172	2.0		1.0	6.0	5.0	1.0		part_1
285		3.0				1.0	0.0							2.0	30.0	0.49676376222851104	2.0		1.0	8.0	1.0	7.0		part_1
286		3.0				1.0	0.0							4.0	383.0	0.34923293820520485	4.0		4.0	4.0	4.0	5.0		part_1
287		3.0				1.0	1.0							4.0	183.0	0.5077706686142847	4.0		3.0	5.0	7.0	8.0		part_1
288		3.0				1.0	0.0							2.0	38.0	0.5204496854094032	2.0		1.0	8.0	1.0	7.0		part_1
289		3.0				1.0	1.0							4.0	0.0	0.39787621143295837	4.0		0.0	3.0	8.0	3.0		part_1
290		3.0				1.0	0.0							2.0	217.0	0.4869223208188487	2.0		3.0	7.0	3.0	6.0		part_1
291		3.0				1.0	1.0							1.0	106.0	0.487680139638087	1.0		2.0	2.0	6.0	4.0		part_1
292		3.0				1.0	1.0							2.0	217.0	0.4320516284092264	2.0		3.0	5.0	7.0	8.0		part_1
293		3.0				1.0	0.0							4.0	403.0	0.44372050584252065	4.0		4.0	4.0	4.0	5.0		part_1
294		3.0				1.0	1.0							2.0	0.0	0.3547271680236008	2.0		0.0	6.0	5.0	1.0		part_1
295		3.0				1.0	1.0							3.0	94.0	0.3785978018422611	3.0		2.0	2.0	6.0	4.0		part_1
296		3.0				1.0	1.0							3.0	418.0	0.4342669256143381	3.0		4.0	3.0	8.0	3.0		part_1
297		3.0				1.0	1.0							2.0	190.0	0.3563782146379708	2.0		3.0	5.0	7.0	8.0		part_1
298		3.0				1.0	0.0							3.0	0.0	0.3340756352044991	3.0		0.0	8.0	1.0	7.0		part_1
299		3.0				1.0	1.0							2.0	61.0	0.36890428240894835	2.0		1.0	6.0	5.0	1.0		part_1
300		4.0				1.0	0.0							2.0	0.0	0.37582284602376603	2.0		0.0	7.0	3.0	6.0		part_1
301		4.0				1.0	0.0							4.0	207.0	0.34365204402365634	4.0		3.0	7.0	3.0	6.0		part_1
302		4.0				1.0	0.0							4.0	408.0	0.3992865508421346	4.0		4.0	4.0	4.0	5.0		part_1
303		4.0				1.0	1.0							2.0	74.0	0.37869686361455024	2.0		1.0	6.0	5.0	1.0		part_1
304		4.0				1.0	1.0							2.0	215.0	0.3794900002048962	2.0		3.0	5.0	7.0	8.0		part_1
305		4.0				1.0	1.0							3.0	182.0	0.3580848222050008	3.0		3.0	5.0	7.0	8.0		part_1
306		4.0				1.0	1.0							4.0	212.0	0.356840069023292	4.0		3.0	5.0	7.0	8.0		part_1
307		4.0				1.0	1.0							2.0	0.0	0.4372803888418275	2.0		0.0	6.0	5.0	1.0		part_1
308		4.0				1.0	1.0							1.0	199.0	0.38189046502338897	1.0		3.0	5.0	7.0	8.0		part_1
309		4.0				1.0	0.0							1.0	398.0	0.3828443426141348	1.0		4.0	4.0	4.0	5.0		part_1
310		4.0				1.0	1.0							4.0	103.0	0.4257756898186926	4.0		2.0	2.0	6.0	4.0		part_1
311		4.0				1.0	0.0							1.0	102.0	0.47204372143278306	1.0		2.0	1.0	2.0	2.0		part_1
312		4.0				1.0	0.0							2.0	392.0	0.3841167884093011	2.0		4.0	4.0	4.0	5.0		part_1
313		4.0				1.0	0.0							3.0	393.0	0.3166837582284643	3.0		4.0	4.0	4.0	5.0		part_1
314		4.0				1.0	0.0							3.0	48.0	0.3940214022281907	3.0		1.0	8.0	1.0	7.0		part_1
315		4.0				1.0	1.0							3.0	212.0	0.3837172170233316	3.0		3.0	5.0	7.0	8.0		part_1
316		4.0				1.0	0.0							4.0	87.0	0.4306450822050465	4.0		2.0	1.0	2.0	2.0		part_1
317		4.0				1.0	1.0							4.0	408.0	0.4193577774331061	4.0		4.0	3.0	8.0	3.0		part_1
318		4.0				1.0	0.0							1.0	0.0	0.3970308496141115	1.0		0.0	1.0	2.0	2.0		part_1
319		4.0				1.0	0.0							2.0	122.0	0.43145893440896543	2.0		2.0	1.0	2.0	2.0		part_1
320		4.0				1.0	0.0							4.0	422.0	0.47731923440915125	4.0		4.0	4.0	4.0	5.0		part_1
321		4.0				1.0	1.0							1.0	0.0	0.3652100054091534	1.0		0.0	5.0	7.0	8.0		part_1
322		4.0				1.0	1.0							1.0	107.0	0.3428397782049615	1.0		2.0	2.0	6.0	4.0		part_1
323		4.0				1.0	0.0							3.0	64.0	0.3766028230234042	3.0		1.0	8.0	1.0	7.0		part_1
324		4.0				1.0	1.0							3.0	0.0	0.42273516443310655	3.0		0.0	2.0	6.0	4.0		part_1
325		4.0				1.0	1.0							4.0	92.0	0.45786830122870015	4.0		2.0	2.0	6.0	4.0		part_1
326		4.0				1.0	0.0							1.0	61.0	0.3113724556142188	1.0		1.0	8.0	1.0	7.0		part_1
327		4.0				1.0	0.0							2.0	48.0	0.39084014522859434	2.0		1.0	8.0	1.0	7.0		part_1
328		4.0				1.0	0.0							2.0	213.0	0.346426728818642	2.0		3.0	7.0	3.0	6.0		part_1
329		4.0				1.0	1.0							1.0	201.0	0.5058078186375496	1.0		3.0	5.0	7.0	8.0		part_1
330		4.0				1.0	0.0							2.0	0.0	0.3590699604092151	2.0		0.0	4.0	4.0	5.0		part_1
331		4.0				1.0	0.0							1.0	0.0	0.4938984050236286	1.0		0.0	1.0	2.0	2.0		part_1
332		4.0				1.0	1.0							2.0	62.0	0.4388377824325289	2.0		1.0	6.0	5.0	1.0		part_1
333		4.0				1.0	1.0							3.0	28.0	0.336955544614284	3.0		1.0	6.0	5.0	1.0		part_1
334		4.0				1.0	0.0							2.0	418.0	0.31553775420479724	2.0		4.0	4.0	4.0	5.0		part_1
335		4.0				1.0	0.0							4.0	377.0	0.3391740384327022	4.0		4.0	4.0	4.0	5.0		part_1
336		4.0				1.0	1.0							3.0	398.0	0.33956284202349707	3.0		4.0	3.0	8.0	3.0		part_1
337		4.0				1.0	1.0							3.0	27.0	0.40723737840926333	3.0		1.0	6.0	5.0	1.0		part_1
338		4.0				1.0	1.0							3.0	194.0	0.40701853940936417	3.0		3.0	5.0	7.0	8.0		part_1
339		4.0				1.0	0.0							3.0	95.0	0.3631940832046894	3.0		2.0	1.0	2.0	2.0		part_1
340		4.0				1.0	0.0							3.0	92.0	0.3974810859999707	3.0		2.0	1.0	2.0	2.0		part_1
341		4.0				1.0	1.0							1.0	185.0	0.4666168479998305	1.0		3.0	5.0	7.0	8.0		part_1
342		4.0				1.0	0.0							4.0	119.0	0.36442954102312797	4.0		2.0	1.0	2.0	2.0		part_1
343		4.0				1.0	0.0							3.0	106.0	0.3772656626379103	3.0		2.0	1.0	2.0	2.0		part_1
344		4.0				1.0	0.0							2.0	117.0	0.40171359340911295	2.0		2.0	1.0	2.0	2.0		part_1
345		4.0				1.0	1.0							3.0	118.0	0.3209652302284667	3.0		2.0	2.0	6.0	4.0		part_1
346		4.0				1.0	0.0							4.0	27.0	0.3217105720232212	4.0		1.0	8.0	1.0	7.0		part_1
347		4.0				1.0	0.0							1.0	32.0	0.3129726130232484	1.0		1.0	8.0	1.0	7.0		part_1
348		4.0				1.0	0.0							3.0	67.0	0.45955685861417805	3.0		1.0	8.0	1.0	7.0		part_1
349		4.0				1.0	1.0							1.0	0.0	0.4031029254092573	1.0		0.0	5.0	7.0	8.0		part_1
350		4.0				1.0	1.0							4.0	198.0	0.3937118648186697	4.0		3.0	5.0	7.0	8.0		part_1
351		4.0				1.0	1.0							1.0	113.0	0.39358118661448316	1.0		2.0	2.0	6.0	4.0		part_1
352		4.0				1.0	0.0							1.0	379.0	0.3946971998184381	1.0		4.0	4.0	4.0	5.0		part_1
353		4.0				1.0	1.0							1.0	120.0	0.3952020298188472	1.0		2.0	2.0	6.0	4.0		part_1
354		4.0				1.0	0.0							3.0	184.0	0.3373085649996028	3.0		3.0	7.0	3.0	6.0		part_1
355		4.0				1.0	1.0							2.0	122.0	0.45258505243282343	2.0		2.0	2.0	6.0	4.0		part_1
356		4.0				1.0	0.0							4.0	0.0	0.36140599681857566	4.0		0.0	7.0	3.0	6.0		part_1
357		4.0				1.0	0.0							1.0	0.0	0.5200414800237922	1.0		0.0	4.0	4.0	5.0		part_1
358		4.0				1.0	1.0							4.0	0.0	0.3619641650234371	4.0		0.0	3.0	8.0	3.0		part_1
359		4.0				1.0	1.0							3.0	87.0	0.36250861302323756	3.0		2.0	2.0	6.0	4.0		part_1
360		4.0				1.0	1.0							3.0	49.0	0.4530340192050062	3.0		1.0	6.0	5.0	1.0		part_1
361		4.0				1.0	0.0							1.0	402.0	0.3650774724092116	1.0		4.0	4.0	4.0	5.0		part_1
362		4.0				1.0	1.0							2.0	0.0	0.43242487540919683	2.0		0.0	6.0	5.0	1.0		part_1
363		4.0				1.0	0.0							4.0	187.0	0.3776861030237342	4.0		3.0	7.0	3.0	6.0		part_1
364		4.0				1.0	1.0							4.0	75.0	0.48970570520486945	4.0		1.0	6.0	5.0	1.0		part_1
365		4.0				1.0	0.0							1.0	376.0	0.399947898204573	1.0		4.0	4.0	4.0	5.0		part_1
366		4.0				1.0	1.0							1.0	394.0	0.3236746292045609	1.0		4.0	3.0	8.0	3.0		part_1
367		4.0				1.0	1.0							4.0	0.0	0.4906650498187446	4.0		0.0	2.0	6.0	4.0		part_1
368		4.0				1.0	1.0							3.0	402.0	0.38036657779503	3.0		4.0	3.0	8.0	3.0		part_1
369		4.0				1.0	0.0							3.0	67.0	0.3682874972046193	3.0		1.0	8.0	1.0	7.0		part_1
370		4.0				1.0	1.0							4.0	386.0	0.6723976522052908	4.0		4.0	3.0	8.0	3.0		part_1
371		4.0				1.0	1.0							1.0	58.0	0.3036601060234716	1.0		1.0	6.0	5.0	1.0		part_1
372		4.0				1.0	1.0							4.0	77.0	0.33657744440961324	4.0		2.0	2.0	6.0	4.0		part_1
373		4.0				1.0	1.0							2.0	119.0	0.3595521930237737	2.0		2.0	2.0	6.0	4.0		part_1
374		4.0				1.0	0.0							4.0	0.0	0.384060533614047	4.0		0.0	8.0	1.0	7.0		part_1
375		4.0				1.0	0.0							2.0	178.0	0.4848356816141859	2.0		3.0	7.0	3.0	6.0		part_1
376		4.0				1.0	0.0							3.0	0.0	0.38468137481868325	3.0		0.0	1.0	2.0	2.0		part_1
377		4.0				1.0	0.0							1.0	105.0	0.30556251720508953	1.0		2.0	1.0	2.0	2.0		part_1
378		4.0				1.0	0.0							3.0	392.0	0.3616140956141862	3.0		4.0	4.0	4.0	5.0		part_1
379		4.0				1.0	0.0							4.0	399.0	0.35137345861403446	4.0		4.0	4.0	4.0	5.0		part_1
380		4.0				1.0	0.0							3.0	0.0	0.3412579610235298	3.0		0.0	4.0	4.0	5.0		part_1
381		4.0				1.0	1.0							3.0	220.0	0.3743944078187269	3.0		3.0	5.0	7.0	8.0		part_1
382		4.0				1.0	1.0							3.0	0.0	0.43287035381854366	3.0		0.0	3.0	8.0	3.0		part_1
383		4.0				1.0	0.0							3.0	0.0	0.4667516616141256	3.0		0.0	7.0	3.0	6.0		part_1
384		4.0				1.0	0.0							2.0	39.0	0.3996787580235832	2.0		1.0	8.0	1.0	7.0		part_1
385		4.0				1.0	1.0							2.0	180.0	0.43509807581858695	2.0		3.0	5.0	7.0	8.0		part_1
386		4.0				1.0	0.0							3.0	0.0	0.3787790094329466	3.0		0.0	7.0	3.0	6.0		part_1
387		4.0				1.0	1.0							1.0	408.0	0.33353990784235066	1.0		4.0	3.0	8.0	3.0		part_1
388		4.0				1.0	0.0							1.0	39.0	0.4010979012282405	1.0		1.0	8.0	1.0	7.0		part_1
389		4.0				1.0	1.0							2.0	197.0	0.4810348056143994	2.0		3.0	5.0	7.0	8.0		part_1
390		4.0				1.0	0.0							4.0	0.0	0.37930856799994217	4.0		0.0	8.0	1.0	7.0		part_1
391		4.0				1.0	1.0							1.0	0.0	0.3695928646138782	1.0		0.0	2.0	6.0	4.0		part_1
392		4.0				1.0	1.0							1.0	32.0	0.3715260904095885	1.0		1.0	6.0	5.0	1.0		part_1
393		4.0				1.0	0.0							1.0	221.0	0.38277741263800635	1.0		3.0	7.0	3.0	6.0		part_1
394		4.0				1.0	1.0							2.0	67.0	0.3143500870232856	2.0		1.0	6.0	5.0	1.0		part_1
395		4.0				1.0	1.0							4.0	394.0	0.3382895078184447	4.0		4.0	3.0	8.0	3.0		part_1
396		4.0				1.0	0.0							2.0	40.0	0.37332525322835863	2.0		1.0	8.0	1.0	7.0		part_1
397		4.0				1.0	0.0							3.0	45.0	0.5520654170236412	3.0		1.0	8.0	1.0	7.0		part_1
398		4.0				2.0	0.0							4.0	103.0	0.44090811902378846	4.0		2.0	1.0	2.0	2.0		part_1
399		4.0				1.0	0.0							1.0	47.0	0.39790038902356173	1.0		1.0	8.0	1.0	7.0		part_1
0	4.0	1.0			250.0	0.0	1.0							6.0	0.0	0.0	0.0	250.0	3.0	5.0	7.0	8.0	1.0	part_2
1	3.0	1.0			250.0	0.0	1.0							5.0	0.0	0.3365978199190067	5.0	300.0	2.0	2.0	6.0	4.0	1.0	part_2
2	1.0	1.0			200.0	0.0	0.0							5.0	0.0	0.360403411000334	5.0	300.0	2.0	1.0	2.0	2.0	0.0	part_2
3	1.0	1.0			200.0	0.0	1.0							6.0	0.0	0.2931112880401088	6.0	300.0	3.0	5.0	7.0	8.0	0.0	part_2
4	1.0	1.0			200.0	0.0	0.0							5.0	0.0	0.3737293259191574	5.0	300.0	1.0	8.0	1.0	7.0	0.0	part_2
5	1.0	1.0			200.0	0.0	0.0							6.0	0.0	0.32896475100005773	6.0	300.0	1.0	8.0	1.0	7.0	0.0	part_2
6	1.0	1.0			200.0	0.0	0.0							6.0	0.0	0.7234228677575629	6.0	300.0	4.0	4.0	4.0	5.0	0.0	part_2
7	3.0	1.0			200.0	0.0	1.0							6.0	0.0	0.32113927195950964	6.0	300.0	4.0	3.0	8.0	3.0	1.0	part_2
8	3.0	1.0			200.0	0.0	1.0							6.0	0.0	0.6695734337986323	6.0	250.0	1.0	6.0	5.0	1.0	1.0	part_2
9	1.0	1.0			200.0	0.0	0.0							6.0	0.0	0.6250169309191733	6.0	200.0	1.0	8.0	1.0	7.0	0.0	part_2
10	1.0	1.0			200.0	0.0	0.0							6.0	0.0	0.6931940199192468	6.0	200.0	4.0	4.0	4.0	5.0	0.0	part_2
11	1.0	1.0			200.0	0.0	1.0							6.0	0.0	0.4464687097984097	6.0	200.0	4.0	3.0	8.0	3.0	0.0	part_2
12	1.0	1.0			200.0	0.0	1.0							6.0	0.0	0.6955077197981154	6.0	200.0	4.0	3.0	8.0	3.0	0.0	part_2
13	1.0	1.0			200.0	0.0	0.0							5.0	0.0	0.4496517757579568	5.0	200.0	4.0	4.0	4.0	5.0	0.0	part_2
14	1.0	1.0			200.0	0.0	0.0							6.0	0.0	0.42636733983908925	6.0	200.0	3.0	7.0	3.0	6.0	0.0	part_2
15	1.0	1.0			200.0	0.0	0.0							5.0	0.0	0.575025460919278	5.0	200.0	4.0	4.0	4.0	5.0	0.0	part_2
16	1.0	1.0			200.0	0.0	1.0							5.0	0.0	0.39467124495968164	5.0	200.0	4.0	3.0	8.0	3.0	0.0	part_2
17	4.0	1.0			200.0	0.0	1.0							6.0	0.0	0.0	0.0	200.0	4.0	3.0	8.0	3.0	1.0	part_2
18	1.0	1.0			200.0	0.0	0.0							6.0	0.0	0.48579472495976006	6.0	250.0	2.0	1.0	2.0	2.0	0.0	part_2
19	1.0	1.0			200.0	0.0	0.0							5.0	0.0	0.5553502016773564	5.0	250.0	2.0	1.0	2.0	2.0	0.0	part_2
20	1.0	1.0			200.0	0.0	1.0							5.0	0.0	0.4541285828790933	5.0	250.0	2.0	2.0	6.0	4.0	0.0	part_2
21	1.0	1.0			200.0	0.0	0.0							6.0	0.0	0.4337396416772208	6.0	250.0	3.0	7.0	3.0	6.0	0.0	part_2
22	4.0	1.0			200.0	0.0	1.0							6.0	0.0	0.0	0.0	250.0	1.0	6.0	5.0	1.0	1.0	part_2
23	1.0	1.0			200.0	0.0	0.0							6.0	0.0	0.5917457078389816	6.0	300.0	2.0	1.0	2.0	2.0	0.0	part_2
24	1.0	1.0			200.0	0.0	0.0							6.0	0.0	0.3782552879997638	6.0	300.0	3.0	7.0	3.0	6.0	0.0	part_2
25	1.0	1.0			200.0	0.0	0.0							5.0	0.0	0.4141917068386647	5.0	300.0	2.0	1.0	2.0	2.0	0.0	part_2
26	1.0	1.0			200.0	0.0	1.0							5.0	0.0	0.35930088787881687	5.0	300.0	3.0	5.0	7.0	8.0	0.0	part_2
27	1.0	1.0			200.0	0.0	1.0							5.0	0.0	0.4261122697175779	5.0	300.0	4.0	3.0	8.0	3.0	0.0	part_2
28	1.0	1.0			200.0	0.0	0.0							5.0	0.0	0.5514739797176844	5.0	300.0	3.0	7.0	3.0	6.0	0.0	part_2
29	1.0	1.0			200.0	0.0	0.0							6.0	0.0	0.3268461579191353	6.0	300.0	2.0	1.0	2.0	2.0	0.0	part_2
30	3.0	1.0			200.0	0.0	1.0							5.0	0.0	0.3497261206771327	5.0	300.0	3.0	5.0	7.0	8.0	1.0	part_2
31	1.0	1.0			150.0	0.0	0.0							5.0	0.0	0.5310509537580401	5.0	300.0	3.0	7.0	3.0	6.0	0.0	part_2
32	4.0	1.0			150.0	0.0	1.0							5.0	0.0	0.0	0.0	300.0	3.0	5.0	7.0	8.0	1.0	part_2
33	4.0	1.0			200.0	0.0	1.0							6.0	0.0	0.0	0.0	300.0	1.0	6.0	5.0	1.0	1.0	part_2
34	1.0	1.0			200.0	0.0	0.0							5.0	0.0	0.39894825763713015	5.0	350.0	2.0	1.0	2.0	2.0	0.0	part_2
35	3.0	1.0			200.0	0.0	1.0							6.0	0.0	0.3633633277577246	6.0	350.0	3.0	5.0	7.0	8.0	1.0	part_2
36	1.0	2.0			200.0	0.0	0.0							5.0	0.0	0.5914503937983682	5.0	300.0	2.0	1.0	2.0	2.0	0.0	part_2
37	3.0	2.0			200.0	0.0	1.0							5.0	0.0	0.3458335345967498	5.0	300.0	1.0	6.0	5.0	1.0	1.0	part_2
38	1.0	2.0			150.0	0.0	0.0							5.0	0.0	0.4689187257986305	5.0	300.0	3.0	7.0	3.0	6.0	0.0	part_2
39	4.0	2.0			150.0	0.0	1.0							6.0	0.0	0.0	0.0	300.0	3.0	5.0	7.0	8.0	1.0	part_2
40	1.0	2.0			150.0	0.0	0.0							5.0	0.0	0.3706789349189421	5.0	350.0	3.0	7.0	3.0	6.0	0.0	part_2
41	1.0	2.0			150.0	0.0	0.0							5.0	0.0	0.4826217106369768	5.0	350.0	4.0	4.0	4.0	5.0	0.0	part_2
42	1.0	2.0			150.0	0.0	1.0							6.0	0.0	0.42750370287922124	6.0	350.0	2.0	2.0	6.0	4.0	0.0	part_2
43	1.0	2.0			150.0	0.0	0.0							5.0	0.0	0.40562441800011584	5.0	350.0	4.0	4.0	4.0	5.0	0.0	part_2
44	1.0	2.0			150.0	0.0	0.0							6.0	0.0	0.33973703379842846	6.0	350.0	1.0	8.0	1.0	7.0	0.0	part_2
45	3.0	2.0			150.0	0.0	1.0							6.0	0.0	0.4746436768791682	6.0	350.0	4.0	3.0	8.0	3.0	1.0	part_2
46	1.0	2.0			150.0	0.0	0.0							5.0	0.0	0.5448643629188155	5.0	300.0	1.0	8.0	1.0	7.0	0.0	part_2
47	4.0	2.0			150.0	0.0	1.0							5.0	0.0	0.0	0.0	300.0	2.0	2.0	6.0	4.0	1.0	part_2
48	1.0	2.0			200.0	0.0	1.0							5.0	0.0	0.6252709487985157	5.0	300.0	4.0	3.0	8.0	3.0	0.0	part_2
49	3.0	2.0			200.0	0.0	1.0							5.0	0.0	0.37843697975813484	5.0	300.0	1.0	6.0	5.0	1.0	1.0	part_2
50	1.0	2.0			150.0	0.0	1.0							5.0	0.0	0.3781207388387884	5.0	300.0	1.0	6.0	5.0	1.0	0.0	part_2
51	1.0	2.0			150.0	0.0	0.0							6.0	0.0	0.4460601468790628	6.0	300.0	3.0	7.0	3.0	6.0	0.0	part_2
52	4.0	2.0			150.0	0.0	1.0							5.0	0.0	0.0	0.0	300.0	2.0	2.0	6.0	4.0	1.0	part_2
53	3.0	2.0			200.0	0.0	1.0							6.0	0.0	0.4833248987984007	6.0	300.0	1.0	6.0	5.0	1.0	1.0	part_2
54	1.0	2.0			200.0	0.0	0.0							6.0	0.0	0.5963793349596926	6.0	250.0	2.0	1.0	2.0	2.0	0.0	part_2
55	4.0	2.0			200.0	0.0	1.0							6.0	0.0	0.0	0.0	250.0	4.0	3.0	8.0	3.0	1.0	part_2
56	1.0	2.0			200.0	0.0	0.0							6.0	0.0	0.9351597288386984	6.0	300.0	1.0	8.0	1.0	7.0	0.0	part_2
57	4.0	2.0			200.0	0.0	1.0							5.0	0.0	0.0	0.0	300.0	2.0	2.0	6.0	4.0	1.0	part_2
58	4.0	2.0			250.0	0.0	1.0							5.0	0.0	0.0	0.0	300.0	3.0	5.0	7.0	8.0	1.0	part_2
59	1.0	2.0			300.0	0.0	0.0							5.0	0.0	0.3744061590000456	5.0	300.0	4.0	4.0	4.0	5.0	0.0	part_2
60	1.0	2.0			300.0	0.0	0.0							6.0	0.0	0.4542397798786624	6.0	300.0	3.0	7.0	3.0	6.0	0.0	part_2
61	1.0	2.0			300.0	0.0	1.0							6.0	0.0	0.3644270547983979	6.0	300.0	2.0	2.0	6.0	4.0	0.0	part_2
62	4.0	2.0			300.0	0.0	1.0							5.0	0.0	0.0	0.0	300.0	3.0	5.0	7.0	8.0	1.0	part_2
63	4.0	2.0			350.0	0.0	1.0							6.0	0.0	0.0	0.0	300.0	3.0	5.0	7.0	8.0	1.0	part_2
64	1.0	2.0			350.0	0.0	1.0							5.0	0.0	0.4459077377173344	5.0	350.0	1.0	6.0	5.0	1.0	0.0	part_2
65	1.0	2.0			350.0	0.0	0.0							6.0	0.0	0.3114806138387394	6.0	350.0	2.0	1.0	2.0	2.0	0.0	part_2
66	1.0	2.0			350.0	0.0	0.0							6.0	0.0	0.3351748867576134	6.0	350.0	2.0	1.0	2.0	2.0	0.0	part_2
67	3.0	2.0			350.0	0.0	1.0							5.0	0.0	0.40402111971752674	5.0	350.0	3.0	5.0	7.0	8.0	1.0	part_2
68	1.0	2.0			300.0	0.0	0.0							5.0	0.0	0.5161169620405417	5.0	350.0	1.0	8.0	1.0	7.0	0.0	part_2
69	1.0	2.0			300.0	0.0	1.0							5.0	0.0	0.37087808179876447	5.0	350.0	3.0	5.0	7.0	8.0	0.0	part_2
70	1.0	2.0			300.0	0.0	0.0							6.0	0.0	0.43957027195983756	6.0	350.0	1.0	8.0	1.0	7.0	0.0	part_2
71	3.0	2.0			300.0	0.0	1.0							6.0	0.0	0.45153304767745794	6.0	350.0	4.0	3.0	8.0	3.0	1.0	part_2
72	1.0	3.0			300.0	0.0	0.0							5.0	0.0	0.5507811737174961	5.0	300.0	2.0	1.0	2.0	2.0	0.0	part_2
73	3.0	3.0			300.0	0.0	1.0							5.0	0.0	0.43969671683862543	5.0	300.0	4.0	3.0	8.0	3.0	1.0	part_2
74	1.0	3.0			250.0	0.0	1.0							5.0	0.0	0.4076395318388677	5.0	300.0	3.0	5.0	7.0	8.0	0.0	part_2
75	3.0	3.0			250.0	0.0	1.0							5.0	0.0	0.35028713587871607	5.0	300.0	3.0	5.0	7.0	8.0	1.0	part_2
76	1.0	3.0			200.0	0.0	0.0							6.0	0.0	0.3299737987581466	6.0	300.0	1.0	8.0	1.0	7.0	0.0	part_2
77	3.0	3.0			200.0	0.0	1.0							6.0	0.0	0.3645440548384613	6.0	300.0	2.0	2.0	6.0	4.0	1.0	part_2
78	4.0	3.0			200.0	0.0	1.0							6.0	0.0	0.0	0.0	250.0	3.0	5.0	7.0	8.0	1.0	part_2
79	4.0	3.0			200.0	0.0	1.0							6.0	0.0	0.0	0.0	300.0	2.0	2.0	6.0	4.0	1.0	part_2
80	1.0	3.0			200.0	0.0	0.0							5.0	0.0	0.5797875378789286	5.0	350.0	3.0	7.0	3.0	6.0	0.0	part_2
81	1.0	3.0			200.0	0.0	1.0							6.0	0.0	0.44682663775756737	6.0	350.0	4.0	3.0	8.0	3.0	0.0	part_2
82	1.0	3.0			200.0	0.0	1.0							5.0	0.0	0.4139273428386332	5.0	350.0	3.0	5.0	7.0	8.0	0.0	part_2
83	1.0	3.0			200.0	0.0	0.0							6.0	0.0	0.3242158739999468	6.0	350.0	3.0	7.0	3.0	6.0	0.0	part_2
84	3.0	3.0			200.0	0.0	1.0							6.0	0.0	0.3243527128383903	6.0	350.0	2.0	2.0	6.0	4.0	1.0	part_2
85	4.0	3.0			200.0	0.0	1.0							5.0	0.0	0.0	0.0	300.0	3.0	5.0	7.0	8.0	1.0	part_2
86	1.0	3.0			250.0	0.0	0.0							5.0	0.0	0.5748239710001144	5.0	300.0	4.0	4.0	4.0	5.0	0.0	part_2
87	1.0	3.0			250.0	0.0	0.0							5.0	0.0	0.5190463159192404	5.0	300.0	2.0	1.0	2.0	2.0	0.0	part_2
88	3.0	3.0			250.0	0.0	1.0							5.0	0.0	0.4292309707579989	5.0	300.0	1.0	6.0	5.0	1.0	1.0	part_2
89	3.0	3.0			200.0	0.0	1.0							6.0	0.0	0.37513560200022766	6.0	300.0	2.0	2.0	6.0	4.0	1.0	part_2
90	1.0	3.0			200.0	0.0	0.0							6.0	0.0	0.5769736239190024	6.0	250.0	3.0	7.0	3.0	6.0	0.0	part_2
91	3.0	3.0			200.0	0.0	1.0							6.0	0.0	0.3749600168384859	6.0	250.0	3.0	5.0	7.0	8.0	1.0	part_2
92	4.0	3.0			200.0	0.0	1.0							5.0	0.0	0.0	0.0	200.0	4.0	3.0	8.0	3.0	1.0	part_2
93	1.0	3.0			250.0	0.0	0.0							6.0	0.0	0.5458804807176421	6.0	200.0	4.0	4.0	4.0	5.0	0.0	part_2
94	4.0	3.0			250.0	0.0	1.0							5.0	0.0	0.0	0.0	200.0	4.0	3.0	8.0	3.0	1.0	part_2
95	4.0	3.0			300.0	0.0	1.0							6.0	0.0	0.0	0.0	200.0	3.0	5.0	7.0	8.0	1.0	part_2
96	4.0	3.0			300.0	0.0	1.0							5.0	0.0	0.0	0.0	250.0	4.0	3.0	8.0	3.0	1.0	part_2
97	1.0	3.0			350.0	0.0	0.0							5.0	0.0	0.5726506627579511	5.0	250.0	2.0	1.0	2.0	2.0	0.0	part_2
98	4.0	3.0			350.0	0.0	1.0							6.0	0.0	0.0	0.0	250.0	4.0	3.0	8.0	3.0	1.0	part_2
99	1.0	3.0			350.0	0.0	0.0							6.0	0.0	0.630384852838688	6.0	300.0	4.0	4.0	4.0	5.0	0.0	part_2
100	1.0	3.0			350.0	0.0	0.0							5.0	0.0	0.5510404749193185	5.0	300.0	1.0	8.0	1.0	7.0	0.0	part_2
101	1.0	3.0			350.0	0.0	0.0							5.0	0.0	0.31558049387876963	5.0	300.0	2.0	1.0	2.0	2.0	0.0	part_2
102	1.0	3.0			350.0	0.0	0.0							6.0	0.0	0.4070993917580381	6.0	300.0	1.0	8.0	1.0	7.0	0.0	part_2
103	3.0	3.0			350.0	0.0	1.0							5.0	0.0	0.3844902139194346	5.0	300.0	3.0	5.0	7.0	8.0	1.0	part_2
104	3.0	3.0			300.0	0.0	1.0							5.0	0.0	0.45509595879821063	5.0	300.0	1.0	6.0	5.0	1.0	1.0	part_2
105	1.0	3.0			250.0	0.0	0.0							6.0	0.0	0.4550007128791549	6.0	300.0	3.0	7.0	3.0	6.0	0.0	part_2
106	1.0	3.0			250.0	0.0	0.0							6.0	0.0	0.55619071271758	6.0	300.0	2.0	1.0	2.0	2.0	0.0	part_2
107	1.0	3.0			250.0	0.0	0.0							5.0	0.0	0.5015747977581668	5.0	300.0	1.0	8.0	1.0	7.0	0.0	part_2
108	3.0	4.0			250.0	0.0	1.0							5.0	0.0	0.5513591659187114	5.0	300.0	2.0	2.0	6.0	4.0	1.0	part_2
109	4.0	4.0			200.0	0.0	1.0							5.0	0.0	0.0	0.0	300.0	1.0	6.0	5.0	1.0	1.0	part_2
110	1.0	4.0			250.0	0.0	0.0							6.0	0.0	0.5531777087176124	6.0	300.0	3.0	7.0	3.0	6.0	0.0	part_2
111	1.0	4.0			250.0	0.0	1.0							6.0	0.0	0.3294569519594006	6.0	300.0	1.0	6.0	5.0	1.0	0.0	part_2
112	1.0	4.0			250.0	0.0	0.0							6.0	0.0	0.35277985199991235	6.0	300.0	2.0	1.0	2.0	2.0	0.0	part_2
113	1.0	4.0			250.0	0.0	0.0							5.0	0.0	0.33210021595959915	5.0	300.0	3.0	7.0	3.0	6.0	0.0	part_2
114	3.0	4.0			250.0	0.0	1.0							5.0	0.0	0.3547624898387767	5.0	300.0	2.0	2.0	6.0	4.0	1.0	part_2
115	3.0	4.0			200.0	0.0	1.0							5.0	0.0	0.3217023099191465	5.0	300.0	3.0	5.0	7.0	8.0	1.0	part_2
116	1.0	4.0			150.0	0.0	1.0							6.0	0.0	0.35625927879891606	6.0	300.0	2.0	2.0	6.0	4.0	0.0	part_2
117	1.0	4.0			150.0	0.0	0.0							6.0	0.0	0.4023087867981303	6.0	300.0	1.0	8.0	1.0	7.0	0.0	part_2
118	1.0	4.0			150.0	0.0	1.0							5.0	0.0	0.4485768469598952	5.0	300.0	1.0	6.0	5.0	1.0	0.0	part_2
119	1.0	4.0			150.0	0.0	0.0							5.0	0.0	0.35817618083865455	5.0	300.0	4.0	4.0	4.0	5.0	0.0	part_2
120	1.0	4.0			150.0	0.0	0.0							5.0	0.0	0.41733458171756865	5.0	300.0	1.0	8.0	1.0	7.0	0.0	part_2
121	1.0	4.0			150.0	0.0	1.0							6.0	0.0	0.3504660536773372	6.0	300.0	3.0	5.0	7.0	8.0	0.0	part_2
122	1.0	4.0			150.0	0.0	0.0							5.0	0.0	0.33968404179859135	5.0	300.0	4.0	4.0	4.0	5.0	0.0	part_2
123	4.0	4.0			150.0	0.0	1.0							5.0	0.0	0.0	0.0	300.0	4.0	3.0	8.0	3.0	1.0	part_2
124	1.0	4.0			200.0	0.0	1.0							6.0	0.0	0.5650409367581233	6.0	300.0	3.0	5.0	7.0	8.0	0.0	part_2
125	1.0	4.0			200.0	0.0	1.0							6.0	0.0	0.41008439583902145	6.0	300.0	2.0	2.0	6.0	4.0	0.0	part_2
126	1.0	4.0			200.0	0.0	0.0							5.0	0.0	0.33179091308102215	5.0	300.0	4.0	4.0	4.0	5.0	0.0	part_2
127	1.0	4.0			200.0	0.0	1.0							6.0	0.0	0.3317691598390411	6.0	300.0	3.0	5.0	7.0	8.0	0.0	part_2
128	3.0	4.0			200.0	0.0	1.0							5.0	0.0	0.27715785963710005	5.0	300.0	4.0	3.0	8.0	3.0	1.0	part_2
129	1.0	4.0			150.0	0.0	0.0							6.0	0.0	0.3564000447986473	6.0	300.0	2.0	1.0	2.0	2.0	0.0	part_2
130	1.0	4.0			150.0	0.0	0.0							5.0	0.0	0.32302915183890946	5.0	300.0	1.0	8.0	1.0	7.0	0.0	part_2
131	4.0	4.0			150.0	0.0	1.0							5.0	0.0	0.0	0.0	300.0	1.0	6.0	5.0	1.0	1.0	part_2
132	4.0	4.0			200.0	0.0	1.0							5.0	0.0	0.0	0.0	300.0	1.0	6.0	5.0	1.0	1.0	part_2
133	3.0	4.0			250.0	0.0	1.0							6.0	0.0	0.314662353717722	6.0	300.0	3.0	5.0	7.0	8.0	1.0	part_2
134	1.0	4.0			250.0	0.0	0.0							5.0	0.0	0.4832922080404387	5.0	250.0	3.0	7.0	3.0	6.0	0.0	part_2
135	3.0	4.0			250.0	0.0	1.0							5.0	0.0	0.38451479087916596	5.0	250.0	3.0	5.0	7.0	8.0	1.0	part_2
136	4.0	4.0			200.0	0.0	1.0							5.0	0.0	0.0	0.0	250.0	2.0	2.0	6.0	4.0	1.0	part_2
137	4.0	4.0			250.0	0.0	1.0							5.0	0.0	0.0	0.0	250.0	2.0	2.0	6.0	4.0	1.0	part_2
138	1.0	4.0			300.0	0.0	0.0							6.0	0.0	0.4656733448387058	6.0	250.0	2.0	1.0	2.0	2.0	0.0	part_2
139	3.0	4.0			300.0	0.0	1.0							6.0	0.0	0.3879039608386847	6.0	250.0	1.0	6.0	5.0	1.0	1.0	part_2
140	1.0	4.0			300.0	0.0	0.0							5.0	0.0	0.534441080878878	5.0	200.0	1.0	8.0	1.0	7.0	0.0	part_2
141	1.0	4.0			300.0	0.0	1.0							6.0	0.0	0.4439225577175421	6.0	200.0	4.0	3.0	8.0	3.0	0.0	part_2
142	3.0	4.0			300.0	0.0	1.0							5.0	0.0	0.33251167895969047	5.0	200.0	2.0	2.0	6.0	4.0	1.0	part_2
143	1.0	4.0			250.0	0.0	1.0							6.0	0.0	0.35545834387903597	6.0	200.0	1.0	6.0	5.0	1.0	0.0	part_2
144	3.0	5.0			250.0	0.0	1.0							6.0	0.0	0.40644591375757955	6.0	200.0	2.0	2.0	6.0	4.0	1.0	part_2
145	4.0	5.0			250.0	0.0	1.0							6.0	0.0	0.0	0.0	150.0	2.0	2.0	6.0	4.0	1.0	part_2
146	1.0	5.0			250.0	0.0	1.0							5.0	0.0	0.3964657137175891	5.0	200.0	1.0	6.0	5.0	1.0	0.0	part_2
147	1.0	5.0			250.0	0.0	0.0							6.0	0.0	0.36453714587878494	6.0	200.0	4.0	4.0	4.0	5.0	0.0	part_2
148	3.0	5.0			250.0	0.0	1.0							6.0	0.0	0.37708143995951104	6.0	200.0	2.0	2.0	6.0	4.0	1.0	part_2
149	1.0	5.0			250.0	0.0	0.0							6.0	0.0	0.4666480289192805	6.0	150.0	2.0	1.0	2.0	2.0	0.0	part_2
150	1.0	5.0			250.0	0.0	0.0							6.0	0.0	0.4003602587986279	6.0	150.0	2.0	1.0	2.0	2.0	0.0	part_2
151	3.0	5.0			250.0	0.0	1.0							5.0	0.0	0.3464977146777528	5.0	150.0	3.0	5.0	7.0	8.0	1.0	part_2
152	4.0	5.0			200.0	0.0	1.0							5.0	0.0	0.0	0.0	150.0	2.0	2.0	6.0	4.0	1.0	part_2
153	1.0	5.0			250.0	0.0	0.0							6.0	0.0	0.4593662470001618	6.0	150.0	1.0	8.0	1.0	7.0	0.0	part_2
154	3.0	5.0			250.0	0.0	1.0							5.0	0.0	0.35827682891931545	5.0	150.0	4.0	3.0	8.0	3.0	1.0	part_2
155	1.0	5.0			200.0	0.0	0.0							5.0	0.0	0.5390830419191843	5.0	150.0	1.0	8.0	1.0	7.0	0.0	part_2
156	4.0	5.0			200.0	0.0	1.0							5.0	0.0	0.0	0.0	150.0	3.0	5.0	7.0	8.0	1.0	part_2
157	1.0	5.0			250.0	0.0	0.0							5.0	0.0	0.49644322183849	5.0	150.0	3.0	7.0	3.0	6.0	0.0	part_2
158	1.0	5.0			250.0	0.0	0.0							5.0	0.0	0.5772330230001899	5.0	150.0	1.0	8.0	1.0	7.0	0.0	part_2
159	4.0	5.0			250.0	0.0	1.0							5.0	0.0	0.0	0.0	150.0	4.0	3.0	8.0	3.0	1.0	part_2
160	1.0	5.0			300.0	0.0	0.0							5.0	0.0	0.8034654227581086	5.0	150.0	3.0	7.0	3.0	6.0	0.0	part_2
161	1.0	5.0			300.0	0.0	0.0							6.0	0.0	0.454359496838606	6.0	150.0	2.0	1.0	2.0	2.0	0.0	part_2
162	1.0	5.0			300.0	0.0	0.0							6.0	0.0	0.40972322675770556	6.0	150.0	1.0	8.0	1.0	7.0	0.0	part_2
163	4.0	5.0			300.0	0.0	1.0							6.0	0.0	0.0	0.0	150.0	3.0	5.0	7.0	8.0	1.0	part_2
164	1.0	5.0			300.0	0.0	1.0							5.0	0.0	0.603227689960022	5.0	200.0	4.0	3.0	8.0	3.0	0.0	part_2
165	3.0	5.0			300.0	0.0	1.0							5.0	0.0	0.34628560895998817	5.0	200.0	2.0	2.0	6.0	4.0	1.0	part_2
166	3.0	5.0			250.0	0.0	1.0							5.0	0.0	0.43535435487910945	5.0	200.0	1.0	6.0	5.0	1.0	1.0	part_2
167	4.0	5.0			200.0	0.0	1.0							5.0	0.0	0.0	0.0	200.0	4.0	3.0	8.0	3.0	1.0	part_2
168	1.0	5.0			250.0	0.0	1.0							5.0	0.0	0.5398947109188157	5.0	200.0	1.0	6.0	5.0	1.0	0.0	part_2
169	1.0	5.0			250.0	0.0	0.0							6.0	0.0	0.3705138129189436	6.0	200.0	4.0	4.0	4.0	5.0	0.0	part_2
170	3.0	5.0			250.0	0.0	1.0							5.0	0.0	0.3941365496771141	5.0	200.0	3.0	5.0	7.0	8.0	1.0	part_2
171	1.0	5.0			200.0	0.0	0.0							6.0	0.0	0.3949569987985342	6.0	200.0	3.0	7.0	3.0	6.0	0.0	part_2
172	3.0	5.0			200.0	0.0	1.0							6.0	0.0	0.3749802878387527	6.0	200.0	4.0	3.0	8.0	3.0	1.0	part_2
173	4.0	5.0			200.0	0.0	1.0							5.0	0.0	0.0	0.0	150.0	1.0	6.0	5.0	1.0	1.0	part_2
174	1.0	5.0			250.0	0.0	0.0							6.0	0.0	0.4545244529190313	6.0	150.0	4.0	4.0	4.0	5.0	0.0	part_2
175	1.0	5.0			250.0	0.0	0.0							5.0	0.0	0.4769155199596753	5.0	150.0	3.0	7.0	3.0	6.0	0.0	part_2
176	3.0	5.0			250.0	0.0	1.0							5.0	0.0	0.41046767879879553	5.0	150.0	4.0	3.0	8.0	3.0	1.0	part_2
177	1.0	5.0			200.0	0.0	0.0							6.0	0.0	0.3450132918787858	6.0	150.0	3.0	7.0	3.0	6.0	0.0	part_2
178	1.0	5.0			200.0	0.0	0.0							6.0	0.0	0.39066554583860125	6.0	150.0	1.0	8.0	1.0	7.0	0.0	part_2
179	1.0	5.0			200.0	0.0	0.0							5.0	0.0	0.3802964270003031	5.0	150.0	4.0	4.0	4.0	5.0	0.0	part_2
180	1.0	6.0			200.0	0.0	0.0							5.0	0.0	0.5399379388786656	5.0	150.0	2.0	1.0	2.0	2.0	0.0	part_2
181	4.0	6.0			200.0	0.0	1.0							6.0	0.0	0.0	0.0	150.0	3.0	5.0	7.0	8.0	1.0	part_2
182	1.0	6.0			200.0	0.0	0.0							5.0	0.0	0.31579695891878146	5.0	200.0	2.0	1.0	2.0	2.0	0.0	part_2
183	1.0	6.0			200.0	0.0	0.0							5.0	0.0	0.4747744029596106	5.0	200.0	3.0	7.0	3.0	6.0	0.0	part_2
184	3.0	6.0			200.0	0.0	1.0							6.0	0.0	0.36468686699981845	6.0	200.0	1.0	6.0	5.0	1.0	1.0	part_2
185	1.0	6.0			200.0	0.0	0.0							6.0	0.0	0.3870170846776091	6.0	150.0	1.0	8.0	1.0	7.0	0.0	part_2
186	1.0	6.0			200.0	0.0	0.0							6.0	0.0	0.37559638675793394	6.0	150.0	4.0	4.0	4.0	5.0	0.0	part_2
187	1.0	6.0			200.0	0.0	0.0							6.0	0.0	0.3442062760000226	6.0	150.0	4.0	4.0	4.0	5.0	0.0	part_2
188	1.0	6.0			200.0	0.0	1.0							5.0	0.0	0.5250465877174975	5.0	150.0	1.0	6.0	5.0	1.0	0.0	part_2
189	1.0	6.0			200.0	0.0	1.0							5.0	0.0	0.4232313278384936	5.0	150.0	2.0	2.0	6.0	4.0	0.0	part_2
190	1.0	6.0			200.0	0.0	0.0							6.0	0.0	0.42398062304027917	6.0	150.0	4.0	4.0	4.0	5.0	0.0	part_2
191	1.0	6.0			200.0	0.0	0.0							5.0	0.0	0.4372500467579812	5.0	150.0	1.0	8.0	1.0	7.0	0.0	part_2
192	4.0	6.0			200.0	0.0	1.0							5.0	0.0	0.0	0.0	150.0	4.0	3.0	8.0	3.0	1.0	part_2
193	1.0	6.0			250.0	0.0	0.0							6.0	0.0	0.34947776199987857	6.0	150.0	1.0	8.0	1.0	7.0	0.0	part_2
194	1.0	6.0			250.0	0.0	0.0							5.0	0.0	0.3828661109996574	5.0	150.0	1.0	8.0	1.0	7.0	0.0	part_2
195	4.0	6.0			250.0	0.0	1.0							6.0	0.0	0.0	0.0	150.0	4.0	3.0	8.0	3.0	1.0	part_2
196	4.0	6.0			250.0	0.0	1.0							6.0	0.0	0.0	0.0	200.0	1.0	6.0	5.0	1.0	1.0	part_2
197	1.0	6.0			250.0	0.0	0.0							5.0	0.0	0.46341234771762174	5.0	250.0	4.0	4.0	4.0	5.0	0.0	part_2
198	1.0	6.0			250.0	0.0	0.0							6.0	0.0	0.3421604787981778	6.0	250.0	1.0	8.0	1.0	7.0	0.0	part_2
199	3.0	6.0			250.0	0.0	1.0							6.0	0.0	0.3191628837175813	6.0	250.0	1.0	6.0	5.0	1.0	1.0	part_2
200	1.0	6.0			250.0	0.0	0.0							6.0	0.0	0.44356741975798286	6.0	200.0	4.0	4.0	4.0	5.0	0.0	part_2
201	3.0	6.0			250.0	0.0	1.0							6.0	0.0	0.343391750959654	6.0	200.0	2.0	2.0	6.0	4.0	1.0	part_2
202	1.0	6.0			250.0	0.0	0.0							6.0	0.0	0.4352290517581423	6.0	150.0	3.0	7.0	3.0	6.0	0.0	part_2
203	1.0	6.0			250.0	0.0	0.0							6.0	0.0	0.35596004167746287	6.0	150.0	4.0	4.0	4.0	5.0	0.0	part_2
204	3.0	6.0			250.0	0.0	1.0							5.0	0.0	0.42565656479837344	5.0	150.0	1.0	6.0	5.0	1.0	1.0	part_2
205	1.0	6.0			200.0	0.0	1.0							6.0	0.0	0.31416411783857257	6.0	150.0	2.0	2.0	6.0	4.0	0.0	part_2
206	1.0	6.0			200.0	0.0	0.0							5.0	0.0	0.4372752738386225	5.0	150.0	4.0	4.0	4.0	5.0	0.0	part_2
207	4.0	6.0			200.0	0.0	1.0							6.0	0.0	0.0	0.0	150.0	4.0	3.0	8.0	3.0	1.0	part_2
208	1.0	6.0			200.0	0.0	1.0							5.0	0.0	0.4954256177179559	5.0	200.0	1.0	6.0	5.0	1.0	0.0	part_2
209	1.0	6.0			200.0	0.0	0.0							6.0	0.0	0.4299490037578835	6.0	200.0	4.0	4.0	4.0	5.0	0.0	part_2
210	1.0	6.0			200.0	0.0	0.0							5.0	0.0	0.3841108218789486	5.0	200.0	1.0	8.0	1.0	7.0	0.0	part_2
211	1.0	6.0			200.0	0.0	0.0							5.0	0.0	0.4075084438786689	5.0	200.0	2.0	1.0	2.0	2.0	0.0	part_2
212	1.0	6.0			200.0	0.0	0.0							5.0	0.0	0.39802986491895354	5.0	200.0	3.0	7.0	3.0	6.0	0.0	part_2
213	4.0	6.0			200.0	0.0	1.0							5.0	0.0	0.0	0.0	200.0	2.0	2.0	6.0	4.0	1.0	part_2
214	1.0	6.0			250.0	0.0	0.0							6.0	0.0	0.5241288957981851	6.0	200.0	4.0	4.0	4.0	5.0	0.0	part_2
215	1.0	6.0			250.0	0.0	0.0							5.0	0.0	0.3767186897985084	5.0	200.0	3.0	7.0	3.0	6.0	0.0	part_2
216	1.0	7.0			250.0	0.0	0.0							6.0	0.0	0.6678906977986117	6.0	200.0	3.0	7.0	3.0	6.0	0.0	part_2
217	1.0	7.0			250.0	0.0	0.0							5.0	0.0	0.3423475679596777	5.0	200.0	3.0	7.0	3.0	6.0	0.0	part_2
218	3.0	7.0			250.0	0.0	1.0							5.0	0.0	0.3877210020809798	5.0	200.0	2.0	2.0	6.0	4.0	1.0	part_2
219	1.0	7.0			200.0	0.0	1.0							5.0	0.0	0.3660226397983024	5.0	200.0	3.0	5.0	7.0	8.0	0.0	part_2
220	3.0	7.0			200.0	0.0	1.0							6.0	0.0	0.322558961717732	6.0	200.0	4.0	3.0	8.0	3.0	1.0	part_2
221	1.0	7.0			200.0	0.0	0.0							6.0	0.0	0.3568857908785503	6.0	150.0	2.0	1.0	2.0	2.0	0.0	part_2
222	3.0	7.0			200.0	0.0	1.0							5.0	0.0	0.39209268279864773	5.0	150.0	1.0	6.0	5.0	1.0	1.0	part_2
223	1.0	7.0			150.0	0.0	0.0							5.0	0.0	0.5496982187983122	5.0	150.0	2.0	1.0	2.0	2.0	0.0	part_2
224	4.0	7.0			150.0	0.0	1.0							5.0	0.0	0.0	0.0	150.0	4.0	3.0	8.0	3.0	1.0	part_2
225	1.0	7.0			200.0	0.0	0.0							6.0	0.0	0.39432915887891795	6.0	150.0	1.0	8.0	1.0	7.0	0.0	part_2
226	4.0	7.0			200.0	0.0	1.0							6.0	0.0	0.0	0.0	150.0	1.0	6.0	5.0	1.0	1.0	part_2
227	1.0	7.0			200.0	0.0	0.0							5.0	0.0	0.36171237187909355	5.0	200.0	3.0	7.0	3.0	6.0	0.0	part_2
228	4.0	7.0			200.0	0.0	1.0							6.0	0.0	0.0	0.0	200.0	3.0	5.0	7.0	8.0	1.0	part_2
229	1.0	7.0			200.0	0.0	0.0							5.0	0.0	0.45351237675777156	5.0	250.0	3.0	7.0	3.0	6.0	0.0	part_2
230	1.0	7.0			200.0	0.0	0.0							6.0	0.0	0.35347386179819296	6.0	250.0	1.0	8.0	1.0	7.0	0.0	part_2
231	1.0	7.0			200.0	0.0	0.0							6.0	0.0	0.3994874747177164	6.0	250.0	4.0	4.0	4.0	5.0	0.0	part_2
232	1.0	7.0			200.0	0.0	0.0							6.0	0.0	0.5476367127175763	6.0	250.0	3.0	7.0	3.0	6.0	0.0	part_2
233	4.0	7.0			200.0	0.0	1.0							6.0	0.0	0.0	0.0	250.0	4.0	3.0	8.0	3.0	1.0	part_2
234	4.0	7.0			200.0	0.0	1.0							5.0	0.0	0.0	0.0	300.0	2.0	2.0	6.0	4.0	1.0	part_2
235	1.0	7.0			250.0	0.0	0.0							5.0	0.0	0.4695899036778428	5.0	300.0	2.0	1.0	2.0	2.0	0.0	part_2
236	4.0	7.0			250.0	0.0	1.0							6.0	0.0	0.0	0.0	300.0	3.0	5.0	7.0	8.0	1.0	part_2
237	1.0	7.0			250.0	0.0	0.0							6.0	0.0	0.42620293687878075	6.0	350.0	3.0	7.0	3.0	6.0	0.0	part_2
238	1.0	7.0			250.0	0.0	0.0							5.0	0.0	0.505837430000156	5.0	350.0	3.0	7.0	3.0	6.0	0.0	part_2
239	1.0	7.0			250.0	0.0	0.0							5.0	0.0	0.49741241183846796	5.0	350.0	2.0	1.0	2.0	2.0	0.0	part_2
240	1.0	7.0			250.0	0.0	0.0							5.0	0.0	0.48631857491909614	5.0	350.0	4.0	4.0	4.0	5.0	0.0	part_2
241	3.0	7.0			250.0	0.0	1.0							6.0	0.0	0.41835780287874513	6.0	350.0	1.0	6.0	5.0	1.0	1.0	part_2
242	1.0	7.0			250.0	0.0	0.0							5.0	0.0	0.5104687610000838	5.0	300.0	4.0	4.0	4.0	5.0	0.0	part_2
243	3.0	7.0			250.0	0.0	1.0							6.0	0.0	0.3641572707178966	6.0	300.0	2.0	2.0	6.0	4.0	1.0	part_2
244	1.0	7.0			250.0	0.0	0.0							6.0	0.0	0.5339462016772814	6.0	250.0	1.0	8.0	1.0	7.0	0.0	part_2
245	1.0	7.0			250.0	0.0	0.0							5.0	0.0	0.41112019371757924	5.0	250.0	4.0	4.0	4.0	5.0	0.0	part_2
246	3.0	7.0			250.0	0.0	1.0							6.0	0.0	0.37891996183907395	6.0	250.0	1.0	6.0	5.0	1.0	1.0	part_2
247	4.0	7.0			250.0	0.0	1.0							6.0	0.0	0.0	0.0	200.0	1.0	6.0	5.0	1.0	1.0	part_2
248	1.0	7.0			250.0	0.0	0.0							5.0	0.0	0.5828616436374432	5.0	250.0	4.0	4.0	4.0	5.0	0.0	part_2
249	1.0	7.0			250.0	0.0	0.0							6.0	0.0	0.3923688608388147	6.0	250.0	4.0	4.0	4.0	5.0	0.0	part_2
250	4.0	7.0			250.0	0.0	1.0							6.0	0.0	0.0	0.0	250.0	2.0	2.0	6.0	4.0	1.0	part_2
251	1.0	7.0			250.0	0.0	1.0							6.0	0.0	0.8896519258787521	6.0	300.0	2.0	2.0	6.0	4.0	0.0	part_2
252	1.0	8.0			250.0	0.0	0.0							6.0	0.0	0.41198575495991463	6.0	300.0	2.0	1.0	2.0	2.0	0.0	part_2
253	1.0	8.0			250.0	0.0	1.0							6.0	0.0	0.39198723791878365	6.0	300.0	4.0	3.0	8.0	3.0	0.0	part_2
254	1.0	8.0			250.0	0.0	0.0							6.0	0.0	0.4697255569594745	6.0	300.0	4.0	4.0	4.0	5.0	0.0	part_2
255	3.0	8.0			250.0	0.0	1.0							6.0	0.0	0.3820820197174726	6.0	300.0	1.0	6.0	5.0	1.0	1.0	part_2
256	3.0	8.0			250.0	0.0	1.0							5.0	0.0	0.4376947357577592	5.0	250.0	2.0	2.0	6.0	4.0	1.0	part_2
257	1.0	8.0			200.0	0.0	0.0							5.0	0.0	0.49442281979827385	5.0	250.0	1.0	8.0	1.0	7.0	0.0	part_2
258	1.0	8.0			200.0	0.0	0.0							6.0	0.0	0.5074995577983827	6.0	250.0	1.0	8.0	1.0	7.0	0.0	part_2
259	4.0	8.0			200.0	0.0	1.0							5.0	0.0	0.0	0.0	250.0	2.0	2.0	6.0	4.0	1.0	part_2
260	1.0	8.0			250.0	0.0	0.0							5.0	0.0	0.49845705999996426	5.0	250.0	1.0	8.0	1.0	7.0	0.0	part_2
261	3.0	8.0			250.0	0.0	1.0							6.0	0.0	0.42127779691918477	6.0	250.0	3.0	5.0	7.0	8.0	1.0	part_2
262	3.0	8.0			250.0	0.0	1.0							6.0	0.0	0.3527081631209512	6.0	200.0	2.0	2.0	6.0	4.0	1.0	part_2
263	4.0	8.0			250.0	0.0	1.0							6.0	0.0	0.0	0.0	150.0	1.0	6.0	5.0	1.0	1.0	part_2
264	1.0	8.0			250.0	0.0	0.0							6.0	0.0	0.4562258538385322	6.0	200.0	3.0	7.0	3.0	6.0	0.0	part_2
265	1.0	8.0			250.0	0.0	0.0							6.0	0.0	0.42354111995973653	6.0	200.0	2.0	1.0	2.0	2.0	0.0	part_2
266	1.0	8.0			250.0	0.0	0.0							6.0	0.0	0.4572504337174905	6.0	200.0	3.0	7.0	3.0	6.0	0.0	part_2
267	1.0	8.0			250.0	0.0	0.0							5.0	0.0	0.7636639159600236	5.0	200.0	2.0	1.0	2.0	2.0	0.0	part_2
268	1.0	8.0			250.0	0.0	0.0							5.0	0.0	0.44833511471779275	5.0	200.0	2.0	1.0	2.0	2.0	0.0	part_2
269	4.0	8.0			250.0	0.0	1.0							6.0	0.0	0.0	0.0	200.0	4.0	3.0	8.0	3.0	1.0	part_2
270	1.0	8.0			250.0	0.0	0.0							5.0	0.0	0.42643901663723227	5.0	250.0	4.0	4.0	4.0	5.0	0.0	part_2
271	1.0	8.0			250.0	0.0	1.0							6.0	0.0	0.3829261287983172	6.0	250.0	2.0	2.0	6.0	4.0	0.0	part_2
272	1.0	8.0			250.0	0.0	0.0							5.0	0.0	0.3840664079598355	5.0	250.0	1.0	8.0	1.0	7.0	0.0	part_2
273	1.0	8.0			250.0	0.0	0.0							6.0	0.0	0.43042195475800327	6.0	250.0	2.0	1.0	2.0	2.0	0.0	part_2
274	1.0	8.0			250.0	0.0	0.0							6.0	0.0	0.34138511023365936	6.0	250.0	2.0	1.0	2.0	2.0	0.0	part_2
275	1.0	8.0			250.0	0.0	0.0							5.0	0.0	0.40955893687896605	5.0	250.0	2.0	1.0	2.0	2.0	0.0	part_2
276	1.0	8.0			250.0	0.0	0.0							6.0	0.0	0.4558070867983588	6.0	250.0	3.0	7.0	3.0	6.0	0.0	part_2
277	3.0	8.0			250.0	0.0	1.0							5.0	0.0	0.4222238667985039	5.0	250.0	4.0	3.0	8.0	3.0	1.0	part_2
278	4.0	8.0			200.0	0.0	1.0							5.0	0.0	0.0	0.0	250.0	4.0	3.0	8.0	3.0	1.0	part_2
279	1.0	8.0			250.0	0.0	0.0							5.0	0.0	0.5138553509191297	5.0	250.0	1.0	8.0	1.0	7.0	0.0	part_2
280	3.0	8.0			250.0	0.0	1.0							6.0	0.0	0.4025244527574614	6.0	250.0	3.0	5.0	7.0	8.0	1.0	part_2
281	1.0	8.0			250.0	0.0	0.0							5.0	0.0	0.5145447239601708	5.0	200.0	3.0	7.0	3.0	6.0	0.0	part_2
282	4.0	8.0			250.0	0.0	1.0							6.0	0.0	0.0	0.0	200.0	1.0	6.0	5.0	1.0	1.0	part_2
283	3.0	8.0			250.0	0.0	1.0							6.0	0.0	0.4377930767577709	6.0	250.0	4.0	3.0	8.0	3.0	1.0	part_2
284	1.0	8.0			250.0	0.0	0.0							5.0	0.0	0.449610506717363	5.0	200.0	1.0	8.0	1.0	7.0	0.0	part_2
285	1.0	8.0			250.0	0.0	0.0							6.0	0.0	0.48394622575779067	6.0	200.0	4.0	4.0	4.0	5.0	0.0	part_2
286	4.0	8.0			250.0	0.0	1.0							6.0	0.0	0.0	0.0	200.0	1.0	6.0	5.0	1.0	1.0	part_2
287	1.0	8.0			250.0	0.0	0.0							5.0	0.0	0.5876453357577702	5.0	250.0	4.0	4.0	4.0	5.0	0.0	part_2
0	0.0	1.0	162.0	3.0	0.0	1.0	1.0	270.0	162.0	324.0	108.0	54.0	216.0	7.0	0.0	2.7524432143609374	2.0	0.0	4.0	3.0	8.0	3.0	0.0	part_3
1	0.0	1.0	204.0	6.0	0.0	1.0	0.0	34.0	204.0	136.0	102.0	170.0	68.0	7.0	0.0	3.1180852278339444	2.0	0.0	3.0	7.0	3.0	6.0	0.0	part_3
2	0.0	1.0	98.0	2.0	0.0	1.0	1.0	196.0	147.0	245.0	49.0	98.0	294.0	7.0	0.0	2.847438734361276	5.0	0.0	3.0	5.0	7.0	8.0	0.0	part_3
3	0.0	1.0	270.0	5.0	0.0	1.0	0.0	108.0	324.0	216.0	54.0	270.0	162.0	7.0	0.0	2.6360871548340583	5.0	0.0	4.0	4.0	4.0	5.0	0.0	part_3
4	0.0	1.0	117.0	3.0	0.0	1.0	1.0	156.0	78.0	195.0	117.0	234.0	39.0	7.0	0.0	2.861477143472257	4.0	0.0	1.0	6.0	5.0	1.0	0.0	part_3
5	0.0	1.0	324.0	6.0	0.0	1.0	0.0	270.0	54.0	216.0	324.0	162.0	108.0	7.0	0.0	2.650250967417378	4.0	0.0	1.0	8.0	1.0	7.0	0.0	part_3
6	0.0	1.0	245.0	5.0	0.0	1.0	0.0	147.0	49.0	196.0	98.0	294.0	245.0	7.0	0.0	3.9330070824171344	6.0	0.0	4.0	4.0	4.0	5.0	0.0	part_3
7	0.0	1.0	68.0	2.0	0.0	1.0	1.0	68.0	170.0	204.0	34.0	102.0	136.0	7.0	0.0	2.8082131159444543	1.0	0.0	4.0	3.0	8.0	3.0	0.0	part_3
8	0.0	1.0	176.0	4.0	0.0	1.0	0.0	264.0	176.0	44.0	220.0	132.0	88.0	7.0	0.0	3.34981153494482	2.0	0.0	3.0	7.0	3.0	6.0	0.0	part_3
9	0.0	1.0	270.0	5.0	0.0	1.0	1.0	324.0	216.0	54.0	108.0	162.0	270.0	7.0	0.0	3.8249598929442072	6.0	0.0	2.0	2.0	6.0	4.0	0.0	part_3
10	0.0	1.0	98.0	2.0	0.0	1.0	1.0	147.0	245.0	196.0	98.0	49.0	294.0	7.0	0.0	2.1607776943619683	4.0	0.0	3.0	5.0	7.0	8.0	0.0	part_3
11	0.0	1.0	54.0	1.0	0.0	1.0	1.0	108.0	54.0	324.0	270.0	162.0	216.0	7.0	0.0	2.1035156322504918	2.0	0.0	3.0	5.0	7.0	8.0	0.0	part_3
12	0.0	1.0	204.0	6.0	0.0	1.0	0.0	68.0	34.0	170.0	204.0	136.0	102.0	7.0	0.0	3.1862902894172294	4.0	0.0	1.0	8.0	1.0	7.0	0.0	part_3
13	0.0	1.0	220.0	5.0	0.0	1.0	0.0	220.0	44.0	264.0	132.0	88.0	176.0	7.0	0.0	4.266106563306494	1.0	0.0	4.0	4.0	4.0	5.0	0.0	part_3
14	0.0	1.0	147.0	3.0	0.0	1.0	1.0	147.0	294.0	49.0	98.0	245.0	196.0	7.0	0.0	2.780287254833638	1.0	0.0	4.0	3.0	8.0	3.0	0.0	part_3
15	0.0	1.0	204.0	6.0	0.0	1.0	0.0	102.0	136.0	170.0	68.0	204.0	34.0	7.0	0.0	2.0851073639441893	5.0	0.0	1.0	8.0	1.0	7.0	0.0	part_3
16	0.0	1.0	88.0	2.0	0.0	1.0	1.0	176.0	88.0	132.0	220.0	44.0	264.0	7.0	0.0	3.423743286944955	2.0	0.0	1.0	6.0	5.0	1.0	0.0	part_3
17	0.0	1.0	108.0	2.0	0.0	1.0	1.0	324.0	108.0	270.0	162.0	216.0	54.0	7.0	0.0	2.9190729164720324	2.0	0.0	1.0	6.0	5.0	1.0	0.0	part_3
18	0.0	1.0	156.0	4.0	0.0	1.0	0.0	39.0	78.0	234.0	195.0	156.0	117.0	7.0	0.0	1.9762942188335728	5.0	0.0	2.0	1.0	2.0	2.0	0.0	part_3
19	0.0	1.0	156.0	4.0	0.0	1.0	0.0	195.0	117.0	78.0	156.0	234.0	39.0	7.0	0.0	1.2684589617783786	4.0	0.0	2.0	1.0	2.0	2.0	0.0	part_3
20	0.0	2.0	234.0	6.0	0.0	1.0	0.0	195.0	39.0	78.0	234.0	156.0	117.0	7.0	0.0	1.6595846573054587	4.0	0.0	1.0	8.0	1.0	7.0	0.0	part_3
21	0.0	2.0	220.0	5.0	0.0	1.0	0.0	220.0	176.0	132.0	264.0	44.0	88.0	7.0	0.0	2.132381865361822	1.0	0.0	4.0	4.0	4.0	5.0	0.0	part_3
22	0.0	2.0	162.0	3.0	0.0	1.0	0.0	324.0	108.0	216.0	54.0	270.0	162.0	7.0	0.0	2.5835102593619013	6.0	0.0	2.0	1.0	2.0	2.0	0.0	part_3
23	0.0	2.0	98.0	2.0	0.0	1.0	1.0	49.0	245.0	196.0	98.0	147.0	294.0	7.0	0.0	3.596800995362173	4.0	0.0	1.0	6.0	5.0	1.0	0.0	part_3
24	0.0	2.0	294.0	6.0	0.0	1.0	0.0	294.0	196.0	245.0	98.0	49.0	147.0	7.0	0.0	2.731275358417406	1.0	0.0	1.0	8.0	1.0	7.0	0.0	part_3
25	0.0	2.0	54.0	1.0	0.0	1.0	1.0	54.0	324.0	162.0	270.0	108.0	216.0	7.0	0.0	1.685475624944047	1.0	0.0	3.0	5.0	7.0	8.0	0.0	part_3
26	0.0	2.0	68.0	2.0	0.0	1.0	1.0	34.0	170.0	136.0	102.0	204.0	68.0	7.0	0.0	1.9005395663616582	6.0	0.0	3.0	5.0	7.0	8.0	0.0	part_3
27	0.0	2.0	132.0	3.0	0.0	1.0	1.0	132.0	264.0	88.0	220.0	44.0	176.0	7.0	0.0	3.0953745252500084	1.0	0.0	4.0	3.0	8.0	3.0	0.0	part_3
28	0.0	2.0	117.0	3.0	0.0	1.0	1.0	156.0	195.0	78.0	117.0	234.0	39.0	7.0	0.0	3.9395203247786412	4.0	0.0	4.0	3.0	8.0	3.0	0.0	part_3
29	0.0	2.0	162.0	3.0	0.0	1.0	1.0	108.0	162.0	270.0	324.0	54.0	216.0	7.0	0.0	4.526811541943971	2.0	0.0	4.0	3.0	8.0	3.0	0.0	part_3
30	0.0	2.0	195.0	5.0	0.0	1.0	0.0	78.0	234.0	195.0	39.0	156.0	117.0	7.0	0.0	2.200179973889135	3.0	0.0	4.0	4.0	4.0	5.0	0.0	part_3
31	0.0	2.0	132.0	3.0	0.0	2.0	0.0	88.0	44.0	176.0	132.0	264.0	220.0	7.0	0.0	0.9582728952500474	4.0	0.0	3.0	7.0	3.0	6.0	0.0	part_3
32	0.0	2.0	195.0	5.0	0.0	1.0	1.0	234.0	195.0	78.0	156.0	117.0	39.0	7.0	0.0	1.3884514744177068	2.0	0.0	3.0	5.0	7.0	8.0	0.0	part_3
33	0.0	2.0	49.0	1.0	0.0	1.0	0.0	98.0	245.0	294.0	49.0	196.0	147.0	7.0	0.0	1.1533469189444077	4.0	0.0	3.0	7.0	3.0	6.0	0.0	part_3
34	0.0	2.0	196.0	4.0	0.0	1.0	0.0	147.0	49.0	98.0	196.0	294.0	245.0	7.0	0.0	3.6508432467790044	4.0	0.0	2.0	1.0	2.0	2.0	0.0	part_3
35	0.0	2.0	170.0	5.0	0.0	1.0	0.0	204.0	68.0	170.0	34.0	102.0	136.0	7.0	0.0	2.8871021127779386	3.0	0.0	2.0	1.0	2.0	2.0	0.0	part_3
36	0.0	2.0	49.0	1.0	0.0	1.0	1.0	147.0	245.0	294.0	49.0	196.0	98.0	7.0	0.0	2.8663391277787014	4.0	0.0	1.0	6.0	5.0	1.0	0.0	part_3
37	0.0	2.0	264.0	6.0	0.0	1.0	1.0	220.0	132.0	176.0	44.0	88.0	264.0	7.0	0.0	2.2250342962506693	6.0	0.0	2.0	2.0	6.0	4.0	0.0	part_3
38	0.0	2.0	294.0	6.0	0.0	1.0	0.0	49.0	294.0	98.0	245.0	196.0	147.0	7.0	0.0	1.619906941361478	2.0	0.0	4.0	4.0	4.0	5.0	0.0	part_3
39	0.0	2.0	204.0	6.0	0.0	1.0	1.0	34.0	204.0	136.0	102.0	68.0	170.0	7.0	0.0	2.5321360368889145	2.0	0.0	2.0	2.0	6.0	4.0	0.0	part_3
40	0.0	3.0	220.0	5.0	0.0	1.0	0.0	132.0	220.0	176.0	44.0	264.0	88.0	7.0	0.0	1.700962839472595	2.0	0.0	1.0	8.0	1.0	7.0	0.0	part_3
41	0.0	3.0	156.0	4.0	0.0	1.0	1.0	156.0	195.0	39.0	78.0	117.0	234.0	7.0	0.0	3.894173719889295	1.0	0.0	4.0	3.0	8.0	3.0	0.0	part_3
42	0.0	3.0	204.0	6.0	0.0	1.0	0.0	204.0	170.0	68.0	136.0	34.0	102.0	7.0	0.0	1.4883906618888432	1.0	0.0	4.0	4.0	4.0	5.0	0.0	part_3
43	0.0	3.0	196.0	4.0	0.0	1.0	1.0	98.0	294.0	245.0	147.0	49.0	196.0	7.0	0.0	3.3021293544170476	6.0	0.0	4.0	3.0	8.0	3.0	0.0	part_3
44	0.0	3.0	195.0	5.0	0.0	1.0	0.0	234.0	39.0	78.0	117.0	156.0	195.0	7.0	0.0	4.1335860434164715	6.0	0.0	1.0	8.0	1.0	7.0	0.0	part_3
45	0.0	3.0	176.0	4.0	0.0	1.0	0.0	176.0	264.0	88.0	220.0	44.0	132.0	7.0	0.0	4.098289481778011	1.0	0.0	1.0	8.0	1.0	7.0	0.0	part_3
46	0.0	3.0	44.0	1.0	0.0	1.0	1.0	220.0	132.0	176.0	264.0	44.0	88.0	7.0	0.0	1.84438777188916	5.0	0.0	3.0	5.0	7.0	8.0	0.0	part_3
47	0.0	3.0	270.0	5.0	0.0	1.0	0.0	162.0	270.0	216.0	108.0	54.0	324.0	7.0	0.0	2.2400024784165	2.0	0.0	4.0	4.0	4.0	5.0	0.0	part_3
48	0.0	3.0	204.0	6.0	0.0	1.0	0.0	102.0	170.0	34.0	68.0	204.0	136.0	7.0	0.0	3.5693160207783876	5.0	0.0	3.0	7.0	3.0	6.0	0.0	part_3
49	0.0	3.0	108.0	2.0	0.0	1.0	0.0	324.0	162.0	216.0	108.0	54.0	270.0	7.0	0.0	2.6471031358332766	4.0	0.0	3.0	7.0	3.0	6.0	0.0	part_3
50	0.0	3.0	117.0	3.0	0.0	1.0	0.0	195.0	234.0	117.0	78.0	156.0	39.0	7.0	0.0	2.446508401306346	3.0	0.0	3.0	7.0	3.0	6.0	0.0	part_3
51	0.0	3.0	195.0	5.0	0.0	1.0	1.0	195.0	156.0	39.0	117.0	234.0	78.0	7.0	0.0	2.840519537471664	1.0	0.0	2.0	2.0	6.0	4.0	0.0	part_3
52	0.0	3.0	88.0	2.0	0.0	1.0	1.0	88.0	132.0	264.0	176.0	44.0	220.0	7.0	0.0	2.528022891472574	1.0	0.0	1.0	6.0	5.0	1.0	0.0	part_3
53	0.0	3.0	136.0	4.0	0.0	1.0	0.0	136.0	34.0	170.0	204.0	68.0	102.0	7.0	0.0	2.303743613306324	1.0	0.0	2.0	1.0	2.0	2.0	0.0	part_3
54	0.0	3.0	234.0	6.0	0.0	1.0	0.0	156.0	78.0	195.0	234.0	117.0	39.0	7.0	0.0	2.7094191119449533	4.0	0.0	4.0	4.0	4.0	5.0	0.0	part_3
55	0.0	3.0	270.0	5.0	0.0	1.0	0.0	324.0	270.0	108.0	162.0	216.0	54.0	7.0	0.0	1.7871862431657064	2.0	0.0	1.0	8.0	1.0	7.0	0.0	part_3
56	0.0	3.0	44.0	1.0	0.0	1.0	1.0	88.0	220.0	132.0	44.0	264.0	176.0	7.0	0.0	2.1825802914718224	4.0	0.0	3.0	5.0	7.0	8.0	0.0	part_3
57	0.0	3.0	245.0	5.0	0.0	1.0	0.0	49.0	196.0	245.0	98.0	294.0	147.0	7.0	0.0	2.5769445743617325	3.0	0.0	1.0	8.0	1.0	7.0	0.0	part_3
58	0.0	3.0	68.0	2.0	0.0	1.0	1.0	170.0	102.0	34.0	204.0	136.0	68.0	7.0	0.0	1.5540287154171892	6.0	0.0	3.0	5.0	7.0	8.0	0.0	part_3
59	0.0	3.0	196.0	4.0	0.0	1.0	1.0	245.0	98.0	196.0	49.0	147.0	294.0	7.0	0.0	2.163071239778219	3.0	0.0	2.0	2.0	6.0	4.0	0.0	part_3
60	0.0	4.0	102.0	3.0	0.0	1.0	1.0	102.0	34.0	136.0	204.0	170.0	68.0	7.0	0.0	2.7985134278887926	1.0	0.0	1.0	6.0	5.0	1.0	0.0	part_3
61	0.0	4.0	176.0	4.0	0.0	1.0	1.0	220.0	44.0	88.0	132.0	264.0	176.0	7.0	0.0	3.124632340362041	6.0	0.0	2.0	2.0	6.0	4.0	0.0	part_3
62	0.0	4.0	162.0	3.0	0.0	1.0	0.0	108.0	162.0	216.0	270.0	54.0	324.0	7.0	0.0	3.058021942360938	2.0	0.0	3.0	7.0	3.0	6.0	0.0	part_3
63	0.0	4.0	176.0	4.0	0.0	1.0	1.0	88.0	44.0	264.0	132.0	176.0	220.0	7.0	0.0	3.376308953944317	5.0	0.0	4.0	3.0	8.0	3.0	0.0	part_3
64	0.0	4.0	117.0	3.0	0.0	1.0	0.0	39.0	156.0	195.0	234.0	117.0	78.0	7.0	0.0	2.644854327944813	5.0	0.0	3.0	7.0	3.0	6.0	0.0	part_3
65	0.0	4.0	162.0	3.0	0.0	1.0	0.0	324.0	108.0	270.0	216.0	54.0	162.0	7.0	0.0	4.096184677889141	6.0	0.0	2.0	1.0	2.0	2.0	0.0	part_3
66	0.0	4.0	204.0	6.0	0.0	1.0	1.0	204.0	68.0	170.0	102.0	136.0	34.0	7.0	0.0	1.9578743109450443	1.0	0.0	4.0	3.0	8.0	3.0	0.0	part_3
67	0.0	4.0	54.0	1.0	0.0	1.0	1.0	270.0	162.0	54.0	108.0	216.0	324.0	7.0	0.0	1.7116988767784278	3.0	0.0	1.0	6.0	5.0	1.0	0.0	part_3
68	0.0	4.0	147.0	3.0	0.0	1.0	0.0	245.0	147.0	98.0	196.0	294.0	49.0	7.0	0.0	2.960364770778142	2.0	0.0	2.0	1.0	2.0	2.0	0.0	part_3
69	0.0	4.0	132.0	3.0	0.0	1.0	0.0	88.0	176.0	44.0	220.0	132.0	264.0	7.0	0.0	2.2983939433061096	5.0	0.0	2.0	1.0	2.0	2.0	0.0	part_3
70	0.0	4.0	132.0	3.0	0.0	1.0	0.0	132.0	88.0	176.0	220.0	264.0	44.0	7.0	0.0	3.053460881889805	1.0	0.0	2.0	1.0	2.0	2.0	0.0	part_3
71	0.0	4.0	195.0	5.0	0.0	1.0	1.0	39.0	156.0	234.0	78.0	117.0	195.0	7.0	0.0	2.0744282494715662	6.0	0.0	2.0	2.0	6.0	4.0	0.0	part_3
72	0.0	4.0	102.0	3.0	0.0	1.0	1.0	68.0	204.0	170.0	136.0	102.0	34.0	7.0	0.0	2.4253819318892056	5.0	0.0	1.0	6.0	5.0	1.0	0.0	part_3
73	0.0	4.0	204.0	6.0	0.0	1.0	0.0	68.0	102.0	34.0	136.0	170.0	204.0	7.0	0.0	2.0776770363618198	6.0	0.0	4.0	4.0	4.0	5.0	0.0	part_3
74	0.0	4.0	216.0	4.0	0.0	1.0	1.0	108.0	162.0	324.0	270.0	54.0	216.0	7.0	0.0	2.797226832833985	6.0	0.0	2.0	2.0	6.0	4.0	0.0	part_3
75	0.0	4.0	39.0	1.0	0.0	1.0	1.0	234.0	117.0	78.0	39.0	156.0	195.0	7.0	0.0	1.4487309823607575	4.0	0.0	3.0	5.0	7.0	8.0	0.0	part_3
76	0.0	4.0	98.0	2.0	0.0	1.0	0.0	294.0	245.0	196.0	98.0	49.0	147.0	7.0	0.0	3.015338544944825	4.0	0.0	3.0	7.0	3.0	6.0	0.0	part_3
77	0.0	4.0	78.0	2.0	0.0	1.0	1.0	39.0	78.0	234.0	195.0	117.0	156.0	7.0	0.0	2.0017487573059043	2.0	0.0	1.0	6.0	5.0	1.0	0.0	part_3
78	0.0	4.0	196.0	4.0	0.0	1.0	1.0	49.0	98.0	196.0	294.0	147.0	245.0	7.0	0.0	3.139033811306035	3.0	0.0	2.0	2.0	6.0	4.0	0.0	part_3
79	0.0	4.0	170.0	5.0	0.0	1.0	1.0	102.0	170.0	136.0	204.0	34.0	68.0	7.0	0.0	1.914784347416571	2.0	0.0	2.0	2.0	6.0	4.0	0.0	part_3
