	accuracy	block	chosen_bidding_amount	chosen_bidding_level	left_SSD	num_trial_presentations	paired_with_stopping	possible_bid_1	possible_bid_2	possible_bid_3	possible_bid_4	possible_bid_5	possible_bid_6	quadrant	raw_reward_magnitude	reaction_time	response	right_SSD	stepwise_reward_magnitude	stim_color	stim_reward	stim_shape	stop_signal_trial_type	which_part
0		1.0				1.0	0.0							3.0	415.0	0.5388721133349463	3.0		4.0	4.0	4.0	3.0		part_1
1		1.0				1.0	0.0							4.0	419.0	0.43932583488640375	4.0		4.0	4.0	4.0	3.0		part_1
2		1.0				1.0	0.0							3.0	189.0	0.552662545334897	3.0		3.0	6.0	3.0	1.0		part_1
3		1.0				1.0	1.0							4.0	0.0	0.5195523786096601	4.0		0.0	2.0	8.0	6.0		part_1
4		1.0				2.0	0.0							4.0	0.0	0.47601378688705154	4.0		0.0	5.0	2.0	4.0		part_1
5		1.0				1.0	0.0							1.0	56.0	0.5872339074849151	1.0		1.0	8.0	1.0	8.0		part_1
6		1.0				1.0	1.0							2.0	179.0	0.2734876697213622	2.0		3.0	7.0	7.0	5.0		part_1
7		1.0				1.0	1.0							1.0	45.0	0.4308738140389323	1.0		1.0	1.0	5.0	7.0		part_1
8		1.0				1.0	0.0							4.0	120.0	0.29655106661084574	4.0		2.0	5.0	2.0	4.0		part_1
9		1.0				1.0	1.0							3.0	417.0	0.3085083720070543	3.0		4.0	2.0	8.0	6.0		part_1
10		1.0				1.0	0.0							4.0	90.0	0.2750919176178286	4.0		2.0	5.0	2.0	4.0		part_1
11		1.0				1.0	1.0							1.0	419.0	0.32122062316921074	1.0		4.0	2.0	8.0	6.0		part_1
12		1.0				1.0	0.0							2.0	222.0	0.3213417461665813	2.0		3.0	6.0	3.0	1.0		part_1
13		1.0				1.0	1.0							3.0	0.0	0.34379322089080233	3.0		0.0	3.0	6.0	2.0		part_1
14		1.0				1.0	1.0							2.0	117.0	0.3003718600375578	2.0		2.0	3.0	6.0	2.0		part_1
15		1.0				1.0	0.0							3.0	401.0	0.47005428817647044	3.0		4.0	4.0	4.0	3.0		part_1
16		1.0				1.0	1.0							4.0	224.0	0.3115150797239039	4.0		3.0	7.0	7.0	5.0		part_1
17		1.0				1.0	1.0							3.0	214.0	0.3460397850431036	3.0		3.0	7.0	7.0	5.0		part_1
18		1.0				1.0	0.0							4.0	0.0	0.2910635238804389	4.0		0.0	5.0	2.0	4.0		part_1
19		1.0				1.0	1.0							4.0	381.0	0.40301246533636004	4.0		4.0	2.0	8.0	6.0		part_1
20		1.0				1.0	1.0							2.0	44.0	0.3494445437245304	2.0		1.0	1.0	5.0	7.0		part_1
21		1.0				1.0	0.0							3.0	378.0	0.3606002100277692	3.0		4.0	4.0	4.0	3.0		part_1
22		1.0				1.0	1.0							3.0	119.0	0.49492294117226265	3.0		2.0	3.0	6.0	2.0		part_1
23		1.0				1.0	0.0							3.0	117.0	0.3050316714361543	3.0		2.0	5.0	2.0	4.0		part_1
24		1.0				1.0	0.0							3.0	199.0	0.37334315715997946	3.0		3.0	6.0	3.0	1.0		part_1
25		1.0				1.0	0.0							3.0	424.0	0.3513665424543433	3.0		4.0	4.0	4.0	3.0		part_1
26		1.0				1.0	1.0							1.0	407.0	0.43063996189448517	1.0		4.0	2.0	8.0	6.0		part_1
27		1.0				1.0	1.0							4.0	199.0	0.42027150116337	4.0		3.0	7.0	7.0	5.0		part_1
28		1.0				1.0	1.0							1.0	120.0	0.38621161389164627	1.0		2.0	3.0	6.0	2.0		part_1
29		1.0				1.0	1.0							1.0	0.0	0.3649898418952944	1.0		0.0	3.0	6.0	2.0		part_1
30		1.0				1.0	1.0							4.0	0.0	0.3650382091727806	4.0		0.0	1.0	5.0	7.0		part_1
31		1.0				1.0	0.0							4.0	381.0	0.29825753733166493	4.0		4.0	4.0	4.0	3.0		part_1
32		1.0				1.0	0.0							3.0	56.0	0.34279920933477115	3.0		1.0	8.0	1.0	8.0		part_1
33		1.0				1.0	1.0							1.0	100.0	0.2879954187228577	1.0		2.0	3.0	6.0	2.0		part_1
34		1.0				1.0	1.0							3.0	0.0	0.2656877096160315	3.0		0.0	1.0	5.0	7.0		part_1
35		1.0				1.0	0.0							4.0	33.0	0.4580538007139694	4.0		1.0	8.0	1.0	8.0		part_1
36		1.0				2.0	0.0							2.0	413.0	0.43698263145051897	2.0		4.0	4.0	4.0	3.0		part_1
37		1.0				1.0	1.0							2.0	56.0	0.3365951426094398	2.0		1.0	1.0	5.0	7.0		part_1
38		1.0				1.0	1.0							2.0	0.0	0.3376645043317694	2.0		0.0	2.0	8.0	6.0		part_1
39		1.0				1.0	1.0							4.0	0.0	0.349197125484352	4.0		0.0	1.0	5.0	7.0		part_1
40		1.0				1.0	0.0							3.0	399.0	0.32572789017285686	3.0		4.0	4.0	4.0	3.0		part_1
41		1.0				1.0	0.0							1.0	119.0	0.3151670436054701	1.0		2.0	5.0	2.0	4.0		part_1
42		1.0				1.0	1.0							1.0	112.0	0.3847765875980258	1.0		2.0	3.0	6.0	2.0		part_1
43		1.0				1.0	1.0							1.0	69.0	0.44093278945365455	1.0		1.0	1.0	5.0	7.0		part_1
44		1.0				1.0	0.0							4.0	0.0	0.3394690446148161	4.0		0.0	4.0	4.0	3.0		part_1
45		1.0				1.0	0.0							4.0	424.0	0.3962230631732382	4.0		4.0	4.0	4.0	3.0		part_1
46		1.0				1.0	0.0							2.0	35.0	0.34222641061933246	2.0		1.0	8.0	1.0	8.0		part_1
47		1.0				1.0	1.0							4.0	114.0	0.398206661324366	4.0		2.0	3.0	6.0	2.0		part_1
48		1.0				1.0	0.0							4.0	375.0	0.3643151980359107	4.0		4.0	4.0	4.0	3.0		part_1
49		1.0				1.0	1.0							3.0	26.0	0.2859327538899379	3.0		1.0	1.0	5.0	7.0		part_1
50		1.0				1.0	1.0							2.0	90.0	0.32115884716040455	2.0		2.0	3.0	6.0	2.0		part_1
51		1.0				1.0	0.0							3.0	103.0	0.3321090267272666	3.0		2.0	5.0	2.0	4.0		part_1
52		1.0				1.0	0.0							3.0	117.0	0.37668926203332376	3.0		2.0	5.0	2.0	4.0		part_1
53		1.0				1.0	1.0							2.0	120.0	0.37862576289626304	2.0		2.0	3.0	6.0	2.0		part_1
54		1.0				1.0	1.0							4.0	60.0	0.4227535784448264	4.0		1.0	1.0	5.0	7.0		part_1
55		1.0				1.0	1.0							4.0	0.0	0.34736134443664923	4.0		0.0	7.0	7.0	5.0		part_1
56		1.0				1.0	1.0							4.0	120.0	0.3915067141642794	4.0		2.0	3.0	6.0	2.0		part_1
57		1.0				1.0	1.0							2.0	385.0	0.3590798910445301	2.0		4.0	2.0	8.0	6.0		part_1
58		1.0				1.0	0.0							4.0	54.0	0.3709541816060664	4.0		1.0	8.0	1.0	8.0		part_1
59		1.0				1.0	0.0							3.0	105.0	0.33659813976555597	3.0		2.0	5.0	2.0	4.0		part_1
60		1.0				1.0	0.0							2.0	76.0	0.2703231476189103	2.0		2.0	5.0	2.0	4.0		part_1
61		1.0				1.0	0.0							2.0	0.0	0.31622839377087075	2.0		0.0	4.0	4.0	3.0		part_1
62		1.0				1.0	0.0							3.0	64.0	0.338343579438515	3.0		1.0	8.0	1.0	8.0		part_1
63		1.0				1.0	0.0							1.0	0.0	0.3272147716052132	1.0		0.0	6.0	3.0	1.0		part_1
64		1.0				1.0	1.0							3.0	395.0	0.40635190543252975	3.0		4.0	2.0	8.0	6.0		part_1
65		1.0				1.0	1.0							1.0	182.0	0.3509846603265032	1.0		3.0	7.0	7.0	5.0		part_1
66		1.0				1.0	1.0							3.0	375.0	0.4070863381784875	3.0		4.0	2.0	8.0	6.0		part_1
67		1.0				1.0	1.0							4.0	86.0	0.3181617460359121	4.0		2.0	3.0	6.0	2.0		part_1
68		1.0				1.0	0.0							3.0	0.0	0.3405674543319037	3.0		0.0	8.0	1.0	8.0		part_1
69		1.0				1.0	0.0							4.0	44.0	0.43136750304256566	4.0		1.0	8.0	1.0	8.0		part_1
70		1.0				1.0	1.0							1.0	65.0	0.35543762288580183	1.0		1.0	1.0	5.0	7.0		part_1
71		1.0				1.0	1.0							3.0	421.0	0.28731964889448136	3.0		4.0	2.0	8.0	6.0		part_1
72		1.0				1.0	1.0							2.0	413.0	0.3435954136220971	2.0		4.0	2.0	8.0	6.0		part_1
73		1.0				2.0	0.0							1.0	182.0	0.3563039447617484	1.0		3.0	6.0	3.0	1.0		part_1
74		1.0				1.0	0.0							2.0	204.0	0.32312576433469076	2.0		3.0	6.0	3.0	1.0		part_1
75		1.0				1.0	1.0							1.0	378.0	0.4241604639973957	1.0		4.0	2.0	8.0	6.0		part_1
76		1.0				1.0	0.0							4.0	417.0	0.2684051566175185	4.0		4.0	4.0	4.0	3.0		part_1
77		1.0				1.0	0.0							4.0	78.0	0.335660306722275	4.0		2.0	5.0	2.0	4.0		part_1
78		1.0				1.0	1.0							3.0	399.0	0.3463836357113905	3.0		4.0	2.0	8.0	6.0		part_1
79		1.0				1.0	1.0							4.0	395.0	0.37046811888285447	4.0		4.0	2.0	8.0	6.0		part_1
80		1.0				1.0	1.0							1.0	87.0	0.31513698044000193	1.0		2.0	3.0	6.0	2.0		part_1
81		1.0				1.0	1.0							4.0	183.0	0.28289953545026947	4.0		3.0	7.0	7.0	5.0		part_1
82		1.0				1.0	1.0							1.0	203.0	0.36030447309894953	1.0		3.0	7.0	7.0	5.0		part_1
83		1.0				1.0	0.0							1.0	420.0	0.3732517667085631	1.0		4.0	4.0	4.0	3.0		part_1
84		1.0				1.0	1.0							1.0	376.0	0.32816639471275266	1.0		4.0	2.0	8.0	6.0		part_1
85		1.0				2.0	1.0							2.0	176.0	0.2504645817243727	2.0		3.0	7.0	7.0	5.0		part_1
86		1.0				1.0	0.0							1.0	90.0	0.4082818877068348	1.0		2.0	5.0	2.0	4.0		part_1
87		1.0				1.0	0.0							1.0	83.0	0.3757980678783497	1.0		2.0	5.0	2.0	4.0		part_1
88		1.0				1.0	0.0							2.0	396.0	0.4092211378883803	2.0		4.0	4.0	4.0	3.0		part_1
89		1.0				1.0	1.0							2.0	194.0	0.3555093108880101	2.0		3.0	7.0	7.0	5.0		part_1
90		1.0				1.0	1.0							2.0	182.0	0.32080526975914836	2.0		3.0	7.0	7.0	5.0		part_1
91		1.0				1.0	1.0							2.0	86.0	0.343256681037019	2.0		2.0	3.0	6.0	2.0		part_1
92		1.0				1.0	1.0							3.0	401.0	0.3550415527570294	3.0		4.0	2.0	8.0	6.0		part_1
93		1.0				1.0	1.0							3.0	210.0	0.3892712207598379	3.0		3.0	7.0	7.0	5.0		part_1
94		1.0				1.0	0.0							2.0	112.0	0.391085557610495	2.0		2.0	5.0	2.0	4.0		part_1
95		1.0				1.0	1.0							1.0	0.0	0.3919049398973584	1.0		0.0	3.0	6.0	2.0		part_1
96		1.0				1.0	1.0							4.0	205.0	0.34753320360323414	4.0		3.0	7.0	7.0	5.0		part_1
97		1.0				1.0	0.0							1.0	0.0	0.35813967272406444	1.0		0.0	4.0	4.0	3.0		part_1
98		1.0				1.0	0.0							1.0	210.0	0.3705609395983629	1.0		3.0	6.0	3.0	1.0		part_1
99		1.0				1.0	1.0							1.0	78.0	0.6866609717108076	1.0		2.0	3.0	6.0	2.0		part_1
100		2.0				1.0	0.0							1.0	86.0	0.4454717104526935	1.0		2.0	5.0	2.0	4.0		part_1
101		2.0				1.0	1.0							1.0	381.0	0.49031678643950727	1.0		4.0	2.0	8.0	6.0		part_1
102		2.0				1.0	1.0							2.0	217.0	0.31020751016330905	2.0		3.0	7.0	7.0	5.0		part_1
103		2.0				1.0	0.0							1.0	177.0	0.254853129881667	1.0		3.0	6.0	3.0	1.0		part_1
104		2.0				1.0	1.0							2.0	396.0	0.27891740603081416	2.0		4.0	2.0	8.0	6.0		part_1
105		2.0				2.0	0.0							4.0	223.0	0.3358501874754438	4.0		3.0	6.0	3.0	1.0		part_1
106		2.0				1.0	1.0							3.0	420.0	0.39167582044319715	3.0		4.0	2.0	8.0	6.0		part_1
107		2.0				1.0	0.0							3.0	88.0	0.3814933288958855	3.0		2.0	5.0	2.0	4.0		part_1
108		2.0				1.0	0.0							3.0	0.0	0.3360552921658382	3.0		0.0	8.0	1.0	8.0		part_1
109		2.0				1.0	1.0							3.0	186.0	0.31639232632005587	3.0		3.0	7.0	7.0	5.0		part_1
110		2.0				2.0	1.0							2.0	0.0	0.37358999527350534	2.0		0.0	1.0	5.0	7.0		part_1
111		2.0				1.0	0.0							2.0	119.0	0.38600823360320646	2.0		2.0	5.0	2.0	4.0		part_1
112		2.0				1.0	0.0							3.0	64.0	0.36279236717382446	3.0		1.0	8.0	1.0	8.0		part_1
113		2.0				1.0	1.0							2.0	64.0	0.40835356460593175	2.0		1.0	1.0	5.0	7.0		part_1
114		2.0				1.0	1.0							1.0	64.0	0.36470119016303215	1.0		1.0	1.0	5.0	7.0		part_1
115		2.0				1.0	1.0							2.0	81.0	0.42069094032922294	2.0		2.0	3.0	6.0	2.0		part_1
116		2.0				1.0	0.0							2.0	209.0	0.3424632377718808	2.0		3.0	6.0	3.0	1.0		part_1
117		2.0				1.0	1.0							3.0	33.0	0.5231949873268604	3.0		1.0	1.0	5.0	7.0		part_1
118		2.0				2.0	0.0							1.0	220.0	0.38896773716260213	1.0		3.0	6.0	3.0	1.0		part_1
119		2.0				1.0	0.0							3.0	45.0	0.43462499175802805	3.0		1.0	8.0	1.0	8.0		part_1
120		2.0				1.0	1.0							1.0	424.0	0.5247899414825952	1.0		4.0	2.0	8.0	6.0		part_1
121		2.0				1.0	1.0							3.0	103.0	0.514573645326891	3.0		2.0	3.0	6.0	2.0		part_1
122		2.0				1.0	1.0							3.0	88.0	0.37893444375367835	3.0		2.0	3.0	6.0	2.0		part_1
123		2.0				1.0	1.0							4.0	73.0	0.3252013240417	4.0		1.0	1.0	5.0	7.0		part_1
124		2.0				1.0	0.0							1.0	419.0	0.3249397176114144	1.0		4.0	4.0	4.0	3.0		part_1
125		2.0				1.0	1.0							4.0	393.0	0.3480006494792178	4.0		4.0	2.0	8.0	6.0		part_1
126		2.0				1.0	1.0							2.0	201.0	0.383118819721858	2.0		3.0	7.0	7.0	5.0		part_1
127		2.0				1.0	1.0							4.0	54.0	0.34905078476003837	4.0		1.0	1.0	5.0	7.0		part_1
128		2.0				1.0	0.0							3.0	214.0	0.33758541676797904	3.0		3.0	6.0	3.0	1.0		part_1
129		2.0				1.0	1.0							3.0	0.0	0.3947620314429514	3.0		0.0	1.0	5.0	7.0		part_1
130		2.0				1.0	1.0							1.0	44.0	0.32949700533936266	1.0		1.0	1.0	5.0	7.0		part_1
131		2.0				1.0	1.0							1.0	0.0	0.5989294724422507	1.0		0.0	1.0	5.0	7.0		part_1
132		2.0				1.0	0.0							4.0	0.0	0.32955256644345354	4.0		0.0	5.0	2.0	4.0		part_1
133		2.0				1.0	0.0							2.0	67.0	0.30750224988150876	2.0		1.0	8.0	1.0	8.0		part_1
134		2.0				1.0	1.0							1.0	208.0	0.3075424279086292	1.0		3.0	7.0	7.0	5.0		part_1
135		2.0				1.0	1.0							2.0	76.0	0.40896009661082644	2.0		2.0	3.0	6.0	2.0		part_1
136		2.0				1.0	0.0							1.0	412.0	0.42064973917149473	1.0		4.0	4.0	4.0	3.0		part_1
137		2.0				1.0	1.0							3.0	54.0	0.34193106077145785	3.0		1.0	1.0	5.0	7.0		part_1
138		2.0				1.0	1.0							1.0	209.0	0.46860079660837073	1.0		3.0	7.0	7.0	5.0		part_1
139		2.0				1.0	1.0							4.0	67.0	0.42421027744421735	4.0		1.0	1.0	5.0	7.0		part_1
140		2.0				1.0	1.0							4.0	182.0	0.4123215263389284	4.0		3.0	7.0	7.0	5.0		part_1
141		2.0				1.0	0.0							1.0	222.0	0.41323500433645677	1.0		3.0	6.0	3.0	1.0		part_1
142		2.0				1.0	0.0							1.0	81.0	0.4356962990423199	1.0		2.0	5.0	2.0	4.0		part_1
143		2.0				1.0	1.0							2.0	407.0	0.4603965178830549	2.0		4.0	2.0	8.0	6.0		part_1
144		2.0				1.0	0.0							4.0	395.0	0.40271428861888126	4.0		4.0	4.0	4.0	3.0		part_1
145		2.0				1.0	1.0							3.0	0.0	0.3913222656119615	3.0		0.0	3.0	6.0	2.0		part_1
146		2.0				1.0	0.0							2.0	90.0	0.42649299144977704	2.0		2.0	5.0	2.0	4.0		part_1
147		2.0				1.0	0.0							3.0	44.0	0.3598668966151308	3.0		1.0	8.0	1.0	8.0		part_1
148		2.0				1.0	1.0							2.0	0.0	0.36128264288709033	2.0		0.0	7.0	7.0	5.0		part_1
149		2.0				1.0	1.0							2.0	33.0	0.34891336761938874	2.0		1.0	1.0	5.0	7.0		part_1
150		2.0				1.0	1.0							4.0	90.0	0.3623704757192172	4.0		2.0	3.0	6.0	2.0		part_1
151		2.0				1.0	1.0							2.0	64.0	0.29373242903966457	2.0		1.0	1.0	5.0	7.0		part_1
152		2.0				1.0	1.0							4.0	119.0	0.4071607407240663	4.0		2.0	3.0	6.0	2.0		part_1
153		2.0				1.0	0.0							3.0	119.0	0.3065977633232251	3.0		2.0	5.0	2.0	4.0		part_1
154		2.0				1.0	1.0							4.0	0.0	0.54264762972889	4.0		0.0	2.0	8.0	6.0		part_1
155		2.0				1.0	1.0							2.0	204.0	0.28591189316648524	2.0		3.0	7.0	7.0	5.0		part_1
156		2.0				1.0	0.0							2.0	197.0	0.39818738216126803	2.0		3.0	6.0	3.0	1.0		part_1
157		2.0				1.0	1.0							3.0	35.0	0.342895034889807	3.0		1.0	1.0	5.0	7.0		part_1
158		2.0				1.0	0.0							4.0	35.0	0.4790841868816642	4.0		1.0	8.0	1.0	8.0		part_1
159		2.0				1.0	0.0							3.0	376.0	0.41293359533301555	3.0		4.0	4.0	4.0	3.0		part_1
160		2.0				1.0	1.0							1.0	0.0	0.4118183786049485	1.0		0.0	7.0	7.0	5.0		part_1
161		2.0				2.0	0.0							1.0	44.0	0.41377200845454354	1.0		1.0	8.0	1.0	8.0		part_1
162		2.0				1.0	0.0							1.0	385.0	0.41357357674860395	1.0		4.0	4.0	4.0	3.0		part_1
163		2.0				1.0	1.0							4.0	420.0	0.45984130760189146	4.0		4.0	2.0	8.0	6.0		part_1
164		2.0				1.0	0.0							3.0	402.0	0.5616130870475899	3.0		4.0	4.0	4.0	3.0		part_1
165		2.0				1.0	0.0							1.0	0.0	0.43798208233783953	1.0		0.0	5.0	2.0	4.0		part_1
166		2.0				1.0	0.0							4.0	407.0	0.5284709190018475	4.0		4.0	4.0	4.0	3.0		part_1
167		2.0				1.0	0.0							3.0	86.0	0.33766063473012764	3.0		2.0	5.0	2.0	4.0		part_1
168		2.0				1.0	0.0							1.0	419.0	0.4615822910418501	1.0		4.0	4.0	4.0	3.0		part_1
169		2.0				1.0	1.0							1.0	202.0	0.42803809270844795	1.0		3.0	7.0	7.0	5.0		part_1
170		2.0				1.0	0.0							1.0	183.0	0.4062202561763115	1.0		3.0	6.0	3.0	1.0		part_1
171		2.0				1.0	1.0							2.0	393.0	0.3281685224355897	2.0		4.0	2.0	8.0	6.0		part_1
172		2.0				1.0	0.0							3.0	53.0	0.3954459334781859	3.0		1.0	8.0	1.0	8.0		part_1
173		2.0				1.0	1.0							3.0	222.0	0.38691872644994874	3.0		3.0	7.0	7.0	5.0		part_1
174		2.0				1.0	0.0							4.0	208.0	0.3637844408949604	4.0		3.0	6.0	3.0	1.0		part_1
175		2.0				1.0	0.0							1.0	56.0	0.45528807389200665	1.0		1.0	8.0	1.0	8.0		part_1
176		2.0				1.0	0.0							4.0	51.0	0.39793522645777557	4.0		1.0	8.0	1.0	8.0		part_1
177		2.0				1.0	0.0							1.0	194.0	0.444346268006484	1.0		3.0	6.0	3.0	1.0		part_1
178		2.0				1.0	0.0							3.0	215.0	0.4443151690356899	3.0		3.0	6.0	3.0	1.0		part_1
179		2.0				1.0	1.0							1.0	48.0	0.5010626204457367	1.0		1.0	1.0	5.0	7.0		part_1
180		2.0				1.0	1.0							4.0	56.0	0.3663664228806738	4.0		1.0	1.0	5.0	7.0		part_1
181		2.0				1.0	1.0							2.0	0.0	0.30047031927097123	2.0		0.0	7.0	7.0	5.0		part_1
182		2.0				1.0	0.0							2.0	381.0	0.4012728621746646	2.0		4.0	4.0	4.0	3.0		part_1
183		2.0				1.0	1.0							4.0	56.0	0.40264357888372615	4.0		1.0	1.0	5.0	7.0		part_1
184		2.0				1.0	0.0							4.0	200.0	0.42656040548172314	4.0		3.0	6.0	3.0	1.0		part_1
185		2.0				1.0	1.0							4.0	413.0	0.3808198745973641	4.0		4.0	2.0	8.0	6.0		part_1
186		2.0				1.0	1.0							4.0	197.0	0.3582793431705795	4.0		3.0	7.0	7.0	5.0		part_1
187		2.0				1.0	0.0							1.0	100.0	0.40637134744611103	1.0		2.0	5.0	2.0	4.0		part_1
188		2.0				1.0	0.0							3.0	390.0	0.3936049394396832	3.0		4.0	4.0	4.0	3.0		part_1
189		2.0				1.0	1.0							2.0	0.0	0.43892796771251597	2.0		0.0	3.0	6.0	2.0		part_1
190		2.0				1.0	1.0							4.0	35.0	0.31597891516867094	4.0		1.0	1.0	5.0	7.0		part_1
191		2.0				1.0	1.0							4.0	44.0	0.39529968416900374	4.0		1.0	1.0	5.0	7.0		part_1
192		2.0				1.0	1.0							1.0	0.0	0.41982570161053445	1.0		0.0	3.0	6.0	2.0		part_1
193		2.0				1.0	1.0							3.0	376.0	0.30758265215263236	3.0		4.0	2.0	8.0	6.0		part_1
194		2.0				2.0	0.0							1.0	27.0	0.43270341132301837	1.0		1.0	8.0	1.0	8.0		part_1
195		2.0				1.0	1.0							4.0	85.0	0.40975059061020147	4.0		2.0	3.0	6.0	2.0		part_1
196		2.0				1.0	1.0							2.0	410.0	0.4211884107644437	2.0		4.0	2.0	8.0	6.0		part_1
197		2.0				2.0	0.0							1.0	88.0	0.4121976303285919	1.0		2.0	5.0	2.0	4.0		part_1
198		2.0				1.0	1.0							3.0	378.0	0.37836808161227964	3.0		4.0	2.0	8.0	6.0		part_1
199		2.0				1.0	1.0							3.0	51.0	0.411162442076602	3.0		1.0	1.0	5.0	7.0		part_1
200		3.0				1.0	1.0							2.0	0.0	0.38591318266117014	2.0		0.0	2.0	8.0	6.0		part_1
201		3.0				1.0	0.0							2.0	120.0	0.3520336147339549	2.0		2.0	5.0	2.0	4.0		part_1
202		3.0				1.0	0.0							4.0	0.0	0.3524244010041002	4.0		0.0	6.0	3.0	1.0		part_1
203		3.0				1.0	1.0							4.0	0.0	0.47660156844358426	4.0		0.0	1.0	5.0	7.0		part_1
204		3.0				1.0	1.0							3.0	98.0	0.3876223721745191	3.0		2.0	3.0	6.0	2.0		part_1
205		3.0				1.0	0.0							4.0	0.0	0.4328449557215208	4.0		0.0	4.0	4.0	3.0		part_1
206		3.0				1.0	1.0							4.0	0.0	0.34302531188586727	4.0		0.0	7.0	7.0	5.0		part_1
207		3.0				1.0	0.0							4.0	114.0	0.3443279487255495	4.0		2.0	5.0	2.0	4.0		part_1
208		3.0				1.0	1.0							1.0	188.0	0.3453939364408143	1.0		3.0	7.0	7.0	5.0		part_1
209		3.0				1.0	0.0							3.0	186.0	0.35685762904176954	3.0		3.0	6.0	3.0	1.0		part_1
210		3.0				1.0	0.0							4.0	0.0	0.37841821160691325	4.0		0.0	8.0	1.0	8.0		part_1
211		3.0				2.0	0.0							1.0	0.0	0.43807646703498904	1.0		0.0	8.0	1.0	8.0		part_1
212		3.0				1.0	1.0							3.0	59.0	0.47084248343890067	3.0		1.0	1.0	5.0	7.0		part_1
213		3.0				1.0	0.0							3.0	0.0	0.3921098723221803	3.0		0.0	5.0	2.0	4.0		part_1
214		3.0				1.0	0.0							1.0	413.0	0.6183261454862077	1.0		4.0	4.0	4.0	3.0		part_1
215		3.0				1.0	1.0							3.0	84.0	0.5413314487232128	3.0		2.0	3.0	6.0	2.0		part_1
216		3.0				1.0	0.0							2.0	188.0	0.42904191416164394	2.0		3.0	6.0	3.0	1.0		part_1
217		3.0				1.0	1.0							1.0	177.0	0.46227697176800575	1.0		3.0	7.0	7.0	5.0		part_1
218		3.0				1.0	0.0							2.0	0.0	0.4631075393408537	2.0		0.0	8.0	1.0	8.0		part_1
219		3.0				1.0	1.0							4.0	216.0	0.3627470681676641	4.0		3.0	7.0	7.0	5.0		part_1
220		3.0				1.0	1.0							2.0	222.0	0.4525528004451189	2.0		3.0	7.0	7.0	5.0		part_1
221		3.0				1.0	1.0							4.0	188.0	0.48636610561516136	4.0		3.0	7.0	7.0	5.0		part_1
222		3.0				1.0	0.0							1.0	0.0	0.3982613611588022	1.0		0.0	6.0	3.0	1.0		part_1
223		3.0				1.0	1.0							4.0	56.0	0.4198124757676851	4.0		1.0	1.0	5.0	7.0		part_1
224		3.0				1.0	0.0							1.0	123.0	0.4223737716092728	1.0		2.0	5.0	2.0	4.0		part_1
225		3.0				1.0	0.0							4.0	225.0	0.411380021891091	4.0		3.0	6.0	3.0	1.0		part_1
226		3.0				1.0	1.0							2.0	73.0	0.45602550673356745	2.0		1.0	1.0	5.0	7.0		part_1
227		3.0				1.0	0.0							3.0	202.0	0.5231853946170304	3.0		3.0	6.0	3.0	1.0		part_1
228		3.0				1.0	1.0							2.0	0.0	0.38983386776817497	2.0		0.0	2.0	8.0	6.0		part_1
229		3.0				1.0	0.0							3.0	0.0	0.3349199227668578	3.0		0.0	4.0	4.0	3.0		part_1
230		3.0				1.0	0.0							4.0	86.0	0.43578221333154943	4.0		2.0	5.0	2.0	4.0		part_1
231		3.0				1.0	0.0							4.0	182.0	0.41339308534224983	4.0		3.0	6.0	3.0	1.0		part_1
232		3.0				1.0	1.0							1.0	119.0	0.3819922584370943	1.0		2.0	3.0	6.0	2.0		part_1
233		3.0				1.0	0.0							1.0	378.0	0.3935726156196324	1.0		4.0	4.0	4.0	3.0		part_1
234		3.0				1.0	1.0							2.0	0.0	0.37150005633884575	2.0		0.0	3.0	6.0	2.0		part_1
235		3.0				1.0	1.0							1.0	402.0	0.46091125345265027	1.0		4.0	2.0	8.0	6.0		part_1
236		3.0				1.0	0.0							4.0	0.0	0.3044511737243738	4.0		0.0	8.0	1.0	8.0		part_1
237		3.0				1.0	0.0							2.0	64.0	0.327982188158785	2.0		1.0	8.0	1.0	8.0		part_1
238		3.0				1.0	0.0							4.0	112.0	0.3506511377199786	4.0		2.0	5.0	2.0	4.0		part_1
239		3.0				1.0	0.0							3.0	224.0	0.3613285411556717	3.0		3.0	6.0	3.0	1.0		part_1
240		3.0				1.0	1.0							4.0	391.0	0.39567865803837776	4.0		4.0	2.0	8.0	6.0		part_1
241		3.0				1.0	1.0							4.0	220.0	0.3850176991545595	4.0		3.0	7.0	7.0	5.0		part_1
242		3.0				1.0	0.0							2.0	98.0	0.39809251176484395	2.0		2.0	5.0	2.0	4.0		part_1
243		3.0				3.0	0.0							3.0	0.0	0.35446578975825105	3.0		0.0	5.0	2.0	4.0		part_1
244		3.0				1.0	0.0							4.0	56.0	0.3999789146182593	4.0		1.0	8.0	1.0	8.0		part_1
245		3.0				1.0	1.0							3.0	48.0	0.4003922481642803	3.0		1.0	1.0	5.0	7.0		part_1
246		3.0				1.0	1.0							3.0	190.0	0.3780156043358147	3.0		3.0	7.0	7.0	5.0		part_1
247		3.0				2.0	1.0							1.0	0.0	0.4134801134496229	1.0		0.0	7.0	7.0	5.0		part_1
248		3.0				1.0	0.0							4.0	0.0	0.5821299781673588	4.0		0.0	8.0	1.0	8.0		part_1
249		3.0				1.0	0.0							1.0	0.0	0.5054814263276057	1.0		0.0	5.0	2.0	4.0		part_1
250		3.0				1.0	1.0							4.0	83.0	0.4033218168915482	4.0		2.0	3.0	6.0	2.0		part_1
251		3.0				1.0	1.0							4.0	0.0	0.4257549317262601	4.0		0.0	2.0	8.0	6.0		part_1
252		3.0				1.0	1.0							3.0	209.0	0.359220303434995	3.0		3.0	7.0	7.0	5.0		part_1
253		3.0				1.0	1.0							2.0	38.0	0.43927819961390924	2.0		1.0	1.0	5.0	7.0		part_1
254		3.0				1.0	0.0							1.0	0.0	0.3829790491727181	1.0		0.0	6.0	3.0	1.0		part_1
255		3.0				1.0	0.0							1.0	57.0	0.5979158404370537	1.0		1.0	8.0	1.0	8.0		part_1
256		3.0				1.0	0.0							4.0	0.0	0.4077885698789032	4.0		0.0	6.0	3.0	1.0		part_1
257		3.0				1.0	1.0							1.0	112.0	0.4646964794374071	1.0		2.0	3.0	6.0	2.0		part_1
258		3.0				1.0	1.0							2.0	419.0	0.4866120861697709	2.0		4.0	2.0	8.0	6.0		part_1
259		3.0				1.0	0.0							1.0	73.0	0.3972520641691517	1.0		1.0	8.0	1.0	8.0		part_1
260		3.0				1.0	1.0							4.0	0.0	0.4426708937535295	4.0		0.0	1.0	5.0	7.0		part_1
261		3.0				1.0	0.0							4.0	47.0	0.5666294456023024	4.0		1.0	8.0	1.0	8.0		part_1
262		3.0				1.0	0.0							4.0	68.0	0.45456115872366354	4.0		1.0	8.0	1.0	8.0		part_1
263		3.0				1.0	1.0							4.0	0.0	0.5917583347327309	4.0		0.0	2.0	8.0	6.0		part_1
264		3.0				1.0	0.0							3.0	183.0	0.7264864216122078	3.0		3.0	6.0	3.0	1.0		part_1
265		3.0				1.0	0.0							2.0	0.0	0.3458638158917893	2.0		0.0	4.0	4.0	3.0		part_1
266		3.0				1.0	0.0							2.0	54.0	0.4013817406084854	2.0		1.0	8.0	1.0	8.0		part_1
267		3.0				1.0	0.0							2.0	384.0	0.4032568706170423	2.0		4.0	4.0	4.0	3.0		part_1
268		3.0				1.0	0.0							2.0	401.0	0.33460698144335765	2.0		4.0	4.0	4.0	3.0		part_1
269		3.0				1.0	1.0							4.0	223.0	0.6403344837599434	4.0		3.0	7.0	7.0	5.0		part_1
270		3.0				1.0	1.0							1.0	30.0	0.6278913434798596	1.0		1.0	1.0	5.0	7.0		part_1
271		3.0				1.0	1.0							4.0	390.0	0.47098778147483245	4.0		4.0	2.0	8.0	6.0		part_1
272		3.0				1.0	1.0							2.0	412.0	0.48391818432719447	2.0		4.0	2.0	8.0	6.0		part_1
273		3.0				1.0	0.0							1.0	101.0	0.3836103288922459	1.0		2.0	5.0	2.0	4.0		part_1
274		3.0				1.0	1.0							1.0	0.0	0.41683003275829833	1.0		0.0	7.0	7.0	5.0		part_1
275		3.0				2.0	1.0							3.0	123.0	0.32770653544866946	3.0		2.0	3.0	6.0	2.0		part_1
276		3.0				1.0	0.0							2.0	407.0	0.3951001737295883	2.0		4.0	4.0	4.0	3.0		part_1
277		3.0				1.0	1.0							2.0	189.0	0.4637980164407054	2.0		3.0	7.0	7.0	5.0		part_1
278		3.0				1.0	1.0							1.0	200.0	0.5205900281725917	1.0		3.0	7.0	7.0	5.0		part_1
279		3.0				1.0	0.0							3.0	36.0	0.4761587954417337	3.0		1.0	8.0	1.0	8.0		part_1
280		3.0				1.0	0.0							2.0	0.0	0.42107238300377503	2.0		0.0	4.0	4.0	3.0		part_1
281		3.0				1.0	0.0							4.0	188.0	0.6009510496078292	4.0		3.0	6.0	3.0	1.0		part_1
282		3.0				1.0	0.0							2.0	186.0	0.42119884803832974	2.0		3.0	6.0	3.0	1.0		part_1
283		3.0				1.0	0.0							1.0	179.0	0.5570470117236255	1.0		3.0	6.0	3.0	1.0		part_1
284		3.0				1.0	1.0							3.0	0.0	0.46805053975549527	3.0		0.0	7.0	7.0	5.0		part_1
285		3.0				1.0	1.0							2.0	77.0	0.6255169931682758	2.0		2.0	3.0	6.0	2.0		part_1
286		3.0				1.0	0.0							3.0	90.0	0.4791309067659313	3.0		2.0	5.0	2.0	4.0		part_1
287		3.0				1.0	0.0							1.0	26.0	0.4141992684453726	1.0		1.0	8.0	1.0	8.0		part_1
288		3.0				1.0	1.0							2.0	384.0	0.4139727916044649	2.0		4.0	2.0	8.0	6.0		part_1
289		3.0				1.0	1.0							2.0	0.0	0.48147504060762003	2.0		0.0	7.0	7.0	5.0		part_1
290		3.0				1.0	0.0							3.0	36.0	0.5373937117692549	3.0		1.0	8.0	1.0	8.0		part_1
291		3.0				1.0	0.0							3.0	421.0	0.5831462883361382	3.0		4.0	4.0	4.0	3.0		part_1
292		3.0				1.0	0.0							3.0	87.0	0.39305298888939433	3.0		2.0	5.0	2.0	4.0		part_1
293		3.0				1.0	1.0							3.0	57.0	0.7311856796004577	3.0		1.0	1.0	5.0	7.0		part_1
294		3.0				1.0	1.0							3.0	0.0	0.39360393105016556	3.0		0.0	1.0	5.0	7.0		part_1
295		3.0				1.0	0.0							4.0	391.0	0.49540676816832274	4.0		4.0	4.0	4.0	3.0		part_1
296		3.0				1.0	0.0							1.0	389.0	0.47415859675675165	1.0		4.0	4.0	4.0	3.0		part_1
297		3.0				1.0	1.0							2.0	36.0	0.37289129044802394	2.0		1.0	1.0	5.0	7.0		part_1
298		3.0				1.0	0.0							1.0	376.0	0.3517253278841963	1.0		4.0	4.0	4.0	3.0		part_1
299		3.0				1.0	1.0							4.0	38.0	0.35198192045209	4.0		1.0	1.0	5.0	7.0		part_1
300		4.0				1.0	0.0							2.0	209.0	0.5345531054481398	2.0		3.0	6.0	3.0	1.0		part_1
301		4.0				1.0	0.0							4.0	384.0	0.37842568043561187	4.0		4.0	4.0	4.0	3.0		part_1
302		4.0				1.0	1.0							3.0	29.0	0.3429512609000085	3.0		1.0	1.0	5.0	7.0		part_1
303		4.0				1.0	0.0							2.0	98.0	0.32287166216701735	2.0		2.0	5.0	2.0	4.0		part_1
304		4.0				1.0	0.0							4.0	0.0	0.6708623853337485	4.0		0.0	6.0	3.0	1.0		part_1
305		4.0				1.0	0.0							4.0	85.0	0.36954729416174814	4.0		2.0	5.0	2.0	4.0		part_1
306		4.0				1.0	0.0							2.0	188.0	0.3234624346077908	2.0		3.0	6.0	3.0	1.0		part_1
307		4.0				1.0	0.0							2.0	38.0	0.504930524766678	2.0		1.0	8.0	1.0	8.0		part_1
308		4.0				1.0	1.0							4.0	101.0	0.7637507709005149	4.0		2.0	3.0	6.0	2.0		part_1
309		4.0				1.0	1.0							3.0	0.0	0.3822346758970525	3.0		0.0	7.0	7.0	5.0		part_1
310		4.0				1.0	1.0							3.0	68.0	0.39316229394171387	3.0		1.0	1.0	5.0	7.0		part_1
311		4.0				1.0	0.0							2.0	48.0	0.32649736359599046	2.0		1.0	8.0	1.0	8.0		part_1
312		4.0				1.0	1.0							3.0	186.0	0.5061083534528734	3.0		3.0	7.0	7.0	5.0		part_1
313		4.0				1.0	0.0							1.0	69.0	0.5315620191686321	1.0		1.0	8.0	1.0	8.0		part_1
314		4.0				1.0	0.0							2.0	45.0	0.4181730136042461	2.0		1.0	8.0	1.0	8.0		part_1
315		4.0				1.0	1.0							1.0	90.0	0.4523926469992148	1.0		2.0	3.0	6.0	2.0		part_1
316		4.0				1.0	0.0							1.0	0.0	0.5218202317191754	1.0		0.0	5.0	2.0	4.0		part_1
317		4.0				1.0	1.0							1.0	113.0	0.6568347453285241	1.0		2.0	3.0	6.0	2.0		part_1
318		4.0				1.0	1.0							1.0	401.0	0.4207025130453985	1.0		4.0	2.0	8.0	6.0		part_1
319		4.0				1.0	1.0							2.0	90.0	0.33195357299700845	2.0		2.0	3.0	6.0	2.0		part_1
320		4.0				1.0	0.0							2.0	73.0	0.42316868517082185	2.0		1.0	8.0	1.0	8.0		part_1
321		4.0				1.0	1.0							4.0	424.0	0.421067885166849	4.0		4.0	2.0	8.0	6.0		part_1
322		4.0				1.0	1.0							3.0	98.0	0.331796582613606	3.0		2.0	3.0	6.0	2.0		part_1
323		4.0				1.0	1.0							1.0	423.0	0.5140958179981681	1.0		4.0	2.0	8.0	6.0		part_1
324		4.0				1.0	0.0							4.0	203.0	0.35686571973201353	4.0		3.0	6.0	3.0	1.0		part_1
325		4.0				1.0	0.0							3.0	0.0	0.4907550721691223	3.0		0.0	4.0	4.0	3.0		part_1
326		4.0				1.0	1.0							3.0	194.0	0.43558638289687224	3.0		3.0	7.0	7.0	5.0		part_1
327		4.0				2.0	1.0							1.0	47.0	0.314580974765704	1.0		1.0	1.0	5.0	7.0		part_1
328		4.0				1.0	0.0							3.0	182.0	0.4594178581610322	3.0		3.0	6.0	3.0	1.0		part_1
329		4.0				1.0	0.0							4.0	217.0	0.41560252448834945	4.0		3.0	6.0	3.0	1.0		part_1
330		4.0				1.0	1.0							4.0	0.0	0.562105323158903	4.0		0.0	2.0	8.0	6.0		part_1
331		4.0				1.0	0.0							4.0	201.0	0.4157932904345216	4.0		3.0	6.0	3.0	1.0		part_1
332		4.0				1.0	0.0							4.0	113.0	0.5176084344420815	4.0		2.0	5.0	2.0	4.0		part_1
333		4.0				1.0	1.0							2.0	188.0	0.4397850927198306	2.0		3.0	7.0	7.0	5.0		part_1
334		4.0				1.0	1.0							1.0	199.0	0.3624230988934869	1.0		3.0	7.0	7.0	5.0		part_1
335		4.0				1.0	0.0							3.0	95.0	0.6428514247672865	3.0		2.0	5.0	2.0	4.0		part_1
336		4.0				1.0	1.0							2.0	27.0	0.4982510990375886	2.0		1.0	1.0	5.0	7.0		part_1
337		4.0				1.0	1.0							1.0	0.0	0.4093708541622618	1.0		0.0	3.0	6.0	2.0		part_1
338		4.0				1.0	1.0							1.0	215.0	0.4544893754355144	1.0		3.0	7.0	7.0	5.0		part_1
339		4.0				1.0	0.0							2.0	38.0	0.3757468517142115	2.0		1.0	8.0	1.0	8.0		part_1
340		4.0				1.0	0.0							4.0	0.0	0.45574255604879	4.0		0.0	4.0	4.0	3.0		part_1
341		4.0				1.0	0.0							2.0	410.0	0.40051309172122274	2.0		4.0	4.0	4.0	3.0		part_1
342		4.0				1.0	0.0							1.0	0.0	0.8841280780470697	1.0		0.0	8.0	1.0	8.0		part_1
343		4.0				1.0	0.0							1.0	194.0	0.5694996160309529	1.0		3.0	6.0	3.0	1.0		part_1
344		4.0				1.0	0.0							3.0	381.0	0.3446033170330338	3.0		4.0	4.0	4.0	3.0		part_1
345		4.0				1.0	0.0							3.0	205.0	0.45739486161619425	3.0		3.0	6.0	3.0	1.0		part_1
346		4.0				1.0	0.0							1.0	395.0	0.43558325299818534	1.0		4.0	4.0	4.0	3.0		part_1
347		4.0				1.0	0.0							1.0	30.0	0.38055773072119337	1.0		1.0	8.0	1.0	8.0		part_1
348		4.0				1.0	1.0							2.0	45.0	0.35831547516863793	2.0		1.0	1.0	5.0	7.0		part_1
349		4.0				1.0	0.0							3.0	65.0	0.46077601103752386	3.0		1.0	8.0	1.0	8.0		part_1
350		4.0				1.0	1.0							3.0	415.0	0.4378606304526329	3.0		4.0	2.0	8.0	6.0		part_1
351		4.0				1.0	1.0							1.0	53.0	0.4402549473452382	1.0		1.0	1.0	5.0	7.0		part_1
352		4.0				1.0	0.0							4.0	190.0	0.43895895703462884	4.0		3.0	6.0	3.0	1.0		part_1
353		4.0				1.0	0.0							1.0	0.0	0.4739894298982108	1.0		0.0	8.0	1.0	8.0		part_1
354		4.0				1.0	0.0							2.0	98.0	0.3734983121539699	2.0		2.0	5.0	2.0	4.0		part_1
355		4.0				1.0	1.0							2.0	105.0	0.5770792380499188	2.0		2.0	3.0	6.0	2.0		part_1
356		4.0				1.0	0.0							2.0	0.0	0.4301722870004596	2.0		0.0	5.0	2.0	4.0		part_1
357		4.0				1.0	0.0							2.0	393.0	0.4990705510281259	2.0		4.0	4.0	4.0	3.0		part_1
358		4.0				1.0	1.0							3.0	0.0	0.3977191083395155	3.0		0.0	1.0	5.0	7.0		part_1
359		4.0				1.0	1.0							1.0	88.0	0.47716935476637445	1.0		2.0	3.0	6.0	2.0		part_1
360		4.0				1.0	1.0							3.0	183.0	0.4776585088839056	3.0		3.0	7.0	7.0	5.0		part_1
361		4.0				1.0	1.0							3.0	98.0	0.3983547593234107	3.0		2.0	3.0	6.0	2.0		part_1
362		4.0				1.0	1.0							4.0	389.0	0.6815754261624534	4.0		4.0	2.0	8.0	6.0		part_1
363		4.0				1.0	1.0							4.0	419.0	0.480682298031752	4.0		4.0	2.0	8.0	6.0		part_1
364		4.0				1.0	0.0							2.0	84.0	0.3442193411756307	2.0		2.0	5.0	2.0	4.0		part_1
365		4.0				1.0	1.0							1.0	36.0	0.39010714400501456	1.0		1.0	1.0	5.0	7.0		part_1
366		4.0				1.0	0.0							4.0	59.0	0.6831061081611551	4.0		1.0	8.0	1.0	8.0		part_1
367		4.0				1.0	0.0							2.0	0.0	0.4145179488841677	2.0		0.0	8.0	1.0	8.0		part_1
368		4.0				1.0	0.0							4.0	423.0	0.40358945344632957	4.0		4.0	4.0	4.0	3.0		part_1
369		4.0				1.0	1.0							2.0	117.0	0.4715436570404563	2.0		2.0	3.0	6.0	2.0		part_1
370		4.0				1.0	0.0							1.0	48.0	0.46193034945463296	1.0		1.0	8.0	1.0	8.0		part_1
371		4.0				1.0	0.0							2.0	216.0	0.540822115042829	2.0		3.0	6.0	3.0	1.0		part_1
372		4.0				1.0	0.0							3.0	60.0	0.4270192867552396	3.0		1.0	8.0	1.0	8.0		part_1
373		4.0				1.0	1.0							1.0	384.0	0.4847750373301096	1.0		4.0	2.0	8.0	6.0		part_1
374		4.0				1.0	1.0							4.0	95.0	0.45252127216372173	4.0		2.0	3.0	6.0	2.0		part_1
375		4.0				1.0	0.0							3.0	0.0	0.38476237274880987	3.0		0.0	6.0	3.0	1.0		part_1
376		4.0				1.0	0.0							1.0	0.0	0.5106997877592221	1.0		0.0	6.0	3.0	1.0		part_1
377		4.0				1.0	0.0							1.0	176.0	0.7114716658979887	1.0		3.0	6.0	3.0	1.0		part_1
378		4.0				1.0	0.0							1.0	77.0	0.37679786632361356	1.0		2.0	5.0	2.0	4.0		part_1
379		4.0				1.0	0.0							2.0	199.0	0.39939054075512104	2.0		3.0	6.0	3.0	1.0		part_1
380		4.0				1.0	1.0							2.0	381.0	0.3776058424409712	2.0		4.0	2.0	8.0	6.0		part_1
381		4.0				1.0	0.0							2.0	393.0	0.4327901331707835	2.0		4.0	4.0	4.0	3.0		part_1
382		4.0				1.0	1.0							3.0	86.0	0.6686453142756363	3.0		2.0	3.0	6.0	2.0		part_1
383		4.0				1.0	0.0							2.0	120.0	0.4794322658854071	2.0		2.0	5.0	2.0	4.0		part_1
384		4.0				1.0	0.0							4.0	106.0	0.9075310864718631	4.0		2.0	5.0	2.0	4.0		part_1
385		4.0				1.0	0.0							4.0	112.0	0.6149331476044608	4.0		2.0	5.0	2.0	4.0		part_1
386		4.0				1.0	1.0							3.0	225.0	0.6048174438765272	3.0		3.0	7.0	7.0	5.0		part_1
387		4.0				1.0	0.0							4.0	0.0	0.6273198977141874	4.0		0.0	6.0	3.0	1.0		part_1
388		4.0				1.0	0.0							2.0	29.0	0.5831877723248908	2.0		1.0	8.0	1.0	8.0		part_1
389		4.0				1.0	0.0							2.0	0.0	0.5398355106153758	2.0		0.0	6.0	3.0	1.0		part_1
390		4.0				1.0	0.0							1.0	0.0	0.4379457138857106	1.0		0.0	4.0	4.0	3.0		part_1
391		4.0				1.0	0.0							4.0	33.0	0.618761129444465	4.0		1.0	8.0	1.0	8.0		part_1
392		4.0				1.0	0.0							2.0	420.0	0.42755021261109505	2.0		4.0	4.0	4.0	3.0		part_1
393		4.0				1.0	1.0							4.0	0.0	0.4170092507119989	4.0		0.0	2.0	8.0	6.0		part_1
394		4.0				1.0	1.0							4.0	0.0	0.6537562196026556	4.0		0.0	3.0	6.0	2.0		part_1
395		4.0				1.0	1.0							4.0	112.0	0.3959981423249701	4.0		2.0	3.0	6.0	2.0		part_1
396		4.0				1.0	1.0							3.0	0.0	0.35017400688957423	3.0		0.0	3.0	6.0	2.0		part_1
397		4.0				1.0	1.0							1.0	0.0	0.6443952380359406	1.0		0.0	2.0	8.0	6.0		part_1
398		4.0				1.0	0.0							1.0	0.0	0.5880781437299447	1.0		0.0	5.0	2.0	4.0		part_1
399		4.0				1.0	1.0							3.0	106.0	0.5330312304431573	3.0		2.0	3.0	6.0	2.0		part_1
0	4.0	1.0			250.0	0.0	1.0							5.0	0.0	0.0	0.0	250.0	1.0	1.0	5.0	7.0	1.0	part_2
1	4.0	1.0			300.0	0.0	1.0							5.0	0.0	0.0	0.0	250.0	4.0	2.0	8.0	6.0	1.0	part_2
2	1.0	1.0			350.0	0.0	1.0							5.0	0.0	0.7338095712620998	5.0	250.0	2.0	3.0	6.0	2.0	0.0	part_2
3	1.0	1.0			350.0	0.0	0.0							6.0	0.0	0.8924051137582865	6.0	250.0	3.0	6.0	3.0	1.0	0.0	part_2
4	4.0	1.0			350.0	0.0	1.0							6.0	0.0	0.0	0.0	250.0	4.0	2.0	8.0	6.0	1.0	part_2
5	1.0	1.0			350.0	0.0	0.0							5.0	0.0	0.3313758342555957	5.0	300.0	3.0	6.0	3.0	1.0	0.0	part_2
6	1.0	1.0			350.0	0.0	0.0							5.0	0.0	0.9836285612691427	5.0	300.0	2.0	5.0	2.0	4.0	0.0	part_2
7	1.0	1.0			350.0	0.0	0.0							5.0	0.0	1.1197509965422796	5.0	300.0	3.0	6.0	3.0	1.0	0.0	part_2
8	4.0	1.0			350.0	0.0	1.0							5.0	0.0	0.0	0.0	300.0	3.0	7.0	7.0	5.0	1.0	part_2
9	1.0	1.0			400.0	0.0	1.0							6.0	0.0	0.39096010704815853	6.0	300.0	2.0	3.0	6.0	2.0	0.0	part_2
10	1.0	1.0			400.0	0.0	1.0							5.0	0.0	0.9996049645269522	5.0	300.0	2.0	3.0	6.0	2.0	0.0	part_2
11	4.0	1.0			400.0	0.0	1.0							5.0	0.0	0.0	0.0	300.0	3.0	7.0	7.0	5.0	1.0	part_2
12	1.0	1.0			450.0	0.0	0.0							5.0	0.0	0.842308607272571	5.0	300.0	4.0	4.0	4.0	3.0	0.0	part_2
13	1.0	1.0			450.0	0.0	1.0							5.0	0.0	1.0909643435443286	5.0	300.0	1.0	1.0	5.0	7.0	0.0	part_2
14	1.0	1.0			450.0	0.0	1.0							6.0	0.0	1.1246878750243923	6.0	300.0	3.0	7.0	7.0	5.0	0.0	part_2
15	1.0	1.0			450.0	0.0	0.0							5.0	0.0	1.0936178195115644	5.0	300.0	4.0	4.0	4.0	3.0	0.0	part_2
16	1.0	1.0			450.0	0.0	1.0							6.0	0.0	0.8899414045154117	6.0	300.0	2.0	3.0	6.0	2.0	0.0	part_2
17	1.0	1.0			450.0	0.0	0.0							6.0	0.0	1.1732007402461022	6.0	300.0	1.0	8.0	1.0	8.0	0.0	part_2
18	1.0	1.0			450.0	0.0	0.0							6.0	0.0	1.0718967635475565	6.0	300.0	3.0	6.0	3.0	1.0	0.0	part_2
19	1.0	1.0			450.0	0.0	0.0							6.0	0.0	0.8272132107522339	6.0	300.0	1.0	8.0	1.0	8.0	0.0	part_2
20	4.0	1.0			450.0	0.0	1.0							6.0	0.0	0.0	0.0	300.0	1.0	1.0	5.0	7.0	1.0	part_2
21	1.0	1.0			450.0	0.0	0.0							6.0	0.0	0.9956823695101775	6.0	350.0	4.0	4.0	4.0	3.0	0.0	part_2
22	4.0	1.0			450.0	0.0	1.0							6.0	0.0	0.0	0.0	350.0	1.0	1.0	5.0	7.0	1.0	part_2
23	1.0	1.0			450.0	0.0	0.0							6.0	0.0	0.7064273655123543	6.0	400.0	2.0	5.0	2.0	4.0	0.0	part_2
24	1.0	1.0			450.0	0.0	0.0							5.0	0.0	0.9432838119973894	5.0	400.0	2.0	5.0	2.0	4.0	0.0	part_2
25	1.0	1.0			450.0	0.0	0.0							6.0	0.0	0.8991443402774166	6.0	400.0	2.0	5.0	2.0	4.0	0.0	part_2
26	1.0	1.0			450.0	0.0	0.0							5.0	0.0	0.9108059195132228	5.0	400.0	3.0	6.0	3.0	1.0	0.0	part_2
27	1.0	1.0			450.0	0.0	0.0							6.0	0.0	0.7985176206275355	6.0	400.0	1.0	8.0	1.0	8.0	0.0	part_2
28	1.0	1.0			450.0	0.0	0.0							5.0	0.0	1.0921326810203027	5.0	400.0	3.0	6.0	3.0	1.0	0.0	part_2
29	1.0	1.0			450.0	0.0	0.0							5.0	0.0	0.9242715440341271	5.0	400.0	4.0	4.0	4.0	3.0	0.0	part_2
30	4.0	1.0			450.0	0.0	1.0							5.0	0.0	0.0	0.0	400.0	4.0	2.0	8.0	6.0	1.0	part_2
31	4.0	1.0			500.0	0.0	1.0							5.0	0.0	0.0	0.0	400.0	3.0	7.0	7.0	5.0	1.0	part_2
32	4.0	1.0			550.0	0.0	1.0							5.0	0.0	0.0	0.0	400.0	1.0	1.0	5.0	7.0	1.0	part_2
33	1.0	1.0			600.0	0.0	0.0							6.0	0.0	0.9059412000206066	6.0	400.0	1.0	8.0	1.0	8.0	0.0	part_2
34	3.0	1.0			600.0	0.0	1.0							6.0	0.0	0.3995779957913328	6.0	400.0	1.0	1.0	5.0	7.0	1.0	part_2
35	1.0	1.0			600.0	0.0	0.0							5.0	0.0	0.9742508899944369	5.0	350.0	4.0	4.0	4.0	3.0	0.0	part_2
36	3.0	2.0			600.0	0.0	1.0							6.0	0.0	0.41267451728344895	6.0	350.0	4.0	2.0	8.0	6.0	1.0	part_2
37	1.0	2.0			600.0	0.0	0.0							6.0	0.0	0.39122124754067045	6.0	300.0	3.0	6.0	3.0	1.0	0.0	part_2
38	1.0	2.0			600.0	0.0	0.0							5.0	0.0	0.2920665030833334	5.0	300.0	1.0	8.0	1.0	8.0	0.0	part_2
39	1.0	2.0			600.0	0.0	0.0							6.0	0.0	0.3160588747705333	6.0	300.0	4.0	4.0	4.0	3.0	0.0	part_2
40	3.0	2.0			600.0	0.0	1.0							6.0	0.0	0.30854507224285044	6.0	300.0	1.0	1.0	5.0	7.0	1.0	part_2
41	1.0	2.0			600.0	0.0	0.0							6.0	0.0	0.6655668803141452	6.0	250.0	2.0	5.0	2.0	4.0	0.0	part_2
42	3.0	2.0			600.0	0.0	1.0							5.0	0.0	0.36328897275961936	5.0	250.0	4.0	2.0	8.0	6.0	1.0	part_2
43	1.0	2.0			550.0	0.0	0.0							6.0	0.0	0.31812293102848344	6.0	250.0	3.0	6.0	3.0	1.0	0.0	part_2
44	3.0	2.0			550.0	0.0	1.0							6.0	0.0	0.3413546090014279	6.0	250.0	3.0	7.0	7.0	5.0	1.0	part_2
45	1.0	2.0			550.0	0.0	0.0							6.0	0.0	0.3306139225169318	6.0	200.0	1.0	8.0	1.0	8.0	0.0	part_2
46	1.0	2.0			550.0	0.0	1.0							5.0	0.0	0.48987845379451755	5.0	200.0	1.0	1.0	5.0	7.0	0.0	part_2
47	1.0	2.0			550.0	0.0	0.0							5.0	0.0	0.3327016402618028	5.0	200.0	3.0	6.0	3.0	1.0	0.0	part_2
48	1.0	2.0			550.0	0.0	0.0							5.0	0.0	0.49117070506326854	5.0	200.0	2.0	5.0	2.0	4.0	0.0	part_2
49	1.0	2.0			550.0	0.0	1.0							6.0	0.0	0.34565625300456304	6.0	200.0	1.0	1.0	5.0	7.0	0.0	part_2
50	3.0	2.0			550.0	0.0	1.0							5.0	0.0	0.3123791010293644	5.0	200.0	1.0	1.0	5.0	7.0	1.0	part_2
51	1.0	2.0			500.0	0.0	0.0							6.0	0.0	0.30213750975963194	6.0	200.0	4.0	4.0	4.0	3.0	0.0	part_2
52	1.0	2.0			500.0	0.0	0.0							6.0	0.0	0.4156424080283614	6.0	200.0	2.0	5.0	2.0	4.0	0.0	part_2
53	3.0	2.0			500.0	0.0	1.0							6.0	0.0	0.3495473437506007	6.0	200.0	1.0	1.0	5.0	7.0	1.0	part_2
54	1.0	2.0			500.0	0.0	1.0							6.0	0.0	0.39411571028176695	6.0	150.0	4.0	2.0	8.0	6.0	0.0	part_2
55	4.0	2.0			500.0	0.0	1.0							6.0	0.0	0.0	0.0	150.0	1.0	1.0	5.0	7.0	1.0	part_2
56	1.0	2.0			500.0	0.0	0.0							6.0	0.0	0.44092737053870223	6.0	200.0	1.0	8.0	1.0	8.0	0.0	part_2
57	3.0	2.0			500.0	0.0	1.0							5.0	0.0	0.2957007267832523	5.0	200.0	3.0	7.0	7.0	5.0	1.0	part_2
58	3.0	2.0			450.0	0.0	1.0							5.0	0.0	0.3859690252429573	5.0	200.0	2.0	3.0	6.0	2.0	1.0	part_2
59	4.0	2.0			400.0	0.0	1.0							6.0	0.0	0.0	0.0	200.0	3.0	7.0	7.0	5.0	1.0	part_2
60	1.0	2.0			400.0	0.0	0.0							6.0	0.0	0.5469432107929606	6.0	250.0	4.0	4.0	4.0	3.0	0.0	part_2
61	1.0	2.0			400.0	0.0	0.0							6.0	0.0	0.5801338812743779	6.0	250.0	4.0	4.0	4.0	3.0	0.0	part_2
62	1.0	2.0			400.0	0.0	1.0							6.0	0.0	0.5919980362523347	6.0	250.0	1.0	1.0	5.0	7.0	0.0	part_2
63	4.0	2.0			400.0	0.0	1.0							5.0	0.0	0.0	0.0	250.0	3.0	7.0	7.0	5.0	1.0	part_2
64	1.0	2.0			450.0	0.0	0.0							6.0	0.0	0.2902969146380201	6.0	250.0	1.0	8.0	1.0	8.0	0.0	part_2
65	1.0	2.0			450.0	0.0	0.0							5.0	0.0	0.5386161263013491	5.0	250.0	3.0	6.0	3.0	1.0	0.0	part_2
66	3.0	2.0			450.0	0.0	1.0							6.0	0.0	0.39294513876666315	6.0	250.0	2.0	3.0	6.0	2.0	1.0	part_2
67	1.0	2.0			450.0	0.0	0.0							5.0	0.0	0.40596042027755175	5.0	200.0	1.0	8.0	1.0	8.0	0.0	part_2
68	3.0	2.0			450.0	0.0	1.0							5.0	0.0	0.36130193527787924	5.0	200.0	1.0	1.0	5.0	7.0	1.0	part_2
69	3.0	2.0			400.0	0.0	1.0							6.0	0.0	0.3633419510006206	6.0	200.0	3.0	7.0	7.0	5.0	1.0	part_2
70	3.0	2.0			400.0	0.0	1.0							6.0	0.0	0.38614091827184893	6.0	150.0	2.0	3.0	6.0	2.0	1.0	part_2
71	1.0	2.0			400.0	0.0	0.0							5.0	0.0	0.4097156462230487	5.0	100.0	3.0	6.0	3.0	1.0	0.0	part_2
72	3.0	3.0			400.0	0.0	1.0							5.0	0.0	0.5235086005122866	5.0	100.0	2.0	3.0	6.0	2.0	1.0	part_2
73	3.0	3.0			350.0	0.0	1.0							6.0	0.0	0.27691729774232954	6.0	100.0	2.0	3.0	6.0	2.0	1.0	part_2
74	1.0	3.0			350.0	0.0	0.0							6.0	0.0	0.5373701287462609	6.0	50.0	3.0	6.0	3.0	1.0	0.0	part_2
75	1.0	3.0			350.0	0.0	0.0							5.0	0.0	0.3699105945415795	5.0	50.0	2.0	5.0	2.0	4.0	0.0	part_2
76	3.0	3.0			350.0	0.0	1.0							5.0	0.0	0.359266603278229	5.0	50.0	1.0	1.0	5.0	7.0	1.0	part_2
77	4.0	3.0			300.0	0.0	1.0							5.0	0.0	0.0	0.0	50.0	3.0	7.0	7.0	5.0	1.0	part_2
78	1.0	3.0			350.0	0.0	0.0							6.0	0.0	0.37066799926105887	6.0	50.0	2.0	5.0	2.0	4.0	0.0	part_2
79	3.0	3.0			350.0	0.0	1.0							6.0	0.0	0.42927271901862696	6.0	50.0	3.0	7.0	7.0	5.0	1.0	part_2
80	3.0	3.0			350.0	0.0	1.0							5.0	0.0	0.5305696042341879	5.0	0.0	4.0	2.0	8.0	6.0	1.0	part_2
81	1.0	3.0			300.0	0.0	0.0							6.0	0.0	0.5883532155421562	6.0	0.0	1.0	8.0	1.0	8.0	0.0	part_2
82	4.0	3.0			300.0	0.0	1.0							5.0	0.0	0.0	0.0	0.0	2.0	3.0	6.0	2.0	1.0	part_2
83	1.0	3.0			350.0	0.0	0.0							5.0	0.0	0.3870596680644667	5.0	0.0	4.0	4.0	4.0	3.0	0.0	part_2
84	3.0	3.0			350.0	0.0	1.0							6.0	0.0	0.3203849520214135	6.0	0.0	4.0	2.0	8.0	6.0	1.0	part_2
85	1.0	3.0			350.0	0.0	0.0							5.0	0.0	0.47811035175982397	5.0	0.0	4.0	4.0	4.0	3.0	0.0	part_2
86	1.0	3.0			350.0	0.0	1.0							5.0	0.0	0.35541540825215634	5.0	0.0	4.0	2.0	8.0	6.0	0.0	part_2
87	1.0	3.0			350.0	0.0	0.0							5.0	0.0	0.34443647527950816	5.0	0.0	1.0	8.0	1.0	8.0	0.0	part_2
88	1.0	3.0			350.0	0.0	0.0							6.0	0.0	0.37960660374665167	6.0	0.0	3.0	6.0	3.0	1.0	0.0	part_2
89	4.0	3.0			350.0	0.0	1.0							6.0	0.0	0.0	0.0	0.0	3.0	7.0	7.0	5.0	1.0	part_2
90	1.0	3.0			350.0	0.0	1.0							5.0	0.0	0.37162273727881256	5.0	50.0	2.0	3.0	6.0	2.0	0.0	part_2
91	3.0	3.0			350.0	0.0	1.0							6.0	0.0	0.29148081174935214	6.0	50.0	2.0	3.0	6.0	2.0	1.0	part_2
92	4.0	3.0			350.0	0.0	1.0							6.0	0.0	0.0	0.0	0.0	4.0	2.0	8.0	6.0	1.0	part_2
93	1.0	3.0			350.0	0.0	0.0							6.0	0.0	0.43011564506741706	6.0	50.0	3.0	6.0	3.0	1.0	0.0	part_2
94	3.0	3.0			350.0	0.0	1.0							5.0	0.0	0.45139643002767116	5.0	50.0	1.0	1.0	5.0	7.0	1.0	part_2
95	1.0	3.0			300.0	0.0	0.0							6.0	0.0	0.6005820622813189	6.0	50.0	3.0	6.0	3.0	1.0	0.0	part_2
96	1.0	3.0			300.0	0.0	1.0							6.0	0.0	0.36347002048569266	6.0	50.0	3.0	7.0	7.0	5.0	0.0	part_2
97	1.0	3.0			300.0	0.0	0.0							5.0	0.0	0.36450641724513844	5.0	50.0	4.0	4.0	4.0	3.0	0.0	part_2
98	1.0	3.0			300.0	0.0	1.0							6.0	0.0	0.37739366028108634	6.0	50.0	1.0	1.0	5.0	7.0	0.0	part_2
99	3.0	3.0			300.0	0.0	1.0							6.0	0.0	0.3210745462856721	6.0	50.0	3.0	7.0	7.0	5.0	1.0	part_2
100	4.0	3.0			300.0	0.0	1.0							5.0	0.0	0.0	0.0	0.0	1.0	1.0	5.0	7.0	1.0	part_2
101	4.0	3.0			350.0	0.0	1.0							5.0	0.0	0.0	0.0	0.0	1.0	1.0	5.0	7.0	1.0	part_2
102	1.0	3.0			400.0	0.0	0.0							5.0	0.0	0.46988716624036897	5.0	0.0	2.0	5.0	2.0	4.0	0.0	part_2
103	1.0	3.0			400.0	0.0	0.0							5.0	0.0	0.3693990900646895	5.0	0.0	2.0	5.0	2.0	4.0	0.0	part_2
104	1.0	3.0			400.0	0.0	0.0							6.0	0.0	0.38113397602865007	6.0	0.0	4.0	4.0	4.0	3.0	0.0	part_2
105	1.0	3.0			400.0	0.0	0.0							6.0	0.0	0.3827252265327843	6.0	0.0	3.0	6.0	3.0	1.0	0.0	part_2
106	1.0	3.0			400.0	0.0	0.0							6.0	0.0	0.34946406475501135	6.0	0.0	4.0	4.0	4.0	3.0	0.0	part_2
107	1.0	3.0			400.0	0.0	0.0							5.0	0.0	0.36268663105147425	5.0	0.0	3.0	6.0	3.0	1.0	0.0	part_2
108	1.0	4.0			400.0	0.0	0.0							5.0	0.0	0.48155574925476685	5.0	0.0	1.0	8.0	1.0	8.0	0.0	part_2
109	1.0	4.0			400.0	0.0	0.0							5.0	0.0	0.2675127230322687	5.0	0.0	1.0	8.0	1.0	8.0	0.0	part_2
110	1.0	4.0			400.0	0.0	0.0							6.0	0.0	0.33523288228025194	6.0	0.0	2.0	5.0	2.0	4.0	0.0	part_2
111	3.0	4.0			400.0	0.0	1.0							6.0	0.0	0.3703215357672889	6.0	0.0	4.0	2.0	8.0	6.0	1.0	part_2
112	1.0	4.0			400.0	0.0	0.0							6.0	0.0	0.7098037210525945	6.0	0.0	3.0	6.0	3.0	1.0	0.0	part_2
113	1.0	4.0			400.0	0.0	0.0							6.0	0.0	0.29261219751788303	6.0	0.0	1.0	8.0	1.0	8.0	0.0	part_2
114	1.0	4.0			400.0	0.0	1.0							5.0	0.0	0.3384244237677194	5.0	0.0	3.0	7.0	7.0	5.0	0.0	part_2
115	1.0	4.0			400.0	0.0	0.0							5.0	0.0	0.3967537195130717	5.0	0.0	1.0	8.0	1.0	8.0	0.0	part_2
116	3.0	4.0			400.0	0.0	1.0							5.0	0.0	0.3625832762918435	5.0	0.0	2.0	3.0	6.0	2.0	1.0	part_2
117	1.0	4.0			350.0	0.0	0.0							5.0	0.0	0.6451583292509895	5.0	0.0	1.0	8.0	1.0	8.0	0.0	part_2
118	1.0	4.0			350.0	0.0	0.0							6.0	0.0	0.6579116317880107	6.0	0.0	2.0	5.0	2.0	4.0	0.0	part_2
119	3.0	4.0			350.0	0.0	1.0							5.0	0.0	0.3446012985514244	5.0	0.0	4.0	2.0	8.0	6.0	1.0	part_2
120	4.0	4.0			300.0	0.0	1.0							6.0	0.0	0.0	0.0	0.0	1.0	1.0	5.0	7.0	1.0	part_2
121	1.0	4.0			300.0	0.0	0.0							5.0	0.0	0.47946860277443193	5.0	50.0	4.0	4.0	4.0	3.0	0.0	part_2
122	4.0	4.0			300.0	0.0	1.0							6.0	0.0	0.0	0.0	50.0	4.0	2.0	8.0	6.0	1.0	part_2
123	1.0	4.0			300.0	0.0	0.0							6.0	0.0	0.3906958587758709	6.0	100.0	1.0	8.0	1.0	8.0	0.0	part_2
124	1.0	4.0			300.0	0.0	0.0							5.0	0.0	0.31472493703768123	5.0	100.0	4.0	4.0	4.0	3.0	0.0	part_2
125	1.0	4.0			300.0	0.0	0.0							5.0	0.0	0.35942544776480645	5.0	100.0	2.0	5.0	2.0	4.0	0.0	part_2
126	3.0	4.0			300.0	0.0	1.0							6.0	0.0	0.32618545526929665	6.0	100.0	3.0	7.0	7.0	5.0	1.0	part_2
127	3.0	4.0			300.0	0.0	1.0							5.0	0.0	0.4077735070604831	5.0	50.0	3.0	7.0	7.0	5.0	1.0	part_2
128	1.0	4.0			250.0	0.0	0.0							5.0	0.0	0.5303332949988544	5.0	50.0	3.0	6.0	3.0	1.0	0.0	part_2
129	1.0	4.0			250.0	0.0	0.0							5.0	0.0	0.46316878600919154	5.0	50.0	1.0	8.0	1.0	8.0	0.0	part_2
130	4.0	4.0			250.0	0.0	1.0							6.0	0.0	0.0	0.0	50.0	2.0	3.0	6.0	2.0	1.0	part_2
131	1.0	4.0			250.0	0.0	0.0							5.0	0.0	0.48768305777048226	5.0	100.0	4.0	4.0	4.0	3.0	0.0	part_2
132	1.0	4.0			250.0	0.0	0.0							6.0	0.0	0.49018838025222067	6.0	100.0	1.0	8.0	1.0	8.0	0.0	part_2
133	1.0	4.0			250.0	0.0	0.0							5.0	0.0	0.43494347925297916	5.0	100.0	1.0	8.0	1.0	8.0	0.0	part_2
134	3.0	4.0			250.0	0.0	1.0							6.0	0.0	0.3905817647901131	6.0	100.0	3.0	7.0	7.0	5.0	1.0	part_2
135	4.0	4.0			250.0	0.0	1.0							6.0	0.0	0.0	0.0	50.0	3.0	7.0	7.0	5.0	1.0	part_2
136	1.0	4.0			250.0	0.0	0.0							6.0	0.0	0.6508757322735619	6.0	100.0	3.0	6.0	3.0	1.0	0.0	part_2
137	1.0	4.0			250.0	0.0	0.0							6.0	0.0	0.48257066404039506	6.0	100.0	2.0	5.0	2.0	4.0	0.0	part_2
138	1.0	4.0			250.0	0.0	0.0							5.0	0.0	0.38186210829007905	5.0	100.0	1.0	8.0	1.0	8.0	0.0	part_2
139	4.0	4.0			250.0	0.0	1.0							6.0	0.0	0.0	0.0	100.0	4.0	2.0	8.0	6.0	1.0	part_2
140	1.0	4.0			250.0	0.0	1.0							5.0	0.0	0.6527354860299965	5.0	150.0	3.0	7.0	7.0	5.0	0.0	part_2
141	3.0	4.0			250.0	0.0	1.0							6.0	0.0	0.407618605546304	6.0	150.0	3.0	7.0	7.0	5.0	1.0	part_2
142	1.0	4.0			250.0	0.0	0.0							5.0	0.0	0.4982774800300831	5.0	100.0	2.0	5.0	2.0	4.0	0.0	part_2
143	1.0	4.0			250.0	0.0	1.0							5.0	0.0	0.4300157205434516	5.0	100.0	1.0	1.0	5.0	7.0	0.0	part_2
144	5.0	5.0			250.0	0.0	0.0							6.0	0.0	0.0	0.0	100.0	1.0	8.0	1.0	8.0	0.0	part_2
145	1.0	5.0			250.0	0.0	0.0							6.0	0.0	0.46449477928399574	6.0	100.0	3.0	6.0	3.0	1.0	0.0	part_2
146	3.0	5.0			250.0	0.0	1.0							6.0	0.0	0.3292652280215407	6.0	100.0	1.0	1.0	5.0	7.0	1.0	part_2
147	1.0	5.0			250.0	0.0	0.0							6.0	0.0	0.3750032542448025	6.0	50.0	4.0	4.0	4.0	3.0	0.0	part_2
148	1.0	5.0			250.0	0.0	0.0							6.0	0.0	0.2979299370199442	6.0	50.0	2.0	5.0	2.0	4.0	0.0	part_2
149	1.0	5.0			250.0	0.0	0.0							6.0	0.0	0.32051691503147595	6.0	50.0	2.0	5.0	2.0	4.0	0.0	part_2
150	3.0	5.0			250.0	0.0	1.0							6.0	0.0	0.37724582027294673	6.0	50.0	1.0	1.0	5.0	7.0	1.0	part_2
151	4.0	5.0			250.0	0.0	1.0							6.0	0.0	0.0	0.0	0.0	2.0	3.0	6.0	2.0	1.0	part_2
152	1.0	5.0			250.0	0.0	0.0							5.0	0.0	0.29022263377555646	5.0	50.0	2.0	5.0	2.0	4.0	0.0	part_2
153	1.0	5.0			250.0	0.0	0.0							5.0	0.0	0.4695754048007075	5.0	50.0	1.0	8.0	1.0	8.0	0.0	part_2
154	3.0	5.0			250.0	0.0	1.0							6.0	0.0	0.28061570078716613	6.0	50.0	4.0	2.0	8.0	6.0	1.0	part_2
155	1.0	5.0			250.0	0.0	0.0							6.0	0.0	0.40534963375830557	6.0	0.0	1.0	8.0	1.0	8.0	0.0	part_2
156	4.0	5.0			250.0	0.0	1.0							6.0	0.0	0.0	0.0	0.0	2.0	3.0	6.0	2.0	1.0	part_2
157	3.0	5.0			250.0	0.0	1.0							5.0	0.0	0.41823935325373895	5.0	50.0	4.0	2.0	8.0	6.0	1.0	part_2
158	4.0	5.0			200.0	0.0	1.0							6.0	0.0	0.0	0.0	50.0	1.0	1.0	5.0	7.0	1.0	part_2
159	1.0	5.0			200.0	0.0	0.0							5.0	0.0	0.3516312482825015	5.0	100.0	1.0	8.0	1.0	8.0	0.0	part_2
160	1.0	5.0			200.0	0.0	0.0							5.0	0.0	0.3758489527681377	5.0	100.0	1.0	8.0	1.0	8.0	0.0	part_2
161	4.0	5.0			200.0	0.0	1.0							5.0	0.0	0.0	0.0	100.0	1.0	1.0	5.0	7.0	1.0	part_2
162	1.0	5.0			250.0	0.0	0.0							5.0	0.0	0.39942678199440707	5.0	100.0	3.0	6.0	3.0	1.0	0.0	part_2
163	1.0	5.0			250.0	0.0	0.0							5.0	0.0	0.4101322197675472	5.0	100.0	2.0	5.0	2.0	4.0	0.0	part_2
164	1.0	5.0			250.0	0.0	0.0							6.0	0.0	0.5028900939942105	6.0	100.0	1.0	8.0	1.0	8.0	0.0	part_2
165	1.0	5.0			250.0	0.0	0.0							6.0	0.0	0.37909454554028343	6.0	100.0	3.0	6.0	3.0	1.0	0.0	part_2
166	3.0	5.0			250.0	0.0	1.0							6.0	0.0	0.3924359217926394	6.0	100.0	2.0	3.0	6.0	2.0	1.0	part_2
167	1.0	5.0			250.0	0.0	0.0							6.0	0.0	0.5843035505531589	6.0	50.0	4.0	4.0	4.0	3.0	0.0	part_2
168	1.0	5.0			250.0	0.0	1.0							5.0	0.0	0.34781514303176664	5.0	50.0	2.0	3.0	6.0	2.0	0.0	part_2
169	1.0	5.0			250.0	0.0	0.0							6.0	0.0	0.33722201877390034	6.0	50.0	2.0	5.0	2.0	4.0	0.0	part_2
170	1.0	5.0			250.0	0.0	0.0							5.0	0.0	0.32861710025463253	5.0	50.0	2.0	5.0	2.0	4.0	0.0	part_2
171	3.0	5.0			250.0	0.0	1.0							5.0	0.0	0.31635544980235863	5.0	50.0	3.0	7.0	7.0	5.0	1.0	part_2
172	4.0	5.0			200.0	0.0	1.0							6.0	0.0	0.0	0.0	50.0	3.0	7.0	7.0	5.0	1.0	part_2
173	1.0	5.0			200.0	0.0	0.0							6.0	0.0	0.39757307403488085	6.0	100.0	2.0	5.0	2.0	4.0	0.0	part_2
174	4.0	5.0			200.0	0.0	1.0							6.0	0.0	0.0	0.0	100.0	2.0	3.0	6.0	2.0	1.0	part_2
175	4.0	5.0			200.0	0.0	1.0							6.0	0.0	0.0	0.0	150.0	4.0	2.0	8.0	6.0	1.0	part_2
176	1.0	5.0			200.0	0.0	0.0							5.0	0.0	0.28699150306056254	5.0	200.0	2.0	5.0	2.0	4.0	0.0	part_2
177	1.0	5.0			200.0	0.0	0.0							5.0	0.0	0.4444849657593295	5.0	200.0	3.0	6.0	3.0	1.0	0.0	part_2
178	1.0	5.0			200.0	0.0	0.0							6.0	0.0	0.32138995904824696	6.0	200.0	4.0	4.0	4.0	3.0	0.0	part_2
179	1.0	5.0			200.0	0.0	0.0							5.0	0.0	0.3125076955475379	5.0	200.0	3.0	6.0	3.0	1.0	0.0	part_2
180	3.0	6.0			200.0	0.0	1.0							5.0	0.0	0.5390498712804401	5.0	200.0	3.0	7.0	7.0	5.0	1.0	part_2
181	4.0	6.0			150.0	0.0	1.0							6.0	0.0	0.0	0.0	200.0	4.0	2.0	8.0	6.0	1.0	part_2
182	1.0	6.0			150.0	0.0	0.0							6.0	0.0	0.6313429405417992	6.0	250.0	3.0	6.0	3.0	1.0	0.0	part_2
183	1.0	6.0			150.0	0.0	1.0							5.0	0.0	0.8794141050020698	5.0	250.0	3.0	7.0	7.0	5.0	0.0	part_2
184	3.0	6.0			150.0	0.0	1.0							6.0	0.0	0.3633689652924659	6.0	250.0	4.0	2.0	8.0	6.0	1.0	part_2
185	1.0	6.0			150.0	0.0	1.0							5.0	0.0	0.30849947276874445	5.0	200.0	2.0	3.0	6.0	2.0	0.0	part_2
186	1.0	6.0			150.0	0.0	0.0							5.0	0.0	0.30839111999375746	5.0	200.0	4.0	4.0	4.0	3.0	0.0	part_2
187	3.0	6.0			150.0	0.0	1.0							5.0	0.0	0.28602581603627186	5.0	200.0	2.0	3.0	6.0	2.0	1.0	part_2
188	4.0	6.0			100.0	0.0	1.0							6.0	0.0	0.0	0.0	200.0	4.0	2.0	8.0	6.0	1.0	part_2
189	1.0	6.0			100.0	0.0	0.0							5.0	0.0	0.41250688378931955	5.0	250.0	2.0	5.0	2.0	4.0	0.0	part_2
190	1.0	6.0			100.0	0.0	1.0							6.0	0.0	0.4250692447676556	6.0	250.0	2.0	3.0	6.0	2.0	0.0	part_2
191	3.0	6.0			100.0	0.0	1.0							5.0	0.0	0.25548318977234885	5.0	250.0	2.0	3.0	6.0	2.0	1.0	part_2
192	1.0	6.0			50.0	0.0	0.0							5.0	0.0	0.3017137952847406	5.0	250.0	2.0	5.0	2.0	4.0	0.0	part_2
193	3.0	6.0			50.0	0.0	1.0							6.0	0.0	0.3135423913190607	6.0	250.0	2.0	3.0	6.0	2.0	1.0	part_2
194	4.0	6.0			50.0	0.0	1.0							6.0	0.0	0.0	0.0	200.0	1.0	1.0	5.0	7.0	1.0	part_2
195	4.0	6.0			50.0	0.0	1.0							5.0	0.0	0.0	0.0	250.0	3.0	7.0	7.0	5.0	1.0	part_2
196	1.0	6.0			100.0	0.0	0.0							6.0	0.0	0.3270968452852685	6.0	250.0	1.0	8.0	1.0	8.0	0.0	part_2
197	4.0	6.0			100.0	0.0	1.0							5.0	0.0	0.0	0.0	250.0	3.0	7.0	7.0	5.0	1.0	part_2
198	1.0	6.0			150.0	0.0	0.0							6.0	0.0	0.37461689303745516	6.0	250.0	4.0	4.0	4.0	3.0	0.0	part_2
199	1.0	6.0			150.0	0.0	0.0							5.0	0.0	0.26420946880534757	5.0	250.0	3.0	6.0	3.0	1.0	0.0	part_2
200	4.0	6.0			150.0	0.0	1.0							5.0	0.0	0.0	0.0	250.0	4.0	2.0	8.0	6.0	1.0	part_2
201	3.0	6.0			200.0	0.0	1.0							5.0	0.0	0.35366199050622527	5.0	250.0	2.0	3.0	6.0	2.0	1.0	part_2
202	1.0	6.0			150.0	0.0	0.0							6.0	0.0	0.3101411937677767	6.0	250.0	2.0	5.0	2.0	4.0	0.0	part_2
203	1.0	6.0			150.0	0.0	1.0							5.0	0.0	0.61481567278679	5.0	250.0	3.0	7.0	7.0	5.0	0.0	part_2
204	1.0	6.0			150.0	0.0	0.0							6.0	0.0	0.32299471751321107	6.0	250.0	2.0	5.0	2.0	4.0	0.0	part_2
205	1.0	6.0			150.0	0.0	0.0							6.0	0.0	0.3028276292461669	6.0	250.0	4.0	4.0	4.0	3.0	0.0	part_2
206	3.0	6.0			150.0	0.0	1.0							6.0	0.0	0.31376056754379533	6.0	250.0	2.0	3.0	6.0	2.0	1.0	part_2
207	1.0	6.0			150.0	0.0	0.0							6.0	0.0	0.34937546199944336	6.0	200.0	4.0	4.0	4.0	3.0	0.0	part_2
208	1.0	6.0			150.0	0.0	0.0							6.0	0.0	0.326781231793575	6.0	200.0	4.0	4.0	4.0	3.0	0.0	part_2
209	4.0	6.0			150.0	0.0	1.0							5.0	0.0	0.0	0.0	200.0	1.0	1.0	5.0	7.0	1.0	part_2
210	1.0	6.0			200.0	0.0	1.0							6.0	0.0	0.4076681062579155	6.0	200.0	4.0	2.0	8.0	6.0	0.0	part_2
211	3.0	6.0			200.0	0.0	1.0							5.0	0.0	0.2608600462845061	5.0	200.0	2.0	3.0	6.0	2.0	1.0	part_2
212	4.0	6.0			150.0	0.0	1.0							6.0	0.0	0.0	0.0	200.0	1.0	1.0	5.0	7.0	1.0	part_2
213	1.0	6.0			150.0	0.0	0.0							5.0	0.0	0.7242195352737326	5.0	250.0	2.0	5.0	2.0	4.0	0.0	part_2
214	3.0	6.0			150.0	0.0	1.0							5.0	0.0	0.3217845379986102	5.0	250.0	2.0	3.0	6.0	2.0	1.0	part_2
215	1.0	6.0			100.0	0.0	1.0							5.0	0.0	0.35603610376711003	5.0	250.0	3.0	7.0	7.0	5.0	0.0	part_2
216	1.0	7.0			100.0	0.0	0.0							6.0	0.0	0.3670353197667282	6.0	250.0	2.0	5.0	2.0	4.0	0.0	part_2
217	1.0	7.0			100.0	0.0	0.0							6.0	0.0	0.31160027571604587	6.0	250.0	4.0	4.0	4.0	3.0	0.0	part_2
218	1.0	7.0			100.0	0.0	0.0							6.0	0.0	0.2570662460202584	6.0	250.0	2.0	5.0	2.0	4.0	0.0	part_2
219	1.0	7.0			100.0	0.0	0.0							5.0	0.0	0.3352945827500662	5.0	250.0	3.0	6.0	3.0	1.0	0.0	part_2
220	4.0	7.0			100.0	0.0	1.0							5.0	0.0	0.0	0.0	250.0	4.0	2.0	8.0	6.0	1.0	part_2
221	1.0	7.0			150.0	0.0	0.0							5.0	0.0	0.33766054254374467	5.0	250.0	3.0	6.0	3.0	1.0	0.0	part_2
222	1.0	7.0			150.0	0.0	0.0							5.0	0.0	0.2822544777445728	5.0	250.0	4.0	4.0	4.0	3.0	0.0	part_2
223	1.0	7.0			150.0	0.0	1.0							5.0	0.0	0.29387374251382425	5.0	250.0	4.0	2.0	8.0	6.0	0.0	part_2
224	1.0	7.0			150.0	0.0	0.0							6.0	0.0	0.3056860577635234	6.0	250.0	4.0	4.0	4.0	3.0	0.0	part_2
225	1.0	7.0			150.0	0.0	0.0							5.0	0.0	0.23906990354589652	5.0	250.0	1.0	8.0	1.0	8.0	0.0	part_2
226	3.0	7.0			150.0	0.0	1.0							6.0	0.0	0.36516875702363905	6.0	250.0	2.0	3.0	6.0	2.0	1.0	part_2
227	1.0	7.0			150.0	0.0	0.0							5.0	0.0	0.5122057870321441	5.0	200.0	4.0	4.0	4.0	3.0	0.0	part_2
228	1.0	7.0			150.0	0.0	1.0							5.0	0.0	0.3880403467628639	5.0	200.0	1.0	1.0	5.0	7.0	0.0	part_2
229	4.0	7.0			150.0	0.0	1.0							5.0	0.0	0.0	0.0	200.0	1.0	1.0	5.0	7.0	1.0	part_2
230	1.0	7.0			200.0	0.0	0.0							6.0	0.0	0.43538874051591847	6.0	200.0	1.0	8.0	1.0	8.0	0.0	part_2
231	1.0	7.0			200.0	0.0	0.0							5.0	0.0	0.4015796112798853	5.0	200.0	2.0	5.0	2.0	4.0	0.0	part_2
232	1.0	7.0			200.0	0.0	0.0							6.0	0.0	0.3696243383892579	6.0	200.0	3.0	6.0	3.0	1.0	0.0	part_2
233	3.0	7.0			200.0	0.0	1.0							5.0	0.0	0.3023227060039062	5.0	200.0	2.0	3.0	6.0	2.0	1.0	part_2
234	3.0	7.0			150.0	0.0	1.0							6.0	0.0	0.3269072884868365	6.0	200.0	4.0	2.0	8.0	6.0	1.0	part_2
235	4.0	7.0			150.0	0.0	1.0							5.0	0.0	0.0	0.0	150.0	4.0	2.0	8.0	6.0	1.0	part_2
236	1.0	7.0			200.0	0.0	0.0							5.0	0.0	0.5183456415252294	5.0	150.0	1.0	8.0	1.0	8.0	0.0	part_2
237	1.0	7.0			200.0	0.0	1.0							5.0	0.0	0.36212820625223685	5.0	150.0	4.0	2.0	8.0	6.0	0.0	part_2
238	3.0	7.0			200.0	0.0	1.0							5.0	0.0	0.5102219907712424	5.0	150.0	4.0	2.0	8.0	6.0	1.0	part_2
239	1.0	7.0			150.0	0.0	0.0							6.0	0.0	0.3872216147574363	6.0	150.0	2.0	5.0	2.0	4.0	0.0	part_2
240	3.0	7.0			150.0	0.0	1.0							5.0	0.0	0.3080466480605537	5.0	150.0	4.0	2.0	8.0	6.0	1.0	part_2
241	1.0	7.0			100.0	0.0	0.0							5.0	0.0	0.5009506295464234	5.0	150.0	1.0	8.0	1.0	8.0	0.0	part_2
242	4.0	7.0			100.0	0.0	1.0							6.0	0.0	0.0	0.0	150.0	1.0	1.0	5.0	7.0	1.0	part_2
243	4.0	7.0			100.0	0.0	1.0							6.0	0.0	0.0	0.0	200.0	3.0	7.0	7.0	5.0	1.0	part_2
244	1.0	7.0			100.0	0.0	0.0							5.0	0.0	0.43553195528511424	5.0	250.0	4.0	4.0	4.0	3.0	0.0	part_2
245	4.0	7.0			100.0	0.0	1.0							5.0	0.0	0.0	0.0	250.0	3.0	7.0	7.0	5.0	1.0	part_2
246	3.0	7.0			150.0	0.0	1.0							5.0	0.0	0.44814207854506094	5.0	250.0	2.0	3.0	6.0	2.0	1.0	part_2
247	1.0	7.0			100.0	0.0	0.0							6.0	0.0	0.3827507312525995	6.0	250.0	1.0	8.0	1.0	8.0	0.0	part_2
248	4.0	7.0			100.0	0.0	1.0							6.0	0.0	0.0	0.0	250.0	2.0	3.0	6.0	2.0	1.0	part_2
249	1.0	7.0			100.0	0.0	0.0							5.0	0.0	0.6301085765444441	5.0	300.0	4.0	4.0	4.0	3.0	0.0	part_2
250	1.0	7.0			100.0	0.0	0.0							5.0	0.0	0.4181039522809442	5.0	300.0	3.0	6.0	3.0	1.0	0.0	part_2
251	4.0	7.0			100.0	0.0	1.0							5.0	0.0	0.0	0.0	300.0	4.0	2.0	8.0	6.0	1.0	part_2
252	1.0	8.0			150.0	0.0	1.0							6.0	0.0	0.4588090132747311	6.0	300.0	4.0	2.0	8.0	6.0	0.0	part_2
253	3.0	8.0			150.0	0.0	1.0							5.0	0.0	0.31479587125068065	5.0	300.0	3.0	7.0	7.0	5.0	1.0	part_2
254	3.0	8.0			100.0	0.0	1.0							6.0	0.0	0.293058011244284	6.0	300.0	3.0	7.0	7.0	5.0	1.0	part_2
255	1.0	8.0			100.0	0.0	0.0							5.0	0.0	0.33810813375748694	5.0	250.0	3.0	6.0	3.0	1.0	0.0	part_2
256	1.0	8.0			100.0	0.0	1.0							6.0	0.0	0.2929776722594397	6.0	250.0	4.0	2.0	8.0	6.0	0.0	part_2
257	1.0	8.0			100.0	0.0	1.0							6.0	0.0	0.3054587245133007	6.0	250.0	1.0	1.0	5.0	7.0	0.0	part_2
258	3.0	8.0			100.0	0.0	1.0							6.0	0.0	0.2831708742742194	6.0	250.0	3.0	7.0	7.0	5.0	1.0	part_2
259	1.0	8.0			100.0	0.0	0.0							6.0	0.0	0.4089590357616544	6.0	200.0	4.0	4.0	4.0	3.0	0.0	part_2
260	1.0	8.0			100.0	0.0	0.0							5.0	0.0	0.3311767352715833	5.0	200.0	1.0	8.0	1.0	8.0	0.0	part_2
261	1.0	8.0			100.0	0.0	0.0							5.0	0.0	0.34231999100302346	5.0	200.0	4.0	4.0	4.0	3.0	0.0	part_2
262	1.0	8.0			100.0	0.0	0.0							5.0	0.0	0.3654571597435279	5.0	200.0	2.0	5.0	2.0	4.0	0.0	part_2
263	3.0	8.0			100.0	0.0	1.0							5.0	0.0	0.3892007155372994	5.0	200.0	4.0	2.0	8.0	6.0	1.0	part_2
264	1.0	8.0			50.0	0.0	0.0							6.0	0.0	0.42527991079259664	6.0	200.0	3.0	6.0	3.0	1.0	0.0	part_2
265	1.0	8.0			50.0	0.0	0.0							5.0	0.0	0.35803842553286813	5.0	200.0	2.0	5.0	2.0	4.0	0.0	part_2
266	1.0	8.0			50.0	0.0	1.0							6.0	0.0	0.3361431189987343	6.0	200.0	4.0	2.0	8.0	6.0	0.0	part_2
267	1.0	8.0			50.0	0.0	0.0							5.0	0.0	0.3937005052284803	5.0	200.0	1.0	8.0	1.0	8.0	0.0	part_2
268	1.0	8.0			50.0	0.0	1.0							6.0	0.0	0.33833949475956615	6.0	200.0	3.0	7.0	7.0	5.0	0.0	part_2
269	1.0	8.0			50.0	0.0	1.0							6.0	0.0	0.32823057027417235	6.0	200.0	1.0	1.0	5.0	7.0	0.0	part_2
270	3.0	8.0			50.0	0.0	1.0							6.0	0.0	0.3047241805033991	6.0	200.0	2.0	3.0	6.0	2.0	1.0	part_2
271	4.0	8.0			50.0	0.0	1.0							5.0	0.0	0.0	0.0	150.0	2.0	3.0	6.0	2.0	1.0	part_2
272	4.0	8.0			100.0	0.0	1.0							5.0	0.0	0.0	0.0	150.0	1.0	1.0	5.0	7.0	1.0	part_2
273	1.0	8.0			150.0	0.0	0.0							6.0	0.0	0.2742551377596101	6.0	150.0	4.0	4.0	4.0	3.0	0.0	part_2
274	1.0	8.0			150.0	0.0	1.0							6.0	0.0	0.29695751328836195	6.0	150.0	3.0	7.0	7.0	5.0	0.0	part_2
275	3.0	8.0			150.0	0.0	1.0							5.0	0.0	0.32100245902256574	5.0	150.0	1.0	1.0	5.0	7.0	1.0	part_2
276	1.0	8.0			100.0	0.0	0.0							6.0	0.0	0.3452483827568358	6.0	150.0	3.0	6.0	3.0	1.0	0.0	part_2
277	4.0	8.0			100.0	0.0	1.0							5.0	0.0	0.0	0.0	150.0	4.0	2.0	8.0	6.0	1.0	part_2
278	1.0	8.0			150.0	0.0	0.0							6.0	0.0	0.3118127750349231	6.0	150.0	3.0	6.0	3.0	1.0	0.0	part_2
279	3.0	8.0			150.0	0.0	1.0							6.0	0.0	0.335568469032296	6.0	150.0	2.0	3.0	6.0	2.0	1.0	part_2
280	1.0	8.0			150.0	0.0	0.0							6.0	0.0	0.5380855420225998	6.0	100.0	1.0	8.0	1.0	8.0	0.0	part_2
281	1.0	8.0			150.0	0.0	0.0							5.0	0.0	0.33639359976223204	5.0	100.0	4.0	4.0	4.0	3.0	0.0	part_2
282	1.0	8.0			150.0	0.0	1.0							5.0	0.0	0.3502755740628345	5.0	100.0	2.0	3.0	6.0	2.0	0.0	part_2
283	1.0	8.0			150.0	0.0	0.0							5.0	0.0	0.326879863278009	5.0	100.0	4.0	4.0	4.0	3.0	0.0	part_2
284	1.0	8.0			150.0	0.0	1.0							5.0	0.0	0.30575859725649934	5.0	100.0	4.0	2.0	8.0	6.0	0.0	part_2
285	1.0	8.0			150.0	0.0	0.0							6.0	0.0	0.3748600160324713	6.0	100.0	2.0	5.0	2.0	4.0	0.0	part_2
286	3.0	8.0			150.0	0.0	1.0							5.0	0.0	0.34216977455071174	5.0	100.0	1.0	1.0	5.0	7.0	1.0	part_2
287	1.0	8.0			100.0	0.0	0.0							5.0	0.0	0.4540873815130908	5.0	100.0	3.0	6.0	3.0	1.0	0.0	part_2
0	0.0	1.0	147.0	3.0	0.0	2.0	0.0	147.0	49.0	98.0	245.0	294.0	196.0	7.0	0.0	1.5627364927931922	1.0	0.0	3.0	6.0	3.0	1.0	0.0	part_3
1	0.0	1.0	176.0	4.0	0.0	2.0	0.0	44.0	88.0	176.0	220.0	264.0	132.0	7.0	0.0	1.291565486782929	3.0	0.0	3.0	6.0	3.0	1.0	0.0	part_3
2	0.0	1.0	196.0	4.0	0.0	1.0	1.0	147.0	49.0	98.0	196.0	294.0	245.0	7.0	0.0	2.393851048516808	4.0	0.0	1.0	1.0	5.0	7.0	0.0	part_3
3	0.0	1.0	156.0	4.0	0.0	1.0	1.0	156.0	39.0	117.0	78.0	234.0	195.0	7.0	0.0	1.5959962618362624	1.0	0.0	2.0	3.0	6.0	2.0	0.0	part_3
4	0.0	1.0	294.0	6.0	0.0	1.0	0.0	196.0	294.0	245.0	98.0	49.0	147.0	7.0	0.0	2.744282234518323	2.0	0.0	4.0	4.0	4.0	3.0	0.0	part_3
5	0.0	1.0	34.0	1.0	0.0	1.0	0.0	204.0	170.0	34.0	102.0	68.0	136.0	7.0	0.0	2.059061958367238	3.0	0.0	1.0	8.0	1.0	8.0	0.0	part_3
6	0.0	1.0	78.0	2.0	0.0	1.0	1.0	39.0	195.0	234.0	156.0	117.0	78.0	7.0	0.0	2.072121466000681	6.0	0.0	2.0	3.0	6.0	2.0	0.0	part_3
7	0.0	1.0	176.0	4.0	0.0	1.0	1.0	44.0	220.0	132.0	88.0	176.0	264.0	7.0	0.0	2.3324628147820476	5.0	0.0	1.0	1.0	5.0	7.0	0.0	part_3
8	0.0	1.0	88.0	2.0	0.0	1.0	1.0	132.0	264.0	220.0	176.0	88.0	44.0	7.0	0.0	2.3546194870432373	5.0	0.0	3.0	7.0	7.0	5.0	0.0	part_3
9	0.0	1.0	234.0	6.0	0.0	1.0	1.0	117.0	156.0	234.0	39.0	195.0	78.0	7.0	0.0	2.007998687782674	3.0	0.0	4.0	2.0	8.0	6.0	0.0	part_3
10	0.0	1.0	162.0	3.0	0.0	1.0	1.0	54.0	162.0	216.0	324.0	108.0	270.0	7.0	0.0	2.1102770870929817	2.0	0.0	2.0	3.0	6.0	2.0	0.0	part_3
11	0.0	1.0	39.0	1.0	0.0	1.0	0.0	156.0	39.0	117.0	195.0	234.0	78.0	7.0	0.0	2.236163458583178	2.0	0.0	1.0	8.0	1.0	8.0	0.0	part_3
12	0.0	1.0	220.0	5.0	0.0	1.0	0.0	88.0	264.0	176.0	132.0	220.0	44.0	7.0	0.0	2.5514815955248196	5.0	0.0	2.0	5.0	2.0	4.0	0.0	part_3
13	0.0	1.0	49.0	1.0	0.0	1.0	0.0	245.0	49.0	294.0	196.0	98.0	147.0	7.0	0.0	1.7189978125097696	2.0	0.0	1.0	8.0	1.0	8.0	0.0	part_3
14	0.0	1.0	195.0	5.0	0.0	1.0	1.0	39.0	78.0	234.0	156.0	195.0	117.0	7.0	0.0	2.3168898295261897	5.0	0.0	3.0	7.0	7.0	5.0	0.0	part_3
15	0.0	1.0	220.0	5.0	0.0	1.0	0.0	176.0	88.0	44.0	220.0	264.0	132.0	7.0	0.0	3.2292114023002796	4.0	0.0	4.0	4.0	4.0	3.0	0.0	part_3
16	0.0	1.0	196.0	4.0	0.0	1.0	1.0	147.0	196.0	245.0	294.0	98.0	49.0	7.0	0.0	3.0618466165324207	2.0	0.0	2.0	3.0	6.0	2.0	0.0	part_3
17	0.0	1.0	270.0	5.0	0.0	1.0	0.0	270.0	324.0	54.0	216.0	108.0	162.0	7.0	0.0	2.927234585513361	1.0	0.0	4.0	4.0	4.0	3.0	0.0	part_3
18	0.0	1.0	108.0	2.0	0.0	1.0	0.0	216.0	324.0	270.0	108.0	54.0	162.0	7.0	0.0	2.579813166099484	4.0	0.0	3.0	6.0	3.0	1.0	0.0	part_3
19	0.0	1.0	234.0	6.0	0.0	1.0	1.0	117.0	78.0	234.0	156.0	39.0	195.0	7.0	0.0	3.0431400060479064	3.0	0.0	3.0	7.0	7.0	5.0	0.0	part_3
20	0.0	2.0	204.0	6.0	0.0	1.0	0.0	68.0	34.0	136.0	102.0	170.0	204.0	7.0	0.0	1.5741445085295709	6.0	0.0	4.0	4.0	4.0	3.0	0.0	part_3
21	0.0	2.0	195.0	5.0	0.0	1.0	0.0	156.0	39.0	117.0	234.0	78.0	195.0	7.0	0.0	2.3197424735699315	6.0	0.0	4.0	4.0	4.0	3.0	0.0	part_3
22	0.0	2.0	147.0	3.0	0.0	1.0	1.0	294.0	147.0	196.0	98.0	245.0	49.0	7.0	0.0	2.612951135044568	2.0	0.0	1.0	1.0	5.0	7.0	0.0	part_3
23	0.0	2.0	324.0	6.0	0.0	1.0	1.0	216.0	270.0	162.0	108.0	54.0	324.0	7.0	0.0	2.7138970913074445	6.0	0.0	4.0	2.0	8.0	6.0	0.0	part_3
24	0.0	2.0	234.0	6.0	0.0	1.0	1.0	39.0	78.0	117.0	195.0	234.0	156.0	7.0	0.0	2.5133468392596114	5.0	0.0	4.0	2.0	8.0	6.0	0.0	part_3
25	0.0	2.0	39.0	1.0	0.0	1.0	0.0	39.0	195.0	78.0	156.0	117.0	234.0	7.0	0.0	3.1228953672543867	1.0	0.0	1.0	8.0	1.0	8.0	0.0	part_3
26	0.0	2.0	216.0	4.0	0.0	1.0	0.0	54.0	216.0	270.0	108.0	324.0	162.0	7.0	0.0	3.201191643354832	2.0	0.0	4.0	4.0	4.0	3.0	0.0	part_3
27	0.0	2.0	102.0	3.0	0.0	1.0	0.0	136.0	204.0	34.0	170.0	102.0	68.0	7.0	0.0	2.696531896304805	5.0	0.0	3.0	6.0	3.0	1.0	0.0	part_3
28	0.0	2.0	204.0	6.0	0.0	1.0	1.0	34.0	204.0	136.0	102.0	68.0	170.0	7.0	0.0	2.944059896777617	2.0	0.0	4.0	2.0	8.0	6.0	0.0	part_3
29	0.0	2.0	49.0	1.0	0.0	1.0	0.0	98.0	245.0	294.0	49.0	196.0	147.0	7.0	0.0	2.462456337045296	4.0	0.0	1.0	8.0	1.0	8.0	0.0	part_3
30	0.0	2.0	102.0	3.0	0.0	1.0	0.0	136.0	170.0	102.0	68.0	204.0	34.0	7.0	0.0	3.600148778044968	3.0	0.0	3.0	6.0	3.0	1.0	0.0	part_3
31	0.0	2.0	195.0	5.0	0.0	1.0	0.0	234.0	117.0	195.0	78.0	156.0	39.0	7.0	0.0	4.770468723523663	3.0	0.0	2.0	5.0	2.0	4.0	0.0	part_3
32	0.0	2.0	117.0	3.0	0.0	1.0	0.0	39.0	195.0	78.0	156.0	117.0	234.0	7.0	0.0	3.914765783047187	5.0	0.0	2.0	5.0	2.0	4.0	0.0	part_3
33	0.0	2.0	108.0	2.0	0.0	1.0	0.0	108.0	216.0	324.0	162.0	54.0	270.0	7.0	0.0	3.141106976530864	1.0	0.0	2.0	5.0	2.0	4.0	0.0	part_3
34	0.0	2.0	68.0	2.0	0.0	1.0	1.0	204.0	170.0	34.0	68.0	102.0	136.0	7.0	0.0	1.9820246622548439	4.0	0.0	2.0	3.0	6.0	2.0	0.0	part_3
35	0.0	2.0	204.0	6.0	0.0	1.0	0.0	102.0	34.0	204.0	136.0	170.0	68.0	7.0	0.0	2.26538098603487	3.0	0.0	4.0	4.0	4.0	3.0	0.0	part_3
36	0.0	2.0	98.0	2.0	0.0	1.0	0.0	147.0	196.0	49.0	98.0	245.0	294.0	7.0	0.0	3.95264094225422	4.0	0.0	3.0	6.0	3.0	1.0	0.0	part_3
37	0.0	2.0	34.0	1.0	0.0	1.0	0.0	68.0	204.0	136.0	170.0	34.0	102.0	7.0	0.0	2.857217041266267	5.0	0.0	2.0	5.0	2.0	4.0	0.0	part_3
38	0.0	2.0	132.0	3.0	0.0	2.0	1.0	132.0	220.0	264.0	176.0	44.0	88.0	7.0	0.0	0.8651575353578664	1.0	0.0	1.0	1.0	5.0	7.0	0.0	part_3
39	0.0	2.0	245.0	5.0	0.0	1.0	0.0	49.0	196.0	147.0	294.0	245.0	98.0	7.0	0.0	3.059136121577467	5.0	0.0	4.0	4.0	4.0	3.0	0.0	part_3
40	0.0	3.0	162.0	3.0	0.0	1.0	1.0	108.0	162.0	216.0	270.0	324.0	54.0	7.0	0.0	2.386655891998089	2.0	0.0	4.0	2.0	8.0	6.0	0.0	part_3
41	0.0	3.0	117.0	3.0	0.0	1.0	0.0	39.0	117.0	195.0	156.0	234.0	78.0	7.0	0.0	4.44470524857752	2.0	0.0	3.0	6.0	3.0	1.0	0.0	part_3
42	0.0	3.0	44.0	1.0	0.0	1.0	0.0	88.0	220.0	264.0	44.0	132.0	176.0	7.0	0.0	1.1790283975715283	4.0	0.0	1.0	8.0	1.0	8.0	0.0	part_3
43	0.0	3.0	264.0	6.0	0.0	1.0	0.0	264.0	44.0	220.0	132.0	88.0	176.0	7.0	0.0	2.2475734455802012	1.0	0.0	4.0	4.0	4.0	3.0	0.0	part_3
44	0.0	3.0	102.0	3.0	0.0	1.0	1.0	170.0	68.0	102.0	136.0	34.0	204.0	7.0	0.0	3.4543126663047587	3.0	0.0	1.0	1.0	5.0	7.0	0.0	part_3
45	0.0	3.0	245.0	5.0	0.0	1.0	1.0	49.0	98.0	196.0	294.0	245.0	147.0	7.0	0.0	2.9139372835779795	5.0	0.0	4.0	2.0	8.0	6.0	0.0	part_3
46	0.0	3.0	44.0	1.0	0.0	1.0	1.0	132.0	220.0	176.0	264.0	44.0	88.0	7.0	0.0	1.9936025222705211	5.0	0.0	2.0	3.0	6.0	2.0	0.0	part_3
47	0.0	3.0	147.0	3.0	0.0	1.0	0.0	245.0	196.0	147.0	49.0	294.0	98.0	7.0	0.0	3.7836763255181722	3.0	0.0	2.0	5.0	2.0	4.0	0.0	part_3
48	0.0	3.0	102.0	3.0	0.0	1.0	1.0	136.0	102.0	34.0	204.0	68.0	170.0	7.0	0.0	2.355799625001964	2.0	0.0	3.0	7.0	7.0	5.0	0.0	part_3
49	0.0	3.0	170.0	5.0	0.0	1.0	1.0	102.0	34.0	136.0	170.0	68.0	204.0	7.0	0.0	4.077290308778174	4.0	0.0	4.0	2.0	8.0	6.0	0.0	part_3
50	0.0	3.0	108.0	2.0	0.0	1.0	1.0	216.0	162.0	54.0	270.0	324.0	108.0	7.0	0.0	4.497249899519375	6.0	0.0	1.0	1.0	5.0	7.0	0.0	part_3
51	0.0	3.0	162.0	3.0	0.0	1.0	1.0	54.0	162.0	324.0	108.0	270.0	216.0	7.0	0.0	3.2613928233040497	2.0	0.0	3.0	7.0	7.0	5.0	0.0	part_3
52	0.0	3.0	132.0	3.0	0.0	1.0	0.0	264.0	176.0	220.0	88.0	44.0	132.0	7.0	0.0	4.689409782004077	6.0	0.0	2.0	5.0	2.0	4.0	0.0	part_3
53	0.0	3.0	234.0	6.0	0.0	1.0	0.0	78.0	195.0	156.0	39.0	234.0	117.0	7.0	0.0	2.489815673267003	5.0	0.0	4.0	4.0	4.0	3.0	0.0	part_3
54	0.0	3.0	78.0	2.0	0.0	2.0	1.0	117.0	195.0	156.0	234.0	78.0	39.0	7.0	0.0	1.014353903781739	5.0	0.0	1.0	1.0	5.0	7.0	0.0	part_3
55	0.0	3.0	34.0	1.0	0.0	1.0	0.0	204.0	136.0	170.0	68.0	102.0	34.0	7.0	0.0	2.263796988307149	6.0	0.0	1.0	8.0	1.0	8.0	0.0	part_3
56	0.0	3.0	68.0	2.0	0.0	1.0	1.0	136.0	34.0	204.0	68.0	102.0	170.0	7.0	0.0	2.7594188572547864	4.0	0.0	2.0	3.0	6.0	2.0	0.0	part_3
57	0.0	3.0	88.0	2.0	0.0	1.0	0.0	88.0	44.0	220.0	132.0	264.0	176.0	7.0	0.0	4.24426018531085	1.0	0.0	3.0	6.0	3.0	1.0	0.0	part_3
58	0.0	3.0	108.0	2.0	0.0	1.0	0.0	162.0	108.0	270.0	324.0	216.0	54.0	7.0	0.0	3.5523446412553312	2.0	0.0	3.0	6.0	3.0	1.0	0.0	part_3
59	0.0	3.0	102.0	3.0	0.0	1.0	1.0	170.0	68.0	102.0	136.0	204.0	34.0	7.0	0.0	3.6541255485790316	3.0	0.0	1.0	1.0	5.0	7.0	0.0	part_3
60	0.0	4.0	54.0	1.0	0.0	1.0	1.0	108.0	162.0	54.0	216.0	270.0	324.0	7.0	0.0	4.25270532835566	3.0	0.0	3.0	7.0	7.0	5.0	0.0	part_3
61	0.0	4.0	108.0	2.0	0.0	1.0	0.0	216.0	162.0	54.0	270.0	108.0	324.0	7.0	0.0	2.461383384099463	5.0	0.0	2.0	5.0	2.0	4.0	0.0	part_3
62	0.0	4.0	98.0	2.0	0.0	1.0	1.0	245.0	196.0	49.0	98.0	294.0	147.0	7.0	0.0	2.9125199603586225	4.0	0.0	2.0	3.0	6.0	2.0	0.0	part_3
63	0.0	4.0	44.0	1.0	0.0	1.0	0.0	176.0	88.0	264.0	44.0	220.0	132.0	7.0	0.0	2.395711093515274	4.0	0.0	1.0	8.0	1.0	8.0	0.0	part_3
64	0.0	4.0	54.0	1.0	0.0	1.0	0.0	54.0	324.0	162.0	270.0	216.0	108.0	7.0	0.0	2.4774478473118506	1.0	0.0	1.0	8.0	1.0	8.0	0.0	part_3
65	0.0	4.0	162.0	3.0	0.0	1.0	1.0	108.0	270.0	162.0	54.0	324.0	216.0	7.0	0.0	4.50226769130677	3.0	0.0	1.0	1.0	5.0	7.0	0.0	part_3
66	0.0	4.0	264.0	6.0	0.0	1.0	1.0	44.0	88.0	264.0	132.0	176.0	220.0	7.0	0.0	3.9698628205806017	3.0	0.0	4.0	2.0	8.0	6.0	0.0	part_3
67	0.0	4.0	176.0	4.0	0.0	1.0	1.0	44.0	264.0	88.0	176.0	132.0	220.0	7.0	0.0	4.3540541195689	4.0	0.0	4.0	2.0	8.0	6.0	0.0	part_3
68	0.0	4.0	78.0	2.0	0.0	2.0	1.0	117.0	78.0	234.0	156.0	195.0	39.0	7.0	0.0	1.3701445110345958	2.0	0.0	1.0	1.0	5.0	7.0	0.0	part_3
69	0.0	4.0	108.0	2.0	0.0	1.0	1.0	108.0	216.0	324.0	162.0	54.0	270.0	7.0	0.0	4.430692009307677	1.0	0.0	2.0	3.0	6.0	2.0	0.0	part_3
70	0.0	4.0	88.0	2.0	0.0	1.0	1.0	44.0	176.0	220.0	132.0	88.0	264.0	7.0	0.0	2.619541216583457	5.0	0.0	2.0	3.0	6.0	2.0	0.0	part_3
71	0.0	4.0	49.0	1.0	0.0	1.0	1.0	294.0	98.0	245.0	147.0	49.0	196.0	7.0	0.0	3.1613413702580146	5.0	0.0	3.0	7.0	7.0	5.0	0.0	part_3
72	0.0	4.0	220.0	5.0	0.0	1.0	1.0	88.0	220.0	44.0	264.0	132.0	176.0	7.0	0.0	3.341832689999137	2.0	0.0	3.0	7.0	7.0	5.0	0.0	part_3
73	0.0	4.0	49.0	1.0	0.0	1.0	1.0	147.0	98.0	245.0	196.0	49.0	294.0	7.0	0.0	2.960601873783162	5.0	0.0	3.0	7.0	7.0	5.0	0.0	part_3
74	0.0	4.0	78.0	2.0	0.0	2.0	0.0	234.0	195.0	39.0	117.0	78.0	156.0	7.0	0.0	1.204336631039041	5.0	0.0	3.0	6.0	3.0	1.0	0.0	part_3
75	0.0	4.0	204.0	6.0	0.0	1.0	0.0	34.0	170.0	102.0	204.0	68.0	136.0	7.0	0.0	3.5217858785181306	4.0	0.0	2.0	5.0	2.0	4.0	0.0	part_3
76	0.0	4.0	54.0	1.0	0.0	1.0	0.0	216.0	54.0	162.0	324.0	270.0	108.0	7.0	0.0	2.1522341892996337	2.0	0.0	1.0	8.0	1.0	8.0	0.0	part_3
77	0.0	4.0	49.0	1.0	0.0	1.0	0.0	98.0	147.0	294.0	245.0	196.0	49.0	7.0	0.0	4.1767774730979	6.0	0.0	2.0	5.0	2.0	4.0	0.0	part_3
78	0.0	4.0	102.0	3.0	0.0	1.0	1.0	136.0	34.0	204.0	170.0	68.0	102.0	7.0	0.0	2.6956034587783506	6.0	0.0	3.0	7.0	7.0	5.0	0.0	part_3
79	0.0	4.0	49.0	1.0	0.0	1.0	1.0	147.0	49.0	98.0	196.0	294.0	245.0	7.0	0.0	2.26936943657347	2.0	0.0	4.0	2.0	8.0	6.0	0.0	part_3
