	xPos	corrAns	yPos	corrGoResp	yPosGoStim	xPosGoStim	pracTrials.thisRepN	pracTrials.thisTrialN	pracTrials.thisN	pracTrials.thisIndex	ReDoLoopPrac.thisRepN	ReDoLoopPrac.thisTrialN	ReDoLoopPrac.thisN	ReDoLoopPrac.thisIndex	ReDoLoopPrac.thisTrial	pracStopTrials.thisRepN	pracStopTrials.thisTrialN	pracStopTrials.thisN	pracStopTrials.thisIndex	Blocks.thisRepN	Blocks.thisTrialN	Blocks.thisN	Blocks.thisIndex	trials.thisRepN	trials.thisTrialN	trials.thisN	trials.thisIndex	ReDoLoopMain.thisRepN	ReDoLoopMain.thisTrialN	ReDoLoopMain.thisN	ReDoLoopMain.thisIndex	ReDoLoopMain.thisTrial	StopBlocks.thisRepN	StopBlocks.thisTrialN	StopBlocks.thisN	StopBlocks.thisIndex	StopTrials.thisRepN	StopTrials.thisTrialN	StopTrials.thisN	StopTrials.thisIndex	auctionBlocks.thisRepN	auctionBlocks.thisTrialN	auctionBlocks.thisN	auctionBlocks.thisIndex	auctionTrials.thisRepN	auctionTrials.thisTrialN	auctionTrials.thisN	auctionTrials.thisIndex	learningTrialList	learningPracTrialList	stopTrialList	stopPracTrialList	auctionTrialList	ok1.keys	ok1.rt	resp.keys	resp.corr	resp.rt	feedbackResp.keys	feedbackResp.corr	currentReward	currentStimulus	currentStimType	firstPracComputedRewardOutput	firstPracLearningStimOnset	firstPracLearningFixOnset	firstPracPresentationRT	firstPracPresentationAcc	firstPracPresentationResp	firstPracEndTrialTimeStamp	StartTrialTimeStamp	trialType	goStim	stimType	stopStimValue	goResp.keys	goResp.corr	key_resp_9.keys	key_resp_9.corr	fixStopOnset	goStimOnset	stopSignalOnset	EndTrialTimeStamp	goResp.rt	key_resp_3.keys	key_resp_3.rt	firstComputedRewardOutput	firstLearningStimOnset	firstLearningFixOnset	firstPresentationRT	firstPresentationAcc	firstPresentationResp	firstEndTrialTimeStamp	secondComputedRewardOutput	secondLearningStimOnset	secondLearningFixOnset	secondPresentationRT	secondPresentationAcc	secondPresentationResp	secondEndTrialTimeStamp	key_resp_7.keys	key_resp_7.rt	beginningSSD	EndingSSD	key_resp_9.rt	key_resp_4.keys	key_resp_4.rt	auctionResponse.keys	auctionStimDuration	auctionStim	auctionAmounts	auctionStimValue	auctionCondition	chosenAuctionAmount	auctionResponse.rt	key_resp_5.keys	key_resp_5.rt	shuffledRewardList	chosenReward1	chosenReward2	chosenReward3	chosenReward4	chosenReward5	key_resp_6.keys	key_resp_6.rt	date	frameRate	expName	session	participant	Unnamed: 130
0																																																	[]	[]	[]	[]	[]	9.0	83.2789468765																																																																							2015_Jul_06_1244	59.8626997063	LearningTask	1	78	
1	200.0	w	200.0				0.0	0.0	0.0	4.0																																														w	1.0	0.767895936966	None	0.0	0.5	invertedtriangleyellow.gif	go	0.6	0.508510112762	0.0496048927307	0.767895936966	1.0	w	100.155676842																																																								2015_Jul_06_1244	59.8626997063	LearningTask	1	78	
2	-200.0	q	200.0				0.0	1.0	1.0	5.0																																														q	1.0	0.567468166351	None	0.0	4.0	squarecyan.gif	stop	4.04	0.514502048492	0.04382109642030001	0.567468166351	1.0	q	103.15862178799999																																																								2015_Jul_06_1244	59.8626997063	LearningTask	1	78	
3	-200.0	a	-200.0				0.0	2.0	2.0	7.0																																														a	1.0	0.534225940704	None	0.0	4.0	squarecyan.gif	stop	4.15	0.515158176422	0.0008940696716310001	0.534225940704	1.0	a	106.16175890000001																																																								2015_Jul_06_1244	59.8626997063	LearningTask	1	78	
4	-200.0	a	-200.0				0.0	3.0	3.0	3.0																																														a	1.0	0.534171104431	None	0.0	4.0	squarecyan.gif	stop	4.04	0.51522397995	0.0008859634399410001	0.534171104431	1.0	a	109.165012836																																																								2015_Jul_06_1244	59.8626997063	LearningTask	1	78	
5	200.0	w	200.0				0.0	4.0	4.0	8.0																																														w	1.0	0.751237154007	None	0.0	1.0	hexagongreen.gif	stop	1.0	0.515125989914	0.012910127639799998	0.751237154007	1.0	w	112.168541908																																																								2015_Jul_06_1244	59.8626997063	LearningTask	1	78	
6	-200.0	q	200.0				0.0	5.0	5.0	1.0																																														q	1.0	0.40061497688299996	None	0.0	1.0	trianglewhite.gif	go	1.22	0.515485048294	0.0456221103668	0.40061497688299996	1.0	q	115.171955824																																																								2015_Jul_06_1244	59.8626997063	LearningTask	1	78	
7	-200.0	q	200.0				0.0	6.0	6.0	9.0																																														q	1.0	0.400490045547	None	0.0	0.5	invertedtriangleyellow.gif	go	0.52	0.5154500007630001	0.000900983810425	0.400490045547	1.0	q	118.175511837																																																								2015_Jul_06_1244	59.8626997063	LearningTask	1	78	
8	200.0	w	200.0				0.0	7.0	7.0	0.0																																														w	1.0	0.367093086243	None	0.0	0.5	invertedtriangleyellow.gif	go	0.27	0.5152659416200001	0.0008931159973139998	0.367093086243	1.0	w	121.17871594399999																																																								2015_Jul_06_1244	59.8626997063	LearningTask	1	78	
9	200.0	s	-200.0				0.0	8.0	8.0	2.0																																														s	1.0	0.45150995254500004	None	0.0	0.5	diamondmagenta.gif	stop	0.0	0.514941215515	0.0056321620941200004	0.45150995254500004	1.0	s	124.18195891399999																																																								2015_Jul_06_1244	59.8626997063	LearningTask	1	78	
10	200.0	s	-200.0				0.0	9.0	9.0	6.0																																														s	1.0	0.400850057602	None	0.0	4.0	squarecyan.gif	stop	3.87	0.5151481628419999	0.0010290145874	0.400850057602	1.0	s	127.185244799																																																								2015_Jul_06_1244	59.8626997063	LearningTask	1	78	
11				m	0.0	200.0										0.0	0.0	0.0	1.0																																																				180.616798878	stop	circleblue.gif	stop	2.0	None	0.0	None	0.0	0.03649091720580001	0.511229038239	0.7616150379180001	183.615723848																																											2015_Jul_06_1244	59.8626997063	LearningTask	1	78	
12				m	0.0	200.0										0.0	1.0	1.0	1.0																																																				183.61611199400002	stop	circleblue.gif	stop	2.0	None	0.0	None	0.0	0.00095009803772	0.5153028964999999	0.766022920609	186.618906975																																											2015_Jul_06_1244	59.8626997063	LearningTask	1	78	
13				z	0.0	-200.0										1.0	0.0	2.0	0.0																																																				186.61930894900001	stop	circleblue.gif	stop	2.0	z	1.0	None	0.0	0.000977039337158	0.515483140945	0.765944004059	189.62218785299999	0.41762804985																																										2015_Jul_06_1244	59.8626997063	LearningTask	1	78	
14				z	0.0	-200.0										1.0	1.0	3.0	0.0																																																				189.62255096400003	stop	hexagongreen.gif	stop	1.0	None	0.0	None	0.0	0.00118708610535	0.515912055969	0.7660570144650001	192.625341892																																											2015_Jul_06_1244	59.8626997063	LearningTask	1	78	
15				z	0.0	-200.0										2.0	0.0	4.0	0.0																																																				192.625703812	go	crossorange.gif	go	2.0	z	1.0	None	0.0	0.044119834899900005	0.515921831131		195.628724813	0.634935855865																																										2015_Jul_06_1244	59.8626997063	LearningTask	1	78	
16				z	0.0	-200.0										2.0	1.0	5.0	0.0																																																				195.629086971	stop	squarecyan.gif	stop	4.0	None	0.0	None	0.0	0.000943899154663	0.515826940536	0.766175031662	198.63219094299998																																											2015_Jul_06_1244	59.8626997063	LearningTask	1	78	
17				z	0.0	-200.0										3.0	0.0	6.0	0.0																																																				198.63259196299998	stop	diamondmagenta.gif	stop	0.5	None	0.0	None	0.0	0.0010039806366	0.515611886978	0.765567064285	201.635736942																																											2015_Jul_06_1244	59.8626997063	LearningTask	1	78	
18				m	0.0	200.0										3.0	1.0	7.0	1.0																																																				201.636096954	go	linegray.gif	go	4.0	m	1.0	None	0.0	0.00772500038147	0.5156619548800001		204.639009953	0.601390123367																																										2015_Jul_06_1244	59.8626997063	LearningTask	1	78	
19				m	0.0	200.0										4.0	0.0	8.0	1.0																																																				204.639369965	go	linegray.gif	go	4.0	m	1.0	None	0.0	0.0009448528289790001	0.515736818314		207.642426968	0.634310007095																																										2015_Jul_06_1244	59.8626997063	LearningTask	1	78	
20				m	0.0	200.0										4.0	1.0	9.0	1.0																																																				207.642838955	go	crossorange.gif	go	2.0	m	1.0	None	0.0	0.0009820461273189998	0.5155479907989999		210.64568090400002	0.601282119751																																										2015_Jul_06_1244	59.8626997063	LearningTask	1	78	
21																																																																																					9.0	50.217956066099994																																								2015_Jul_06_1244	59.8626997063	LearningTask	1	78	
22																																																						9.0	10.7620239258																																																																							2015_Jul_06_1244	59.8626997063	LearningTask	1	78	
23	200.0	s	-200.0																	0.0	0.0	0.0	0.0	0.0	0.0	0.0	2.0																													s	1.0	0.40154314041100003	None	0.0	0.5	invertedtriangleyellow.gif	go																								0.48	0.509613990784	0.000888109207153	0.40154314041100003	1.0	s	274.76900386799997																																	2015_Jul_06_1244	59.8626997063	LearningTask	1	78	
24	-200.0	q	200.0																	0.0	0.0	0.0	0.0	0.0	1.0	1.0	1.0																													q	1.0	0.367176055908	None	0.0	0.5	diamondmagenta.gif	stop																								0.72	0.513818979263	0.0010831356048599998	0.367176055908	1.0	q	277.77189278599997																																	2015_Jul_06_1244	59.8626997063	LearningTask	1	78	
25	200.0	s	-200.0																	0.0	0.0	0.0	0.0	0.0	2.0	2.0	2.0																													s	1.0	0.36724519729599997	None	0.0	4.0	linegray.gif	go																								0.0	0.5145130157469999	0.00110507011414	0.36724519729599997	1.0	s	280.775573015																																	2015_Jul_06_1244	59.8626997063	LearningTask	1	78	
26	-200.0	q	200.0																	0.0	0.0	0.0	0.0	0.0	3.0	3.0	1.0																													q	1.0	0.33376288414	None	0.0	0.5	invertedtriangleyellow.gif	go																								0.73	0.514187097549	0.0008981227874760001	0.33376288414	1.0	q	283.778702974																																	2015_Jul_06_1244	59.8626997063	LearningTask	1	78	
27	-200.0	q	200.0																	0.0	0.0	0.0	0.0	1.0	0.0	4.0	1.0																													q	1.0	0.351039886475	None	0.0	1.0	hexagongreen.gif	stop																								1.07	0.514232873917	0.0011239051818800001	0.351039886475	1.0	q	286.78183198																																	2015_Jul_06_1244	59.8626997063	LearningTask	1	78	
28	-200.0	a	-200.0																	0.0	0.0	0.0	0.0	1.0	1.0	5.0	3.0																													a	1.0	0.400754928589	None	0.0	0.5	diamondmagenta.gif	stop																								0.67	0.51450419426	0.0009100437164310001	0.400754928589	1.0	a	289.785542965																																	2015_Jul_06_1244	59.8626997063	LearningTask	1	78	
29	200.0	w	200.0																	0.0	0.0	0.0	0.0	1.0	2.0	6.0	0.0																													w	1.0	0.333883047104	None	0.0	0.5	invertedtriangleyellow.gif	go																								0.41	0.514255046844	0.0009551048278810001	0.333883047104	1.0	w	292.788645983																																	2015_Jul_06_1244	59.8626997063	LearningTask	1	78	
30	200.0	w	200.0																	0.0	0.0	0.0	0.0	1.0	3.0	7.0	0.0																													w	1.0	0.317708969116	None	0.0	2.0	circleblue.gif	stop																								1.99	0.5140910148619999	0.00094199180603	0.317708969116	1.0	w	295.792128801																																	2015_Jul_06_1244	59.8626997063	LearningTask	1	78	
31	-200.0	q	200.0																	0.0	0.0	0.0	0.0	2.0	0.0	8.0	1.0																													q	1.0	0.35139298439000005	None	0.0	4.0	linegray.gif	go																								0.0	0.5143840312960001	0.000907182693481	0.35139298439000005	1.0	q	298.795749903																																	2015_Jul_06_1244	59.8626997063	LearningTask	1	78	
32	200.0	s	-200.0																	0.0	0.0	0.0	0.0	2.0	1.0	9.0	2.0																													s	1.0	0.334175109863	None	0.0	4.0	squarecyan.gif	stop																								4.07	0.51424407959	0.0008940696716310001	0.334175109863	1.0	s	301.799073935																																	2015_Jul_06_1244	59.8626997063	LearningTask	1	78	
33	-200.0	q	200.0																	0.0	0.0	0.0	0.0	2.0	2.0	10.0	1.0																													q	1.0	0.351287841797	None	0.0	2.0	circleblue.gif	stop																								1.88	0.513734817505	0.000938892364502	0.351287841797	1.0	q	304.802676916																																	2015_Jul_06_1244	59.8626997063	LearningTask	1	78	
34	200.0	s	-200.0																	0.0	0.0	0.0	0.0	2.0	3.0	11.0	2.0																													s	1.0	0.317515134811	None	0.0	2.0	crossorange.gif	go																								2.25	0.514048814774	0.0009019374847410001	0.317515134811	1.0	s	307.80567979799997																																	2015_Jul_06_1244	59.8626997063	LearningTask	1	78	
35	200.0	s	-200.0																	0.0	0.0	0.0	0.0	3.0	0.0	12.0	2.0																													s	1.0	0.334472179413	None	0.0	1.0	trianglewhite.gif	go																								0.92	0.514314889908	0.000900983810425	0.334472179413	1.0	s	310.809417009																																	2015_Jul_06_1244	59.8626997063	LearningTask	1	78	
36	-200.0	a	-200.0																	0.0	0.0	0.0	0.0	3.0	1.0	13.0	3.0																													a	1.0	0.367465019226	None	0.0	1.0	hexagongreen.gif	stop																								0.98	0.5135560035710001	0.00119400024414	0.367465019226	1.0	a	313.812440872																																	2015_Jul_06_1244	59.8626997063	LearningTask	1	78	
37	-200.0	a	-200.0																	0.0	0.0	0.0	0.0	3.0	2.0	14.0	3.0																													a	1.0	0.334055900574	None	0.0	0.5	diamondmagenta.gif	stop																								0.37	0.514494180679	0.0009109973907470001	0.334055900574	1.0	a	316.815779924																																	2015_Jul_06_1244	59.8626997063	LearningTask	1	78	
38	200.0	s	-200.0																	0.0	0.0	0.0	0.0	3.0	3.0	15.0	2.0																													s	1.0	0.317444801331	None	0.0	0.5	invertedtriangleyellow.gif	go																								0.74	0.514363050461	0.000900030136108	0.317444801331	1.0	s	319.819463968																																	2015_Jul_06_1244	59.8626997063	LearningTask	1	78	
39	200.0	w	200.0																	0.0	0.0	0.0	0.0	4.0	0.0	16.0	0.0																													w	1.0	0.367698907852	None	0.0	2.0	crossorange.gif	go																								0.0	0.514332056046	0.000890016555786	0.334108114243	0.0	s	322.822623968	2.14	0.515388011932	0.0009858608245850002	0.367698907852	1.0	w	325.826468945																										2015_Jul_06_1244	59.8626997063	LearningTask	1	78	
40	-200.0	a	-200.0																	0.0	0.0	0.0	0.0	4.0	1.0	17.0	3.0																													a	1.0	0.401163816452	None	0.0	0.5	diamondmagenta.gif	stop																								0.0	0.513736963272	0.0008940696716310001	0.401163816452	1.0	a	328.829304934																																	2015_Jul_06_1244	59.8626997063	LearningTask	1	78	
41	200.0	w	200.0																	0.0	0.0	0.0	0.0	4.0	2.0	18.0	0.0																													w	1.0	0.334430932999	None	0.0	2.0	crossorange.gif	go																								0.0	0.514366149902	0.0009100437164310001	0.334430932999	1.0	w	331.832598925																																	2015_Jul_06_1244	59.8626997063	LearningTask	1	78	
42	-200.0	q	200.0																	0.0	0.0	0.0	0.0	4.0	3.0	19.0	1.0																													q	1.0	0.351523160934	None	0.0	0.5	invertedtriangleyellow.gif	go																								0.44	0.514029026031	0.0010840892791700002	0.351523160934	1.0	q	334.836013794																																	2015_Jul_06_1244	59.8626997063	LearningTask	1	78	
43	200.0	w	200.0																	0.0	0.0	0.0	0.0	5.0	0.0	20.0	0.0																													w	1.0	0.35050606727600003	None	0.0	0.5	diamondmagenta.gif	stop																								0.53	0.514630079269	0.0008990764617919999	0.35050606727600003	1.0	w	337.83917784700003																																	2015_Jul_06_1244	59.8626997063	LearningTask	1	78	
44	-200.0	q	200.0																	0.0	0.0	0.0	0.0	5.0	1.0	21.0	1.0																													q	1.0	0.350908041	None	0.0	1.0	hexagongreen.gif	stop																								1.18	0.514825105667	0.0009031295776369999	0.350908041	1.0	q	340.8431108																																	2015_Jul_06_1244	59.8626997063	LearningTask	1	78	
45	-200.0	a	-200.0																	0.0	0.0	0.0	0.0	5.0	2.0	22.0	3.0																													a	1.0	0.383960008621	None	0.0	0.5	diamondmagenta.gif	stop																								0.48	0.513983011246	0.0010290145874	0.383960008621	1.0	a	343.846125841																																	2015_Jul_06_1244	59.8626997063	LearningTask	1	78	
46	-200.0	a	-200.0																	0.0	0.0	0.0	0.0	5.0	3.0	23.0	3.0																													a	1.0	0.31723809242199996	None	0.0	0.5	diamondmagenta.gif	stop																								0.62	0.5144739151	0.0008959770202639998	0.31723809242199996	1.0	a	346.849624872																																	2015_Jul_06_1244	59.8626997063	LearningTask	1	78	
47	200.0	s	-200.0																	0.0	0.0	0.0	0.0	6.0	0.0	24.0	2.0																													s	1.0	0.350569963455	None	0.0	1.0	trianglewhite.gif	go																								0.78	0.514365911484	0.0009109973907470001	0.350569963455	1.0	s	349.853582859																																	2015_Jul_06_1244	59.8626997063	LearningTask	1	78	
48	-200.0	q	200.0																	0.0	0.0	0.0	0.0	6.0	1.0	25.0	1.0																													q	1.0	0.350877046585	None	0.0	4.0	linegray.gif	go																								3.93	0.5136320590969999	0.00092887878418	0.350877046585	1.0	q	352.856630802																																	2015_Jul_06_1244	59.8626997063	LearningTask	1	78	
49	200.0	s	-200.0																	0.0	0.0	0.0	0.0	6.0	2.0	26.0	2.0																													s	1.0	0.35084986686700004	None	0.0	1.0	hexagongreen.gif	stop																								0.0	0.5139260292050001	0.0008959770202639998	0.35084986686700004	1.0	s	355.859645844																																	2015_Jul_06_1244	59.8626997063	LearningTask	1	78	
50	-200.0	a	-200.0																	0.0	0.0	0.0	0.0	6.0	3.0	27.0	3.0																													a	1.0	0.384243965149	None	0.0	0.5	diamondmagenta.gif	stop																								0.0	0.514307975769	0.000913143157959	0.384243965149	1.0	a	358.86344981199994																																	2015_Jul_06_1244	59.8626997063	LearningTask	1	78	
51	200.0	w	200.0																	0.0	0.0	0.0	0.0	7.0	0.0	28.0	0.0																													w	1.0	0.334020137787	None	0.0	0.5	invertedtriangleyellow.gif	go																								0.41	0.513820886612	0.000921964645386	0.334020137787	1.0	w	361.866705894																																	2015_Jul_06_1244	59.8626997063	LearningTask	1	78	
52	200.0	w	200.0																	0.0	0.0	0.0	0.0	7.0	1.0	29.0	0.0																													w	1.0	0.35115694999700003	None	0.0	0.5	diamondmagenta.gif	stop																								0.33	0.513998031616	0.000984191894531	0.35115694999700003	1.0	w	364.870035887																																	2015_Jul_06_1244	59.8626997063	LearningTask	1	78	
53	-200.0	q	200.0																	0.0	0.0	0.0	0.0	7.0	2.0	30.0	1.0																													q	1.0	0.5678358078	None	0.0	4.0	linegray.gif	go																								3.9	0.514361858368	0.0009059906005860001	0.5678358078	1.0	q	367.873360872																																	2015_Jul_06_1244	59.8626997063	LearningTask	1	78	
54	-200.0	a	-200.0																	0.0	0.0	0.0	0.0	7.0	3.0	31.0	3.0																													a	1.0	0.634433031082	None	0.0	4.0	squarecyan.gif	stop																								4.12	0.514126062393	0.000904083251953	0.634433031082	1.0	a	370.876530886																																	2015_Jul_06_1244	59.8626997063	LearningTask	1	78	
55	-200.0	a	-200.0																	0.0	0.0	0.0	0.0	8.0	0.0	32.0	3.0																													a	1.0	0.684649944305	None	0.0	0.5	diamondmagenta.gif	stop																								0.6	0.514637231827	0.00154113769531	0.684649944305	1.0	a	373.880151987																																	2015_Jul_06_1244	59.8626997063	LearningTask	1	78	
56	200.0	s	-200.0																	0.0	0.0	0.0	0.0	8.0	1.0	33.0	2.0																													s	1.0	0.367434978485	None	0.0	1.0	hexagongreen.gif	stop																								0.0	0.514112949371	0.0009059906005860001	0.367434978485	1.0	s	376.88344883900004																																	2015_Jul_06_1244	59.8626997063	LearningTask	1	78	
57	200.0	s	-200.0																	0.0	0.0	0.0	0.0	8.0	2.0	34.0	2.0																													s	1.0	0.751121044159	None	0.0	1.0	trianglewhite.gif	go																								1.01	0.514311075211	0.0009031295776369999	0.751121044159	1.0	s	379.886862993																																	2015_Jul_06_1244	59.8626997063	LearningTask	1	78	
58	200.0	w	200.0																	0.0	0.0	0.0	0.0	8.0	3.0	35.0	0.0																													w	1.0	0.334733009338	None	0.0	2.0	crossorange.gif	go																								2.16	0.513872146606	0.000949144363403	0.334733009338	1.0	w	382.89010286300004																																	2015_Jul_06_1244	59.8626997063	LearningTask	1	78	
59	-200.0	q	200.0																	0.0	0.0	0.0	0.0	9.0	0.0	36.0	1.0																													q	1.0	0.31783413887	None	0.0	4.0	squarecyan.gif	stop																								4.07	0.514400959015	0.0008950233459470001	0.31783413887	1.0	q	385.89359498																																	2015_Jul_06_1244	59.8626997063	LearningTask	1	78	
60	200.0	w	200.0																	0.0	0.0	0.0	0.0	9.0	1.0	37.0	0.0																													w	1.0	0.35078811645499997	None	0.0	2.0	crossorange.gif	go																								1.76	0.514326095581	0.00090503692627	0.35078811645499997	1.0	w	388.8969028																																	2015_Jul_06_1244	59.8626997063	LearningTask	1	78	
61	-200.0	a	-200.0																	0.0	0.0	0.0	0.0	9.0	2.0	38.0	3.0																													a	1.0	0.350641012192	None	0.0	1.0	hexagongreen.gif	stop																								0.84	0.513369083405	0.0009820461273189998	0.350641012192	1.0	a	391.90076184300005																																	2015_Jul_06_1244	59.8626997063	LearningTask	1	78	
62	-200.0	a	-200.0																	0.0	0.0	0.0	0.0	9.0	3.0	39.0	3.0																													a	1.0	0.38452100753799995	None	0.0	1.0	trianglewhite.gif	go																								0.0	0.5139851570130001	0.00090503692627	0.38452100753799995	1.0	a	394.903633833																																	2015_Jul_06_1244	59.8626997063	LearningTask	1	78	
63	200.0	s	-200.0																	0.0	0.0	0.0	0.0	10.0	0.0	40.0	2.0																													s	1.0	0.367758989334	None	0.0	4.0	linegray.gif	go																								4.16	0.5142161846159999	0.000904083251953	0.367758989334	1.0	s	397.90748381599997																																	2015_Jul_06_1244	59.8626997063	LearningTask	1	78	
64	-200.0	a	-200.0																	0.0	0.0	0.0	0.0	10.0	1.0	41.0	3.0																													a	1.0	0.367594003677	None	0.0	2.0	crossorange.gif	go																								1.99	0.513713121414	0.0008971691131589999	0.367594003677	1.0	a	400.910404921																																	2015_Jul_06_1244	59.8626997063	LearningTask	1	78	
65	-200.0	a	-200.0																	0.0	0.0	0.0	0.0	10.0	2.0	42.0	3.0																													a	1.0	0.351235866547	None	0.0	4.0	linegray.gif	go																								3.88	0.514272212982	0.000890016555786	0.351235866547	1.0	a	403.913757801																																	2015_Jul_06_1244	59.8626997063	LearningTask	1	78	
66	-200.0	q	200.0																	0.0	0.0	0.0	0.0	10.0	3.0	43.0	1.0																													q	1.0	0.38434314727799995	None	0.0	2.0	crossorange.gif	go																								2.0	0.5143229961399999	0.00090503692627	0.38434314727799995	1.0	q	406.91711878800004																																	2015_Jul_06_1244	59.8626997063	LearningTask	1	78	
67	200.0	w	200.0																	0.0	0.0	0.0	0.0	11.0	0.0	44.0	0.0																													w	1.0	0.367115020752	None	0.0	2.0	circleblue.gif	stop																								1.78	0.514517068863	0.0009181499481200001	0.367115020752	1.0	w	409.920431852																																	2015_Jul_06_1244	59.8626997063	LearningTask	1	78	
68	-200.0	q	200.0																	0.0	0.0	0.0	0.0	11.0	1.0	45.0	1.0																													q	1.0	0.36755609512299997	None	0.0	4.0	linegray.gif	go																								3.88	0.514415979385	0.00105309486389	0.36755609512299997	1.0	q	412.924359798																																	2015_Jul_06_1244	59.8626997063	LearningTask	1	78	
69	-200.0	a	-200.0																	0.0	0.0	0.0	0.0	11.0	2.0	46.0	3.0																													a	1.0	0.384371042252	None	0.0	2.0	crossorange.gif	go																								2.16	0.513823032379	0.000965118408203	0.384371042252	1.0	a	415.92736387300005																																	2015_Jul_06_1244	59.8626997063	LearningTask	1	78	
70	-200.0	q	200.0																	0.0	0.0	0.0	0.0	11.0	3.0	47.0	1.0																													q	1.0	0.36768007278399994	None	0.0	0.5	diamondmagenta.gif	stop																								0.35	0.514134883881	0.0009059906005860001	0.36768007278399994	1.0	q	418.930563927																																	2015_Jul_06_1244	59.8626997063	LearningTask	1	78	
71	-200.0	q	200.0																	0.0	0.0	0.0	0.0	12.0	0.0	48.0	1.0																													q	1.0	0.35108494758599995	None	0.0	2.0	circleblue.gif	stop																								2.18	0.514085054398	0.0010840892791700002	0.35108494758599995	1.0	q	421.93446087800004																																	2015_Jul_06_1244	59.8626997063	LearningTask	1	78	
72	-200.0	q	200.0																	0.0	0.0	0.0	0.0	12.0	1.0	49.0	1.0																													q	1.0	0.350557088852	None	0.0	4.0	squarecyan.gif	stop																								4.02	0.514263868332	0.0008978843688960001	0.350557088852	1.0	q	424.937567949																																	2015_Jul_06_1244	59.8626997063	LearningTask	1	78	
73	200.0	s	-200.0																	0.0	0.0	0.0	0.0	12.0	2.0	50.0	2.0																													s	1.0	0.351110935211	None	0.0	4.0	squarecyan.gif	stop																								3.86	0.5141971111300001	0.0009250640869139999	0.351110935211	1.0	s	427.940540791																																	2015_Jul_06_1244	59.8626997063	LearningTask	1	78	
74	200.0	w	200.0																	0.0	0.0	0.0	0.0	12.0	3.0	51.0	0.0																													w	1.0	0.350995063782	None	0.0	2.0	circleblue.gif	stop																								0.0	0.514705896378	0.000953912734985	0.350995063782	1.0	w	430.944096804																																	2015_Jul_06_1244	59.8626997063	LearningTask	1	78	
75	200.0	s	-200.0																	0.0	0.0	0.0	0.0	13.0	0.0	52.0	2.0																													s	1.0	0.40151095390299996	None	0.0	1.0	trianglewhite.gif	go																								1.22	0.5142149925230001	0.0009329319000239999	0.40151095390299996	1.0	s	433.947621822																																	2015_Jul_06_1244	59.8626997063	LearningTask	1	78	
76	-200.0	a	-200.0																	0.0	0.0	0.0	0.0	13.0	1.0	53.0	3.0																													a	1.0	0.501004934311	None	0.0	0.5	invertedtriangleyellow.gif	go																								0.0	0.514271020889	0.0009069442749019998	0.501004934311	1.0	a	436.95127487199994																																	2015_Jul_06_1244	59.8626997063	LearningTask	1	78	
77	-200.0	q	200.0																	0.0	0.0	0.0	0.0	13.0	2.0	54.0	1.0																													q	1.0	0.367710113525	None	0.0	0.5	diamondmagenta.gif	stop																								0.44	0.513613939285	0.000970840454102	0.367710113525	1.0	q	439.954350948																																	2015_Jul_06_1244	59.8626997063	LearningTask	1	78	
78	200.0	s	-200.0																	0.0	0.0	0.0	0.0	13.0	3.0	55.0	2.0																													s	1.0	0.40097618103	None	0.0	4.0	linegray.gif	go																								4.19	0.514051914215	0.00098991394043	0.40097618103	1.0	s	442.957824945																																	2015_Jul_06_1244	59.8626997063	LearningTask	1	78	
79	200.0	w	200.0																	0.0	0.0	0.0	0.0	14.0	0.0	56.0	0.0																													w	1.0	0.33442401886	None	0.0	2.0	circleblue.gif	stop																								1.94	0.514399051666	0.0008971691131589999	0.33442401886	1.0	w	445.961569786																																	2015_Jul_06_1244	59.8626997063	LearningTask	1	78	
80	-200.0	q	200.0																	0.0	0.0	0.0	0.0	14.0	1.0	57.0	1.0																													q	1.0	0.367779016495	None	0.0	1.0	hexagongreen.gif	stop																								0.99	0.5136170387269999	0.000926971435547	0.367779016495	1.0	q	448.96440386800003																																	2015_Jul_06_1244	59.8626997063	LearningTask	1	78	
81	-200.0	q	200.0																	0.0	0.0	0.0	0.0	14.0	2.0	58.0	1.0																													q	1.0	0.40117216110200005	None	0.0	1.0	hexagongreen.gif	stop																								0.0	0.514157772064	0.000926971435547	0.40117216110200005	1.0	q	451.967803955																																	2015_Jul_06_1244	59.8626997063	LearningTask	1	78	
82	-200.0	q	200.0																	0.0	0.0	0.0	0.0	14.0	3.0	59.0	1.0																													q	1.0	0.333687067032	None	0.0	4.0	squarecyan.gif	stop																								3.91	0.514555931091	0.0008909702301030001	0.333687067032	1.0	q	454.970973015																																	2015_Jul_06_1244	59.8626997063	LearningTask	1	78	
83	200.0	s	-200.0																	0.0	0.0	0.0	0.0	15.0	0.0	60.0	2.0																													s	1.0	0.367431879044	None	0.0	1.0	trianglewhite.gif	go																								1.16	0.514735937119	0.000918865203857	0.367431879044	1.0	s	457.974497795																																	2015_Jul_06_1244	59.8626997063	LearningTask	1	78	
84	-200.0	a	-200.0																	0.0	0.0	0.0	0.0	15.0	1.0	61.0	3.0																													a	1.0	0.41796684265100004	None	0.0	4.0	squarecyan.gif	stop																								0.0	0.514590024948	0.0012400150299100002	0.33379006385800003	0.0	q	460.977886915	0.0	0.515539169312	0.0009641647338869999	0.41796684265100004	1.0	a	463.981369972																										2015_Jul_06_1244	59.8626997063	LearningTask	1	78	
85	200.0	w	200.0																	0.0	0.0	0.0	0.0	15.0	2.0	62.0	0.0																													w	1.0	0.384144067764	None	0.0	1.0	trianglewhite.gif	go																								1.22	0.514246225357	0.000913143157959	0.384144067764	1.0	w	466.9845438																																	2015_Jul_06_1244	59.8626997063	LearningTask	1	78	
86	-200.0	a	-200.0																	0.0	0.0	0.0	0.0	15.0	3.0	63.0	3.0																													a	1.0	0.40070700645400004	None	0.0	4.0	squarecyan.gif	stop																								4.04	0.5142588615420001	0.0009589195251460001	0.40070700645400004	1.0	a	469.98806381199995																																	2015_Jul_06_1244	59.8626997063	LearningTask	1	78	
87	200.0	w	200.0																	0.0	0.0	0.0	0.0	16.0	0.0	64.0	0.0																													w	1.0	0.384248018265	None	0.0	0.5	diamondmagenta.gif	stop																								0.0	0.514243841171	0.000900030136108	0.384248018265	1.0	w	472.991436005																																	2015_Jul_06_1244	59.8626997063	LearningTask	1	78	
88	-200.0	q	200.0																	0.0	0.0	0.0	0.0	16.0	1.0	65.0	1.0																													q	1.0	0.41754007339500004	None	0.0	1.0	trianglewhite.gif	go																								1.14	0.514307022095	0.000904083251953	0.41754007339500004	1.0	q	475.99475288400004																																	2015_Jul_06_1244	59.8626997063	LearningTask	1	78	
89	200.0	s	-200.0																	0.0	0.0	0.0	0.0	16.0	2.0	66.0	2.0																													s	1.0	0.38464808464100003	None	0.0	1.0	trianglewhite.gif	go																								1.12	0.514042139053	0.000951051712036	0.38464808464100003	1.0	s	478.998032808																																	2015_Jul_06_1244	59.8626997063	LearningTask	1	78	
90	-200.0	a	-200.0																	0.0	0.0	0.0	0.0	16.0	3.0	67.0	3.0																													a	1.0	0.433926105499	None	0.0	4.0	linegray.gif	go																								0.0	0.514760971069	0.0008909702301030001	0.433926105499	1.0	a	482.00153684599996																																	2015_Jul_06_1244	59.8626997063	LearningTask	1	78	
91	200.0	w	200.0																	0.0	0.0	0.0	0.0	17.0	0.0	68.0	0.0																													w	1.0	0.350878000259	None	0.0	0.5	diamondmagenta.gif	stop																								0.45	0.514343976974	0.0008959770202639998	0.350878000259	1.0	w	485.005256891																																	2015_Jul_06_1244	59.8626997063	LearningTask	1	78	
92	200.0	w	200.0																	0.0	0.0	0.0	0.0	17.0	1.0	69.0	0.0																													w	1.0	0.384268045425	None	0.0	4.0	linegray.gif	go																								4.06	0.513799190521	0.000953197479248	0.384268045425	1.0	w	488.00826597199995																																	2015_Jul_06_1244	59.8626997063	LearningTask	1	78	
93	200.0	s	-200.0																	0.0	0.0	0.0	0.0	17.0	2.0	70.0	2.0																													s	1.0	0.384078025818	None	0.0	1.0	trianglewhite.gif	go																								0.77	0.514678955078	0.0008959770202639998	0.384078025818	1.0	s	491.01176285699995																																	2015_Jul_06_1244	59.8626997063	LearningTask	1	78	
94	200.0	w	200.0																	0.0	0.0	0.0	0.0	17.0	3.0	71.0	0.0																													w	1.0	0.350841999054	None	0.0	0.5	invertedtriangleyellow.gif	go																								0.29	0.514168977737	0.0008959770202639998	0.350841999054	1.0	w	494.01509881																																	2015_Jul_06_1244	59.8626997063	LearningTask	1	78	
95	200.0	w	200.0																	0.0	0.0	0.0	0.0	18.0	0.0	72.0	0.0																													w	1.0	0.36736202240000004	None	0.0	1.0	trianglewhite.gif	go																								0.0	0.513964891434	0.0009059906005860001	0.36736202240000004	1.0	w	497.01839590099996																																	2015_Jul_06_1244	59.8626997063	LearningTask	1	78	
96	200.0	s	-200.0																	0.0	0.0	0.0	0.0	18.0	1.0	73.0	2.0																													s	1.0	0.350918054581	None	0.0	1.0	hexagongreen.gif	stop																								0.82	0.514361858368	0.000913858413696	0.350918054581	1.0	s	500.021796942																																	2015_Jul_06_1244	59.8626997063	LearningTask	1	78	
97	-200.0	a	-200.0																	0.0	0.0	0.0	0.0	18.0	2.0	74.0	3.0																													a	1.0	0.384160041809	None	0.0	1.0	trianglewhite.gif	go																								1.24	0.514397144318	0.000892162322998	0.384160041809	1.0	a	503.025286913																																	2015_Jul_06_1244	59.8626997063	LearningTask	1	78	
98	-200.0	q	200.0																	0.0	0.0	0.0	0.0	18.0	3.0	75.0	1.0																													q	1.0	0.384602069855	None	0.0	2.0	circleblue.gif	stop																								2.12	0.51414513588	0.000917911529541	0.384602069855	1.0	q	506.02851796199997																																	2015_Jul_06_1244	59.8626997063	LearningTask	1	78	
99	200.0	s	-200.0																	0.0	0.0	0.0	0.0	19.0	0.0	76.0	2.0																													s	1.0	0.367867946625	None	0.0	2.0	circleblue.gif	stop																								2.03	0.5143041610719999	0.0009431838989260002	0.367867946625	1.0	s	509.032066822																																	2015_Jul_06_1244	59.8626997063	LearningTask	1	78	
100	-200.0	a	-200.0																	0.0	0.0	0.0	0.0	19.0	1.0	77.0	3.0																													a	1.0	0.417461156845	None	0.0	2.0	crossorange.gif	go																								0.0	0.514117002487	0.000907897949219	0.417461156845	1.0	a	512.035373926																																	2015_Jul_06_1244	59.8626997063	LearningTask	1	78	
101	200.0	s	-200.0																	0.0	0.0	0.0	0.0	19.0	2.0	78.0	2.0																													s	1.0	0.36724305152900005	None	0.0	2.0	crossorange.gif	go																								1.9	0.514255046844	0.00090503692627	0.36724305152900005	1.0	s	515.0387339590001																																	2015_Jul_06_1244	59.8626997063	LearningTask	1	78	
102	200.0	w	200.0																	0.0	0.0	0.0	0.0	19.0	3.0	79.0	0.0																													w	1.0	0.33428478241	None	0.0	2.0	crossorange.gif	go																								2.11	0.513954877853	0.000918865203857	0.33428478241	1.0	w	518.042038918																																	2015_Jul_06_1244	59.8626997063	LearningTask	1	78	
103	200.0	s	-200.0																	0.0	0.0	0.0	0.0	20.0	0.0	80.0	2.0																													s	1.0	0.367290973663	None	0.0	4.0	squarecyan.gif	stop																								4.06	0.514415979385	0.000898838043213	0.367290973663	1.0	s	521.045416832																																	2015_Jul_06_1244	59.8626997063	LearningTask	1	78	
104	200.0	w	200.0																	0.0	0.0	0.0	0.0	20.0	1.0	81.0	0.0																													w	1.0	0.36795592307999997	None	0.0	1.0	hexagongreen.gif	stop																								0.91	0.514432907104	0.0009119510650630002	0.36795592307999997	1.0	w	524.049184799																																	2015_Jul_06_1244	59.8626997063	LearningTask	1	78	
105	200.0	s	-200.0																	0.0	0.0	0.0	0.0	20.0	2.0	82.0	2.0																													s	1.0	0.36738491058300005	None	0.0	0.5	invertedtriangleyellow.gif	go																								0.34	0.513575077057	0.000949859619141	0.36738491058300005	1.0	s	527.052214861																																	2015_Jul_06_1244	59.8626997063	LearningTask	1	78	
106	-200.0	a	-200.0																	0.0	0.0	0.0	0.0	20.0	3.0	83.0	3.0																													a	1.0	0.35060691833499996	None	0.0	1.0	hexagongreen.gif	stop																								1.07	0.5144450664519999	0.0009400844573969999	0.35060691833499996	1.0	a	530.055773973																																	2015_Jul_06_1244	59.8626997063	LearningTask	1	78	
107	200.0	s	-200.0																	0.0	0.0	0.0	0.0	21.0	0.0	84.0	2.0																													s	1.0	0.351104974747	None	0.0	4.0	squarecyan.gif	stop																								0.0	0.5139420032500001	0.0012080669403099998	0.351104974747	1.0	s	533.059798002																																	2015_Jul_06_1244	59.8626997063	LearningTask	1	78	
108	-200.0	q	200.0																	0.0	0.0	0.0	0.0	21.0	1.0	85.0	1.0																													q	1.0	0.384418010712	None	0.0	4.0	linegray.gif	go																								3.98	0.513312101364	0.0009191036224369998	0.384418010712	1.0	q	536.06237793																																	2015_Jul_06_1244	59.8626997063	LearningTask	1	78	
109	200.0	w	200.0																	0.0	0.0	0.0	0.0	21.0	2.0	86.0	0.0																													w	1.0	0.350502967834	None	0.0	2.0	crossorange.gif	go																								1.79	0.514493227005	0.0009031295776369999	0.350502967834	1.0	w	539.065751791																																	2015_Jul_06_1244	59.8626997063	LearningTask	1	78	
110	-200.0	a	-200.0																	0.0	0.0	0.0	0.0	21.0	3.0	87.0	3.0																													a	1.0	0.333967208862	None	0.0	1.0	trianglewhite.gif	go																								1.19	0.514227867126	0.0008978843688960001	0.333967208862	1.0	a	542.069531918																																	2015_Jul_06_1244	59.8626997063	LearningTask	1	78	
111	-200.0	a	-200.0																	0.0	0.0	0.0	0.0	22.0	0.0	88.0	3.0																													a	1.0	0.351011037827	None	0.0	4.0	squarecyan.gif	stop																								4.17	0.5136158466340001	0.0008997917175289999	0.351011037827	1.0	a	545.072371006																																	2015_Jul_06_1244	59.8626997063	LearningTask	1	78	
112	200.0	w	200.0																	0.0	0.0	0.0	0.0	22.0	1.0	89.0	0.0																													w	1.0	0.334673881531	None	0.0	0.5	invertedtriangleyellow.gif	go																								0.0	0.514351129532	0.00117993354797	0.334673881531	1.0	w	548.07625699																																	2015_Jul_06_1244	59.8626997063	LearningTask	1	78	
113	200.0	w	200.0																	0.0	0.0	0.0	0.0	22.0	2.0	90.0	0.0																													w	1.0	0.35146689415	None	0.0	0.5	invertedtriangleyellow.gif	go																								0.0	0.513644933701	0.0008997917175289999	0.35146689415	1.0	w	551.079598904																																	2015_Jul_06_1244	59.8626997063	LearningTask	1	78	
114	-200.0	q	200.0																	0.0	0.0	0.0	0.0	22.0	3.0	91.0	1.0																													q	1.0	0.400710105896	None	0.0	2.0	crossorange.gif	go																								2.22	0.514069080353	0.0009031295776369999	0.400710105896	1.0	q	554.08255887																																	2015_Jul_06_1244	59.8626997063	LearningTask	1	78	
115	200.0	w	200.0																	0.0	0.0	0.0	0.0	23.0	0.0	92.0	0.0																													w	1.0	0.334137201309	None	0.0	2.0	circleblue.gif	stop																								1.8	0.514194965363	0.0009760856628420001	0.334137201309	1.0	w	557.086167812																																	2015_Jul_06_1244	59.8626997063	LearningTask	1	78	
116	200.0	w	200.0																	0.0	0.0	0.0	0.0	23.0	1.0	93.0	0.0																													w	1.0	0.35034608840899994	None	0.0	0.5	invertedtriangleyellow.gif	go																								0.44	0.514524936676	0.0008940696716310001	0.35034608840899994	1.0	w	560.089554787																																	2015_Jul_06_1244	59.8626997063	LearningTask	1	78	
117	-200.0	q	200.0																	0.0	0.0	0.0	0.0	23.0	2.0	94.0	1.0																													q	1.0	0.301025152206	None	0.0	2.0	circleblue.gif	stop																								1.77	0.51435303688	0.000917196273804	0.301025152206	1.0	q	563.093031883																																	2015_Jul_06_1244	59.8626997063	LearningTask	1	78	
118	-200.0	a	-200.0																	0.0	0.0	0.0	0.0	23.0	3.0	95.0	3.0																													a	1.0	0.334120988846	None	0.0	1.0	trianglewhite.gif	go																								0.82	0.5141141414639999	0.00100898742676	0.334120988846	1.0	a	566.096126795																																	2015_Jul_06_1244	59.8626997063	LearningTask	1	78	
119	200.0	s	-200.0																	0.0	0.0	0.0	0.0	24.0	0.0	96.0	2.0																													s	1.0	0.36736702918999997	None	0.0	0.5	diamondmagenta.gif	stop																								0.38	0.514555931091	0.000913858413696	0.36736702918999997	1.0	s	569.099844933																																	2015_Jul_06_1244	59.8626997063	LearningTask	1	78	
120	200.0	s	-200.0																	0.0	0.0	0.0	0.0	24.0	1.0	97.0	2.0																													s	1.0	0.401064872742	None	0.0	1.0	hexagongreen.gif	stop																								0.75	0.51395201683	0.000938892364502	0.401064872742	1.0	s	572.1031498909999																																	2015_Jul_06_1244	59.8626997063	LearningTask	1	78	
121	-200.0	q	200.0																	0.0	0.0	0.0	0.0	24.0	2.0	98.0	1.0																													q	1.0	0.300732135773	None	0.0	4.0	squarecyan.gif	stop																								4.05	0.513552904129	0.0027880668640100003	0.300732135773	1.0	q	575.106328011																																	2015_Jul_06_1244	59.8626997063	LearningTask	1	78	
122	-200.0	a	-200.0																	0.0	0.0	0.0	0.0	24.0	3.0	99.0	3.0																													a	1.0	0.333988189697	None	0.0	0.5	invertedtriangleyellow.gif	go																								0.73	0.514683961868	0.00089693069458	0.333988189697	1.0	a	578.109680891																																	2015_Jul_06_1244	59.8626997063	LearningTask	1	78	
123																				0.0	0.0	0.0	0.0																																																																														9.0	43.5064849854																								2015_Jul_06_1244	59.8626997063	LearningTask	1	78	
124	200.0	s	-200.0																	1.0	0.0	1.0	0.0	0.0	0.0	0.0	2.0																													s	1.0	0.500987052917	None	0.0	0.5	invertedtriangleyellow.gif	go																								0.51	0.50931096077	0.00103688240051	0.500987052917	1.0	s	625.062732935																																	2015_Jul_06_1244	59.8626997063	LearningTask	1	78	
125	200.0	s	-200.0																	1.0	0.0	1.0	0.0	0.0	1.0	1.0	2.0																													s	1.0	0.367284059525	None	0.0	4.0	linegray.gif	go																								3.85	0.514044046402	0.0009140968322749999	0.367284059525	1.0	s	628.065809965																																	2015_Jul_06_1244	59.8626997063	LearningTask	1	78	
126	-200.0	a	-200.0																	1.0	0.0	1.0	0.0	0.0	2.0	2.0	3.0																													a	1.0	0.350881814957	None	0.0	2.0	crossorange.gif	go																								1.85	0.514397859573	0.000898838043213	0.350881814957	1.0	a	631.0694129469999																																	2015_Jul_06_1244	59.8626997063	LearningTask	1	78	
127	200.0	w	200.0																	1.0	0.0	1.0	0.0	0.0	3.0	3.0	0.0																													w	1.0	0.350836992264	None	0.0	2.0	circleblue.gif	stop																								2.02	0.514317989349	0.0010449886322	0.350836992264	1.0	w	634.072391987																																	2015_Jul_06_1244	59.8626997063	LearningTask	1	78	
128	-200.0	q	200.0																	1.0	0.0	1.0	0.0	1.0	0.0	4.0	1.0																													q	1.0	0.350881099701	None	0.0	2.0	crossorange.gif	go																								0.0	0.514385938644	0.0009808540344239999	0.350881099701	1.0	q	637.075868845																																	2015_Jul_06_1244	59.8626997063	LearningTask	1	78	
129	200.0	w	200.0																	1.0	0.0	1.0	0.0	1.0	1.0	5.0	0.0																													w	1.0	0.36795091629	None	0.0	2.0	circleblue.gif	stop																								1.79	0.5143568515779999	0.0009019374847410001	0.36795091629	1.0	w	640.079352856																																	2015_Jul_06_1244	59.8626997063	LearningTask	1	78	
130	200.0	s	-200.0																	1.0	0.0	1.0	0.0	1.0	2.0	6.0	2.0																													s	1.0	0.334206104279	None	0.0	2.0	circleblue.gif	stop																								2.12	0.514070987701	0.0009570121765139998	0.334206104279	1.0	s	643.082789898																																	2015_Jul_06_1244	59.8626997063	LearningTask	1	78	
131	-200.0	q	200.0																	1.0	0.0	1.0	0.0	1.0	3.0	7.0	1.0																													q	1.0	0.351000070572	None	0.0	0.5	diamondmagenta.gif	stop																								0.56	0.514395952225	0.000902891159058	0.351000070572	1.0	q	646.086077929																																	2015_Jul_06_1244	59.8626997063	LearningTask	1	78	
132	-200.0	a	-200.0																	1.0	0.0	1.0	0.0	2.0	0.0	8.0	3.0																													a	1.0	0.618019104004	None	0.0	0.5	invertedtriangleyellow.gif	go																								0.62	0.514415979385	0.000900030136108	0.618019104004	1.0	a	649.089365959																																	2015_Jul_06_1244	59.8626997063	LearningTask	1	78	
133	200.0	s	-200.0																	1.0	0.0	1.0	0.0	2.0	1.0	9.0	2.0																													s	1.0	0.334066867828	None	0.0	0.5	invertedtriangleyellow.gif	go																								0.51	0.514309167862	0.0009191036224369998	0.334066867828	1.0	s	652.092870951																																	2015_Jul_06_1244	59.8626997063	LearningTask	1	78	
134	-200.0	a	-200.0																	1.0	0.0	1.0	0.0	2.0	2.0	10.0	3.0																													a	1.0	0.417671918869	None	0.0	0.5	diamondmagenta.gif	stop																								0.29	0.514544010162	0.0009181499481200001	0.417671918869	1.0	a	655.0962109569999																																	2015_Jul_06_1244	59.8626997063	LearningTask	1	78	
135	-200.0	q	200.0																	1.0	0.0	1.0	0.0	2.0	3.0	11.0	1.0																													q	1.0	0.36790895461999995	None	0.0	4.0	linegray.gif	go																								0.0	0.514257907867	0.0008959770202639998	0.36790895461999995	1.0	q	658.099951982																																	2015_Jul_06_1244	59.8626997063	LearningTask	1	78	
136	200.0	s	-200.0																	1.0	0.0	1.0	0.0	3.0	0.0	12.0	2.0																													s	1.0	0.35051393508900003	None	0.0	2.0	crossorange.gif	go																								0.0	0.513834953308	0.000946044921875	0.35051393508900003	1.0	s	661.1028888230001																																	2015_Jul_06_1244	59.8626997063	LearningTask	1	78	
137	-200.0	q	200.0																	1.0	0.0	1.0	0.0	3.0	1.0	13.0	1.0																													q	1.0	0.35099196434	None	0.0	4.0	squarecyan.gif	stop																								0.0	0.514278173447	0.0008831024169919999	0.35099196434	1.0	q	664.106556892																																	2015_Jul_06_1244	59.8626997063	LearningTask	1	78	
138	200.0	w	200.0																	1.0	0.0	1.0	0.0	3.0	2.0	14.0	0.0																													w	1.0	0.350985765457	None	0.0	2.0	crossorange.gif	go																								1.86	0.513969182968	0.00090503692627	0.350985765457	1.0	w	667.109764814																																	2015_Jul_06_1244	59.8626997063	LearningTask	1	78	
139	-200.0	a	-200.0																	1.0	0.0	1.0	0.0	3.0	3.0	15.0	3.0																													a	1.0	0.334280967712	None	0.0	2.0	crossorange.gif	go																								1.81	0.514347076416	0.0009150505065920001	0.334280967712	1.0	a	670.113005877																																	2015_Jul_06_1244	59.8626997063	LearningTask	1	78	
140	200.0	s	-200.0																	1.0	0.0	1.0	0.0	4.0	0.0	16.0	2.0																													s	1.0	0.350807905197	None	0.0	2.0	crossorange.gif	go																								1.78	0.514302968979	0.000930070877075	0.350807905197	1.0	s	673.116436005																																	2015_Jul_06_1244	59.8626997063	LearningTask	1	78	
141	200.0	s	-200.0																	1.0	0.0	1.0	0.0	4.0	1.0	17.0	2.0																													s	1.0	0.334063053131	None	0.0	2.0	crossorange.gif	go																								2.0	0.5143840312960001	0.00090503692627	0.334063053131	1.0	s	676.119826794																																	2015_Jul_06_1244	59.8626997063	LearningTask	1	78	
142	200.0	w	200.0																	1.0	0.0	1.0	0.0	4.0	2.0	18.0	0.0																													w	1.0	0.33477807045	None	0.0	4.0	squarecyan.gif	stop																								3.94	0.514347791672	0.0008668899536130001	0.33477807045	1.0	w	679.1231679919999																																	2015_Jul_06_1244	59.8626997063	LearningTask	1	78	
143	-200.0	a	-200.0																	1.0	0.0	1.0	0.0	4.0	3.0	19.0	3.0																													a	1.0	0.350820064545	None	0.0	0.5	invertedtriangleyellow.gif	go																								0.35	0.51429104805	0.0010859966278099998	0.350820064545	1.0	a	682.1268978119999																																	2015_Jul_06_1244	59.8626997063	LearningTask	1	78	
144	-200.0	q	200.0																	1.0	0.0	1.0	0.0	5.0	0.0	20.0	1.0																													q	1.0	0.350948095322	None	0.0	1.0	trianglewhite.gif	go																								0.94	0.5139338970180001	0.0009210109710689999	0.350948095322	1.0	q	685.130266905																																	2015_Jul_06_1244	59.8626997063	LearningTask	1	78	
145	200.0	s	-200.0																	1.0	0.0	1.0	0.0	5.0	1.0	21.0	2.0																													s	1.0	0.35107493400600004	None	0.0	4.0	squarecyan.gif	stop																								4.1	0.513147115707	0.00111508369446	0.35107493400600004	1.0	s	688.133296967																																	2015_Jul_06_1244	59.8626997063	LearningTask	1	78	
146	-200.0	a	-200.0																	1.0	0.0	1.0	0.0	5.0	2.0	22.0	3.0																													a	1.0	0.367398023605	None	0.0	0.5	invertedtriangleyellow.gif	go																								0.41	0.514035224915	0.0009891986846919999	0.367398023605	1.0	a	691.136740923																																	2015_Jul_06_1244	59.8626997063	LearningTask	1	78	
147	200.0	s	-200.0																	1.0	0.0	1.0	0.0	5.0	3.0	23.0	2.0																													s	1.0	0.35127401351899995	None	0.0	2.0	circleblue.gif	stop																								0.0	0.514223098755	0.00088095664978	0.35127401351899995	1.0	s	694.13993001																																	2015_Jul_06_1244	59.8626997063	LearningTask	1	78	
148	-200.0	a	-200.0																	1.0	0.0	1.0	0.0	6.0	0.0	24.0	3.0																													a	1.0	0.334146022797	None	0.0	0.5	invertedtriangleyellow.gif	go																								0.0	0.514680147171	0.000877141952515	0.334146022797	1.0	a	697.143777847																																	2015_Jul_06_1244	59.8626997063	LearningTask	1	78	
149	-200.0	a	-200.0																	1.0	0.0	1.0	0.0	6.0	1.0	25.0	3.0																													a	1.0	0.300811052322	None	0.0	2.0	crossorange.gif	go																								1.94	0.5141050815579999	0.000880002975464	0.300811052322	1.0	a	700.146876812																																	2015_Jul_06_1244	59.8626997063	LearningTask	1	78	
150	-200.0	q	200.0																	1.0	0.0	1.0	0.0	6.0	2.0	26.0	1.0																													q	1.0	0.350759983063	None	0.0	2.0	circleblue.gif	stop																								0.0	0.514678001404	0.0009279251098630001	0.36752295494099996	0.0	w	703.1505517960001	2.02	0.515125989914	0.0009529590606689998	0.350759983063	1.0	q	706.1542668339999																										2015_Jul_06_1244	59.8626997063	LearningTask	1	78	
151	200.0	w	200.0																	1.0	0.0	1.0	0.0	6.0	3.0	27.0	0.0																													w	1.0	0.367056846619	None	0.0	4.0	linegray.gif	go																								4.05	0.513831138611	0.0008931159973139998	0.367056846619	1.0	w	709.157073975																																	2015_Jul_06_1244	59.8626997063	LearningTask	1	78	
152	200.0	w	200.0																	1.0	0.0	1.0	0.0	7.0	0.0	28.0	0.0																													w	1.0	0.36775302886999994	None	0.0	2.0	circleblue.gif	stop																								1.82	0.514230966568	0.000880002975464	0.36775302886999994	1.0	w	712.1602787969999																																	2015_Jul_06_1244	59.8626997063	LearningTask	1	78	
153	-200.0	q	200.0																	1.0	0.0	1.0	0.0	7.0	1.0	29.0	1.0																													q	1.0	0.35039591789200003	None	0.0	2.0	circleblue.gif	stop																								1.75	0.514739990234	0.000880002975464	0.35039591789200003	1.0	q	715.1638360019999																																	2015_Jul_06_1244	59.8626997063	LearningTask	1	78	
154	200.0	s	-200.0																	1.0	0.0	1.0	0.0	7.0	2.0	30.0	2.0																													s	1.0	0.334499835968	None	0.0	4.0	squarecyan.gif	stop																								3.75	0.5140821933749999	0.0008721351623539999	0.334499835968	1.0	s	718.16742301																																	2015_Jul_06_1244	59.8626997063	LearningTask	1	78	
155	200.0	w	200.0																	1.0	0.0	1.0	0.0	7.0	3.0	31.0	0.0																													w	1.0	0.334551095963	None	0.0	1.0	trianglewhite.gif	go																								0.81	0.513887882233	0.00109791755676	0.334551095963	1.0	w	721.1709549430001																																	2015_Jul_06_1244	59.8626997063	LearningTask	1	78	
156	200.0	w	200.0																	1.0	0.0	1.0	0.0	8.0	0.0	32.0	0.0																													w	1.0	0.36741900444	None	0.0	2.0	crossorange.gif	go																								0.0	0.514043092728	0.0008831024169919999	0.36741900444	1.0	w	724.1739478110001																																	2015_Jul_06_1244	59.8626997063	LearningTask	1	78	
157	-200.0	q	200.0																	1.0	0.0	1.0	0.0	8.0	1.0	33.0	1.0																													q	1.0	0.33401799202	None	0.0	1.0	hexagongreen.gif	stop																								0.75	0.514251947403	0.0008840560913089999	0.33401799202	1.0	q	727.177151918																																	2015_Jul_06_1244	59.8626997063	LearningTask	1	78	
158	-200.0	a	-200.0																	1.0	0.0	1.0	0.0	8.0	2.0	34.0	3.0																													a	1.0	0.367758989334	None	0.0	1.0	hexagongreen.gif	stop																								0.89	0.514196872711	0.00121402740479	0.367758989334	1.0	a	730.180626869																																	2015_Jul_06_1244	59.8626997063	LearningTask	1	78	
159	200.0	w	200.0																	1.0	0.0	1.0	0.0	8.0	3.0	35.0	0.0																													w	1.0	0.31782412529	None	0.0	2.0	circleblue.gif	stop																								0.0	0.514199018478	0.0008759498596189999	0.31782412529	1.0	w	733.184022903																																	2015_Jul_06_1244	59.8626997063	LearningTask	1	78	
160	200.0	s	-200.0																	1.0	0.0	1.0	0.0	9.0	0.0	36.0	2.0																													s	1.0	0.35073614120499996	None	0.0	1.0	hexagongreen.gif	stop																								0.0	0.514219045639	0.0008761882781980001	0.35073614120499996	1.0	s	736.187429905																																	2015_Jul_06_1244	59.8626997063	LearningTask	1	78	
161	200.0	s	-200.0																	1.0	0.0	1.0	0.0	9.0	1.0	37.0	2.0																													s	1.0	0.351313114166	None	0.0	0.5	diamondmagenta.gif	stop																								0.0	0.513977050781	0.00103712081909	0.351313114166	1.0	s	739.190782785																																	2015_Jul_06_1244	59.8626997063	LearningTask	1	78	
162	200.0	w	200.0																	1.0	0.0	1.0	0.0	9.0	2.0	38.0	0.0																													w	1.0	0.367398023605	None	0.0	4.0	linegray.gif	go																								4.18	0.514518976212	0.000867128372192	0.367398023605	1.0	w	742.194069862																																	2015_Jul_06_1244	59.8626997063	LearningTask	1	78	
163	-200.0	a	-200.0																	1.0	0.0	1.0	0.0	9.0	3.0	39.0	3.0																													a	1.0	0.351125001907	None	0.0	2.0	circleblue.gif	stop																								1.92	0.51437997818	0.0008788108825680001	0.351125001907	1.0	a	745.1979069710001																																	2015_Jul_06_1244	59.8626997063	LearningTask	1	78	
164	200.0	w	200.0																	1.0	0.0	1.0	0.0	10.0	0.0	40.0	0.0																													w	1.0	0.28447794914200003	None	0.0	4.0	squarecyan.gif	stop																								3.79	0.513861894608	0.000917911529541	0.28447794914200003	1.0	w	748.2008969780001																																	2015_Jul_06_1244	59.8626997063	LearningTask	1	78	
165	200.0	s	-200.0																	1.0	0.0	1.0	0.0	10.0	1.0	41.0	2.0																													s	1.0	0.367795944214	None	0.0	0.5	diamondmagenta.gif	stop																								0.33	0.514380931854	0.000869989395142	0.367795944214	1.0	s	751.204226017																																	2015_Jul_06_1244	59.8626997063	LearningTask	1	78	
166	-200.0	q	200.0																	1.0	0.0	1.0	0.0	10.0	2.0	42.0	1.0																													q	1.0	0.334122896194	None	0.0	2.0	circleblue.gif	stop																								0.0	0.51429104805	0.0008749961853029999	0.334122896194	1.0	q	754.207999945																																	2015_Jul_06_1244	59.8626997063	LearningTask	1	78	
167	-200.0	q	200.0																	1.0	0.0	1.0	0.0	10.0	3.0	43.0	1.0																													q	1.0	0.36753320693999997	None	0.0	4.0	squarecyan.gif	stop																								4.2	0.513896942139	0.000888109207153	0.36753320693999997	1.0	q	757.211133003																																	2015_Jul_06_1244	59.8626997063	LearningTask	1	78	
168	200.0	w	200.0																	1.0	0.0	1.0	0.0	11.0	0.0	44.0	0.0																													w	1.0	0.334394931793	None	0.0	4.0	squarecyan.gif	stop																								3.76	0.514246940613	0.000955820083618	0.334394931793	1.0	w	760.214265823																																	2015_Jul_06_1244	59.8626997063	LearningTask	1	78	
169	-200.0	a	-200.0																	1.0	0.0	1.0	0.0	11.0	1.0	45.0	3.0																													a	1.0	0.367722988129	None	0.0	1.0	hexagongreen.gif	stop																								1.13	0.514498949051	0.0008909702301030001	0.367722988129	1.0	a	763.218014002																																	2015_Jul_06_1244	59.8626997063	LearningTask	1	78	
170	-200.0	q	200.0																	1.0	0.0	1.0	0.0	11.0	2.0	46.0	1.0																													q	1.0	0.35033106803900005	None	0.0	0.5	invertedtriangleyellow.gif	go																								0.0	0.514500141144	0.000890016555786	0.35033106803900005	1.0	q	766.221140862																																	2015_Jul_06_1244	59.8626997063	LearningTask	1	78	
171	-200.0	a	-200.0																	1.0	0.0	1.0	0.0	11.0	3.0	47.0	3.0																													a	1.0	0.350905179977	None	0.0	2.0	circleblue.gif	stop																								2.23	0.514241933823	0.00092601776123	0.350905179977	1.0	a	769.224843979																																	2015_Jul_06_1244	59.8626997063	LearningTask	1	78	
172	200.0	w	200.0																	1.0	0.0	1.0	0.0	12.0	0.0	48.0	0.0																													w	1.0	0.26727318763700003	None	0.0	0.5	invertedtriangleyellow.gif	go																								0.0	0.514174938202	0.0008749961853029999	0.26727318763700003	1.0	w	772.228025913																																	2015_Jul_06_1244	59.8626997063	LearningTask	1	78	
173	200.0	w	200.0																	1.0	0.0	1.0	0.0	12.0	1.0	49.0	0.0																													w	1.0	0.317503929138	None	0.0	0.5	diamondmagenta.gif	stop																								0.68	0.514187097549	0.0008680820465089999	0.317503929138	1.0	w	775.231280804																																	2015_Jul_06_1244	59.8626997063	LearningTask	1	78	
174	-200.0	q	200.0																	1.0	0.0	1.0	0.0	12.0	2.0	50.0	1.0																													q	1.0	0.384124040604	None	0.0	0.5	invertedtriangleyellow.gif	go																								0.47	0.514180898666	0.000941038131714	0.384124040604	1.0	q	778.234593868																																	2015_Jul_06_1244	59.8626997063	LearningTask	1	78	
175	-200.0	a	-200.0																	1.0	0.0	1.0	0.0	12.0	3.0	51.0	3.0																													a	1.0	0.3342628479	None	0.0	4.0	squarecyan.gif	stop																								4.2	0.5141859054569999	0.0009360313415529999	0.3342628479	1.0	a	781.2381289010001																																	2015_Jul_06_1244	59.8626997063	LearningTask	1	78	
176	-200.0	a	-200.0																	1.0	0.0	1.0	0.0	13.0	0.0	52.0	3.0																													a	1.0	0.350340843201	None	0.0	1.0	hexagongreen.gif	stop																								0.0	0.514282941818	0.0011689662933299998	0.350340843201	1.0	a	784.24168992																																	2015_Jul_06_1244	59.8626997063	LearningTask	1	78	
177	-200.0	q	200.0																	1.0	0.0	1.0	0.0	13.0	1.0	53.0	1.0																													q	1.0	0.367511987686	None	0.0	1.0	hexagongreen.gif	stop																								0.0	0.5141270160679999	0.0008749961853029999	0.367511987686	1.0	q	787.244796991																																	2015_Jul_06_1244	59.8626997063	LearningTask	1	78	
178	-200.0	q	200.0																	1.0	0.0	1.0	0.0	13.0	2.0	54.0	1.0																													q	1.0	0.350914001465	None	0.0	1.0	trianglewhite.gif	go																								0.0	0.5144741535189999	0.00088906288147	0.350914001465	1.0	q	790.2481830119999																																	2015_Jul_06_1244	59.8626997063	LearningTask	1	78	
179	200.0	w	200.0																	1.0	0.0	1.0	0.0	13.0	3.0	55.0	0.0																													w	1.0	0.35084605217	None	0.0	1.0	trianglewhite.gif	go																								1.25	0.51433801651	0.0008740425109860002	0.35084605217	1.0	w	793.2518599030001																																	2015_Jul_06_1244	59.8626997063	LearningTask	1	78	
180	200.0	w	200.0																	1.0	0.0	1.0	0.0	14.0	0.0	56.0	0.0																													w	1.0	0.350838184357	None	0.0	0.5	diamondmagenta.gif	stop																								0.29	0.513869047165	0.0008630752563480002	0.350838184357	1.0	w	796.254961014																																	2015_Jul_06_1244	59.8626997063	LearningTask	1	78	
181	200.0	s	-200.0																	1.0	0.0	1.0	0.0	14.0	1.0	57.0	2.0																													s	1.0	0.367337942123	None	0.0	2.0	circleblue.gif	stop																								2.08	0.514467954636	0.000880002975464	0.367337942123	1.0	s	799.2583389280001																																	2015_Jul_06_1244	59.8626997063	LearningTask	1	78	
182	200.0	w	200.0																	1.0	0.0	1.0	0.0	14.0	2.0	58.0	0.0																													w	1.0	0.350966930389	None	0.0	4.0	linegray.gif	go																								3.8	0.514076948166	0.0008790493011469999	0.350966930389	1.0	w	802.261837959																																	2015_Jul_06_1244	59.8626997063	LearningTask	1	78	
183	200.0	s	-200.0																	1.0	0.0	1.0	0.0	14.0	3.0	59.0	2.0																													s	1.0	0.383907079697	None	0.0	0.5	diamondmagenta.gif	stop																								0.37	0.51452088356	0.00088095664978	0.383907079697	1.0	s	805.264986992																																	2015_Jul_06_1244	59.8626997063	LearningTask	1	78	
184	200.0	s	-200.0																	1.0	0.0	1.0	0.0	15.0	0.0	60.0	2.0																													s	1.0	0.350819826126	None	0.0	1.0	hexagongreen.gif	stop																								1.25	0.514527082443	0.000991106033325	0.350819826126	1.0	s	808.268857956																																	2015_Jul_06_1244	59.8626997063	LearningTask	1	78	
185	200.0	s	-200.0																	1.0	0.0	1.0	0.0	15.0	1.0	61.0	2.0																													s	1.0	0.36699891090400005	None	0.0	0.5	diamondmagenta.gif	stop																								0.0	0.513942956924	0.00088095664978	0.36699891090400005	1.0	s	811.271921873																																	2015_Jul_06_1244	59.8626997063	LearningTask	1	78	
186	200.0	s	-200.0																	1.0	0.0	1.0	0.0	15.0	2.0	62.0	2.0																													s	1.0	0.36700105667099997	None	0.0	1.0	hexagongreen.gif	stop																								1.18	0.514189958572	0.0008978843688960001	0.36700105667099997	1.0	s	814.275278807																																	2015_Jul_06_1244	59.8626997063	LearningTask	1	78	
187	-200.0	q	200.0																	1.0	0.0	1.0	0.0	15.0	3.0	63.0	1.0																													q	1.0	0.36762213706999997	None	0.0	1.0	trianglewhite.gif	go																								0.0	0.5139939785000001	0.0009329319000239999	0.36762213706999997	1.0	q	817.2787308689999																																	2015_Jul_06_1244	59.8626997063	LearningTask	1	78	
188	-200.0	q	200.0																	1.0	0.0	1.0	0.0	16.0	0.0	64.0	1.0																													q	1.0	0.36721897125200004	None	0.0	0.5	invertedtriangleyellow.gif	go																								0.0	0.514544010162	0.0008840560913089999	0.36721897125200004	1.0	q	820.281930923																																	2015_Jul_06_1244	59.8626997063	LearningTask	1	78	
189	-200.0	q	200.0																	1.0	0.0	1.0	0.0	16.0	1.0	65.0	1.0																													q	1.0	0.367667913437	None	0.0	0.5	diamondmagenta.gif	stop																								0.0	0.514292001724	0.0008840560913089999	0.367667913437	1.0	q	823.285279989																																	2015_Jul_06_1244	59.8626997063	LearningTask	1	78	
190	-200.0	q	200.0																	1.0	0.0	1.0	0.0	16.0	2.0	66.0	1.0																													q	1.0	0.368177890778	None	0.0	1.0	trianglewhite.gif	go																								0.0	0.513824939728	0.0009148120880130001	0.368177890778	1.0	q	826.2886979580001																																	2015_Jul_06_1244	59.8626997063	LearningTask	1	78	
191	-200.0	q	200.0																	1.0	0.0	1.0	0.0	16.0	3.0	67.0	1.0																													q	1.0	0.36765098571800003	None	0.0	2.0	crossorange.gif	go																								2.1	0.514292001724	0.000882863998413	0.36765098571800003	1.0	q	829.2922189239999																																	2015_Jul_06_1244	59.8626997063	LearningTask	1	78	
192	200.0	w	200.0																	1.0	0.0	1.0	0.0	17.0	0.0	68.0	0.0																													w	1.0	0.33426308631900004	None	0.0	1.0	trianglewhite.gif	go																								1.0	0.514287948608	0.000881910324097	0.33426308631900004	1.0	w	832.2959728239999																																	2015_Jul_06_1244	59.8626997063	LearningTask	1	78	
193	-200.0	q	200.0																	1.0	0.0	1.0	0.0	17.0	1.0	69.0	1.0																													q	1.0	0.367347002029	None	0.0	4.0	linegray.gif	go																								3.9	0.513878107071	0.0008950233459470001	0.367347002029	1.0	q	835.298760891																																	2015_Jul_06_1244	59.8626997063	LearningTask	1	78	
194	-200.0	a	-200.0																	1.0	0.0	1.0	0.0	17.0	2.0	70.0	3.0																													a	1.0	0.41737008094800004	None	0.0	1.0	trianglewhite.gif	go																								1.04	0.514328956604	0.000885009765625	0.41737008094800004	1.0	a	838.302352905																																	2015_Jul_06_1244	59.8626997063	LearningTask	1	78	
195	-200.0	a	-200.0																	1.0	0.0	1.0	0.0	17.0	3.0	71.0	3.0																													a	1.0	0.300993919373	None	0.0	4.0	squarecyan.gif	stop																								4.24	0.514174938202	0.0008687973022460001	0.300993919373	1.0	a	841.3058049680001																																	2015_Jul_06_1244	59.8626997063	LearningTask	1	78	
196	-200.0	a	-200.0																	1.0	0.0	1.0	0.0	18.0	0.0	72.0	3.0																													a	1.0	0.334321022034	None	0.0	1.0	hexagongreen.gif	stop																								1.23	0.514034986496	0.000888109207153	0.334321022034	1.0	a	844.3090147969999																																	2015_Jul_06_1244	59.8626997063	LearningTask	1	78	
197	200.0	s	-200.0																	1.0	0.0	1.0	0.0	18.0	1.0	73.0	2.0																													s	1.0	0.333714962006	None	0.0	1.0	hexagongreen.gif	stop																								1.14	0.514477968216	0.00088906288147	0.333714962006	1.0	s	847.3122909069999																																	2015_Jul_06_1244	59.8626997063	LearningTask	1	78	
198	-200.0	a	-200.0																	1.0	0.0	1.0	0.0	18.0	2.0	74.0	3.0																													a	1.0	0.36772608756999997	None	0.0	4.0	linegray.gif	go																								4.25	0.514611959457	0.0009019374847410001	0.36772608756999997	1.0	a	850.316088915																																	2015_Jul_06_1244	59.8626997063	LearningTask	1	78	
199	200.0	w	200.0																	1.0	0.0	1.0	0.0	18.0	3.0	75.0	0.0																													w	1.0	0.384114980698	None	0.0	2.0	crossorange.gif	go																								1.98	0.514034032822	0.000880002975464	0.384114980698	1.0	w	853.319308996																																	2015_Jul_06_1244	59.8626997063	LearningTask	1	78	
200	200.0	s	-200.0																	1.0	0.0	1.0	0.0	19.0	0.0	76.0	2.0																													s	1.0	0.500434875488	None	0.0	4.0	linegray.gif	go																								4.16	0.514345169067	0.00112509727478	0.500434875488	1.0	s	856.322321892																																	2015_Jul_06_1244	59.8626997063	LearningTask	1	78	
201	-200.0	q	200.0																	1.0	0.0	1.0	0.0	19.0	1.0	77.0	1.0																													q	1.0	0.35102105140699996	None	0.0	2.0	circleblue.gif	stop																								0.0	0.514590978622	0.0008821487426760002	0.350727081299	0.0	a	859.325934887	0.0	0.51567697525	0.0009760856628420001	0.35102105140699996	1.0	q	862.3291800019999																										2015_Jul_06_1244	59.8626997063	LearningTask	1	78	
202	200.0	s	-200.0																	1.0	0.0	1.0	0.0	19.0	2.0	78.0	2.0																													s	1.0	0.35075807571400003	None	0.0	1.0	hexagongreen.gif	stop																								1.12	0.514271974564	0.00093412399292	0.35075807571400003	1.0	s	865.332631826																																	2015_Jul_06_1244	59.8626997063	LearningTask	1	78	
203	-200.0	q	200.0																	1.0	0.0	1.0	0.0	19.0	3.0	79.0	1.0																													q	1.0	0.334201812744	None	0.0	4.0	linegray.gif	go																								3.91	0.514331817627	0.0008769035339360002	0.334201812744	1.0	q	868.3359539510001																																	2015_Jul_06_1244	59.8626997063	LearningTask	1	78	
204	-200.0	a	-200.0																	1.0	0.0	1.0	0.0	20.0	0.0	80.0	3.0																													a	1.0	0.38440179824799997	None	0.0	1.0	trianglewhite.gif	go																								0.79	0.514405012131	0.000877141952515	0.38440179824799997	1.0	a	871.339233875																																	2015_Jul_06_1244	59.8626997063	LearningTask	1	78	
205	200.0	w	200.0																	1.0	0.0	1.0	0.0	20.0	1.0	81.0	0.0																													w	1.0	0.350947856903	None	0.0	4.0	linegray.gif	go																								4.16	0.514113903046	0.0009529590606689998	0.350947856903	1.0	w	874.342794895																																	2015_Jul_06_1244	59.8626997063	LearningTask	1	78	
206	-200.0	a	-200.0																	1.0	0.0	1.0	0.0	20.0	2.0	82.0	3.0																													a	1.0	0.40066504478500004	None	0.0	2.0	circleblue.gif	stop																								1.85	0.514449119568	0.0008721351623539999	0.40066504478500004	1.0	a	877.346265793																																	2015_Jul_06_1244	59.8626997063	LearningTask	1	78	
207	200.0	s	-200.0																	1.0	0.0	1.0	0.0	20.0	3.0	83.0	2.0																													s	1.0	0.367532968521	None	0.0	0.5	diamondmagenta.gif	stop																								0.58	0.514147043228	0.0008821487426760002	0.367532968521	1.0	s	880.349979877																																	2015_Jul_06_1244	59.8626997063	LearningTask	1	78	
208	-200.0	a	-200.0																	1.0	0.0	1.0	0.0	21.0	0.0	84.0	3.0																													a	1.0	0.367202997208	None	0.0	2.0	crossorange.gif	go																								1.9	0.5139060020449999	0.000881910324097	0.367202997208	1.0	a	883.352880001																																	2015_Jul_06_1244	59.8626997063	LearningTask	1	78	
209	200.0	w	200.0																	1.0	0.0	1.0	0.0	21.0	1.0	85.0	0.0																													w	1.0	0.33451294899	None	0.0	1.0	hexagongreen.gif	stop																								0.82	0.514448165894	0.0008950233459470001	0.33451294899	1.0	w	886.356400013																																	2015_Jul_06_1244	59.8626997063	LearningTask	1	78	
210	-200.0	a	-200.0																	1.0	0.0	1.0	0.0	21.0	2.0	86.0	3.0																													a	1.0	0.300770998001	None	0.0	0.5	invertedtriangleyellow.gif	go																								0.58	0.514095067978	0.0008840560913089999	0.300770998001	1.0	a	889.35992384																																	2015_Jul_06_1244	59.8626997063	LearningTask	1	78	
211	200.0	s	-200.0																	1.0	0.0	1.0	0.0	21.0	3.0	87.0	2.0																													s	1.0	0.334167957306	None	0.0	0.5	invertedtriangleyellow.gif	go																								0.69	0.514219999313	0.0008831024169919999	0.334167957306	1.0	s	892.36290884																																	2015_Jul_06_1244	59.8626997063	LearningTask	1	78	
212	200.0	w	200.0																	1.0	0.0	1.0	0.0	22.0	0.0	88.0	0.0																													w	1.0	0.367666959763	None	0.0	4.0	linegray.gif	go																								4.2	0.514219045639	0.00102806091309	0.367666959763	1.0	w	895.366266012																																	2015_Jul_06_1244	59.8626997063	LearningTask	1	78	
213	-200.0	q	200.0																	1.0	0.0	1.0	0.0	22.0	1.0	89.0	1.0																													q	1.0	0.367429971695	None	0.0	1.0	hexagongreen.gif	stop																								0.0	0.514499187469	0.0008950233459470001	0.367429971695	1.0	q	898.369856834																																	2015_Jul_06_1244	59.8626997063	LearningTask	1	78	
214	-200.0	q	200.0																	1.0	0.0	1.0	0.0	22.0	2.0	90.0	1.0																													q	1.0	0.40065979957599995	None	0.0	4.0	linegray.gif	go																								4.22	0.514279127121	0.0009210109710689999	0.40065979957599995	1.0	q	901.3730959889999																																	2015_Jul_06_1244	59.8626997063	LearningTask	1	78	
215	200.0	w	200.0																	1.0	0.0	1.0	0.0	22.0	3.0	91.0	0.0																													w	1.0	0.301298141479	None	0.0	0.5	diamondmagenta.gif	stop																								0.34	0.514053821564	0.000953912734985	0.301298141479	1.0	w	904.376737833																																	2015_Jul_06_1244	59.8626997063	LearningTask	1	78	
216	-200.0	a	-200.0																	1.0	0.0	1.0	0.0	23.0	0.0	92.0	3.0																													a	1.0	0.35116291046099996	None	0.0	2.0	circleblue.gif	stop																								2.0	0.513871908188	0.0008838176727290001	0.35116291046099996	1.0	a	907.380206823																																	2015_Jul_06_1244	59.8626997063	LearningTask	1	78	
217	-200.0	a	-200.0																	1.0	0.0	1.0	0.0	23.0	1.0	93.0	3.0																													a	1.0	0.33432888984700004	None	0.0	1.0	trianglewhite.gif	go																								1.08	0.513897180557	0.0009031295776369999	0.33432888984700004	1.0	a	910.383144855																																	2015_Jul_06_1244	59.8626997063	LearningTask	1	78	
218	200.0	s	-200.0																	1.0	0.0	1.0	0.0	23.0	2.0	94.0	2.0																													s	1.0	0.350883960724	None	0.0	2.0	circleblue.gif	stop																								2.11	0.514159917831	0.000909805297852	0.350883960724	1.0	s	913.386680841																																	2015_Jul_06_1244	59.8626997063	LearningTask	1	78	
219	200.0	w	200.0																	1.0	0.0	1.0	0.0	23.0	3.0	95.0	0.0																													w	1.0	0.350742101669	None	0.0	4.0	linegray.gif	go																								3.96	0.514298915863	0.000892877578735	0.350742101669	1.0	w	916.389975786																																	2015_Jul_06_1244	59.8626997063	LearningTask	1	78	
220	200.0	w	200.0																	1.0	0.0	1.0	0.0	24.0	0.0	96.0	0.0																													w	1.0	0.400806188583	None	0.0	1.0	hexagongreen.gif	stop																								0.0	0.5143778324130001	0.000945806503296	0.400806188583	1.0	w	919.3939709660001																																	2015_Jul_06_1244	59.8626997063	LearningTask	1	78	
221	200.0	s	-200.0																	1.0	0.0	1.0	0.0	24.0	1.0	97.0	2.0																													s	1.0	0.350298881531	None	0.0	2.0	crossorange.gif	go																								0.0	0.514002084732	0.0008759498596189999	0.350298881531	1.0	s	922.396861792																																	2015_Jul_06_1244	59.8626997063	LearningTask	1	78	
222	-200.0	q	200.0																	1.0	0.0	1.0	0.0	24.0	2.0	98.0	1.0																													q	1.0	0.38463115692100003	None	0.0	4.0	linegray.gif	go																								4.01	0.5143408775330001	0.000877857208252	0.38463115692100003	1.0	q	925.400197983																																	2015_Jul_06_1244	59.8626997063	LearningTask	1	78	
223	-200.0	a	-200.0																	1.0	0.0	1.0	0.0	24.0	3.0	99.0	3.0																													a	1.0	0.350787878036	None	0.0	0.5	invertedtriangleyellow.gif	go																								0.0	0.5143949985499999	0.000877857208252	0.350787878036	1.0	a	928.404058933																																	2015_Jul_06_1244	59.8626997063	LearningTask	1	78	
224																				1.0	0.0	1.0	0.0																																																																														9.0	111.725747108																								2015_Jul_06_1244	59.8626997063	LearningTask	1	78	
225	-200.0	a	-200.0																	2.0	0.0	2.0	0.0	0.0	0.0	0.0	3.0																													a	1.0	0.4177069664	None	0.0	1.0	hexagongreen.gif	stop																								1.06	0.509851932526	0.0008909702301030001	0.4177069664	1.0	a	1043.81716585																																	2015_Jul_06_1244	59.8626997063	LearningTask	1	78	
226	200.0	w	200.0																	2.0	0.0	2.0	0.0	0.0	1.0	1.0	0.0																													w	1.0	0.350415945053	None	0.0	4.0	linegray.gif	go																								4.03	0.5136680603029999	0.0009560585021970001	0.350415945053	1.0	w	1046.81989479																																	2015_Jul_06_1244	59.8626997063	LearningTask	1	78	
227	-200.0	a	-200.0																	2.0	0.0	2.0	0.0	0.0	2.0	2.0	3.0																													a	1.0	0.333781003952	None	0.0	2.0	circleblue.gif	stop																								1.8	0.5145649909969999	0.0011470317840599998	0.333781003952	1.0	a	1049.82359886																																	2015_Jul_06_1244	59.8626997063	LearningTask	1	78	
228	200.0	s	-200.0																	2.0	0.0	2.0	0.0	0.0	3.0	3.0	2.0																													s	1.0	0.300722122192	None	0.0	2.0	crossorange.gif	go																								0.0	0.514183998108	0.00088095664978	0.300722122192	1.0	s	1052.82697701																																	2015_Jul_06_1244	59.8626997063	LearningTask	1	78	
229	200.0	w	200.0																	2.0	0.0	2.0	0.0	1.0	0.0	4.0	0.0																													w	1.0	0.283803939819	None	0.0	1.0	trianglewhite.gif	go																								0.81	0.514374017715	0.0008831024169919999	0.283803939819	1.0	w	1055.83044386																																	2015_Jul_06_1244	59.8626997063	LearningTask	1	78	
230	200.0	w	200.0																	2.0	0.0	2.0	0.0	1.0	1.0	5.0	0.0																													w	1.0	0.350886106491	None	0.0	1.0	trianglewhite.gif	go																								0.91	0.513908863068	0.0008919239044189998	0.350886106491	1.0	w	1058.83350801																																	2015_Jul_06_1244	59.8626997063	LearningTask	1	78	
231	-200.0	q	200.0																	2.0	0.0	2.0	0.0	1.0	2.0	6.0	1.0																													q	1.0	0.300744056702	None	0.0	0.5	invertedtriangleyellow.gif	go																								0.47	0.514297962189	0.0008790493011469999	0.300744056702	1.0	q	1061.83686686																																	2015_Jul_06_1244	59.8626997063	LearningTask	1	78	
232	-200.0	q	200.0																	2.0	0.0	2.0	0.0	1.0	3.0	7.0	1.0																													q	1.0	0.33425784110999995	None	0.0	1.0	hexagongreen.gif	stop																								0.82	0.514243841171	0.00089693069458	0.33425784110999995	1.0	q	1064.84028602																																	2015_Jul_06_1244	59.8626997063	LearningTask	1	78	
233	-200.0	a	-200.0																	2.0	0.0	2.0	0.0	2.0	0.0	8.0	3.0																													a	1.0	0.35081291198700004	None	0.0	4.0	squarecyan.gif	stop																								0.0	0.5141551494600001	0.000892162322998	0.35081291198700004	1.0	a	1067.84371996																																	2015_Jul_06_1244	59.8626997063	LearningTask	1	78	
234	200.0	s	-200.0																	2.0	0.0	2.0	0.0	2.0	1.0	9.0	2.0																													s	1.0	0.35103893280000004	None	0.0	0.5	diamondmagenta.gif	stop																								0.55	0.514510154724	0.0008909702301030001	0.35103893280000004	1.0	s	1070.84717202																																	2015_Jul_06_1244	59.8626997063	LearningTask	1	78	
235	200.0	s	-200.0																	2.0	0.0	2.0	0.0	2.0	2.0	10.0	2.0																													s	1.0	0.333832025528	None	0.0	1.0	trianglewhite.gif	go																								0.0	0.514353990555	0.0008709430694580001	0.333832025528	1.0	s	1073.85039687																																	2015_Jul_06_1244	59.8626997063	LearningTask	1	78	
236	-200.0	q	200.0																	2.0	0.0	2.0	0.0	2.0	3.0	11.0	1.0																													q	1.0	0.300812005997	None	0.0	1.0	hexagongreen.gif	stop																								0.91	0.5143940448759999	0.0008749961853029999	0.300812005997	1.0	q	1076.85359693																																	2015_Jul_06_1244	59.8626997063	LearningTask	1	78	
237	200.0	s	-200.0																	2.0	0.0	2.0	0.0	3.0	0.0	12.0	2.0																													s	1.0	0.300714015961	None	0.0	2.0	crossorange.gif	go																								0.0	0.514781951904	0.0010049343109099999	0.300714015961	1.0	s	1079.85734391																																	2015_Jul_06_1244	59.8626997063	LearningTask	1	78	
238	200.0	s	-200.0																	2.0	0.0	2.0	0.0	3.0	1.0	13.0	2.0																													s	1.0	0.40095496177699996	None	0.0	4.0	squarecyan.gif	stop																								3.92	0.514189958572	0.0008709430694580001	0.40095496177699996	1.0	s	1082.86054492																																	2015_Jul_06_1244	59.8626997063	LearningTask	1	78	
239	-200.0	q	200.0																	2.0	0.0	2.0	0.0	3.0	2.0	14.0	1.0																													q	1.0	0.334225893021	None	0.0	4.0	squarecyan.gif	stop																								4.1	0.514617919922	0.0009250640869139999	0.334225893021	1.0	q	1085.86392999																																	2015_Jul_06_1244	59.8626997063	LearningTask	1	78	
240	200.0	w	200.0																	2.0	0.0	2.0	0.0	3.0	3.0	15.0	0.0																													w	1.0	0.300937175751	None	0.0	2.0	crossorange.gif	go																								2.11	0.513754844666	0.0009508132934569999	0.300937175751	1.0	w	1088.86729479																																	2015_Jul_06_1244	59.8626997063	LearningTask	1	78	
241	-200.0	a	-200.0																	2.0	0.0	2.0	0.0	4.0	0.0	16.0	3.0																													a	1.0	0.334297895432	None	0.0	2.0	crossorange.gif	go																								1.83	0.514531135559	0.000881910324097	0.334297895432	1.0	a	1091.87035394																																	2015_Jul_06_1244	59.8626997063	LearningTask	1	78	
242	-200.0	q	200.0																	2.0	0.0	2.0	0.0	4.0	1.0	17.0	1.0																													q	1.0	0.333838939667	None	0.0	0.5	diamondmagenta.gif	stop																								0.0	0.514547109604	0.0009350776672360002	0.201195955276	0.0	w	1094.87447786	0.59	0.515035152435	0.0009591579437260001	0.333838939667	1.0	q	1097.87790799																										2015_Jul_06_1244	59.8626997063	LearningTask	1	78	
243	-200.0	a	-200.0																	2.0	0.0	2.0	0.0	4.0	2.0	18.0	3.0																													a	1.0	0.367948055267	None	0.0	2.0	circleblue.gif	stop																								1.91	0.513705968857	0.000900983810425	0.367948055267	1.0	a	1100.88140988																																	2015_Jul_06_1244	59.8626997063	LearningTask	1	78	
244	-200.0	q	200.0																	2.0	0.0	2.0	0.0	4.0	3.0	19.0	1.0																													q	1.0	0.317677974701	None	0.0	0.5	invertedtriangleyellow.gif	go																								0.61	0.51384305954	0.0008859634399410001	0.317677974701	1.0	q	1103.88477397																																	2015_Jul_06_1244	59.8626997063	LearningTask	1	78	
245	200.0	w	200.0																	2.0	0.0	2.0	0.0	5.0	0.0	20.0	0.0																													w	1.0	0.334072113037	None	0.0	2.0	circleblue.gif	stop																								1.9	0.513701915741	0.0008897781372069999	0.334072113037	1.0	w	1106.88790202																																	2015_Jul_06_1244	59.8626997063	LearningTask	1	78	
246	200.0	w	200.0																	2.0	0.0	2.0	0.0	5.0	1.0	21.0	0.0																													w	1.0	0.38428902626	None	0.0	4.0	linegray.gif	go																								3.96	0.513833045959	0.0008718967437739999	0.38428902626	1.0	w	1109.89129496																																	2015_Jul_06_1244	59.8626997063	LearningTask	1	78	
247	-200.0	a	-200.0																	2.0	0.0	2.0	0.0	5.0	2.0	22.0	3.0																													a	1.0	0.367877006531	None	0.0	4.0	linegray.gif	go																								3.89	0.514092922211	0.0008759498596189999	0.367877006531	1.0	a	1112.89451289																																	2015_Jul_06_1244	59.8626997063	LearningTask	1	78	
248	200.0	w	200.0																	2.0	0.0	2.0	0.0	5.0	3.0	23.0	0.0																													w	1.0	0.334196090698	None	0.0	4.0	linegray.gif	go																								4.01	0.514358043671	0.0008831024169919999	0.334196090698	1.0	w	1115.89776087																																	2015_Jul_06_1244	59.8626997063	LearningTask	1	78	
249	-200.0	a	-200.0																	2.0	0.0	2.0	0.0	6.0	0.0	24.0	3.0																													a	1.0	0.36741185188299996	None	0.0	2.0	circleblue.gif	stop																								0.0	0.514337062836	0.00100803375244	0.33430814743	0.0	q	1118.90134692	0.0	0.515216827393	0.0009019374847410001	0.36741185188299996	1.0	a	1121.90428996																										2015_Jul_06_1244	59.8626997063	LearningTask	1	78	
250	-200.0	a	-200.0																	2.0	0.0	2.0	0.0	6.0	1.0	25.0	3.0																													a	1.0	0.351022005081	None	0.0	1.0	hexagongreen.gif	stop																								1.23	0.514544010162	0.000998020172119	0.351022005081	1.0	a	1124.90759087																																	2015_Jul_06_1244	59.8626997063	LearningTask	1	78	
251	200.0	w	200.0																	2.0	0.0	2.0	0.0	6.0	2.0	26.0	0.0																													w	1.0	0.350639820099	None	0.0	2.0	crossorange.gif	go																								1.96	0.5145308971410001	0.0011169910430899998	0.350639820099	1.0	w	1127.91127396																																	2015_Jul_06_1244	59.8626997063	LearningTask	1	78	
252	-200.0	a	-200.0																	2.0	0.0	2.0	0.0	6.0	3.0	27.0	3.0																													a	1.0	0.334007978439	None	0.0	0.5	diamondmagenta.gif	stop																								0.27	0.514288187027	0.000881195068359	0.334007978439	1.0	a	1130.91467285																																	2015_Jul_06_1244	59.8626997063	LearningTask	1	78	
253	200.0	s	-200.0																	2.0	0.0	2.0	0.0	7.0	0.0	28.0	2.0																													s	1.0	0.33387994766199997	None	0.0	0.5	invertedtriangleyellow.gif	go																								0.34	0.514253139496	0.0009431838989260002	0.33387994766199997	1.0	s	1133.91843295																																	2015_Jul_06_1244	59.8626997063	LearningTask	1	78	
254	200.0	s	-200.0																	2.0	0.0	2.0	0.0	7.0	1.0	29.0	2.0																													s	1.0	0.36713385581999997	None	0.0	2.0	circleblue.gif	stop																								2.01	0.514042854309	0.00088906288147	0.36713385581999997	1.0	s	1136.92110991																																	2015_Jul_06_1244	59.8626997063	LearningTask	1	78	
255	-200.0	a	-200.0																	2.0	0.0	2.0	0.0	7.0	2.0	30.0	3.0																													a	1.0	0.367166042328	None	0.0	1.0	trianglewhite.gif	go																								0.0	0.514581918716	0.0009069442749019998	0.367166042328	1.0	a	1139.92506099																																	2015_Jul_06_1244	59.8626997063	LearningTask	1	78	
256	-200.0	a	-200.0																	2.0	0.0	2.0	0.0	7.0	3.0	31.0	3.0																													a	1.0	0.367616891861	None	0.0	4.0	linegray.gif	go																								3.75	0.513651132584	0.00089693069458	0.367616891861	1.0	a	1142.92837501																																	2015_Jul_06_1244	59.8626997063	LearningTask	1	78	
257	200.0	w	200.0																	2.0	0.0	2.0	0.0	8.0	0.0	32.0	0.0																													w	1.0	0.31750297546399997	None	0.0	4.0	squarecyan.gif	stop																								3.81	0.514051914215	0.0008859634399410001	0.31750297546399997	1.0	w	1145.93145394																																	2015_Jul_06_1244	59.8626997063	LearningTask	1	78	
258	-200.0	q	200.0																	2.0	0.0	2.0	0.0	8.0	1.0	33.0	1.0																													q	1.0	0.367240190506	None	0.0	2.0	crossorange.gif	go																								2.22	0.514434814453	0.000880002975464	0.367240190506	1.0	q	1148.93563294																																	2015_Jul_06_1244	59.8626997063	LearningTask	1	78	
259	-200.0	a	-200.0																	2.0	0.0	2.0	0.0	8.0	2.0	34.0	3.0																													a	1.0	0.334100008011	None	0.0	0.5	diamondmagenta.gif	stop																								0.32	0.513514041901	0.0008780956268310002	0.334100008011	1.0	a	1151.93865681																																	2015_Jul_06_1244	59.8626997063	LearningTask	1	78	
260	200.0	w	200.0																	2.0	0.0	2.0	0.0	8.0	3.0	35.0	0.0																													w	1.0	0.350656986237	None	0.0	1.0	trianglewhite.gif	go																								0.88	0.5135989189150001	0.0008759498596189999	0.350656986237	1.0	w	1154.94188881																																	2015_Jul_06_1244	59.8626997063	LearningTask	1	78	
261	-200.0	a	-200.0																	2.0	0.0	2.0	0.0	9.0	0.0	36.0	3.0																													a	1.0	0.38433504104599997	None	0.0	2.0	crossorange.gif	go																								1.79	0.5138390064239999	0.0008821487426760002	0.38433504104599997	1.0	a	1157.94565988																																	2015_Jul_06_1244	59.8626997063	LearningTask	1	78	
262	-200.0	a	-200.0																	2.0	0.0	2.0	0.0	9.0	1.0	37.0	3.0																													a	1.0	0.367517948151	None	0.0	4.0	squarecyan.gif	stop																								4.04	0.513737916946	0.000867128372192	0.367517948151	1.0	a	1160.9485538																																	2015_Jul_06_1244	59.8626997063	LearningTask	1	78	
263	200.0	w	200.0																	2.0	0.0	2.0	0.0	9.0	2.0	38.0	0.0																													w	1.0	0.38399887085	None	0.0	4.0	linegray.gif	go																								0.0	0.514225959778	0.000871181488037	0.38399887085	1.0	w	1163.95162487																																	2015_Jul_06_1244	59.8626997063	LearningTask	1	78	
264	-200.0	q	200.0																	2.0	0.0	2.0	0.0	9.0	3.0	39.0	1.0																													q	1.0	0.350862026215	None	0.0	2.0	crossorange.gif	go																								0.0	0.514408826828	0.000953912734985	0.350862026215	1.0	q	1166.95530701																																	2015_Jul_06_1244	59.8626997063	LearningTask	1	78	
265	200.0	s	-200.0																	2.0	0.0	2.0	0.0	10.0	0.0	40.0	2.0																													s	1.0	0.384213209152	None	0.0	2.0	circleblue.gif	stop																								1.99	0.514230966568	0.0008859634399410001	0.384213209152	1.0	s	1169.95853686																																	2015_Jul_06_1244	59.8626997063	LearningTask	1	78	
266	-200.0	q	200.0																	2.0	0.0	2.0	0.0	10.0	1.0	41.0	1.0																													q	1.0	0.350329875946	None	0.0	0.5	diamondmagenta.gif	stop																								0.62	0.5147659778589999	0.0009379386901860002	0.350329875946	1.0	q	1172.96219897																																	2015_Jul_06_1244	59.8626997063	LearningTask	1	78	
267	200.0	s	-200.0																	2.0	0.0	2.0	0.0	10.0	2.0	42.0	2.0																													s	1.0	0.517890930176	None	0.0	1.0	hexagongreen.gif	stop																								0.0	0.513680934906	0.0009360313415529999	0.517890930176	1.0	s	1175.96526694																																	2015_Jul_06_1244	59.8626997063	LearningTask	1	78	
268	200.0	w	200.0																	2.0	0.0	2.0	0.0	10.0	3.0	43.0	0.0																													w	1.0	0.31746006012	None	0.0	2.0	crossorange.gif	go																								2.13	0.5143349170679999	0.0008788108825680001	0.31746006012	1.0	w	1178.96859479																																	2015_Jul_06_1244	59.8626997063	LearningTask	1	78	
269	200.0	w	200.0																	2.0	0.0	2.0	0.0	11.0	0.0	44.0	0.0																													w	1.0	0.317721128464	None	0.0	0.5	diamondmagenta.gif	stop																								0.54	0.514219999313	0.000917911529541	0.317721128464	1.0	w	1181.97199988																																	2015_Jul_06_1244	59.8626997063	LearningTask	1	78	
270	200.0	w	200.0																	2.0	0.0	2.0	0.0	11.0	1.0	45.0	0.0																													w	1.0	0.38396501541100003	None	0.0	4.0	squarecyan.gif	stop																								3.79	0.513979196548	0.0008959770202639998	0.38396501541100003	1.0	w	1184.97521091																																	2015_Jul_06_1244	59.8626997063	LearningTask	1	78	
271	200.0	w	200.0																	2.0	0.0	2.0	0.0	11.0	2.0	46.0	0.0																													w	1.0	0.351068019867	None	0.0	2.0	circleblue.gif	stop																								1.87	0.514510154724	0.00088906288147	0.351068019867	1.0	w	1187.97874594																																	2015_Jul_06_1244	59.8626997063	LearningTask	1	78	
272	200.0	w	200.0																	2.0	0.0	2.0	0.0	11.0	3.0	47.0	0.0																													w	1.0	0.367388010025	None	0.0	1.0	hexagongreen.gif	stop																								0.0	0.514314174652	0.000880002975464	0.367388010025	1.0	w	1190.98251295																																	2015_Jul_06_1244	59.8626997063	LearningTask	1	78	
273	200.0	w	200.0																	2.0	0.0	2.0	0.0	12.0	0.0	48.0	0.0																													w	1.0	0.250769138336	None	0.0	0.5	invertedtriangleyellow.gif	go																								0.39	0.5138978958129999	0.000888824462891	0.250769138336	1.0	w	1193.98547983																																	2015_Jul_06_1244	59.8626997063	LearningTask	1	78	
274	200.0	w	200.0																	2.0	0.0	2.0	0.0	12.0	1.0	49.0	0.0																													w	1.0	0.350760936737	None	0.0	0.5	invertedtriangleyellow.gif	go																								0.52	0.514397859573	0.0008749961853029999	0.350760936737	1.0	w	1196.98871088																																	2015_Jul_06_1244	59.8626997063	LearningTask	1	78	
275	200.0	s	-200.0																	2.0	0.0	2.0	0.0	12.0	2.0	50.0	2.0																													s	1.0	0.36688399314900005	None	0.0	1.0	trianglewhite.gif	go																								0.88	0.5146598815919999	0.0008759498596189999	0.36688399314900005	1.0	s	1199.99243784																																	2015_Jul_06_1244	59.8626997063	LearningTask	1	78	
276	200.0	s	-200.0																	2.0	0.0	2.0	0.0	12.0	3.0	51.0	2.0																													s	1.0	0.367757081985	None	0.0	4.0	squarecyan.gif	stop																								0.0	0.514283180237	0.000869989395142	0.334236860275	0.0	w	1202.99581099	4.24	0.51523900032	0.0009372234344480001	0.367757081985	1.0	s	1205.99915981																										2015_Jul_06_1244	59.8626997063	LearningTask	1	78	
277	-200.0	q	200.0																	2.0	0.0	2.0	0.0	13.0	0.0	52.0	1.0																													q	1.0	0.40106511116	None	0.0	0.5	diamondmagenta.gif	stop																								0.64	0.514147043228	0.0008780956268310002	0.40106511116	1.0	q	1209.00247478																																	2015_Jul_06_1244	59.8626997063	LearningTask	1	78	
278	200.0	s	-200.0																	2.0	0.0	2.0	0.0	13.0	1.0	53.0	2.0																													s	1.0	0.38456010818499997	None	0.0	0.5	diamondmagenta.gif	stop																								0.58	0.514358997345	0.000909090042114	0.38456010818499997	1.0	s	1212.00553584																																	2015_Jul_06_1244	59.8626997063	LearningTask	1	78	
279	-200.0	q	200.0																	2.0	0.0	2.0	0.0	13.0	2.0	54.0	1.0																													q	1.0	0.36811709404	None	0.0	0.5	invertedtriangleyellow.gif	go																								0.32	0.514497041702	0.0012149810791	0.36811709404	1.0	q	1215.00919986																																	2015_Jul_06_1244	59.8626997063	LearningTask	1	78	
280	200.0	w	200.0																	2.0	0.0	2.0	0.0	13.0	3.0	55.0	0.0																													w	1.0	0.333866834641	None	0.0	4.0	linegray.gif	go																								4.11	0.514527797699	0.0008709430694580001	0.333866834641	1.0	w	1218.01261401																																	2015_Jul_06_1244	59.8626997063	LearningTask	1	78	
281	-200.0	q	200.0																	2.0	0.0	2.0	0.0	14.0	0.0	56.0	1.0																													q	1.0	0.33381319046	None	0.0	1.0	hexagongreen.gif	stop																								1.22	0.514401912689	0.000922918319702	0.33381319046	1.0	q	1221.01587892																																	2015_Jul_06_1244	59.8626997063	LearningTask	1	78	
282	200.0	s	-200.0																	2.0	0.0	2.0	0.0	14.0	1.0	57.0	2.0																													s	1.0	0.36773610115099997	None	0.0	0.5	diamondmagenta.gif	stop																								0.0	0.514006137848	0.000909090042114	0.36773610115099997	1.0	s	1224.01957893																																	2015_Jul_06_1244	59.8626997063	LearningTask	1	78	
283	-200.0	q	200.0																	2.0	0.0	2.0	0.0	14.0	2.0	58.0	1.0																													q	1.0	0.317629098892	None	0.0	0.5	invertedtriangleyellow.gif	go																								0.52	0.513899803162	0.000900983810425	0.317629098892	1.0	q	1227.02252483																																	2015_Jul_06_1244	59.8626997063	LearningTask	1	78	
284	200.0	s	-200.0																	2.0	0.0	2.0	0.0	14.0	3.0	59.0	2.0																													s	1.0	0.334449052811	None	0.0	4.0	squarecyan.gif	stop																								4.15	0.5141398906710001	0.0008919239044189998	0.334449052811	1.0	s	1230.02638984																																	2015_Jul_06_1244	59.8626997063	LearningTask	1	78	
285	-200.0	q	200.0																	2.0	0.0	2.0	0.0	15.0	0.0	60.0	1.0																													q	1.0	0.350383043289	None	0.0	4.0	linegray.gif	go																								4.24	0.513895988464	0.000949859619141	0.350383043289	1.0	q	1233.02947283																																	2015_Jul_06_1244	59.8626997063	LearningTask	1	78	
286	-200.0	a	-200.0																	2.0	0.0	2.0	0.0	15.0	1.0	61.0	3.0																													a	1.0	0.38476395607	None	0.0	2.0	crossorange.gif	go																								0.0	0.5143940448759999	0.0008668899536130001	0.351008892059	0.0	s	1236.03265095	0.0	0.5155558586119999	0.0009479522705080001	0.38476395607	1.0	a	1239.03657889																										2015_Jul_06_1244	59.8626997063	LearningTask	1	78	
287	200.0	w	200.0																	2.0	0.0	2.0	0.0	15.0	2.0	62.0	0.0																													w	1.0	0.35084104538000005	None	0.0	4.0	squarecyan.gif	stop																								4.14	0.5139420032500001	0.0008740425109860002	0.35084104538000005	1.0	w	1242.03927279																																	2015_Jul_06_1244	59.8626997063	LearningTask	1	78	
288	-200.0	q	200.0																	2.0	0.0	2.0	0.0	15.0	3.0	63.0	1.0																													q	1.0	0.36742496490500004	None	0.0	2.0	crossorange.gif	go																								1.85	0.514486074448	0.0008940696716310001	0.36742496490500004	1.0	q	1245.04311085																																	2015_Jul_06_1244	59.8626997063	LearningTask	1	78	
289	200.0	s	-200.0																	2.0	0.0	2.0	0.0	16.0	0.0	64.0	2.0																													s	1.0	0.351011991501	None	0.0	4.0	squarecyan.gif	stop																								0.0	0.5140810012820001	0.0008721351623539999	0.351011991501	1.0	s	1248.04637599																																	2015_Jul_06_1244	59.8626997063	LearningTask	1	78	
290	200.0	s	-200.0																	2.0	0.0	2.0	0.0	16.0	1.0	65.0	2.0																													s	1.0	0.367052078247	None	0.0	2.0	circleblue.gif	stop																								0.0	0.514508962631	0.000877857208252	0.367052078247	1.0	s	1251.04959297																																	2015_Jul_06_1244	59.8626997063	LearningTask	1	78	
291	200.0	w	200.0																	2.0	0.0	2.0	0.0	16.0	2.0	66.0	0.0																													w	1.0	0.417552947998	None	0.0	0.5	diamondmagenta.gif	stop																								0.68	0.5144538879389999	0.00100302696228	0.417552947998	1.0	w	1254.05348992																																	2015_Jul_06_1244	59.8626997063	LearningTask	1	78	
