	xPos	corrAns	yPos	corrGoResp	yPosGoStim	xPosGoStim	pracTrials.thisRepN	pracTrials.thisTrialN	pracTrials.thisN	pracTrials.thisIndex	ReDoLoopPrac.thisRepN	ReDoLoopPrac.thisTrialN	ReDoLoopPrac.thisN	ReDoLoopPrac.thisIndex	ReDoLoopPrac.thisTrial	pracStopTrials.thisRepN	pracStopTrials.thisTrialN	pracStopTrials.thisN	pracStopTrials.thisIndex	Blocks.thisRepN	Blocks.thisTrialN	Blocks.thisN	Blocks.thisIndex	trials.thisRepN	trials.thisTrialN	trials.thisN	trials.thisIndex	ReDoLoopMain.thisRepN	ReDoLoopMain.thisTrialN	ReDoLoopMain.thisN	ReDoLoopMain.thisIndex	ReDoLoopMain.thisTrial	StopBlocks.thisRepN	StopBlocks.thisTrialN	StopBlocks.thisN	StopBlocks.thisIndex	StopTrials.thisRepN	StopTrials.thisTrialN	StopTrials.thisN	StopTrials.thisIndex	auctionBlocks.thisRepN	auctionBlocks.thisTrialN	auctionBlocks.thisN	auctionBlocks.thisIndex	auctionTrials.thisRepN	auctionTrials.thisTrialN	auctionTrials.thisN	auctionTrials.thisIndex	learningTrialList	learningPracTrialList	stopTrialList	stopPracTrialList	auctionTrialList	ok1.keys	ok1.rt	resp.keys	resp.corr	feedbackResp.keys	feedbackResp.corr	feedbackResp.rt	currentReward	currentStimulus	currentStimType	firstPracComputedRewardOutput	firstPracLearningStimOnset	firstPracLearningFixOnset	firstPracPresentationRT	firstPracPresentationAcc	firstPracPresentationResp	firstPracEndTrialTimeStamp	resp.rt	secondPracComputedRewardOutput	secondPracLearningStimOnset	secondPracLearningFixOnset	secondPracPresentationRT	secondPracPresentationAcc	secondPracPresentationResp	secondPracEndTrialTimeStamp	StartTrialTimeStamp	trialType	goStim	stimType	stopStimValue	goResp.keys	goResp.corr	goResp.rt	key_resp_9.keys	key_resp_9.corr	fixStopOnset	goStimOnset	stopSignalOnset	EndTrialTimeStamp	key_resp_3.keys	key_resp_3.rt	firstComputedRewardOutput	firstLearningStimOnset	firstLearningFixOnset	firstPresentationRT	firstPresentationAcc	firstPresentationResp	firstEndTrialTimeStamp	key_resp_7.keys	key_resp_7.rt	beginningSSD	EndingSSD	key_resp_9.rt	key_resp_4.keys	key_resp_4.rt	auctionResponse.keys	auctionResponse.rt	auctionStimDuration	auctionStim	auctionAmounts	auctionStimValue	auctionCondition	chosenAuctionAmount	key_resp_5.keys	key_resp_5.rt	shuffledRewardList	chosenReward1	chosenReward2	chosenReward3	chosenReward4	chosenReward5	key_resp_6.keys	key_resp_6.rt	date	frameRate	expName	session	participant	Unnamed: 131
0																																																	[]	[]	[]	[]	[]	9.0	101.56744194																																																																								2015_Jun_23_1140	59.9610295852	LearningTask	1	15	
1	-200.0	a	-200.0				0.0	0.0	0.0	3.0																																														a	1.0	None	0.0	0.057842969894400006	2.0	invertedtriangleyellow.gif	go	0.0	0.507192850113	0.0210268497467	[]	0.0	None	122.077363014	0.567468881607	1.86	0.515612840652	0.00118184089661	0.567468881607	1.0	a	125.080601931																																																	2015_Jun_23_1140	59.9610295852	LearningTask	1	15	
2	200.0	w	200.0				0.0	1.0	1.0	0.0																																														w	1.0	None	0.0		2.0	invertedtriangleyellow.gif	go	2.15	0.514720916748	0.0008940696716310001	0.551057100296	1.0	w	128.083502054	0.551057100296																																																								2015_Jun_23_1140	59.9610295852	LearningTask	1	15	
3	200.0	w	200.0				0.0	2.0	2.0	4.0																																														w	1.0	None	0.0		0.5	hexagongreen.gif	go	0.35	0.515287876129	0.00130987167358	0.534335136414	1.0	w	131.087188005	0.534335136414																																																								2015_Jun_23_1140	59.9610295852	LearningTask	1	15	
4	200.0	w	200.0				0.0	3.0	3.0	8.0																																														w	1.0	None	0.0		4.0	diamondmagenta.gif	go	0.0	0.51460814476	0.00138115882874	0.367506980896	1.0	w	134.090370893	0.367506980896																																																								2015_Jun_23_1140	59.9610295852	LearningTask	1	15	
5	-200.0	q	200.0				0.0	4.0	4.0	5.0																																														q	1.0	None	0.0		1.0	triangleorange.gif	stop	0.82	0.515158891678	0.00130796432495	0.467772006989	1.0	q	137.094008923	0.467772006989																																																								2015_Jun_23_1140	59.9610295852	LearningTask	1	15	
6	200.0	s	-200.0				0.0	5.0	5.0	6.0																																														s	1.0	None	0.0		2.0	invertedtriangleyellow.gif	go	2.09	0.5147621631620001	0.0012791156768800001	0.434714078903	1.0	s	140.096966982	0.43471407890299996																																																								2015_Jun_23_1140	59.9610295852	LearningTask	1	15	
7	-200.0	q	200.0				0.0	6.0	6.0	9.0																																														q	1.0	None	0.0		0.5	hexagongreen.gif	go	0.27	0.515064001083	0.0009129047393799999	0.43413901329	1.0	q	143.100445986	0.43413901329																																																								2015_Jun_23_1140	59.9610295852	LearningTask	1	15	
8	-200.0	a	-200.0				0.0	7.0	7.0	7.0																																														a	1.0	None	0.0		4.0	crossblue.gif	stop	0.0	0.5150380134579999	0.00130200386047	0.434314012527	1.0	a	146.103632927	0.434314012527																																																								2015_Jun_23_1140	59.9610295852	LearningTask	1	15	
9	200.0	s	-200.0				0.0	8.0	8.0	2.0																																														s	1.0	None	0.0		4.0	diamondmagenta.gif	go	4.05	0.51496219635	0.00100803375244	0.501384973526	1.0	s	149.107258081	0.501384973526																																																								2015_Jun_23_1140	59.9610295852	LearningTask	1	15	
10	-200.0	q	200.0				0.0	9.0	9.0	1.0																																														q	1.0	None	0.0		2.0	invertedtriangleyellow.gif	go	0.0	0.51487493515	0.000922918319702	0.534327983856	1.0	q	152.110266924	0.534327983856																																																								2015_Jun_23_1140	59.9610295852	LearningTask	1	15	
11				m	0.0	200.0										0.0	0.0	0.0	1.0																																																												194.619739056	stop	crossblue.gif	stop	4.0	m	1.0	0.517910957336	None	0.0	0.0013380050659200001	0.5040328502660001	0.7542409896850001	197.61166501																																			2015_Jun_23_1140	59.9610295852	LearningTask	1	15	
12				z	0.0	-200.0										0.0	1.0	1.0	0.0																																																												197.612067938	stop	crossblue.gif	stop	4.0	None	0.0		None	0.0	0.0009608268737789999	0.5154728889469999	0.765920877457	200.61479306200002																																			2015_Jun_23_1140	59.9610295852	LearningTask	1	15	
13				z	0.0	-200.0										1.0	0.0	2.0	0.0																																																												200.61518693	stop	circlewhite.gif	stop	2.0	None	0.0		None	0.0	0.00146389007568	0.515752077103	0.766058921814	203.61824488599999																																			2015_Jun_23_1140	59.9610295852	LearningTask	1	15	
14				m	0.0	200.0										1.0	1.0	3.0	1.0																																																												203.618618965	stop	crossblue.gif	stop	4.0	m	1.0	0.467771053314	None	0.0	0.0009589195251460001	0.515800952911	0.766058921814	206.621788025																																			2015_Jun_23_1140	59.9610295852	LearningTask	1	15	
15				m	0.0	200.0										2.0	0.0	4.0	1.0																																																												206.62215805099999	go	diamondmagenta.gif	go	4.0	m	1.0	0.484467029572	None	0.0	0.0009729862213130002	0.515523910522		209.624841928																																			2015_Jun_23_1140	59.9610295852	LearningTask	1	15	
16				m	0.0	200.0										2.0	1.0	5.0	1.0																																																												209.625217915	stop	triangleorange.gif	stop	1.0	None	0.0		None	0.0	0.00102281570435	0.5159687995910001	0.766179800034	212.62819004099998																																			2015_Jun_23_1140	59.9610295852	LearningTask	1	15	
17				z	0.0	-200.0										3.0	0.0	6.0	0.0																																																												212.62857008	go	invertedtriangleyellow.gif	go	2.0	z	1.0	0.634902000427	None	0.0	0.00100684165955	0.5158488750460001		215.63169193299998																																			2015_Jun_23_1140	59.9610295852	LearningTask	1	15	
18				z	0.0	-200.0										3.0	1.0	7.0	0.0																																																												215.632154942	go	invertedtriangleyellow.gif	go	2.0	z	1.0	0.634274959564	None	0.0	0.000998020172119	0.515580892563		218.63495087599998																																			2015_Jun_23_1140	59.9610295852	LearningTask	1	15	
19				m	0.0	200.0										4.0	0.0	8.0	1.0																																																												218.635328054	stop	linecyan.gif	stop	0.5	None	0.0		None	0.0	0.00132584571838	0.515921831131	0.765907049179	221.638581991																																			2015_Jun_23_1140	59.9610295852	LearningTask	1	15	
20				z	0.0	-200.0										4.0	1.0	9.0	0.0																																																												221.63895392400002	stop	triangleorange.gif	stop	1.0	z	1.0	0.450302839279	None	0.0	0.00137186050415	0.515775918961	0.766183853149	224.641929865																																			2015_Jun_23_1140	59.9610295852	LearningTask	1	15	
21																																																																																													9.0	62.963299036																																	2015_Jun_23_1140	59.9610295852	LearningTask	1	15	
22																																																						9.0	3.03667807579																																																																								2015_Jun_23_1140	59.9610295852	LearningTask	1	15	
23	200.0	s	-200.0																	0.0	0.0	0.0	0.0	0.0	0.0	0.0	2.0																													s	1.0	None	0.0		1.0	squaregray.gif	go								0.618134021759																								0.0	0.508081912994	0.0013308525085399998	0.618134021759	1.0	s	293.787405014																										2015_Jun_23_1140	59.9610295852	LearningTask	1	15	
24	200.0	w	200.0																	0.0	0.0	0.0	0.0	0.0	1.0	1.0	0.0																													w	1.0	None	0.0		0.5	linecyan.gif	stop								0.51767206192																								0.0	0.514042139053	0.0009012222290039999	0.51767206192	1.0	w	296.790364981																										2015_Jun_23_1140	59.9610295852	LearningTask	1	15	
25	200.0	w	200.0																	0.0	0.0	0.0	0.0	0.0	2.0	2.0	0.0																													w	1.0	None	0.0		2.0	circlewhite.gif	stop								0.43377208709700005																								0.0	0.514477014542	0.0009169578552250001	0.43377208709700005	1.0	w	299.793761969																										2015_Jun_23_1140	59.9610295852	LearningTask	1	15	
26	-200.0	q	200.0																	0.0	0.0	0.0	0.0	0.0	3.0	3.0	1.0																													q	1.0	None	0.0		0.5	hexagongreen.gif	go								0.48433709144599996																								0.46	0.5141119956970001	0.000907897949219	0.48433709144599996	1.0	q	302.797137976																										2015_Jun_23_1140	59.9610295852	LearningTask	1	15	
27	200.0	w	200.0																	0.0	0.0	0.0	0.0	1.0	0.0	4.0	0.0																													w	1.0	None	0.0		1.0	triangleorange.gif	stop								0.434278011322																								0.0	0.513828039169	0.00108194351196	0.434278011322	1.0	w	305.800670862																										2015_Jun_23_1140	59.9610295852	LearningTask	1	15	
28	200.0	s	-200.0																	0.0	0.0	0.0	0.0	1.0	1.0	5.0	2.0																													s	1.0	None	0.0		4.0	crossblue.gif	stop								0.434487104416																								3.79	0.5138151645660001	0.0009150505065920001	0.434487104416	1.0	s	308.803885937																										2015_Jun_23_1140	59.9610295852	LearningTask	1	15	
29	200.0	w	200.0																	0.0	0.0	0.0	0.0	1.0	2.0	6.0	0.0																													w	1.0	None	0.0		1.0	triangleorange.gif	stop								0.534539937973																								1.17	0.514227867126	0.000930070877075	0.534539937973	1.0	w	311.806962967																										2015_Jun_23_1140	59.9610295852	LearningTask	1	15	
30	-200.0	a	-200.0																	0.0	0.0	0.0	0.0	1.0	3.0	7.0	3.0																													a	1.0	None	0.0		0.5	linecyan.gif	stop								0.48436498642																								0.62	0.51429605484	0.000970125198364	0.48436498642	1.0	a	314.810956955																										2015_Jun_23_1140	59.9610295852	LearningTask	1	15	
31	200.0	s	-200.0																	0.0	0.0	0.0	0.0	2.0	0.0	8.0	2.0																													s	1.0	None	0.0		4.0	diamondmagenta.gif	go								0.46753787994400003																								3.86	0.513837099075	0.00101804733276	0.46753787994400003	1.0	s	317.813838005																										2015_Jun_23_1140	59.9610295852	LearningTask	1	15	
32	200.0	w	200.0																	0.0	0.0	0.0	0.0	2.0	1.0	9.0	0.0																													w	1.0	None	0.0		2.0	invertedtriangleyellow.gif	go								0.46761798858599996																								1.78	0.51442193985	0.00089693069458	0.46761798858599996	1.0	w	320.817178965																										2015_Jun_23_1140	59.9610295852	LearningTask	1	15	
33	-200.0	q	200.0																	0.0	0.0	0.0	0.0	2.0	2.0	10.0	1.0																													q	1.0	None	0.0		1.0	triangleorange.gif	stop								0.467600107193																								0.95	0.51429104805	0.0009760856628420001	0.467600107193	1.0	q	323.82071495099996																										2015_Jun_23_1140	59.9610295852	LearningTask	1	15	
34	-200.0	q	200.0																	0.0	0.0	0.0	0.0	2.0	3.0	11.0	1.0																													q	1.0	None	0.0		2.0	invertedtriangleyellow.gif	go								0.584197998047																								1.8	0.514061927795	0.0009148120880130001	0.584197998047	1.0	q	326.824019909																										2015_Jun_23_1140	59.9610295852	LearningTask	1	15	
35	200.0	s	-200.0																	0.0	0.0	0.0	0.0	3.0	0.0	12.0	2.0																													s	1.0	None	0.0		0.5	linecyan.gif	stop								0.46778321266199996																								0.51	0.514379024506	0.00108504295349	0.46778321266199996	1.0	s	329.827610016																										2015_Jun_23_1140	59.9610295852	LearningTask	1	15	
36	-200.0	a	-200.0																	0.0	0.0	0.0	0.0	3.0	1.0	13.0	3.0																													a	1.0	None	0.0		2.0	invertedtriangleyellow.gif	go								0.500741958618																								0.0	0.51425409317	0.00090503692627	0.500741958618	1.0	a	332.830761909																										2015_Jun_23_1140	59.9610295852	LearningTask	1	15	
37	200.0	s	-200.0																	0.0	0.0	0.0	0.0	3.0	2.0	14.0	2.0																													s	1.0	None	0.0		1.0	squaregray.gif	go								0.534879922867																								0.91	0.5141999721530001	0.0009119510650630002	0.534879922867	1.0	s	335.834097862																										2015_Jun_23_1140	59.9610295852	LearningTask	1	15	
38	-200.0	q	200.0																	0.0	0.0	0.0	0.0	3.0	3.0	15.0	1.0																													q	1.0	None	0.0		0.5	hexagongreen.gif	go								0.601066827774																								0.4	0.513848781586	0.00103282928467	0.601066827774	1.0	q	338.83762002																										2015_Jun_23_1140	59.9610295852	LearningTask	1	15	
39	200.0	w	200.0																	0.0	0.0	0.0	0.0	4.0	0.0	16.0	0.0																													w	1.0	None	0.0		2.0	circlewhite.gif	stop								0.550812005997																								1.98	0.514223098755	0.0009109973907470001	0.550812005997	1.0	w	341.840801954																										2015_Jun_23_1140	59.9610295852	LearningTask	1	15	
40	-200.0	a	-200.0																	0.0	0.0	0.0	0.0	4.0	1.0	17.0	3.0																													a	1.0	None	0.0		0.5	linecyan.gif	stop								0.517771959305																								0.0	0.51420712471	0.000908136367798	0.517771959305	1.0	a	344.84431886699997																										2015_Jun_23_1140	59.9610295852	LearningTask	1	15	
41	-200.0	a	-200.0																	0.0	0.0	0.0	0.0	4.0	2.0	18.0	3.0																													a	1.0	None	0.0		1.0	triangleorange.gif	stop								0.483933925629																								1.25	0.514168024063	0.0009398460388180001	0.483933925629	1.0	a	347.847881079																										2015_Jun_23_1140	59.9610295852	LearningTask	1	15	
42	-200.0	q	200.0																	0.0	0.0	0.0	0.0	4.0	3.0	19.0	1.0																													q	1.0	None	0.0		1.0	squaregray.gif	go								0.41788005828900004																								0.83	0.513964891434	0.000890016555786	0.41788005828900004	1.0	q	350.851054907																										2015_Jun_23_1140	59.9610295852	LearningTask	1	15	
43	200.0	s	-200.0																	0.0	0.0	0.0	0.0	5.0	0.0	20.0	2.0																													s	1.0	None	0.0		0.5	hexagongreen.gif	go								0.6011729240420001																								0.5	0.51423406601	0.0009319782257080001	0.6011729240420001	1.0	s	353.85461807300004																										2015_Jun_23_1140	59.9610295852	LearningTask	1	15	
44	200.0	s	-200.0																	0.0	0.0	0.0	0.0	5.0	1.0	21.0	2.0																													s	1.0	None	0.0		2.0	invertedtriangleyellow.gif	go								0.468086957932																								0.0	0.513819932938	0.0009210109710689999	0.468086957932	1.0	s	356.857835054																										2015_Jun_23_1140	59.9610295852	LearningTask	1	15	
45	200.0	w	200.0																	0.0	0.0	0.0	0.0	5.0	2.0	22.0	0.0																													w	1.0	None	0.0		4.0	crossblue.gif	stop								0.517832994461																								4.22	0.5143229961399999	0.00089693069458	0.517832994461	1.0	w	359.861047029																										2015_Jun_23_1140	59.9610295852	LearningTask	1	15	
46	200.0	s	-200.0																	0.0	0.0	0.0	0.0	5.0	3.0	23.0	2.0																													s	1.0	None	0.0		4.0	diamondmagenta.gif	go								0.417522907257																								3.78	0.514625072479	0.00101804733276	0.417522907257	1.0	s	362.864786863																										2015_Jun_23_1140	59.9610295852	LearningTask	1	15	
47	-200.0	q	200.0																	0.0	0.0	0.0	0.0	6.0	0.0	24.0	1.0																													q	1.0	None	0.0		0.5	linecyan.gif	stop								0.517559051514																								0.34	0.51442694664	0.00089693069458	0.517559051514	1.0	q	365.868048906																										2015_Jun_23_1140	59.9610295852	LearningTask	1	15	
48	-200.0	q	200.0																	0.0	0.0	0.0	0.0	6.0	1.0	25.0	1.0																													q	1.0	None	0.0		1.0	triangleorange.gif	stop								0.534312963486																								1.13	0.513938188553	0.00102710723877	0.534312963486	1.0	q	368.871145964																										2015_Jun_23_1140	59.9610295852	LearningTask	1	15	
49	-200.0	q	200.0																	0.0	0.0	0.0	0.0	6.0	2.0	26.0	1.0																													q	1.0	None	0.0		0.5	linecyan.gif	stop								0.534101009369																								0.74	0.514132022858	0.0009670257568360001	0.534101009369	1.0	q	371.87481904																										2015_Jun_23_1140	59.9610295852	LearningTask	1	15	
50	200.0	s	-200.0																	0.0	0.0	0.0	0.0	6.0	3.0	27.0	2.0																													s	1.0	None	0.0		4.0	diamondmagenta.gif	go								0.433791875839																								4.22	0.514046907425	0.00100207328796	0.433791875839	1.0	s	374.877872944																										2015_Jun_23_1140	59.9610295852	LearningTask	1	15	
51	-200.0	a	-200.0																	0.0	0.0	0.0	0.0	7.0	0.0	28.0	3.0																													a	1.0	None	0.0		0.5	hexagongreen.gif	go								0.467558145523																								0.3	0.514383792877	0.0009529590606689998	0.467558145523	1.0	a	377.881280899																										2015_Jun_23_1140	59.9610295852	LearningTask	1	15	
52	200.0	s	-200.0																	0.0	0.0	0.0	0.0	7.0	1.0	29.0	2.0																													s	1.0	None	0.0		2.0	circlewhite.gif	stop								0.484256982803																								2.02	0.5142590999600001	0.0009031295776369999	0.484256982803	1.0	s	380.88485693900003																										2015_Jun_23_1140	59.9610295852	LearningTask	1	15	
53	-200.0	a	-200.0																	0.0	0.0	0.0	0.0	7.0	2.0	30.0	3.0																													a	1.0	None	0.0		2.0	invertedtriangleyellow.gif	go								0.43450212478600003																								2.03	0.513857841492	0.000974893569946	0.43450212478600003	1.0	a	383.888038874																										2015_Jun_23_1140	59.9610295852	LearningTask	1	15	
54	200.0	s	-200.0																	0.0	0.0	0.0	0.0	7.0	3.0	31.0	2.0																													s	1.0	None	0.0		2.0	circlewhite.gif	stop								0.351103782654																								0.0	0.514055013657	0.00108122825623	0.351103782654	1.0	s	386.891354084																										2015_Jun_23_1140	59.9610295852	LearningTask	1	15	
55	200.0	w	200.0																	0.0	0.0	0.0	0.0	8.0	0.0	32.0	0.0																													w	1.0	None	0.0		0.5	linecyan.gif	stop								0.501077890396																								0.38	0.514311075211	0.000907897949219	0.501077890396	1.0	w	389.89486289																										2015_Jun_23_1140	59.9610295852	LearningTask	1	15	
56	-200.0	q	200.0																	0.0	0.0	0.0	0.0	8.0	1.0	33.0	1.0																													q	1.0	None	0.0		1.0	triangleorange.gif	stop								0.517642021179																								0.93	0.514372110367	0.0009109973907470001	0.517642021179	1.0	q	392.898602009																										2015_Jun_23_1140	59.9610295852	LearningTask	1	15	
57	-200.0	a	-200.0																	0.0	0.0	0.0	0.0	8.0	2.0	34.0	3.0																													a	1.0	None	0.0		2.0	invertedtriangleyellow.gif	go								0.584221124649																								0.0	0.5135579109189999	0.0009319782257080001	0.584221124649	1.0	a	395.901712894																										2015_Jun_23_1140	59.9610295852	LearningTask	1	15	
58	-200.0	a	-200.0																	0.0	0.0	0.0	0.0	8.0	3.0	35.0	3.0																													a	1.0	None	0.0		0.5	linecyan.gif	stop								0.768161058426																								0.28	0.514225006104	0.0009069442749019998	0.768161058426	1.0	a	398.90494203599997																										2015_Jun_23_1140	59.9610295852	LearningTask	1	15	
59	-200.0	q	200.0																	0.0	0.0	0.0	0.0	9.0	0.0	36.0	1.0																													q	1.0	None	0.0		4.0	crossblue.gif	stop								0.5675570964810001																								4.2	0.514420032501	0.0009069442749019998	0.5675570964810001	1.0	q	401.908608913																										2015_Jun_23_1140	59.9610295852	LearningTask	1	15	
60	200.0	s	-200.0																	0.0	0.0	0.0	0.0	9.0	1.0	37.0	2.0																													s	1.0	None	0.0		2.0	circlewhite.gif	stop								0.484311103821																								1.87	0.5139498710629999	0.0009369850158689999	0.484311103821	1.0	s	404.912088871																										2015_Jun_23_1140	59.9610295852	LearningTask	1	15	
61	-200.0	q	200.0																	0.0	0.0	0.0	0.0	9.0	2.0	38.0	1.0																													q	1.0	None	0.0		4.0	crossblue.gif	stop								0.517740011215																								3.89	0.513180971146	0.0013530254364000002	0.517740011215	1.0	q	407.91523504300005																										2015_Jun_23_1140	59.9610295852	LearningTask	1	15	
62	-200.0	q	200.0																	0.0	0.0	0.0	0.0	9.0	3.0	39.0	1.0																													q	1.0	None	0.0		1.0	triangleorange.gif	stop								0.484317064285																								1.06	0.514158010483	0.000961065292358	0.484317064285	1.0	q	410.918552876																										2015_Jun_23_1140	59.9610295852	LearningTask	1	15	
63	-200.0	q	200.0																	0.0	0.0	0.0	0.0	10.0	0.0	40.0	1.0																													q	1.0	None	0.0		2.0	invertedtriangleyellow.gif	go								0.434318065643																								2.01	0.514250040054	0.0009119510650630002	0.434318065643	1.0	q	413.921911001																										2015_Jun_23_1140	59.9610295852	LearningTask	1	15	
64	-200.0	q	200.0																	0.0	0.0	0.0	0.0	10.0	1.0	41.0	1.0																													q	1.0	None	0.0		0.5	hexagongreen.gif	go								0.517665147781																								0.0	0.514255046844	0.0009851455688480002	0.517665147781	1.0	q	416.92571592300004																										2015_Jun_23_1140	59.9610295852	LearningTask	1	15	
65	200.0	w	200.0																	0.0	0.0	0.0	0.0	10.0	2.0	42.0	0.0																													w	1.0	None	0.0		1.0	triangleorange.gif	stop								0.6844129562379999																								1.11	0.513958930969	0.00090503692627	0.6844129562379999	1.0	w	419.92866206199994																										2015_Jun_23_1140	59.9610295852	LearningTask	1	15	
66	200.0	w	200.0																	0.0	0.0	0.0	0.0	10.0	3.0	43.0	0.0																													w	1.0	None	0.0		2.0	circlewhite.gif	stop								0.501183986664																								0.0	0.514253854752	0.000913858413696	0.501183986664	1.0	w	422.931782961																										2015_Jun_23_1140	59.9610295852	LearningTask	1	15	
67	-200.0	a	-200.0																	0.0	0.0	0.0	0.0	11.0	0.0	44.0	3.0																													a	1.0	None	0.0		2.0	invertedtriangleyellow.gif	go								0.41772389411899996																								1.85	0.5144670009610001	0.00102019309998	0.41772389411899996	1.0	a	425.935390949																										2015_Jun_23_1140	59.9610295852	LearningTask	1	15	
68	-200.0	a	-200.0																	0.0	0.0	0.0	0.0	11.0	1.0	45.0	3.0																													a	1.0	None	0.0		0.5	hexagongreen.gif	go								0.467689037323																								0.0	0.514137029648	0.000900983810425	0.467689037323	1.0	a	428.93867492699997																										2015_Jun_23_1140	59.9610295852	LearningTask	1	15	
69	200.0	w	200.0																	0.0	0.0	0.0	0.0	11.0	2.0	46.0	0.0																													w	1.0	None	0.0		0.5	hexagongreen.gif	go								0.517776966095																								0.45	0.514347076416	0.0009150505065920001	0.517776966095	1.0	w	431.942192078																										2015_Jun_23_1140	59.9610295852	LearningTask	1	15	
70	-200.0	q	200.0																	0.0	0.0	0.0	0.0	11.0	3.0	47.0	1.0																													q	1.0	None	0.0		0.5	linecyan.gif	stop								0.5506589412690001																								0.69	0.514404058456	0.000917911529541	0.5506589412690001	1.0	q	434.945667028																										2015_Jun_23_1140	59.9610295852	LearningTask	1	15	
71	200.0	s	-200.0																	0.0	0.0	0.0	0.0	12.0	0.0	48.0	2.0																													s	1.0	None	0.0		1.0	triangleorange.gif	stop								0.5342869758609999																								0.0	0.514155864716	0.0013108253479	0.5342869758609999	1.0	s	437.94878602																										2015_Jun_23_1140	59.9610295852	LearningTask	1	15	
72	-200.0	a	-200.0																	0.0	0.0	0.0	0.0	12.0	1.0	49.0	3.0																													a	1.0	None	0.0		1.0	triangleorange.gif	stop								0.467443943024																								0.77	0.514331817627	0.000923871994019	0.467443943024	1.0	a	440.952354908																										2015_Jun_23_1140	59.9610295852	LearningTask	1	15	
73	200.0	s	-200.0																	0.0	0.0	0.0	0.0	12.0	2.0	50.0	2.0																													s	1.0	None	0.0		4.0	crossblue.gif	stop								0.467693090439																								0.0	0.513937950134	0.0009448528289790001	0.467693090439	1.0	s	443.955867052																										2015_Jun_23_1140	59.9610295852	LearningTask	1	15	
74	200.0	w	200.0																	0.0	0.0	0.0	0.0	12.0	3.0	51.0	0.0																													w	1.0	None	0.0		1.0	squaregray.gif	go								0.500768899918																								0.79	0.514347076416	0.0008950233459470001	0.500768899918	1.0	w	446.95907306699996																										2015_Jun_23_1140	59.9610295852	LearningTask	1	15	
75	-200.0	a	-200.0																	0.0	0.0	0.0	0.0	13.0	0.0	52.0	3.0																													a	1.0	None	0.0		4.0	diamondmagenta.gif	go								0.517746210098																								4.07	0.514655828476	0.0009858608245850002	0.517746210098	1.0	a	449.962836981																										2015_Jun_23_1140	59.9610295852	LearningTask	1	15	
76	200.0	w	200.0																	0.0	0.0	0.0	0.0	13.0	1.0	53.0	0.0																													w	1.0	None	0.0		4.0	crossblue.gif	stop								0.484493970871																								3.99	0.513839960098	0.000923871994019	0.484493970871	1.0	w	452.966063023																										2015_Jun_23_1140	59.9610295852	LearningTask	1	15	
77	-200.0	a	-200.0																	0.0	0.0	0.0	0.0	13.0	2.0	54.0	3.0																													a	1.0	None	0.0		4.0	diamondmagenta.gif	go								0.451246023178																								4.09	0.513967990875	0.00102114677429	0.451246023178	1.0	a	455.96911096599996																										2015_Jun_23_1140	59.9610295852	LearningTask	1	15	
78	-200.0	q	200.0																	0.0	0.0	0.0	0.0	13.0	3.0	55.0	1.0																													q	1.0	None	0.0		4.0	crossblue.gif	stop								0.534629106522																								3.88	0.514251947403	0.000961065292358	0.534629106522	1.0	q	458.97246503800005																										2015_Jun_23_1140	59.9610295852	LearningTask	1	15	
79	-200.0	q	200.0																	0.0	0.0	0.0	0.0	14.0	0.0	56.0	1.0																													q	1.0	None	0.0		1.0	squaregray.gif	go								0.584321975708																								0.78	0.5144948959350001	0.000903844833374	0.584321975708	1.0	q	461.975831985																										2015_Jun_23_1140	59.9610295852	LearningTask	1	15	
80	200.0	s	-200.0																	0.0	0.0	0.0	0.0	14.0	1.0	57.0	2.0																													s	1.0	None	0.0		2.0	invertedtriangleyellow.gif	go								0.43391799926799995																								2.13	0.514498949051	0.00118684768677	0.43391799926799995	1.0	s	464.97931385																										2015_Jun_23_1140	59.9610295852	LearningTask	1	15	
81	-200.0	q	200.0																	0.0	0.0	0.0	0.0	14.0	2.0	58.0	1.0																													q	1.0	None	0.0		2.0	invertedtriangleyellow.gif	go								0.483533143997																								2.16	0.514396905899	0.0009059906005860001	0.483533143997	1.0	q	467.982620001																										2015_Jun_23_1140	59.9610295852	LearningTask	1	15	
82	-200.0	a	-200.0																	0.0	0.0	0.0	0.0	14.0	3.0	59.0	3.0																													a	1.0	None	0.0		0.5	hexagongreen.gif	go								0.5011868476870001																								0.63	0.514235019684	0.0009059906005860001	0.5011868476870001	1.0	a	470.98592996599996																										2015_Jun_23_1140	59.9610295852	LearningTask	1	15	
83	200.0	s	-200.0																	0.0	0.0	0.0	0.0	15.0	0.0	60.0	2.0																													s	1.0	None	0.0		1.0	triangleorange.gif	stop								0.418010950089																								0.87	0.514113903046	0.000953912734985	0.418010950089	1.0	s	473.989387989																										2015_Jun_23_1140	59.9610295852	LearningTask	1	15	
84	-200.0	a	-200.0																	0.0	0.0	0.0	0.0	15.0	1.0	61.0	3.0																													a	1.0	None	0.0		0.5	linecyan.gif	stop								0.617832899094																								0.6	0.514409780502	0.0008978843688960001	0.617832899094	1.0	a	476.99333906199996																										2015_Jun_23_1140	59.9610295852	LearningTask	1	15	
85	-200.0	q	200.0																	0.0	0.0	0.0	0.0	15.0	2.0	62.0	1.0																													q	1.0	None	0.0		0.5	linecyan.gif	stop								0.56784081459																								0.51	0.5136852264399999	0.00098705291748	0.56784081459	1.0	q	479.996556044																										2015_Jun_23_1140	59.9610295852	LearningTask	1	15	
86	200.0	w	200.0																	0.0	0.0	0.0	0.0	15.0	3.0	63.0	0.0																													w	1.0	None	0.0		0.5	hexagongreen.gif	go								0.484176874161																								0.43	0.5136668682100001	0.000926971435547	0.484176874161	1.0	w	482.999749899																										2015_Jun_23_1140	59.9610295852	LearningTask	1	15	
87	200.0	s	-200.0																	0.0	0.0	0.0	0.0	16.0	0.0	64.0	2.0																													s	1.0	None	0.0		1.0	squaregray.gif	go								0.467699050903																								0.81	0.514099121094	0.000900030136108	0.467699050903	1.0	s	486.003007889																										2015_Jun_23_1140	59.9610295852	LearningTask	1	15	
88	-200.0	q	200.0																	0.0	0.0	0.0	0.0	16.0	1.0	65.0	1.0																													q	1.0	None	0.0		1.0	squaregray.gif	go								0.534641027451																								0.93	0.514102220535	0.000904083251953	0.534641027451	1.0	q	489.006411076																										2015_Jun_23_1140	59.9610295852	LearningTask	1	15	
89	200.0	w	200.0																	0.0	0.0	0.0	0.0	16.0	2.0	66.0	0.0																													w	1.0	None	0.0		0.5	linecyan.gif	stop								0.417777061462																								0.38	0.513889074326	0.000922918319702	0.417777061462	1.0	w	492.009732962																										2015_Jun_23_1140	59.9610295852	LearningTask	1	15	
90	200.0	w	200.0																	0.0	0.0	0.0	0.0	16.0	3.0	67.0	0.0																													w	1.0	None	0.0		0.5	linecyan.gif	stop								0.434329986572																								0.43	0.514277935028	0.000902891159058	0.434329986572	1.0	w	495.01293587699996																										2015_Jun_23_1140	59.9610295852	LearningTask	1	15	
91	-200.0	q	200.0																	0.0	0.0	0.0	0.0	17.0	0.0	68.0	1.0																													q	1.0	None	0.0		2.0	invertedtriangleyellow.gif	go								0.500938892365																								0.0	0.51443696022	0.0009710788726810001	0.500938892365	1.0	q	498.016577959																										2015_Jun_23_1140	59.9610295852	LearningTask	1	15	
92	-200.0	a	-200.0																	0.0	0.0	0.0	0.0	17.0	1.0	69.0	3.0																													a	1.0	None	0.0		0.5	hexagongreen.gif	go								0.6515479087830001																								0.29	0.514183044434	0.000909090042114	0.6515479087830001	1.0	a	501.01967597																										2015_Jun_23_1140	59.9610295852	LearningTask	1	15	
93	-200.0	a	-200.0																	0.0	0.0	0.0	0.0	17.0	2.0	70.0	3.0																													a	1.0	None	0.0		0.5	hexagongreen.gif	go								0.60126709938																								0.35	0.514290094376	0.0009400844573969999	0.60126709938	1.0	a	504.02295804																										2015_Jun_23_1140	59.9610295852	LearningTask	1	15	
94	-200.0	a	-200.0																	0.0	0.0	0.0	0.0	17.0	3.0	71.0	3.0																													a	1.0	None	0.0		4.0	diamondmagenta.gif	go								0.551496982574																								3.78	0.514262914658	0.000949859619141	0.551496982574	1.0	a	507.02675986300005																										2015_Jun_23_1140	59.9610295852	LearningTask	1	15	
95	200.0	w	200.0																	0.0	0.0	0.0	0.0	18.0	0.0	72.0	0.0																													w	1.0	None	0.0		2.0	invertedtriangleyellow.gif	go								0.467271089554																								1.86	0.514741897583	0.00089693069458	0.467271089554	1.0	w	510.029875994																										2015_Jun_23_1140	59.9610295852	LearningTask	1	15	
96	-200.0	a	-200.0																	0.0	0.0	0.0	0.0	18.0	1.0	73.0	3.0																													a	1.0	None	0.0		0.5	hexagongreen.gif	go								0.5010030269619999																								0.38	0.514109134674	0.00096321105957	0.5010030269619999	1.0	a	513.033385038																										2015_Jun_23_1140	59.9610295852	LearningTask	1	15	
97	200.0	s	-200.0																	0.0	0.0	0.0	0.0	18.0	2.0	74.0	2.0																													s	1.0	None	0.0		0.5	linecyan.gif	stop								0.451086044312																								0.0	0.513865947723	0.0009210109710689999	0.451086044312	1.0	s	516.036544085																										2015_Jun_23_1140	59.9610295852	LearningTask	1	15	
98	200.0	s	-200.0																	0.0	0.0	0.0	0.0	18.0	3.0	75.0	2.0																													s	1.0	None	0.0		1.0	squaregray.gif	go								0.501216173172																								0.93	0.514307022095	0.0008940696716310001	0.501216173172	1.0	s	519.04005003																										2015_Jun_23_1140	59.9610295852	LearningTask	1	15	
99	200.0	w	200.0																	0.0	0.0	0.0	0.0	19.0	0.0	76.0	0.0																													w	1.0	None	0.0		2.0	invertedtriangleyellow.gif	go								0.467778921127																								2.21	0.513915061951	0.000921964645386	0.467778921127	1.0	w	522.043653965																										2015_Jun_23_1140	59.9610295852	LearningTask	1	15	
100	200.0	w	200.0																	0.0	0.0	0.0	0.0	19.0	1.0	77.0	0.0																													w	1.0	None	0.0		2.0	invertedtriangleyellow.gif	go								0.43438577651999993																								1.89	0.513988018036	0.0008971691131589999	0.43438577651999993	1.0	w	525.046696901																										2015_Jun_23_1140	59.9610295852	LearningTask	1	15	
101	200.0	w	200.0																	0.0	0.0	0.0	0.0	19.0	2.0	78.0	0.0																													w	1.0	None	0.0		2.0	invertedtriangleyellow.gif	go								0.6848011016850001																								0.0	0.514369010925	0.000909090042114	0.6848011016850001	1.0	w	528.050392866																										2015_Jun_23_1140	59.9610295852	LearningTask	1	15	
102	200.0	w	200.0																	0.0	0.0	0.0	0.0	19.0	3.0	79.0	0.0																													w	1.0	None	0.0		0.5	linecyan.gif	stop								0.517980098724																								0.26	0.513873100281	0.000938177108765	0.517980098724	1.0	w	531.053551912																										2015_Jun_23_1140	59.9610295852	LearningTask	1	15	
103	200.0	w	200.0																	0.0	0.0	0.0	0.0	20.0	0.0	80.0	0.0																													w	1.0	None	0.0		4.0	diamondmagenta.gif	go								0.584866046906																								4.25	0.514167070389	0.000909090042114	0.584866046906	1.0	w	534.056828022																										2015_Jun_23_1140	59.9610295852	LearningTask	1	15	
104	200.0	w	200.0																	0.0	0.0	0.0	0.0	20.0	1.0	81.0	0.0																													w	1.0	None	0.0		4.0	diamondmagenta.gif	go								0.45062994956999997																								4.2	0.514727115631	0.0009450912475589999	0.45062994956999997	1.0	w	537.060899019																										2015_Jun_23_1140	59.9610295852	LearningTask	1	15	
105	200.0	s	-200.0																	0.0	0.0	0.0	0.0	20.0	2.0	82.0	2.0																													s	1.0	None	0.0		4.0	diamondmagenta.gif	go								0.5509419441219999																								4.11	0.513676166534	0.0009150505065920001	0.5509419441219999	1.0	s	540.063695908																										2015_Jun_23_1140	59.9610295852	LearningTask	1	15	
106	-200.0	a	-200.0																	0.0	0.0	0.0	0.0	20.0	3.0	83.0	3.0																													a	1.0	None	0.0		2.0	invertedtriangleyellow.gif	go								0.484488964081																								1.86	0.51429605484	0.000900983810425	0.484488964081	1.0	a	543.066998005																										2015_Jun_23_1140	59.9610295852	LearningTask	1	15	
107	-200.0	a	-200.0																	0.0	0.0	0.0	0.0	21.0	0.0	84.0	3.0																													a	1.0	None	0.0		2.0	circlewhite.gif	stop								0.55119395256																								1.87	0.514116048813	0.0009779930114750001	0.55119395256	1.0	a	546.070452929																										2015_Jun_23_1140	59.9610295852	LearningTask	1	15	
108	-200.0	a	-200.0																	0.0	0.0	0.0	0.0	21.0	1.0	85.0	3.0																													a	1.0	None	0.0		1.0	triangleorange.gif	stop								0.517562150955																								1.11	0.514137983322	0.0009169578552250001	0.517562150955	1.0	a	549.073607922																										2015_Jun_23_1140	59.9610295852	LearningTask	1	15	
109	-200.0	a	-200.0																	0.0	0.0	0.0	0.0	21.0	2.0	86.0	3.0																													a	1.0	None	0.0		1.0	triangleorange.gif	stop								0.517645835876																								1.14	0.51474404335	0.00111889839172	0.517645835876	1.0	a	552.077286005																										2015_Jun_23_1140	59.9610295852	LearningTask	1	15	
110	200.0	s	-200.0																	0.0	0.0	0.0	0.0	21.0	3.0	87.0	2.0																													s	1.0	None	0.0		1.0	squaregray.gif	go								0.484269142151																								0.87	0.51442694664	0.00089693069458	0.484269142151	1.0	s	555.080492973																										2015_Jun_23_1140	59.9610295852	LearningTask	1	15	
111	200.0	w	200.0																	0.0	0.0	0.0	0.0	22.0	0.0	88.0	0.0																													w	1.0	None	0.0		1.0	triangleorange.gif	stop								0.5676529407500001																								0.95	0.5142300128939999	0.000932216644287	0.5676529407500001	1.0	w	558.0839450359999																										2015_Jun_23_1140	59.9610295852	LearningTask	1	15	
112	-200.0	q	200.0																	0.0	0.0	0.0	0.0	22.0	1.0	89.0	1.0																													q	1.0	None	0.0		2.0	circlewhite.gif	stop								0.451123952866																								1.9	0.514007806778	0.0009570121765139998	0.451123952866	1.0	q	561.087270975																										2015_Jun_23_1140	59.9610295852	LearningTask	1	15	
113	-200.0	a	-200.0																	0.0	0.0	0.0	0.0	22.0	2.0	90.0	3.0																													a	1.0	None	0.0		1.0	squaregray.gif	go								0.484233856201																								0.96	0.514245033264	0.00089693069458	0.484233856201	1.0	a	564.090620995																										2015_Jun_23_1140	59.9610295852	LearningTask	1	15	
114	-200.0	q	200.0																	0.0	0.0	0.0	0.0	22.0	3.0	91.0	1.0																													q	1.0	None	0.0		2.0	invertedtriangleyellow.gif	go								0.517750024796																								2.04	0.514127969742	0.000902891159058	0.517750024796	1.0	q	567.094204903																										2015_Jun_23_1140	59.9610295852	LearningTask	1	15	
115	-200.0	q	200.0																	0.0	0.0	0.0	0.0	23.0	0.0	92.0	1.0																													q	1.0	None	0.0		2.0	circlewhite.gif	stop								0.500830888748																								2.23	0.51390004158	0.0009210109710689999	0.500830888748	1.0	q	570.0975580219999																										2015_Jun_23_1140	59.9610295852	LearningTask	1	15	
116	-200.0	a	-200.0																	0.0	0.0	0.0	0.0	23.0	1.0	93.0	3.0																													a	1.0	None	0.0		0.5	hexagongreen.gif	go								0.50127196312																								0.54	0.514106988907	0.0009100437164310001	0.50127196312	1.0	a	573.100712061																										2015_Jun_23_1140	59.9610295852	LearningTask	1	15	
117	200.0	w	200.0																	0.0	0.0	0.0	0.0	23.0	2.0	94.0	0.0																													w	1.0	None	0.0		4.0	crossblue.gif	stop								0.601300954819																								3.98	0.514352083206	0.00118803977966	0.601300954819	1.0	w	576.1045689580001																										2015_Jun_23_1140	59.9610295852	LearningTask	1	15	
118	200.0	s	-200.0																	0.0	0.0	0.0	0.0	23.0	3.0	95.0	2.0																													s	1.0	None	0.0		2.0	circlewhite.gif	stop								0.43459510803199997																								2.18	0.513784885406	0.000970840454102	0.43459510803199997	1.0	s	579.107639074																										2015_Jun_23_1140	59.9610295852	LearningTask	1	15	
119	200.0	s	-200.0																	0.0	0.0	0.0	0.0	24.0	0.0	96.0	2.0																													s	1.0	None	0.0		4.0	diamondmagenta.gif	go								0.434564828873																								3.85	0.514097213745	0.0009100437164310001	0.434564828873	1.0	s	582.1110329630001																										2015_Jun_23_1140	59.9610295852	LearningTask	1	15	
120	200.0	s	-200.0																	0.0	0.0	0.0	0.0	24.0	1.0	97.0	2.0																													s	1.0	None	0.0		1.0	triangleorange.gif	stop								0.384243965149																								1.19	0.514255046844	0.0009551048278810001	0.384243965149	1.0	s	585.1145019530001																										2015_Jun_23_1140	59.9610295852	LearningTask	1	15	
121	200.0	s	-200.0																	0.0	0.0	0.0	0.0	24.0	2.0	98.0	2.0																													s	1.0	None	0.0		4.0	diamondmagenta.gif	go								0.400839090347																								4.08	0.514061927795	0.0009119510650630002	0.400839090347	1.0	s	588.117537975																										2015_Jun_23_1140	59.9610295852	LearningTask	1	15	
122	-200.0	q	200.0																	0.0	0.0	0.0	0.0	24.0	3.0	99.0	1.0																													q	1.0	None	0.0		2.0	circlewhite.gif	stop								0.550879001617																								2.04	0.514434814453	0.0009329319000239999	0.550879001617	1.0	q	591.120862961																										2015_Jun_23_1140	59.9610295852	LearningTask	1	15	
123																				0.0	0.0	0.0	0.0																																																																															9.0	27.6278049946																								2015_Jun_23_1140	59.9610295852	LearningTask	1	15	
124	200.0	w	200.0																	1.0	0.0	1.0	0.0	0.0	0.0	0.0	0.0																													w	1.0	None	0.0		0.5	hexagongreen.gif	go								0.501519203186																								0.0	0.51016998291	0.0008959770202639998	0.501519203186	1.0	w	622.072980881																										2015_Jun_23_1140	59.9610295852	LearningTask	1	15	
125	200.0	s	-200.0																	1.0	0.0	1.0	0.0	0.0	1.0	1.0	2.0																													s	1.0	None	0.0		0.5	hexagongreen.gif	go								0.501378059387																								0.62	0.5137639045719999	0.00095796585083	0.501378059387	1.0	s	625.076058865																										2015_Jun_23_1140	59.9610295852	LearningTask	1	15	
126	200.0	w	200.0																	1.0	0.0	1.0	0.0	0.0	2.0	2.0	0.0																													w	1.0	None	0.0		1.0	triangleorange.gif	stop								0.517327070236																								0.0	0.514216899872	0.00089693069458	0.517327070236	1.0	w	628.07920599																										2015_Jun_23_1140	59.9610295852	LearningTask	1	15	
127	-200.0	q	200.0																	1.0	0.0	1.0	0.0	0.0	3.0	3.0	1.0																													q	1.0	None	0.0		4.0	crossblue.gif	stop								0.517429113388																								3.86	0.514383077621	0.0009109973907470001	0.517429113388	1.0	q	631.08249402																										2015_Jun_23_1140	59.9610295852	LearningTask	1	15	
128	-200.0	q	200.0																	1.0	0.0	1.0	0.0	1.0	0.0	4.0	1.0																													q	1.0	None	0.0		4.0	crossblue.gif	stop								0.551213979721																								3.88	0.514043092728	0.00100207328796	0.551213979721	1.0	q	634.086097002																										2015_Jun_23_1140	59.9610295852	LearningTask	1	15	
129	-200.0	q	200.0																	1.0	0.0	1.0	0.0	1.0	1.0	5.0	1.0																													q	1.0	None	0.0		2.0	circlewhite.gif	stop								0.567760944366																								1.78	0.514106988907	0.0009241104125980002	0.567760944366	1.0	q	637.089333057																										2015_Jun_23_1140	59.9610295852	LearningTask	1	15	
130	200.0	s	-200.0																	1.0	0.0	1.0	0.0	1.0	2.0	6.0	2.0																													s	1.0	None	0.0		0.5	linecyan.gif	stop								0.501315832138																								0.63	0.514410018921	0.0008978843688960001	0.501315832138	1.0	s	640.092712879																										2015_Jun_23_1140	59.9610295852	LearningTask	1	15	
131	200.0	w	200.0																	1.0	0.0	1.0	0.0	1.0	3.0	7.0	0.0																													w	1.0	None	0.0		4.0	crossblue.gif	stop								0.45094013214100004																								0.0	0.514196872711	0.000917911529541	0.45094013214100004	1.0	w	643.096101999																										2015_Jun_23_1140	59.9610295852	LearningTask	1	15	
132	-200.0	a	-200.0																	1.0	0.0	1.0	0.0	2.0	0.0	8.0	3.0																													a	1.0	None	0.0		4.0	diamondmagenta.gif	go								0.6181819438930001																								4.03	0.514346122742	0.0009069442749019998	0.6181819438930001	1.0	a	646.099622965																										2015_Jun_23_1140	59.9610295852	LearningTask	1	15	
133	-200.0	a	-200.0																	1.0	0.0	1.0	0.0	2.0	1.0	9.0	3.0																													a	1.0	None	0.0		1.0	squaregray.gif	go								0.517663955688																								0.8	0.514141082764	0.00090217590332	0.517663955688	1.0	a	649.103223085																										2015_Jun_23_1140	59.9610295852	LearningTask	1	15	
134	-200.0	a	-200.0																	1.0	0.0	1.0	0.0	2.0	2.0	10.0	3.0																													a	1.0	None	0.0		1.0	squaregray.gif	go								0.434240102768																								0.9	0.513673067093	0.0008990764617919999	0.434240102768	1.0	a	652.106215																										2015_Jun_23_1140	59.9610295852	LearningTask	1	15	
135	200.0	w	200.0																	1.0	0.0	1.0	0.0	2.0	3.0	11.0	0.0																													w	1.0	None	0.0		2.0	invertedtriangleyellow.gif	go								0.517663002014																								2.14	0.5142819881440001	0.0009031295776369999	0.517663002014	1.0	w	655.1095600130001																										2015_Jun_23_1140	59.9610295852	LearningTask	1	15	
136	-200.0	a	-200.0																	1.0	0.0	1.0	0.0	3.0	0.0	12.0	3.0																													a	1.0	None	0.0		0.5	hexagongreen.gif	go								0.41771411895800004																								0.0	0.514413118362	0.00090503692627	0.41771411895800004	1.0	a	658.113133907																										2015_Jun_23_1140	59.9610295852	LearningTask	1	15	
137	-200.0	q	200.0																	1.0	0.0	1.0	0.0	3.0	1.0	13.0	1.0																													q	1.0	None	0.0		0.5	hexagongreen.gif	go								0.534317016602																								0.4	0.514168977737	0.0009150505065920001	0.534317016602	1.0	q	661.116348982																										2015_Jun_23_1140	59.9610295852	LearningTask	1	15	
138	-200.0	q	200.0																	1.0	0.0	1.0	0.0	3.0	2.0	14.0	1.0																													q	1.0	None	0.0		1.0	triangleorange.gif	stop								0.53447508812																								1.06	0.514321804047	0.00104594230652	0.53447508812	1.0	q	664.119529963																										2015_Jun_23_1140	59.9610295852	LearningTask	1	15	
139	200.0	s	-200.0																	1.0	0.0	1.0	0.0	3.0	3.0	15.0	2.0																													s	1.0	None	0.0		2.0	circlewhite.gif	stop								0.483898878098																								1.82	0.5146369934080001	0.000913143157959	0.483898878098	1.0	s	667.123046875																										2015_Jun_23_1140	59.9610295852	LearningTask	1	15	
140	-200.0	a	-200.0																	1.0	0.0	1.0	0.0	4.0	0.0	16.0	3.0																													a	1.0	None	0.0		1.0	squaregray.gif	go								0.40090489387500006																								0.9	0.514389038086	0.00089693069458	0.40090489387500006	1.0	a	670.126465082																										2015_Jun_23_1140	59.9610295852	LearningTask	1	15	
141	-200.0	a	-200.0																	1.0	0.0	1.0	0.0	4.0	1.0	17.0	3.0																													a	1.0	None	0.0		4.0	crossblue.gif	stop								0.43412208557099996																								3.98	0.5141119956970001	0.00104594230652	0.43412208557099996	1.0	a	673.129778862																										2015_Jun_23_1140	59.9610295852	LearningTask	1	15	
142	200.0	s	-200.0																	1.0	0.0	1.0	0.0	4.0	2.0	18.0	2.0																													s	1.0	None	0.0		2.0	invertedtriangleyellow.gif	go								0.450589895248																								0.0	0.51450586319	0.0008978843688960001	0.450589895248	1.0	s	676.133236885																										2015_Jun_23_1140	59.9610295852	LearningTask	1	15	
143	-200.0	a	-200.0																	1.0	0.0	1.0	0.0	4.0	3.0	19.0	3.0																													a	1.0	None	0.0		4.0	crossblue.gif	stop								0.417583942413																								3.86	0.5142149925230001	0.0010859966278099998	0.417583942413	1.0	a	679.136453867																										2015_Jun_23_1140	59.9610295852	LearningTask	1	15	
144	-200.0	a	-200.0																	1.0	0.0	1.0	0.0	5.0	0.0	20.0	3.0																													a	1.0	None	0.0		1.0	squaregray.gif	go								0.467645168304																								0.0	0.5146980285639999	0.000922203063965	0.467645168304	1.0	a	682.139980078																										2015_Jun_23_1140	59.9610295852	LearningTask	1	15	
145	200.0	s	-200.0																	1.0	0.0	1.0	0.0	5.0	1.0	21.0	2.0																													s	1.0	None	0.0		4.0	crossblue.gif	stop								0.401252031326																								3.96	0.514317989349	0.0008859634399410001	0.401252031326	1.0	s	685.143332005																										2015_Jun_23_1140	59.9610295852	LearningTask	1	15	
146	-200.0	a	-200.0																	1.0	0.0	1.0	0.0	5.0	2.0	22.0	3.0																													a	1.0	None	0.0		2.0	circlewhite.gif	stop								0.401191949844																								1.87	0.51438498497	0.0008978843688960001	0.401191949844	1.0	a	688.14682889																										2015_Jun_23_1140	59.9610295852	LearningTask	1	15	
147	200.0	s	-200.0																	1.0	0.0	1.0	0.0	5.0	3.0	23.0	2.0																													s	1.0	None	0.0		0.5	linecyan.gif	stop								0.40079903602600003																								0.35	0.513857841492	0.000959873199463	0.40079903602600003	1.0	s	691.1503689289999																										2015_Jun_23_1140	59.9610295852	LearningTask	1	15	
148	-200.0	a	-200.0																	1.0	0.0	1.0	0.0	6.0	0.0	24.0	3.0																													a	1.0	None	0.0		0.5	hexagongreen.gif	go								0.367710828781																								0.61	0.513888120651	0.0009479522705080001	0.367710828781	1.0	a	694.1535809039999																										2015_Jun_23_1140	59.9610295852	LearningTask	1	15	
149	-200.0	a	-200.0																	1.0	0.0	1.0	0.0	6.0	1.0	25.0	3.0																													a	1.0	None	0.0		4.0	diamondmagenta.gif	go								0.40086793899499995																								4.24	0.514312982559	0.0008909702301030001	0.40086793899499995	1.0	a	697.157351017																										2015_Jun_23_1140	59.9610295852	LearningTask	1	15	
150	200.0	w	200.0																	1.0	0.0	1.0	0.0	6.0	2.0	26.0	0.0																													w	1.0	None	0.0		2.0	circlewhite.gif	stop								0.667793035507																								1.76	0.513781070709	0.0008571147918700001	0.667793035507	1.0	w	700.160264015																										2015_Jun_23_1140	59.9610295852	LearningTask	1	15	
151	-200.0	q	200.0																	1.0	0.0	1.0	0.0	6.0	3.0	27.0	1.0																													q	1.0	None	0.0		0.5	hexagongreen.gif	go								0.517721891403																								0.39	0.514041185379	0.000888109207153	0.517721891403	1.0	q	703.1634690760001																										2015_Jun_23_1140	59.9610295852	LearningTask	1	15	
152	-200.0	a	-200.0																	1.0	0.0	1.0	0.0	7.0	0.0	28.0	3.0																													a	1.0	None	0.0		4.0	diamondmagenta.gif	go								0.45121192932099996																								0.0	0.513576030731	0.0012309551239	0.45121192932099996	1.0	a	706.1671559810001																										2015_Jun_23_1140	59.9610295852	LearningTask	1	15	
153	-200.0	q	200.0																	1.0	0.0	1.0	0.0	7.0	1.0	29.0	1.0																													q	1.0	None	0.0		1.0	squaregray.gif	go								0.517783880234																								0.0	0.514124155045	0.0012731552124000001	0.517783880234	1.0	q	709.1701939110001																										2015_Jun_23_1140	59.9610295852	LearningTask	1	15	
154	200.0	s	-200.0																	1.0	0.0	1.0	0.0	7.0	2.0	30.0	2.0																													s	1.0	None	0.0		4.0	diamondmagenta.gif	go								0.517644882202																								3.87	0.514633178711	0.00101709365845	0.517644882202	1.0	s	712.1738820080001																										2015_Jun_23_1140	59.9610295852	LearningTask	1	15	
155	200.0	s	-200.0																	1.0	0.0	1.0	0.0	7.0	3.0	31.0	2.0																													s	1.0	None	0.0		0.5	linecyan.gif	stop								0.48445606231700006																								0.48	0.514238834381	0.0012688636779800001	0.48445606231700006	1.0	s	715.1770970819999																										2015_Jun_23_1140	59.9610295852	LearningTask	1	15	
156	200.0	s	-200.0																	1.0	0.0	1.0	0.0	8.0	0.0	32.0	2.0																													s	1.0	None	0.0		4.0	crossblue.gif	stop								0.5179209709170001																								0.0	0.51429104805	0.0012679100036600002	0.5179209709170001	1.0	s	718.181164026																										2015_Jun_23_1140	59.9610295852	LearningTask	1	15	
157	-200.0	q	200.0																	1.0	0.0	1.0	0.0	8.0	1.0	33.0	1.0																													q	1.0	None	0.0		0.5	linecyan.gif	stop								0.534327983856																								0.35	0.513324975967	0.00101184844971	0.534327983856	1.0	q	721.183937073																										2015_Jun_23_1140	59.9610295852	LearningTask	1	15	
158	200.0	w	200.0																	1.0	0.0	1.0	0.0	8.0	2.0	34.0	0.0																													w	1.0	None	0.0		1.0	squaregray.gif	go								0.568016052246																								1.11	0.514242887497	0.000890016555786	0.568016052246	1.0	w	724.187201977																										2015_Jun_23_1140	59.9610295852	LearningTask	1	15	
159	200.0	w	200.0																	1.0	0.0	1.0	0.0	8.0	3.0	35.0	0.0																													w	1.0	None	0.0		2.0	circlewhite.gif	stop								0.600797891617																								1.97	0.51430606842	0.0013620853424100002	0.600797891617	1.0	w	727.190711975																										2015_Jun_23_1140	59.9610295852	LearningTask	1	15	
160	-200.0	q	200.0																	1.0	0.0	1.0	0.0	9.0	0.0	36.0	1.0																													q	1.0	None	0.0		1.0	triangleorange.gif	stop								0.467641830444																								0.0	0.5140898227690001	0.0014138221740699999	0.467641830444	1.0	q	730.193916082																										2015_Jun_23_1140	59.9610295852	LearningTask	1	15	
161	-200.0	a	-200.0																	1.0	0.0	1.0	0.0	9.0	1.0	37.0	3.0																													a	1.0	None	0.0		1.0	squaregray.gif	go								0.484457969666																								0.83	0.514475107193	0.000877141952515	0.484457969666	1.0	a	733.1973528860001																										2015_Jun_23_1140	59.9610295852	LearningTask	1	15	
162	200.0	s	-200.0																	1.0	0.0	1.0	0.0	9.0	2.0	38.0	2.0																													s	1.0	None	0.0		2.0	invertedtriangleyellow.gif	go								0.434357881546																								1.97	0.514373064041	0.00128602981567	0.434357881546	1.0	s	736.200927973																										2015_Jun_23_1140	59.9610295852	LearningTask	1	15	
163	200.0	w	200.0																	1.0	0.0	1.0	0.0	9.0	3.0	39.0	0.0																													w	1.0	None	0.0		2.0	circlewhite.gif	stop								0.467725992203																								0.0	0.514034032822	0.000902891159058	0.467725992203	1.0	w	739.204128981																										2015_Jun_23_1140	59.9610295852	LearningTask	1	15	
164	200.0	s	-200.0																	1.0	0.0	1.0	0.0	10.0	0.0	40.0	2.0																													s	1.0	None	0.0		0.5	hexagongreen.gif	go								0.467997074127																								0.46	0.514290094376	0.00127601623535	0.467997074127	1.0	s	742.20758605																										2015_Jun_23_1140	59.9610295852	LearningTask	1	15	
165	200.0	w	200.0																	1.0	0.0	1.0	0.0	10.0	1.0	41.0	0.0																													w	1.0	None	0.0		4.0	crossblue.gif	stop								0.417874097824																								3.82	0.514374017715	0.0009069442749019998	0.417874097824	1.0	w	745.210985899																										2015_Jun_23_1140	59.9610295852	LearningTask	1	15	
166	200.0	w	200.0																	1.0	0.0	1.0	0.0	10.0	2.0	42.0	0.0																													w	1.0	None	0.0		2.0	circlewhite.gif	stop								0.46764993667599997																								2.0	0.513924837112	0.0008838176727290001	0.46764993667599997	1.0	w	748.214237928																										2015_Jun_23_1140	59.9610295852	LearningTask	1	15	
167	-200.0	q	200.0																	1.0	0.0	1.0	0.0	10.0	3.0	43.0	1.0																													q	1.0	None	0.0		4.0	crossblue.gif	stop								0.5844690799710001																								0.0	0.514361143112	0.000881195068359	0.5844690799710001	1.0	q	751.217489004																										2015_Jun_23_1140	59.9610295852	LearningTask	1	15	
168	-200.0	a	-200.0																	1.0	0.0	1.0	0.0	11.0	0.0	44.0	3.0																													a	1.0	None	0.0		1.0	squaregray.gif	go								0.517581224442																								0.0	0.514442920685	0.0008909702301030001	0.517581224442	1.0	a	754.221265078																										2015_Jun_23_1140	59.9610295852	LearningTask	1	15	
169	-200.0	q	200.0																	1.0	0.0	1.0	0.0	11.0	1.0	45.0	1.0																													q	1.0	None	0.0		1.0	triangleorange.gif	stop								0.584853887558																								1.24	0.5140681266780001	0.000912189483643	0.584853887558	1.0	q	757.22438693																										2015_Jun_23_1140	59.9610295852	LearningTask	1	15	
170	-200.0	q	200.0																	1.0	0.0	1.0	0.0	11.0	2.0	46.0	1.0																													q	1.0	None	0.0		2.0	circlewhite.gif	stop								0.600965976715																								1.91	0.514282941818	0.000946044921875	0.600965976715	1.0	q	760.227771997																										2015_Jun_23_1140	59.9610295852	LearningTask	1	15	
171	200.0	s	-200.0																	1.0	0.0	1.0	0.0	11.0	3.0	47.0	2.0																													s	1.0	None	0.0		0.5	linecyan.gif	stop								0.550802946091																								0.5	0.514348983765	0.0008838176727290001	0.550802946091	1.0	s	763.231116056																										2015_Jun_23_1140	59.9610295852	LearningTask	1	15	
172	200.0	s	-200.0																	1.0	0.0	1.0	0.0	12.0	0.0	48.0	2.0																													s	1.0	None	0.0		1.0	triangleorange.gif	stop								0.48438596725500005																								0.89	0.514376163483	0.000888109207153	0.48438596725500005	1.0	s	766.2345399860001																										2015_Jun_23_1140	59.9610295852	LearningTask	1	15	
173	200.0	w	200.0																	1.0	0.0	1.0	0.0	12.0	1.0	49.0	0.0																													w	1.0	None	0.0		1.0	squaregray.gif	go								0.484659910202																								1.04	0.513795137405	0.000912189483643	0.484659910202	1.0	w	769.237849951																										2015_Jun_23_1140	59.9610295852	LearningTask	1	15	
174	200.0	w	200.0																	1.0	0.0	1.0	0.0	12.0	2.0	50.0	0.0																													w	1.0	None	0.0		1.0	squaregray.gif	go								0.484536170959																								1.25	0.5143229961399999	0.00088095664978	0.484536170959	1.0	w	772.241241932																										2015_Jun_23_1140	59.9610295852	LearningTask	1	15	
175	-200.0	a	-200.0																	1.0	0.0	1.0	0.0	12.0	3.0	51.0	3.0																													a	1.0	None	0.0		4.0	diamondmagenta.gif	go								0.55154299736																								0.0	0.514415025711	0.0008959770202639998	0.55154299736	1.0	a	775.244920969																										2015_Jun_23_1140	59.9610295852	LearningTask	1	15	
176	200.0	s	-200.0																	1.0	0.0	1.0	0.0	13.0	0.0	52.0	2.0																													s	1.0	None	0.0		0.5	linecyan.gif	stop								0.451235055923																								0.46	0.513600826263	0.0008938312530519999	0.451235055923	1.0	s	778.247958899																										2015_Jun_23_1140	59.9610295852	LearningTask	1	15	
177	200.0	s	-200.0																	1.0	0.0	1.0	0.0	13.0	1.0	53.0	2.0																													s	1.0	None	0.0		4.0	crossblue.gif	stop								0.567855119705																								4.25	0.514560937881	0.0008950233459470001	0.567855119705	1.0	s	781.251410961																										2015_Jun_23_1140	59.9610295852	LearningTask	1	15	
178	200.0	w	200.0																	1.0	0.0	1.0	0.0	13.0	2.0	54.0	0.0																													w	1.0	None	0.0		2.0	invertedtriangleyellow.gif	go								0.45113396644599996																								2.24	0.514166116714	0.000890016555786	0.45113396644599996	1.0	w	784.2550349239999																										2015_Jun_23_1140	59.9610295852	LearningTask	1	15	
179	200.0	s	-200.0																	1.0	0.0	1.0	0.0	13.0	3.0	55.0	2.0																													s	1.0	None	0.0		2.0	circlewhite.gif	stop								0.43450284004199996																								0.0	0.513981103897	0.000900983810425	0.43450284004199996	1.0	s	787.258162975																										2015_Jun_23_1140	59.9610295852	LearningTask	1	15	
180	-200.0	a	-200.0																	1.0	0.0	1.0	0.0	14.0	0.0	56.0	3.0																													a	1.0	None	0.0		1.0	squaregray.gif	go								0.501412153244																								0.77	0.514117002487	0.0008769035339360002	0.501412153244	1.0	a	790.26147294																										2015_Jun_23_1140	59.9610295852	LearningTask	1	15	
181	200.0	w	200.0																	1.0	0.0	1.0	0.0	14.0	1.0	57.0	0.0																													w	1.0	None	0.0		2.0	circlewhite.gif	stop								0.40081310272200005																								1.85	0.514312982559	0.0008959770202639998	0.40081310272200005	1.0	w	793.265173912																										2015_Jun_23_1140	59.9610295852	LearningTask	1	15	
182	-200.0	q	200.0																	1.0	0.0	1.0	0.0	14.0	2.0	58.0	1.0																													q	1.0	None	0.0		0.5	hexagongreen.gif	go								0.534350156784																								0.47	0.513992786407	0.0008919239044189998	0.534350156784	1.0	q	796.2683460710001																										2015_Jun_23_1140	59.9610295852	LearningTask	1	15	
183	200.0	s	-200.0																	1.0	0.0	1.0	0.0	14.0	3.0	59.0	2.0																													s	1.0	None	0.0		1.0	triangleorange.gif	stop								0.467741012573																								0.83	0.514190196991	0.00107502937317	0.467741012573	1.0	s	799.2718598839999																										2015_Jun_23_1140	59.9610295852	LearningTask	1	15	
184	200.0	s	-200.0																	1.0	0.0	1.0	0.0	15.0	0.0	60.0	2.0																													s	1.0	None	0.0		4.0	diamondmagenta.gif	go								0.501376152039																								3.8	0.51406288147	0.0009019374847410001	0.501376152039	1.0	s	802.27501893																										2015_Jun_23_1140	59.9610295852	LearningTask	1	15	
185	200.0	s	-200.0																	1.0	0.0	1.0	0.0	15.0	1.0	61.0	2.0																													s	1.0	None	0.0		2.0	invertedtriangleyellow.gif	go								0.5344059467319999																								0.0	0.514157056808	0.00089693069458	0.5344059467319999	1.0	s	805.278378963																										2015_Jun_23_1140	59.9610295852	LearningTask	1	15	
186	-200.0	q	200.0																	1.0	0.0	1.0	0.0	15.0	2.0	62.0	1.0																													q	1.0	None	0.0		1.0	squaregray.gif	go								0.651121854782																								0.98	0.513992071152	0.000977039337158	0.651121854782	1.0	q	808.281790018																										2015_Jun_23_1140	59.9610295852	LearningTask	1	15	
187	-200.0	q	200.0																	1.0	0.0	1.0	0.0	15.0	3.0	63.0	1.0																													q	1.0	None	0.0		2.0	circlewhite.gif	stop								0.618008136749																								1.88	0.5141048431399999	0.0008869171142580001	0.618008136749	1.0	q	811.28518796																										2015_Jun_23_1140	59.9610295852	LearningTask	1	15	
188	-200.0	q	200.0																	1.0	0.0	1.0	0.0	16.0	0.0	64.0	1.0																													q	1.0	None	0.0		4.0	crossblue.gif	stop								0.567523002625																								3.97	0.514539957047	0.000907182693481	0.567523002625	1.0	q	814.288805962																										2015_Jun_23_1140	59.9610295852	LearningTask	1	15	
189	200.0	s	-200.0																	1.0	0.0	1.0	0.0	16.0	1.0	65.0	2.0																													s	1.0	None	0.0		2.0	circlewhite.gif	stop								0.48385286331200006																								2.08	0.513997793198	0.000888824462891	0.48385286331200006	1.0	s	817.291965008																										2015_Jun_23_1140	59.9610295852	LearningTask	1	15	
190	200.0	w	200.0																	1.0	0.0	1.0	0.0	16.0	2.0	66.0	0.0																													w	1.0	None	0.0		4.0	diamondmagenta.gif	go								0.417929172516																								4.24	0.5141780376430001	0.0008749961853029999	0.417929172516	1.0	w	820.2952680589999																										2015_Jun_23_1140	59.9610295852	LearningTask	1	15	
191	200.0	s	-200.0																	1.0	0.0	1.0	0.0	16.0	3.0	67.0	2.0																													s	1.0	None	0.0		0.5	linecyan.gif	stop								0.451101064682																								0.0	0.514255046844	0.0008840560913089999	0.451101064682	1.0	s	823.299237967																										2015_Jun_23_1140	59.9610295852	LearningTask	1	15	
192	200.0	w	200.0																	1.0	0.0	1.0	0.0	17.0	0.0	68.0	0.0																													w	1.0	None	0.0		2.0	invertedtriangleyellow.gif	go								0.41789484024000007																								1.98	0.513406038284	0.000943899154663	0.41789484024000007	1.0	w	826.302238941																										2015_Jun_23_1140	59.9610295852	LearningTask	1	15	
193	-200.0	a	-200.0																	1.0	0.0	1.0	0.0	17.0	1.0	69.0	3.0																													a	1.0	None	0.0		0.5	linecyan.gif	stop								0.600818872452																								0.0	0.514328956604	0.00088095664978	0.600818872452	1.0	a	829.3055200580001																										2015_Jun_23_1140	59.9610295852	LearningTask	1	15	
194	-200.0	a	-200.0																	1.0	0.0	1.0	0.0	17.0	2.0	70.0	3.0																													a	1.0	None	0.0		1.0	triangleorange.gif	stop								0.518313169479																								1.04	0.514093875885	0.0008838176727290001	0.518313169479	1.0	a	832.309169054																										2015_Jun_23_1140	59.9610295852	LearningTask	1	15	
195	200.0	w	200.0																	1.0	0.0	1.0	0.0	17.0	3.0	71.0	0.0																													w	1.0	None	0.0		2.0	circlewhite.gif	stop								0.48433709144599996																								2.14	0.513891935349	0.000892877578735	0.48433709144599996	1.0	w	835.3121860030001																										2015_Jun_23_1140	59.9610295852	LearningTask	1	15	
196	-200.0	q	200.0																	1.0	0.0	1.0	0.0	18.0	0.0	72.0	1.0																													q	1.0	None	0.0		0.5	hexagongreen.gif	go								0.451423168182																								0.65	0.514277935028	0.000951051712036	0.451423168182	1.0	q	838.31555891																										2015_Jun_23_1140	59.9610295852	LearningTask	1	15	
197	-200.0	a	-200.0																	1.0	0.0	1.0	0.0	18.0	1.0	73.0	3.0																													a	1.0	None	0.0		2.0	invertedtriangleyellow.gif	go								0.50089597702																								1.75	0.514327049255	0.0008909702301030001	0.50089597702	1.0	a	841.31899786																										2015_Jun_23_1140	59.9610295852	LearningTask	1	15	
198	200.0	s	-200.0																	1.0	0.0	1.0	0.0	18.0	2.0	74.0	2.0																													s	1.0	None	0.0		1.0	squaregray.gif	go								0.450958967209																								0.8	0.5144951343540001	0.000885009765625	0.450958967209	1.0	s	844.3222160339999																										2015_Jun_23_1140	59.9610295852	LearningTask	1	15	
199	-200.0	a	-200.0																	1.0	0.0	1.0	0.0	18.0	3.0	75.0	3.0																													a	1.0	None	0.0		2.0	invertedtriangleyellow.gif	go								0.383985042572																								1.96	0.514536142349	0.00108504295349	0.383985042572	1.0	a	847.325922966																										2015_Jun_23_1140	59.9610295852	LearningTask	1	15	
200	200.0	w	200.0																	1.0	0.0	1.0	0.0	19.0	0.0	76.0	0.0																													w	1.0	None	0.0		1.0	triangleorange.gif	stop								0.433861017227																								0.0	0.514086961746	0.000888109207153	0.433861017227	1.0	w	850.3290550710001																										2015_Jun_23_1140	59.9610295852	LearningTask	1	15	
201	-200.0	q	200.0																	1.0	0.0	1.0	0.0	19.0	1.0	77.0	1.0																													q	1.0	None	0.0		1.0	triangleorange.gif	stop								0.401215076447																								0.98	0.514194965363	0.0008878707885739998	0.401215076447	1.0	q	853.332419872																										2015_Jun_23_1140	59.9610295852	LearningTask	1	15	
202	-200.0	q	200.0																	1.0	0.0	1.0	0.0	19.0	2.0	78.0	1.0																													q	1.0	None	0.0		1.0	squaregray.gif	go								0.534570932388																								1.05	0.514019012451	0.0009150505065920001	0.534570932388	1.0	q	856.3358368869999																										2015_Jun_23_1140	59.9610295852	LearningTask	1	15	
203	200.0	s	-200.0																	1.0	0.0	1.0	0.0	19.0	3.0	79.0	2.0																													s	1.0	None	0.0		4.0	diamondmagenta.gif	go								0.45110607147200005																								3.85	0.514236927032	0.0008780956268310002	0.45110607147200005	1.0	s	859.3392500880001																										2015_Jun_23_1140	59.9610295852	LearningTask	1	15	
204	200.0	s	-200.0																	1.0	0.0	1.0	0.0	20.0	0.0	80.0	2.0																													s	1.0	None	0.0		0.5	linecyan.gif	stop								0.58447098732																								0.7	0.5140779018399999	0.000934839248657	0.58447098732	1.0	s	862.342648983																										2015_Jun_23_1140	59.9610295852	LearningTask	1	15	
205	-200.0	q	200.0																	1.0	0.0	1.0	0.0	20.0	1.0	81.0	1.0																													q	1.0	None	0.0		2.0	invertedtriangleyellow.gif	go								0.450993776321																								0.0	0.514059066772	0.0009150505065920001	0.450993776321	1.0	q	865.345956087																										2015_Jun_23_1140	59.9610295852	LearningTask	1	15	
206	200.0	w	200.0																	1.0	0.0	1.0	0.0	20.0	2.0	82.0	0.0																													w	1.0	None	0.0		4.0	crossblue.gif	stop								0.467533111572																								0.0	0.514307975769	0.000890016555786	0.467533111572	1.0	w	868.34937191																										2015_Jun_23_1140	59.9610295852	LearningTask	1	15	
207	-200.0	q	200.0																	1.0	0.0	1.0	0.0	20.0	3.0	83.0	1.0																													q	1.0	None	0.0		1.0	triangleorange.gif	stop								0.317384958267																								1.08	0.514173984528	0.000888824462891	0.317384958267	1.0	q	871.3529639239999																										2015_Jun_23_1140	59.9610295852	LearningTask	1	15	
208	200.0	s	-200.0																	1.0	0.0	1.0	0.0	21.0	0.0	84.0	2.0																													s	1.0	None	0.0		4.0	crossblue.gif	stop								0.450392007828																								3.95	0.513990879059	0.000900030136108	0.450392007828	1.0	s	874.356050968																										2015_Jun_23_1140	59.9610295852	LearningTask	1	15	
209	-200.0	a	-200.0																	1.0	0.0	1.0	0.0	21.0	1.0	85.0	3.0																													a	1.0	None	0.0		4.0	diamondmagenta.gif	go								0.483793020248																								4.03	0.514512062073	0.000881910324097	0.483793020248	1.0	a	877.3594770430001																										2015_Jun_23_1140	59.9610295852	LearningTask	1	15	
210	-200.0	a	-200.0																	1.0	0.0	1.0	0.0	21.0	2.0	86.0	3.0																													a	1.0	None	0.0		4.0	crossblue.gif	stop								0.551148176193																								3.8	0.514358043671	0.0008831024169919999	0.551148176193	1.0	a	880.3629610539999																										2015_Jun_23_1140	59.9610295852	LearningTask	1	15	
211	-200.0	q	200.0																	1.0	0.0	1.0	0.0	21.0	3.0	87.0	1.0																													q	1.0	None	0.0		2.0	circlewhite.gif	stop								0.500803947449																								1.81	0.514218091965	0.0008981227874760001	0.500803947449	1.0	q	883.3662149910001																										2015_Jun_23_1140	59.9610295852	LearningTask	1	15	
212	-200.0	a	-200.0																	1.0	0.0	1.0	0.0	22.0	0.0	88.0	3.0																													a	1.0	None	0.0		1.0	triangleorange.gif	stop								0.517782926559																								0.89	0.514326095581	0.00101208686829	0.517782926559	1.0	a	886.3694288730001																										2015_Jun_23_1140	59.9610295852	LearningTask	1	15	
213	200.0	w	200.0																	1.0	0.0	1.0	0.0	22.0	1.0	89.0	0.0																													w	1.0	None	0.0		2.0	circlewhite.gif	stop								0.434298992157																								1.94	0.514390945435	0.0008878707885739998	0.434298992157	1.0	w	889.373184919																										2015_Jun_23_1140	59.9610295852	LearningTask	1	15	
214	-200.0	q	200.0																	1.0	0.0	1.0	0.0	22.0	2.0	90.0	1.0																													q	1.0	None	0.0		0.5	hexagongreen.gif	go								0.500806808472																								0.64	0.5142600536349999	0.0009109973907470001	0.500806808472	1.0	q	892.3763408660001																										2015_Jun_23_1140	59.9610295852	LearningTask	1	15	
215	200.0	w	200.0																	1.0	0.0	1.0	0.0	22.0	3.0	91.0	0.0																													w	1.0	None	0.0		2.0	circlewhite.gif	stop								0.5508811473849999																								0.0	0.514173030853	0.000923156738281	0.5508811473849999	1.0	w	895.379747868																										2015_Jun_23_1140	59.9610295852	LearningTask	1	15	
216	-200.0	a	-200.0																	1.0	0.0	1.0	0.0	23.0	0.0	92.0	3.0																													a	1.0	None	0.0		4.0	crossblue.gif	stop								0.484260082245																								4.22	0.514353990555	0.0008840560913089999	0.484260082245	1.0	a	898.38331008																										2015_Jun_23_1140	59.9610295852	LearningTask	1	15	
217	-200.0	q	200.0																	1.0	0.0	1.0	0.0	23.0	1.0	93.0	1.0																													q	1.0	None	0.0		4.0	crossblue.gif	stop								0.567650079727																								4.06	0.514236927032	0.0008859634399410001	0.567650079727	1.0	q	901.386694908																										2015_Jun_23_1140	59.9610295852	LearningTask	1	15	
218	-200.0	a	-200.0																	1.0	0.0	1.0	0.0	23.0	2.0	94.0	3.0																													a	1.0	None	0.0		1.0	squaregray.gif	go								0.5671350955960001																								0.9	0.514173984528	0.0008759498596189999	0.5671350955960001	1.0	a	904.390022039																										2015_Jun_23_1140	59.9610295852	LearningTask	1	15	
219	200.0	w	200.0																	1.0	0.0	1.0	0.0	23.0	3.0	95.0	0.0																													w	1.0	None	0.0		0.5	hexagongreen.gif	go								0.434149026871																								0.36	0.5141518116	0.0008838176727290001	0.434149026871	1.0	w	907.393337965																										2015_Jun_23_1140	59.9610295852	LearningTask	1	15	
220	-200.0	q	200.0																	1.0	0.0	1.0	0.0	24.0	0.0	96.0	1.0																													q	1.0	None	0.0		0.5	linecyan.gif	stop								0.48428583145099996																								0.0	0.514175891876	0.000885009765625	0.48428583145099996	1.0	q	910.396750927																										2015_Jun_23_1140	59.9610295852	LearningTask	1	15	
221	200.0	w	200.0																	1.0	0.0	1.0	0.0	24.0	1.0	97.0	0.0																													w	1.0	None	0.0		1.0	triangleorange.gif	stop								0.517550945282																								1.21	0.513922929764	0.000908851623535	0.517550945282	1.0	w	913.400038958																										2015_Jun_23_1140	59.9610295852	LearningTask	1	15	
222	200.0	w	200.0																	1.0	0.0	1.0	0.0	24.0	2.0	98.0	0.0																													w	1.0	None	0.0		1.0	triangleorange.gif	stop								0.534296989441																								1.21	0.514009952545	0.0008919239044189998	0.534296989441	1.0	w	916.403339863																										2015_Jun_23_1140	59.9610295852	LearningTask	1	15	
223	200.0	w	200.0																	1.0	0.0	1.0	0.0	24.0	3.0	99.0	0.0																													w	1.0	None	0.0		2.0	circlewhite.gif	stop								0.501000881195																								2.25	0.514621019363	0.000885009765625	0.501000881195	1.0	w	919.40724206																										2015_Jun_23_1140	59.9610295852	LearningTask	1	15	
224																				1.0	0.0	1.0	0.0																																																																															9.0	55.1314759254																								2015_Jun_23_1140	59.9610295852	LearningTask	1	15	
225	-200.0	a	-200.0																	2.0	0.0	2.0	0.0	0.0	0.0	0.0	3.0																													a	1.0	None	0.0		0.5	hexagongreen.gif	go								0.517645120621																								0.41	0.508461952209	0.00111508369446	0.517645120621	1.0	a	977.973478079																										2015_Jun_23_1140	59.9610295852	LearningTask	1	15	
226	-200.0	q	200.0																	2.0	0.0	2.0	0.0	0.0	1.0	1.0	1.0																													q	1.0	None	0.0		0.5	linecyan.gif	stop								0.417630910873																								0.73	0.513035058975	0.000917911529541	0.417630910873	1.0	q	980.976109982																										2015_Jun_23_1140	59.9610295852	LearningTask	1	15	
227	-200.0	q	200.0																	2.0	0.0	2.0	0.0	0.0	2.0	2.0	1.0																													q	1.0	None	0.0		1.0	triangleorange.gif	stop								0.484457969666																								1.2	0.514102935791	0.000885009765625	0.484457969666	1.0	q	983.979289055																										2015_Jun_23_1140	59.9610295852	LearningTask	1	15	
228	-200.0	a	-200.0																	2.0	0.0	2.0	0.0	0.0	3.0	3.0	3.0																													a	1.0	None	0.0		0.5	linecyan.gif	stop								0.383913040161																								0.66	0.5143120288849999	0.000953912734985	0.383913040161	1.0	a	986.982825994																										2015_Jun_23_1140	59.9610295852	LearningTask	1	15	
229	-200.0	a	-200.0																	2.0	0.0	2.0	0.0	1.0	0.0	4.0	3.0																													a	1.0	None	0.0		0.5	hexagongreen.gif	go								0.38440990448																								0.27	0.514299154282	0.0008950233459470001	0.38440990448	1.0	a	989.985944033																										2015_Jun_23_1140	59.9610295852	LearningTask	1	15	
230	-200.0	q	200.0																	2.0	0.0	2.0	0.0	1.0	1.0	5.0	1.0																													q	1.0	None	0.0		2.0	invertedtriangleyellow.gif	go								0.5179820060729999																								1.97	0.514412879944	0.0008959770202639998	0.5179820060729999	1.0	q	992.989217043																										2015_Jun_23_1140	59.9610295852	LearningTask	1	15	
231	-200.0	a	-200.0																	2.0	0.0	2.0	0.0	1.0	2.0	6.0	3.0																													a	1.0	None	0.0		2.0	circlewhite.gif	stop								0.333870887756																								1.89	0.514642000198	0.0008919239044189998	0.333870887756	1.0	a	995.9927849769999																										2015_Jun_23_1140	59.9610295852	LearningTask	1	15	
232	-200.0	a	-200.0																	2.0	0.0	2.0	0.0	1.0	3.0	7.0	3.0																													a	1.0	None	0.0		2.0	invertedtriangleyellow.gif	go								0.384280920029																								0.0	0.514318943024	0.0008859634399410001	0.384280920029	1.0	a	998.996305943																										2015_Jun_23_1140	59.9610295852	LearningTask	1	15	
233	-200.0	a	-200.0																	2.0	0.0	2.0	0.0	2.0	0.0	8.0	3.0																													a	1.0	None	0.0		4.0	crossblue.gif	stop								0.38413095474200004																								4.12	0.513451814651	0.000988006591797	0.38413095474200004	1.0	a	1001.99969387																										2015_Jun_23_1140	59.9610295852	LearningTask	1	15	
234	200.0	w	200.0																	2.0	0.0	2.0	0.0	2.0	1.0	9.0	0.0																													w	1.0	None	0.0		2.0	circlewhite.gif	stop								0.518117904663																								2.2	0.514042139053	0.0009241104125980002	0.518117904663	1.0	w	1005.00295687																										2015_Jun_23_1140	59.9610295852	LearningTask	1	15	
235	-200.0	q	200.0																	2.0	0.0	2.0	0.0	2.0	2.0	10.0	1.0																													q	1.0	None	0.0		1.0	squaregray.gif	go								0.43388295173600006																								1.1	0.5144309997559999	0.00128602981567	0.43388295173600006	1.0	q	1008.00631905																										2015_Jun_23_1140	59.9610295852	LearningTask	1	15	
236	-200.0	q	200.0																	2.0	0.0	2.0	0.0	2.0	3.0	11.0	1.0																													q	1.0	None	0.0		2.0	circlewhite.gif	stop								0.40112113952600004																								1.96	0.5138390064239999	0.000922918319702	0.40112113952600004	1.0	q	1011.00966191																										2015_Jun_23_1140	59.9610295852	LearningTask	1	15	
237	-200.0	a	-200.0																	2.0	0.0	2.0	0.0	3.0	0.0	12.0	3.0																													a	1.0	None	0.0		0.5	linecyan.gif	stop								0.384504079819																								0.62	0.51434803009	0.000885009765625	0.384504079819	1.0	a	1014.01317906																										2015_Jun_23_1140	59.9610295852	LearningTask	1	15	
238	200.0	s	-200.0																	2.0	0.0	2.0	0.0	3.0	1.0	13.0	2.0																													s	1.0	None	0.0		2.0	circlewhite.gif	stop								0.46755409240699997																								2.24	0.514183998108	0.0009729862213130002	0.46755409240699997	1.0	s	1017.01624489																										2015_Jun_23_1140	59.9610295852	LearningTask	1	15	
239	200.0	s	-200.0																	2.0	0.0	2.0	0.0	3.0	2.0	14.0	2.0																													s	1.0	None	0.0		4.0	diamondmagenta.gif	go								0.484549999237																								4.2	0.5143709182739999	0.000881910324097	0.484549999237	1.0	s	1020.01978397																										2015_Jun_23_1140	59.9610295852	LearningTask	1	15	
240	200.0	s	-200.0																	2.0	0.0	2.0	0.0	3.0	3.0	15.0	2.0																													s	1.0	None	0.0		2.0	invertedtriangleyellow.gif	go								0.43447518348700004																								1.91	0.514112949371	0.000907897949219	0.43447518348700004	1.0	s	1023.02324605																										2015_Jun_23_1140	59.9610295852	LearningTask	1	15	
241	-200.0	q	200.0																	2.0	0.0	2.0	0.0	4.0	0.0	16.0	1.0																													q	1.0	None	0.0		4.0	diamondmagenta.gif	go								0.517660140991																								0.0	0.514034032822	0.0009391307830810002	0.517660140991	1.0	q	1026.02686501																										2015_Jun_23_1140	59.9610295852	LearningTask	1	15	
242	200.0	s	-200.0																	2.0	0.0	2.0	0.0	4.0	1.0	17.0	2.0																													s	1.0	None	0.0		4.0	crossblue.gif	stop								0.43410491943400004																								0.0	0.513965129852	0.0009031295776369999	0.43410491943400004	1.0	s	1029.02997088																										2015_Jun_23_1140	59.9610295852	LearningTask	1	15	
243	-200.0	q	200.0																	2.0	0.0	2.0	0.0	4.0	2.0	18.0	1.0																													q	1.0	None	0.0		2.0	circlewhite.gif	stop								0.501015901566																								2.14	0.514177083969	0.0008909702301030001	0.501015901566	1.0	q	1032.03328109																										2015_Jun_23_1140	59.9610295852	LearningTask	1	15	
244	200.0	w	200.0																	2.0	0.0	2.0	0.0	4.0	3.0	19.0	0.0																													w	1.0	None	0.0		1.0	squaregray.gif	go								0.467305898666																								1.01	0.514279127121	0.0008971691131589999	0.467305898666	1.0	w	1035.03673005																										2015_Jun_23_1140	59.9610295852	LearningTask	1	15	
245	-200.0	q	200.0																	2.0	0.0	2.0	0.0	5.0	0.0	20.0	1.0																													q	1.0	None	0.0		2.0	circlewhite.gif	stop								0.43450999259900003																								1.9	0.514225959778	0.0008859634399410001	0.43450999259900003	1.0	q	1038.04005194																										2015_Jun_23_1140	59.9610295852	LearningTask	1	15	
246	200.0	s	-200.0																	2.0	0.0	2.0	0.0	5.0	1.0	21.0	2.0																													s	1.0	None	0.0		2.0	invertedtriangleyellow.gif	go								0.450829029083																								2.0	0.514551877975	0.00095796585083	0.450829029083	1.0	s	1041.04346108																										2015_Jun_23_1140	59.9610295852	LearningTask	1	15	
247	-200.0	q	200.0																	2.0	0.0	2.0	0.0	5.0	2.0	22.0	1.0																													q	1.0	None	0.0		4.0	diamondmagenta.gif	go								0.46787881851199997																								4.14	0.5141630172730001	0.000993967056274	0.46787881851199997	1.0	q	1044.04682899																										2015_Jun_23_1140	59.9610295852	LearningTask	1	15	
248	-200.0	q	200.0																	2.0	0.0	2.0	0.0	5.0	3.0	23.0	1.0																													q	1.0	None	0.0		0.5	hexagongreen.gif	go								0.451190948486																								0.36	0.514335870743	0.0008909702301030001	0.451190948486	1.0	q	1047.05010295																										2015_Jun_23_1140	59.9610295852	LearningTask	1	15	
249	-200.0	a	-200.0																	2.0	0.0	2.0	0.0	6.0	0.0	24.0	3.0																													a	1.0	None	0.0		1.0	squaregray.gif	go								0.517637968063																								0.0	0.514122962952	0.0009400844573969999	0.517637968063	1.0	a	1050.05402088																										2015_Jun_23_1140	59.9610295852	LearningTask	1	15	
250	200.0	s	-200.0																	2.0	0.0	2.0	0.0	6.0	1.0	25.0	2.0																													s	1.0	None	0.0		4.0	crossblue.gif	stop								0.45090794563299996																								3.81	0.51389503479	0.000881910324097	0.45090794563299996	1.0	s	1053.05702806																										2015_Jun_23_1140	59.9610295852	LearningTask	1	15	
251	200.0	s	-200.0																	2.0	0.0	2.0	0.0	6.0	2.0	26.0	2.0																													s	1.0	None	0.0		4.0	crossblue.gif	stop								0.4677600860600001																								3.84	0.514151096344	0.00090217590332	0.4677600860600001	1.0	s	1056.06044793																										2015_Jun_23_1140	59.9610295852	LearningTask	1	15	
252	200.0	w	200.0																	2.0	0.0	2.0	0.0	6.0	3.0	27.0	0.0																													w	1.0	None	0.0		0.5	linecyan.gif	stop								0.5173678398129999																								0.61	0.514243125916	0.0009291172027589999	0.5173678398129999	1.0	w	1059.06391001																										2015_Jun_23_1140	59.9610295852	LearningTask	1	15	
253	200.0	w	200.0																	2.0	0.0	2.0	0.0	7.0	0.0	28.0	0.0																													w	1.0	None	0.0		2.0	invertedtriangleyellow.gif	go								0.534162044525																								0.0	0.5141501426699999	0.0008859634399410001	0.534162044525	1.0	w	1062.06706095																										2015_Jun_23_1140	59.9610295852	LearningTask	1	15	
254	200.0	s	-200.0																	2.0	0.0	2.0	0.0	7.0	1.0	29.0	2.0																													s	1.0	None	0.0		1.0	squaregray.gif	go								0.451506137848																								1.01	0.514145851135	0.000900983810425	0.451506137848	1.0	s	1065.07153106																										2015_Jun_23_1140	59.9610295852	LearningTask	1	15	
255	200.0	w	200.0																	2.0	0.0	2.0	0.0	7.0	2.0	30.0	0.0																													w	1.0	None	0.0		4.0	crossblue.gif	stop								0.38425302505500003																								0.0	0.512853145599	0.0009241104125980002	0.38425302505500003	1.0	w	1068.07395005																										2015_Jun_23_1140	59.9610295852	LearningTask	1	15	
256	200.0	s	-200.0																	2.0	0.0	2.0	0.0	7.0	3.0	31.0	2.0																													s	1.0	None	0.0		2.0	invertedtriangleyellow.gif	go								0.451134204865																								1.9	0.514181852341	0.000890016555786	0.451134204865	1.0	s	1071.0771699																										2015_Jun_23_1140	59.9610295852	LearningTask	1	15	
257	-200.0	q	200.0																	2.0	0.0	2.0	0.0	8.0	0.0	32.0	1.0																													q	1.0	None	0.0		2.0	circlewhite.gif	stop								0.46728301048299997																								2.25	0.514490842819	0.000953912734985	0.46728301048299997	1.0	q	1074.0810349																										2015_Jun_23_1140	59.9610295852	LearningTask	1	15	
258	200.0	w	200.0																	2.0	0.0	2.0	0.0	8.0	1.0	33.0	0.0																													w	1.0	None	0.0		0.5	hexagongreen.gif	go								0.400996923447																								0.7	0.5137360095979999	0.0008919239044189998	0.400996923447	1.0	w	1077.0839479																										2015_Jun_23_1140	59.9610295852	LearningTask	1	15	
259	200.0	w	200.0																	2.0	0.0	2.0	0.0	8.0	2.0	34.0	0.0																													w	1.0	None	0.0		4.0	crossblue.gif	stop								0.5676960945130001																								4.08	0.514365911484	0.000898838043213	0.5676960945130001	1.0	w	1080.08764005																										2015_Jun_23_1140	59.9610295852	LearningTask	1	15	
260	200.0	s	-200.0																	2.0	0.0	2.0	0.0	8.0	3.0	35.0	2.0																													s	1.0	None	0.0		0.5	hexagongreen.gif	go								0.46709012985200005																								0.32	0.514210939407	0.0008859634399410001	0.46709012985200005	1.0	s	1083.09136796																										2015_Jun_23_1140	59.9610295852	LearningTask	1	15	
261	200.0	w	200.0																	2.0	0.0	2.0	0.0	9.0	0.0	36.0	0.0																													w	1.0	None	0.0		1.0	squaregray.gif	go								0.4346139431																								0.0	0.5135941505430001	0.0008821487426760002	0.4346139431	1.0	w	1086.09423995																										2015_Jun_23_1140	59.9610295852	LearningTask	1	15	
262	200.0	s	-200.0																	2.0	0.0	2.0	0.0	9.0	1.0	37.0	2.0																													s	1.0	None	0.0		1.0	squaregray.gif	go								0.48412513732900003																								1.24	0.514039039612	0.0010960102081300001	0.48412513732900003	1.0	s	1089.09765005																										2015_Jun_23_1140	59.9610295852	LearningTask	1	15	
263	-200.0	a	-200.0																	2.0	0.0	2.0	0.0	9.0	2.0	38.0	3.0																													a	1.0	None	0.0		4.0	diamondmagenta.gif	go								0.651479959488																								0.0	0.513977050781	0.000890016555786	0.651479959488	1.0	a	1092.10124397																										2015_Jun_23_1140	59.9610295852	LearningTask	1	15	
264	-200.0	a	-200.0																	2.0	0.0	2.0	0.0	9.0	3.0	39.0	3.0																													a	1.0	None	0.0		2.0	invertedtriangleyellow.gif	go								0.550859928131																								0.0	0.514014005661	0.000892877578735	0.550859928131	1.0	a	1095.10441995																										2015_Jun_23_1140	59.9610295852	LearningTask	1	15	
265	-200.0	q	200.0																	2.0	0.0	2.0	0.0	10.0	0.0	40.0	1.0																													q	1.0	None	0.0		4.0	crossblue.gif	stop								0.55144906044																								3.84	0.513618946075	0.00133490562439	0.55144906044	1.0	q	1098.10775089																										2015_Jun_23_1140	59.9610295852	LearningTask	1	15	
266	200.0	s	-200.0																	2.0	0.0	2.0	0.0	10.0	1.0	41.0	2.0																													s	1.0	None	0.0		4.0	diamondmagenta.gif	go								0.45081090927100004																								4.17	0.5142171382899999	0.0009200572967529999	0.45081090927100004	1.0	s	1101.11107087																										2015_Jun_23_1140	59.9610295852	LearningTask	1	15	
267	-200.0	a	-200.0																	2.0	0.0	2.0	0.0	10.0	2.0	42.0	3.0																													a	1.0	None	0.0		2.0	invertedtriangleyellow.gif	go								0.417650938034																								2.04	0.5141499042509999	0.0009257793426510001	0.417650938034	1.0	a	1104.11447692																										2015_Jun_23_1140	59.9610295852	LearningTask	1	15	
268	200.0	s	-200.0																	2.0	0.0	2.0	0.0	10.0	3.0	43.0	2.0																													s	1.0	None	0.0		0.5	linecyan.gif	stop								0.417554855347																								0.0	0.5137431621549999	0.000912189483643	0.417554855347	1.0	s	1107.11783385																										2015_Jun_23_1140	59.9610295852	LearningTask	1	15	
269	200.0	s	-200.0																	2.0	0.0	2.0	0.0	11.0	0.0	44.0	2.0																													s	1.0	None	0.0		0.5	linecyan.gif	stop								0.40087294578599997																								0.37	0.514173984528	0.00092601776123	0.40087294578599997	1.0	s	1110.12119007																										2015_Jun_23_1140	59.9610295852	LearningTask	1	15	
270	-200.0	q	200.0																	2.0	0.0	2.0	0.0	11.0	1.0	45.0	1.0																													q	1.0	None	0.0		1.0	triangleorange.gif	stop								0.48462486267099997																								0.78	0.5141398906710001	0.000946044921875	0.48462486267099997	1.0	q	1113.12516093																										2015_Jun_23_1140	59.9610295852	LearningTask	1	15	
271	-200.0	q	200.0																	2.0	0.0	2.0	0.0	11.0	2.0	46.0	1.0																													q	1.0	None	0.0		4.0	crossblue.gif	stop								0.534285783768																								3.91	0.513427019119	0.000938177108765	0.534285783768	1.0	q	1116.12804508																										2015_Jun_23_1140	59.9610295852	LearningTask	1	15	
272	-200.0	a	-200.0																	2.0	0.0	2.0	0.0	11.0	3.0	47.0	3.0																													a	1.0	None	0.0		0.5	hexagongreen.gif	go								0.601407051086																								0.37	0.5142121315	0.0008909702301030001	0.601407051086	1.0	a	1119.13121605																										2015_Jun_23_1140	59.9610295852	LearningTask	1	15	
273	200.0	w	200.0																	2.0	0.0	2.0	0.0	12.0	0.0	48.0	0.0																													w	1.0	None	0.0		1.0	squaregray.gif	go								0.501105070114																								0.84	0.5140888690950001	0.000918865203857	0.501105070114	1.0	w	1122.13483095																										2015_Jun_23_1140	59.9610295852	LearningTask	1	15	
274	-200.0	q	200.0																	2.0	0.0	2.0	0.0	12.0	1.0	49.0	1.0																													q	1.0	None	0.0		2.0	circlewhite.gif	stop								0.433974981308																								2.07	0.514228105545	0.0008981227874760001	0.433974981308	1.0	q	1125.13797998																										2015_Jun_23_1140	59.9610295852	LearningTask	1	15	
275	200.0	w	200.0																	2.0	0.0	2.0	0.0	12.0	2.0	50.0	0.0																													w	1.0	None	0.0		2.0	circlewhite.gif	stop								0.517968893051																								2.07	0.514137983322	0.000999927520752	0.517968893051	1.0	w	1128.14131904																										2015_Jun_23_1140	59.9610295852	LearningTask	1	15	
276	-200.0	q	200.0																	2.0	0.0	2.0	0.0	12.0	3.0	51.0	1.0																													q	1.0	None	0.0		0.5	hexagongreen.gif	go								0.467402935028																								0.0	0.514300107956	0.00088906288147	0.467402935028	1.0	q	1131.14472103																										2015_Jun_23_1140	59.9610295852	LearningTask	1	15	
277	-200.0	q	200.0																	2.0	0.0	2.0	0.0	13.0	0.0	52.0	1.0																													q	1.0	None	0.0		1.0	triangleorange.gif	stop								0.417646169662																								0.0	0.514415979385	0.0008859634399410001	0.417646169662	1.0	q	1134.14818406																										2015_Jun_23_1140	59.9610295852	LearningTask	1	15	
278	200.0	w	200.0																	2.0	0.0	2.0	0.0	13.0	1.0	53.0	0.0																													w	1.0	None	0.0		0.5	hexagongreen.gif	go								0.333852052689																								0.3	0.513782978058	0.000938892364502	0.333852052689	1.0	w	1137.15196204																										2015_Jun_23_1140	59.9610295852	LearningTask	1	15	
279	200.0	w	200.0																	2.0	0.0	2.0	0.0	13.0	2.0	54.0	0.0																													w	1.0	None	0.0		1.0	squaregray.gif	go								0.40089607238799996																								0.81	0.513864994049	0.000917196273804	0.40089607238799996	1.0	w	1140.1549890000001																										2015_Jun_23_1140	59.9610295852	LearningTask	1	15	
280	-200.0	a	-200.0																	2.0	0.0	2.0	0.0	13.0	3.0	55.0	3.0																													a	1.0	None	0.0		4.0	diamondmagenta.gif	go								0.45104002952600003																								4.0	0.5141630172730001	0.000892162322998	0.45104002952600003	1.0	a	1143.15830398																										2015_Jun_23_1140	59.9610295852	LearningTask	1	15	
281	200.0	w	200.0																	2.0	0.0	2.0	0.0	14.0	0.0	56.0	0.0																													w	1.0	None	0.0		2.0	circlewhite.gif	stop								0.467557907104																								1.87	0.514403104782	0.0008940696716310001	0.467557907104	1.0	w	1146.1619699																										2015_Jun_23_1140	59.9610295852	LearningTask	1	15	
282	200.0	w	200.0																	2.0	0.0	2.0	0.0	14.0	1.0	57.0	0.0																													w	1.0	None	0.0		4.0	crossblue.gif	stop								0.56831407547																								0.0	0.513710975647	0.000930070877075	0.56831407547	1.0	w	1149.16497803																										2015_Jun_23_1140	59.9610295852	LearningTask	1	15	
283	-200.0	q	200.0																	2.0	0.0	2.0	0.0	14.0	2.0	58.0	1.0																													q	1.0	None	0.0		2.0	circlewhite.gif	stop								0.484103918076																								2.09	0.514354944229	0.000898838043213	0.484103918076	1.0	q	1152.16926193																										2015_Jun_23_1140	59.9610295852	LearningTask	1	15	
284	-200.0	a	-200.0																	2.0	0.0	2.0	0.0	14.0	3.0	59.0	3.0																													a	1.0	None	0.0		0.5	linecyan.gif	stop								0.61786198616																								0.38	0.513203144073	0.00089693069458	0.61786198616	1.0	a	1155.17184496																										2015_Jun_23_1140	59.9610295852	LearningTask	1	15	
285	200.0	s	-200.0																	2.0	0.0	2.0	0.0	15.0	0.0	60.0	2.0																													s	1.0	None	0.0		0.5	hexagongreen.gif	go								0.517518997192																								0.43	0.514205932617	0.0008831024169919999	0.517518997192	1.0	s	1158.17526698																										2015_Jun_23_1140	59.9610295852	LearningTask	1	15	
286	200.0	s	-200.0																	2.0	0.0	2.0	0.0	15.0	1.0	61.0	2.0																													s	1.0	None	0.0		1.0	squaregray.gif	go								0.567544937134																								0.95	0.514144182205	0.000931024551392	0.567544937134	1.0	s	1161.17886901																										2015_Jun_23_1140	59.9610295852	LearningTask	1	15	
287	-200.0	a	-200.0																	2.0	0.0	2.0	0.0	15.0	2.0	62.0	3.0																													a	1.0	None	0.0		4.0	diamondmagenta.gif	go								0.468111038208																								3.81	0.5139122009279999	0.0008790493011469999	0.468111038208	1.0	a	1164.18192792																										2015_Jun_23_1140	59.9610295852	LearningTask	1	15	
288	200.0	s	-200.0																	2.0	0.0	2.0	0.0	15.0	3.0	63.0	2.0																													s	1.0	None	0.0		0.5	linecyan.gif	stop								0.384097099304																								0.65	0.514280080795	0.00101804733276	0.384097099304	1.0	s	1167.18520999																										2015_Jun_23_1140	59.9610295852	LearningTask	1	15	
289	-200.0	a	-200.0																	2.0	0.0	2.0	0.0	16.0	0.0	64.0	3.0																													a	1.0	None	0.0		4.0	diamondmagenta.gif	go								0.350315093994																								0.0	0.514466047287	0.0008859634399410001	0.350315093994	1.0	a	1170.18863797																										2015_Jun_23_1140	59.9610295852	LearningTask	1	15	
290	200.0	w	200.0																	2.0	0.0	2.0	0.0	16.0	1.0	65.0	0.0																													w	1.0	None	0.0		0.5	hexagongreen.gif	go								0.48443579673799997																								0.4	0.514221191406	0.000890016555786	0.48443579673799997	1.0	w	1173.19199395																										2015_Jun_23_1140	59.9610295852	LearningTask	1	15	
291	200.0	w	200.0																	2.0	0.0	2.0	0.0	16.0	2.0	66.0	0.0																													w	1.0	None	0.0		4.0	crossblue.gif	stop								0.584889888763																								4.09	0.51424407959	0.0011351108550999999	0.584889888763	1.0	w	1176.19574404																										2015_Jun_23_1140	59.9610295852	LearningTask	1	15	
292	200.0	s	-200.0																	2.0	0.0	2.0	0.0	16.0	3.0	67.0	2.0																													s	1.0	None	0.0		2.0	circlewhite.gif	stop								0.384281158447																								1.98	0.51394701004	0.00088906288147	0.384281158447	1.0	s	1179.19878507																										2015_Jun_23_1140	59.9610295852	LearningTask	1	15	
