	xPos	corrAns	yPos	corrGoResp	yPosGoStim	xPosGoStim	pracTrials.thisRepN	pracTrials.thisTrialN	pracTrials.thisN	pracTrials.thisIndex	ReDoLoopPrac.thisRepN	ReDoLoopPrac.thisTrialN	ReDoLoopPrac.thisN	ReDoLoopPrac.thisIndex	ReDoLoopPrac.thisTrial	pracStopTrials.thisRepN	pracStopTrials.thisTrialN	pracStopTrials.thisN	pracStopTrials.thisIndex	Blocks.thisRepN	Blocks.thisTrialN	Blocks.thisN	Blocks.thisIndex	trials.thisRepN	trials.thisTrialN	trials.thisN	trials.thisIndex	ReDoLoopMain.thisRepN	ReDoLoopMain.thisTrialN	ReDoLoopMain.thisN	ReDoLoopMain.thisIndex	ReDoLoopMain.thisTrial	StopBlocks.thisRepN	StopBlocks.thisTrialN	StopBlocks.thisN	StopBlocks.thisIndex	StopTrials.thisRepN	StopTrials.thisTrialN	StopTrials.thisN	StopTrials.thisIndex	auctionBlocks.thisRepN	auctionBlocks.thisTrialN	auctionBlocks.thisN	auctionBlocks.thisIndex	auctionTrials.thisRepN	auctionTrials.thisTrialN	auctionTrials.thisN	auctionTrials.thisIndex	learningTrialList	learningPracTrialList	stopTrialList	stopPracTrialList	auctionTrialList	ok1.keys	ok1.rt	resp.keys	resp.corr	resp.rt	feedbackResp.keys	feedbackResp.corr	currentReward	currentStimulus	currentStimType	firstPracComputedRewardOutput	firstPracLearningStimOnset	firstPracLearningFixOnset	firstPracPresentationRT	firstPracPresentationAcc	firstPracPresentationResp	firstPracEndTrialTimeStamp	StartTrialTimeStamp	trialType	goStim	stimType	stopStimValue	goResp.keys	goResp.corr	goResp.rt	key_resp_9.keys	key_resp_9.corr	fixStopOnset	goStimOnset	stopSignalOnset	EndTrialTimeStamp	key_resp_3.keys	key_resp_3.rt	firstComputedRewardOutput	firstLearningStimOnset	firstLearningFixOnset	firstPresentationRT	firstPresentationAcc	firstPresentationResp	firstEndTrialTimeStamp	secondComputedRewardOutput	secondLearningStimOnset	secondLearningFixOnset	secondPresentationRT	secondPresentationAcc	secondPresentationResp	secondEndTrialTimeStamp	key_resp_7.keys	key_resp_7.rt	feedbackResp.rt	beginningSSD	EndingSSD	key_resp_4.keys	key_resp_4.rt	auctionResponse.keys	auctionResponse.rt	auctionStimDuration	auctionStim	auctionAmounts	auctionStimValue	auctionCondition	chosenAuctionAmount	key_resp_5.keys	key_resp_5.rt	shuffledRewardList	chosenReward1	chosenReward2	chosenReward3	chosenReward4	chosenReward5	key_resp_6.keys	key_resp_6.rt	date	frameRate	expName	session	participant	Unnamed: 130
0																																																	[]	[]	[]	[]	[]	9.0	57.637616872799995																																																																							2015_Jun_30_1020	60.1203753739	LearningTask	1	68	
1	-200.0	q	200.0				0.0	0.0	0.0	5.0																																														q	1.0	0.867943048477	None	0.0	0.5	squaregreen.gif	go	0.6	0.512494087219	0.074520111084	0.867943048477	1.0	q	123.828341007																																																								2015_Jun_30_1020	60.1203753739	LearningTask	1	68	
2	200.0	w	200.0				0.0	1.0	1.0	4.0																																														w	1.0	0.5348789691929999	None	0.0	2.0	diamondblue.gif	stop	1.84	0.514429092407	0.0162601470947	0.5348789691929999	1.0	w	126.831009865																																																								2015_Jun_30_1020	60.1203753739	LearningTask	1	68	
3	200.0	s	-200.0				0.0	2.0	2.0	6.0																																														s	1.0	0.384464979172	None	0.0	0.5	circleyellow.gif	stop	0.0	0.5151450634	0.0265960693359	0.384464979172	1.0	s	129.83433795																																																								2015_Jun_30_1020	60.1203753739	LearningTask	1	68	
4	-200.0	q	200.0				0.0	3.0	3.0	1.0																																														q	1.0	0.45136690139799995	None	0.0	4.0	lineorange.gif	go	4.07	0.514820098877	0.0173709392548	0.45136690139799995	1.0	q	132.837824821																																																								2015_Jun_30_1020	60.1203753739	LearningTask	1	68	
5	200.0	s	-200.0				0.0	4.0	4.0	2.0																																														s	1.0	0.384119987488	None	0.0	2.0	hexagongray.gif	go	0.0	0.514667987823	0.0222418308258	0.384119987488	1.0	s	135.84125185																																																								2015_Jun_30_1020	60.1203753739	LearningTask	1	68	
6	200.0	w	200.0				0.0	5.0	5.0	0.0																																														w	1.0	0.467750072479	None	0.0	2.0	hexagongray.gif	go	2.07	0.515054225922	0.0009431838989260002	0.467750072479	1.0	w	138.844790936																																																								2015_Jun_30_1020	60.1203753739	LearningTask	1	68	
7	-200.0	a	-200.0				0.0	6.0	6.0	7.0																																														a	1.0	0.434187173843	None	0.0	0.5	circleyellow.gif	stop	0.68	0.514366149902	0.00096607208252	0.434187173843	1.0	a	141.84800791700002																																																								2015_Jun_30_1020	60.1203753739	LearningTask	1	68	
8	-200.0	a	-200.0				0.0	7.0	7.0	3.0																																														a	1.0	0.43429207801799996	None	0.0	1.0	crosswhite.gif	stop	0.0	0.5149040222169999	0.0329260826111	0.43429207801799996	1.0	a	144.851160049																																																								2015_Jun_30_1020	60.1203753739	LearningTask	1	68	
9	-200.0	q	200.0				0.0	8.0	8.0	9.0																																														q	1.0	0.400979995728	None	0.0	1.0	crosswhite.gif	stop	0.82	0.515035152435	0.0009710788726810001	0.400979995728	1.0	q	147.85493183100002																																																								2015_Jun_30_1020	60.1203753739	LearningTask	1	68	
10	200.0	w	200.0				0.0	9.0	9.0	8.0																																														w	1.0	0.417816162109	None	0.0	4.0	trianglemagenta.gif	stop	0.0	0.51452589035	0.016438007354700003	0.417816162109	1.0	w	150.85839390799998																																																								2015_Jun_30_1020	60.1203753739	LearningTask	1	68	
11				m	0.0	200.0										0.0	0.0	0.0	1.0																																																				203.610306025	stop	circleyellow.gif	stop	0.5	m	1.0	0.46754789352399995	None	0.0	0.00137186050415	0.505244970322	0.755767822266	206.603385925																																										2015_Jun_30_1020	60.1203753739	LearningTask	1	68	
12				m	0.0	200.0										0.0	1.0	1.0	1.0																																																				206.603824854	stop	crosswhite.gif	stop	1.0	None	0.0		None	0.0	0.000995874404907	0.515321969986	0.7660698890690001	209.60666990299998																																										2015_Jun_30_1020	60.1203753739	LearningTask	1	68	
13				m	0.0	200.0										1.0	0.0	2.0	1.0																																																				209.60714888599998	stop	crosswhite.gif	stop	1.0	m	1.0	0.400761842728	None	0.0	0.00110101699829	0.5154139995570001	0.7657680511470001	212.609822989																																										2015_Jun_30_1020	60.1203753739	LearningTask	1	68	
14				z	0.0	-200.0										1.0	1.0	3.0	0.0																																																				212.61025404900002	stop	diamondblue.gif	stop	2.0	None	0.0		None	0.0	0.008494138717649998	0.515737056732	0.7660219669339999	215.613363981																																										2015_Jun_30_1020	60.1203753739	LearningTask	1	68	
15				z	0.0	-200.0										2.0	0.0	4.0	0.0																																																				215.61372184799998	stop	circleyellow.gif	stop	0.5	None	0.0		None	0.0	0.00108194351196	0.515846014023	0.7659449577330001	218.616927862																																										2015_Jun_30_1020	60.1203753739	LearningTask	1	68	
16				z	0.0	-200.0										2.0	1.0	5.0	0.0																																																				218.617328882	go	invertedtrianglecyan.gif	go	1.0	z	1.0	0.650712966919	None	0.0	0.013700008392299998	0.51571893692		221.619882822																																										2015_Jun_30_1020	60.1203753739	LearningTask	1	68	
17				m	0.0	200.0										3.0	0.0	6.0	1.0																																																				221.620306015	stop	diamondblue.gif	stop	2.0	None	0.0		None	0.0	0.000984907150269	0.5157408714289999	0.766054868698	224.623354912																																										2015_Jun_30_1020	60.1203753739	LearningTask	1	68	
18				m	0.0	200.0										3.0	1.0	7.0	1.0																																																				224.623759031	go	hexagongray.gif	go	2.0	m	1.0	0.851380825043	None	0.0	0.00732278823853	0.515549898148		227.62662982900002																																										2015_Jun_30_1020	60.1203753739	LearningTask	1	68	
19				z	0.0	-200.0										4.0	0.0	8.0	0.0																																																				227.62699604	go	squaregreen.gif	go	0.5	z	1.0	0.5840909481050001	None	0.0	0.0162332057953	0.515277147293		230.629993916																																										2015_Jun_30_1020	60.1203753739	LearningTask	1	68	
20				z	0.0	-200.0										4.0	1.0	9.0	0.0																																																				230.630420923	go	lineorange.gif	go	4.0	z	1.0	0.8177468776700001	None	0.0	0.0053668022155799995	0.5157239437100001		233.63337183																																										2015_Jun_30_1020	60.1203753739	LearningTask	1	68	
21																																																																																					9.0	86.7884578705																																								2015_Jun_30_1020	60.1203753739	LearningTask	1	68	
22																																																						9.0	5.58958792686																																																																							2015_Jun_30_1020	60.1203753739	LearningTask	1	68	
23	-200.0	q	200.0																	0.0	0.0	0.0	0.0	0.0	0.0	0.0	1.0																													q	1.0	0.584422111511	None	0.0	2.0	hexagongray.gif	go																								0.0	0.500355005264	0.0122900009155	0.584422111511	1.0	q	329.275393963																																	2015_Jun_30_1020	60.1203753739	LearningTask	1	68	
24	-200.0	q	200.0																	0.0	0.0	0.0	0.0	0.0	1.0	1.0	1.0																													q	1.0	0.351155996323	None	0.0	2.0	diamondblue.gif	stop																								2.13	0.513063907623	0.0382919311523	0.351155996323	1.0	q	332.278166056																																	2015_Jun_30_1020	60.1203753739	LearningTask	1	68	
25	200.0	s	-200.0																	0.0	0.0	0.0	0.0	0.0	2.0	2.0	2.0																													s	1.0	0.35085988044699995	None	0.0	2.0	diamondblue.gif	stop																								2.09	0.513671159744	0.0009570121765139998	0.350859880447	1.0	s	335.281386852																																	2015_Jun_30_1020	60.1203753739	LearningTask	1	68	
26	200.0	w	200.0																	0.0	0.0	0.0	0.0	0.0	3.0	3.0	0.0																													w	1.0	0.317800998688	None	0.0	2.0	diamondblue.gif	stop																								2.18	0.513928890228	0.000943899154663	0.317800998688	1.0	w	338.284370899																																	2015_Jun_30_1020	60.1203753739	LearningTask	1	68	
27	200.0	s	-200.0																	0.0	0.0	0.0	0.0	1.0	0.0	4.0	2.0																													s	1.0	0.317779779434	None	0.0	2.0	hexagongray.gif	go																								2.14	0.514506816864	0.0009329319000239999	0.317779779434	1.0	s	341.287868977																																	2015_Jun_30_1020	60.1203753739	LearningTask	1	68	
28	-200.0	a	-200.0																	0.0	0.0	0.0	0.0	1.0	1.0	5.0	3.0																													a	1.0	0.33368611335799997	None	0.0	0.5	squaregreen.gif	go																								0.0	0.514099836349	0.0170538425446	0.333686113358	1.0	a	344.291786909																																	2015_Jun_30_1020	60.1203753739	LearningTask	1	68	
29	200.0	w	200.0																	0.0	0.0	0.0	0.0	1.0	2.0	6.0	0.0																													w	1.0	0.300715923309	None	0.0	0.5	squaregreen.gif	go																								0.0	0.513813972473	0.00122594833374	0.300715923309	1.0	w	347.294672966																																	2015_Jun_30_1020	60.1203753739	LearningTask	1	68	
30	-200.0	q	200.0																	0.0	0.0	0.0	0.0	1.0	3.0	7.0	1.0																													q	1.0	0.367498874664	None	0.0	4.0	lineorange.gif	go																								3.97	0.514351129532	0.0138170719147	0.367498874664	1.0	q	350.29797887800004																																	2015_Jun_30_1020	60.1203753739	LearningTask	1	68	
31	-200.0	a	-200.0																	0.0	0.0	0.0	0.0	2.0	0.0	8.0	3.0																													a	1.0	0.368042945862	None	0.0	0.5	squaregreen.gif	go																								0.66	0.513608932495	0.0009279251098630001	0.368042945862	1.0	a	353.30138683300004																																	2015_Jun_30_1020	60.1203753739	LearningTask	1	68	
32	-200.0	a	-200.0																	0.0	0.0	0.0	0.0	2.0	1.0	9.0	3.0																													a	1.0	0.33446788787799997	None	0.0	1.0	crosswhite.gif	stop																								1.18	0.513887166977	0.013665199279799999	0.334467887878	1.0	a	356.30448389099996																																	2015_Jun_30_1020	60.1203753739	LearningTask	1	68	
33	200.0	s	-200.0																	0.0	0.0	0.0	0.0	2.0	2.0	10.0	2.0																													s	1.0	0.33436393737799996	None	0.0	0.5	squaregreen.gif	go																								0.0	0.514232158661	0.0009331703186039999	0.334363937378	1.0	s	359.308197021																																	2015_Jun_30_1020	60.1203753739	LearningTask	1	68	
34	200.0	w	200.0																	0.0	0.0	0.0	0.0	2.0	3.0	11.0	0.0																													w	1.0	0.300929069519	None	0.0	1.0	invertedtrianglecyan.gif	go																								0.97	0.514071941376	0.00784707069397	0.300929069519	1.0	w	362.311466932																																	2015_Jun_30_1020	60.1203753739	LearningTask	1	68	
35	-200.0	a	-200.0																	0.0	0.0	0.0	0.0	3.0	0.0	12.0	3.0																													a	1.0	0.33432793617199996	None	0.0	4.0	lineorange.gif	go																								4.18	0.5139658451079999	0.000976800918579	0.334327936172	1.0	a	365.315080881																																	2015_Jun_30_1020	60.1203753739	LearningTask	1	68	
36	-200.0	a	-200.0																	0.0	0.0	0.0	0.0	3.0	1.0	13.0	3.0																													a	1.0	0.350435018539	None	0.0	4.0	lineorange.gif	go																								4.11	0.5141031742100001	0.0009191036224369998	0.350435018539	1.0	a	368.318307877																																	2015_Jun_30_1020	60.1203753739	LearningTask	1	68	
37	200.0	s	-200.0																	0.0	0.0	0.0	0.0	3.0	2.0	14.0	2.0																													s	1.0	0.334339141846	None	0.0	1.0	invertedtrianglecyan.gif	go																								0.91	0.514093875885	0.000902891159058	0.334339141846	1.0	s	371.321322918																																	2015_Jun_30_1020	60.1203753739	LearningTask	1	68	
38	200.0	w	200.0																	0.0	0.0	0.0	0.0	3.0	3.0	15.0	0.0																													w	1.0	0.334650039673	None	0.0	2.0	diamondblue.gif	stop																								1.92	0.514242887497	0.0283570289612	0.334650039673	1.0	w	374.32502389																																	2015_Jun_30_1020	60.1203753739	LearningTask	1	68	
39	200.0	w	200.0																	0.0	0.0	0.0	0.0	4.0	0.0	16.0	0.0																													w	1.0	0.384413957596	None	0.0	0.5	circleyellow.gif	stop																								0.65	0.514147043228	0.157835006714	0.384413957596	1.0	w	377.32830405199996																																	2015_Jun_30_1020	60.1203753739	LearningTask	1	68	
40	-200.0	a	-200.0																	0.0	0.0	0.0	0.0	4.0	1.0	17.0	3.0																													a	1.0	0.317669868469	None	0.0	4.0	trianglemagenta.gif	stop																								3.89	0.5138251781459999	0.0228159427643	0.317669868469	1.0	a	380.331532955																																	2015_Jun_30_1020	60.1203753739	LearningTask	1	68	
41	-200.0	a	-200.0																	0.0	0.0	0.0	0.0	4.0	2.0	18.0	3.0																													a	1.0	0.317327976227	None	0.0	0.5	squaregreen.gif	go																								0.74	0.514036893845	0.009010791778559998	0.317327976227	1.0	a	383.334734917																																	2015_Jun_30_1020	60.1203753739	LearningTask	1	68	
42	-200.0	a	-200.0																	0.0	0.0	0.0	0.0	4.0	3.0	19.0	3.0																													a	1.0	0.35074090957599996	None	0.0	2.0	hexagongray.gif	go																								0.0	0.514476060867	0.0158700942993	0.350740909576	1.0	a	386.338664055																																	2015_Jun_30_1020	60.1203753739	LearningTask	1	68	
43	-200.0	a	-200.0																	0.0	0.0	0.0	0.0	5.0	0.0	20.0	3.0																													a	1.0	0.317780971527	None	0.0	0.5	squaregreen.gif	go																								0.41	0.513999938965	0.0009100437164310001	0.317780971527	1.0	a	389.34151291800003																																	2015_Jun_30_1020	60.1203753739	LearningTask	1	68	
44	200.0	s	-200.0																	0.0	0.0	0.0	0.0	5.0	1.0	21.0	2.0																													s	1.0	0.350696086884	None	0.0	4.0	lineorange.gif	go																								3.81	0.514378070831	0.000949144363403	0.350696086884	1.0	s	392.34517884300004																																	2015_Jun_30_1020	60.1203753739	LearningTask	1	68	
45	200.0	s	-200.0																	0.0	0.0	0.0	0.0	5.0	2.0	22.0	2.0																													s	1.0	0.350826025009	None	0.0	2.0	diamondblue.gif	stop																								2.12	0.514225006104	0.000900983810425	0.350826025009	1.0	s	395.348208904																																	2015_Jun_30_1020	60.1203753739	LearningTask	1	68	
46	200.0	s	-200.0																	0.0	0.0	0.0	0.0	5.0	3.0	23.0	2.0																													s	1.0	0.317635059357	None	0.0	2.0	diamondblue.gif	stop																								0.0	0.5143899917600001	0.00095796585083	0.317635059357	1.0	s	398.35181284																																	2015_Jun_30_1020	60.1203753739	LearningTask	1	68	
47	200.0	s	-200.0																	0.0	0.0	0.0	0.0	6.0	0.0	24.0	2.0																													s	1.0	0.350914001465	None	0.0	0.5	squaregreen.gif	go																								0.37	0.5138020515439999	0.000968933105469	0.350914001465	1.0	s	401.354826927																																	2015_Jun_30_1020	60.1203753739	LearningTask	1	68	
48	-200.0	a	-200.0																	0.0	0.0	0.0	0.0	6.0	1.0	25.0	3.0																													a	1.0	0.36737394332900003	None	0.0	4.0	lineorange.gif	go																								3.85	0.514596939087	0.0008897781372069999	0.367373943329	1.0	a	404.358541965																																	2015_Jun_30_1020	60.1203753739	LearningTask	1	68	
49	200.0	w	200.0																	0.0	0.0	0.0	0.0	6.0	2.0	26.0	0.0																													w	1.0	0.384308099747	None	0.0	0.5	circleyellow.gif	stop																								0.32	0.513906955719	0.0009109973907470001	0.384308099747	1.0	w	407.36187505699996																																	2015_Jun_30_1020	60.1203753739	LearningTask	1	68	
50	200.0	w	200.0																	0.0	0.0	0.0	0.0	6.0	3.0	27.0	0.0																													w	1.0	0.400953054428	None	0.0	4.0	trianglemagenta.gif	stop																								4.02	0.514151096344	0.0009360313415529999	0.400953054428	1.0	w	410.365159988																																	2015_Jun_30_1020	60.1203753739	LearningTask	1	68	
51	-200.0	q	200.0																	0.0	0.0	0.0	0.0	7.0	0.0	28.0	1.0																													q	1.0	0.434141159058	None	0.0	1.0	invertedtrianglecyan.gif	go																								1.18	0.514219045639	0.00948309898376	0.434141159058	1.0	q	413.368342876																																	2015_Jun_30_1020	60.1203753739	LearningTask	1	68	
52	200.0	s	-200.0																	0.0	0.0	0.0	0.0	7.0	1.0	29.0	2.0																													s	1.0	0.36740016937299996	None	0.0	1.0	invertedtrianglecyan.gif	go																								0.92	0.514345884323	0.0010049343109099999	0.367400169373	1.0	s	416.371964931																																	2015_Jun_30_1020	60.1203753739	LearningTask	1	68	
53	200.0	w	200.0																	0.0	0.0	0.0	0.0	7.0	2.0	30.0	0.0																													w	1.0	0.334633827209	None	0.0	1.0	crosswhite.gif	stop																								0.8	0.514097213745	0.0138170719147	0.334633827209	1.0	w	419.375099897																																	2015_Jun_30_1020	60.1203753739	LearningTask	1	68	
54	200.0	w	200.0																	0.0	0.0	0.0	0.0	7.0	3.0	31.0	0.0																													w	1.0	0.41741490364100003	None	0.0	0.5	squaregreen.gif	go																								0.27	0.514404058456	0.0124640464783	0.417414903641	1.0	w	422.37846803699995																																	2015_Jun_30_1020	60.1203753739	LearningTask	1	68	
55	200.0	s	-200.0																	0.0	0.0	0.0	0.0	8.0	0.0	32.0	2.0																													s	1.0	0.351075172424	None	0.0	4.0	lineorange.gif	go																								4.1	0.514387130737	0.0123629570007	0.351075172424	1.0	s	425.38201093699996																																	2015_Jun_30_1020	60.1203753739	LearningTask	1	68	
56	200.0	s	-200.0																	0.0	0.0	0.0	0.0	8.0	1.0	33.0	2.0																													s	1.0	0.367596149445	None	0.0	1.0	crosswhite.gif	stop																								0.91	0.514147996902	0.00094199180603	0.367596149445	1.0	s	428.385189056																																	2015_Jun_30_1020	60.1203753739	LearningTask	1	68	
57	-200.0	q	200.0																	0.0	0.0	0.0	0.0	8.0	2.0	34.0	1.0																													q	1.0	0.400583982468	None	0.0	2.0	hexagongray.gif	go																								2.22	0.514497041702	0.0460529327393	0.400583982468	1.0	q	431.38882494																																	2015_Jun_30_1020	60.1203753739	LearningTask	1	68	
58	-200.0	a	-200.0																	0.0	0.0	0.0	0.0	8.0	3.0	35.0	3.0																													a	1.0	0.36760997772200005	None	0.0	2.0	diamondblue.gif	stop																								1.85	0.51388502121	0.0406730175018	0.367609977722	1.0	a	434.392024994																																	2015_Jun_30_1020	60.1203753739	LearningTask	1	68	
59	200.0	w	200.0																	0.0	0.0	0.0	0.0	9.0	0.0	36.0	0.0																													w	1.0	0.400791883469	None	0.0	2.0	hexagongray.gif	go																								0.0	0.514014959335	0.000977039337158	0.400791883469	1.0	w	437.395226955																																	2015_Jun_30_1020	60.1203753739	LearningTask	1	68	
60	200.0	s	-200.0																	0.0	0.0	0.0	0.0	9.0	1.0	37.0	2.0																													s	1.0	0.35096001625100004	None	0.0	1.0	crosswhite.gif	stop																								1.14	0.514034986496	0.0009520053863530001	0.350960016251	1.0	s	440.398599863																																	2015_Jun_30_1020	60.1203753739	LearningTask	1	68	
61	200.0	w	200.0																	0.0	0.0	0.0	0.0	9.0	2.0	38.0	0.0																													w	1.0	0.333646059036	None	0.0	2.0	hexagongray.gif	go																								0.0	0.514477968216	0.00104093551636	0.333646059036	1.0	w	443.40214586300004																																	2015_Jun_30_1020	60.1203753739	LearningTask	1	68	
62	200.0	w	200.0																	0.0	0.0	0.0	0.0	9.0	3.0	39.0	0.0																													w	1.0	0.350480794907	None	0.0	4.0	lineorange.gif	go																								0.0	0.514383077621	0.0009670257568360001	0.350480794907	1.0	w	446.405407906																																	2015_Jun_30_1020	60.1203753739	LearningTask	1	68	
63	200.0	w	200.0																	0.0	0.0	0.0	0.0	10.0	0.0	40.0	0.0																													w	1.0	0.350533008575	None	0.0	0.5	squaregreen.gif	go																								0.4	0.51404094696	0.00100803375244	0.350533008575	1.0	w	449.408627033																																	2015_Jun_30_1020	60.1203753739	LearningTask	1	68	
64	-200.0	a	-200.0																	0.0	0.0	0.0	0.0	10.0	1.0	41.0	3.0																													a	1.0	0.367319107056	None	0.0	4.0	lineorange.gif	go																								0.0	0.514625072479	0.000900983810425	0.367319107056	1.0	a	452.41194796599996																																	2015_Jun_30_1020	60.1203753739	LearningTask	1	68	
65	200.0	w	200.0																	0.0	0.0	0.0	0.0	10.0	2.0	42.0	0.0																													w	1.0	0.351402997971	None	0.0	4.0	lineorange.gif	go																								4.16	0.514137983322	0.000926971435547	0.351402997971	1.0	w	455.415680885																																	2015_Jun_30_1020	60.1203753739	LearningTask	1	68	
66	200.0	s	-200.0																	0.0	0.0	0.0	0.0	10.0	3.0	43.0	2.0																													s	1.0	0.367269039154	None	0.0	1.0	crosswhite.gif	stop																								0.75	0.513803005219	0.00102996826172	0.367269039154	1.0	s	458.41890382800005																																	2015_Jun_30_1020	60.1203753739	LearningTask	1	68	
67	-200.0	q	200.0																	0.0	0.0	0.0	0.0	11.0	0.0	44.0	1.0																													q	1.0	0.36755418777500004	None	0.0	2.0	diamondblue.gif	stop																								1.78	0.514183998108	0.0360651016235	0.367554187775	1.0	q	461.422425032																																	2015_Jun_30_1020	60.1203753739	LearningTask	1	68	
68	-200.0	q	200.0																	0.0	0.0	0.0	0.0	11.0	1.0	45.0	1.0																													q	1.0	0.367400884628	None	0.0	1.0	crosswhite.gif	stop																								0.78	0.513979196548	0.0009291172027589999	0.367400884628	1.0	q	464.426226854																																	2015_Jun_30_1020	60.1203753739	LearningTask	1	68	
69	-200.0	q	200.0																	0.0	0.0	0.0	0.0	11.0	2.0	46.0	1.0																													q	1.0	0.351146936417	None	0.0	1.0	invertedtrianglecyan.gif	go																								1.01	0.5135409832	0.0294787883759	0.351146936417	1.0	q	467.42897892																																	2015_Jun_30_1020	60.1203753739	LearningTask	1	68	
70	200.0	s	-200.0																	0.0	0.0	0.0	0.0	11.0	3.0	47.0	2.0																													s	1.0	0.367304086685	None	0.0	4.0	trianglemagenta.gif	stop																								3.8	0.514092922211	0.0052809715271000006	0.367304086685	1.0	s	470.43269705800003																																	2015_Jun_30_1020	60.1203753739	LearningTask	1	68	
71	-200.0	q	200.0																	0.0	0.0	0.0	0.0	12.0	0.0	48.0	1.0																													q	1.0	0.35106086730999997	None	0.0	4.0	trianglemagenta.gif	stop																								0.0	0.5133869647980001	0.0010588169097899998	0.35106086731	1.0	q	473.435680866																																	2015_Jun_30_1020	60.1203753739	LearningTask	1	68	
72	-200.0	a	-200.0																	0.0	0.0	0.0	0.0	12.0	1.0	49.0	3.0																													a	1.0	0.384269952774	None	0.0	1.0	crosswhite.gif	stop																								0.0	0.5144739151	0.0008990764617919999	0.350844860077	0.0	q	476.439015865	0.77	0.515602111816	0.00103998184204	0.384269952774	1.0	a	479.442767859																										2015_Jun_30_1020	60.1203753739	LearningTask	1	68	
73	-200.0	q	200.0																	0.0	0.0	0.0	0.0	12.0	2.0	50.0	1.0																													q	1.0	0.434541940689	None	0.0	0.5	squaregreen.gif	go																								0.0	0.513669967651	0.014927148819	0.434541940689	1.0	q	482.445724964																																	2015_Jun_30_1020	60.1203753739	LearningTask	1	68	
74	-200.0	a	-200.0																	0.0	0.0	0.0	0.0	12.0	3.0	51.0	3.0																													a	1.0	0.367777109146	None	0.0	1.0	invertedtrianglecyan.gif	go																								1.0	0.514189004898	0.0222239494324	0.367777109146	1.0	a	485.448936939																																	2015_Jun_30_1020	60.1203753739	LearningTask	1	68	
75	-200.0	a	-200.0																	0.0	0.0	0.0	0.0	13.0	0.0	52.0	3.0																													a	1.0	0.36730909347499996	None	0.0	2.0	hexagongray.gif	go																								0.0	0.514523029327	0.00767588615417	0.367309093475	1.0	a	488.452384949																																	2015_Jun_30_1020	60.1203753739	LearningTask	1	68	
76	-200.0	a	-200.0																	0.0	0.0	0.0	0.0	13.0	1.0	53.0	3.0																													a	1.0	0.36750316619900003	None	0.0	2.0	hexagongray.gif	go																								1.92	0.514235019684	0.0009140968322749999	0.367503166199	1.0	a	491.45577383																																	2015_Jun_30_1020	60.1203753739	LearningTask	1	68	
77	-200.0	a	-200.0																	0.0	0.0	0.0	0.0	13.0	2.0	54.0	3.0																													a	1.0	0.333985805511	None	0.0	0.5	squaregreen.gif	go																								0.68	0.514145851135	0.0009720325469970001	0.333985805511	1.0	a	494.45915603599997																																	2015_Jun_30_1020	60.1203753739	LearningTask	1	68	
78	200.0	w	200.0																	0.0	0.0	0.0	0.0	13.0	3.0	55.0	0.0																													w	1.0	0.400952100754	None	0.0	1.0	crosswhite.gif	stop																								0.0	0.513542175293	0.00861310958862	0.400952100754	1.0	w	497.462352991																																	2015_Jun_30_1020	60.1203753739	LearningTask	1	68	
79	-200.0	q	200.0																	0.0	0.0	0.0	0.0	14.0	0.0	56.0	1.0																													q	1.0	0.384150981903	None	0.0	0.5	circleyellow.gif	stop																								0.68	0.514410018921	0.136682033539	0.384150981903	1.0	q	500.466281891																																	2015_Jun_30_1020	60.1203753739	LearningTask	1	68	
80	-200.0	q	200.0																	0.0	0.0	0.0	0.0	14.0	1.0	57.0	1.0																													q	1.0	0.38442611694300005	None	0.0	0.5	circleyellow.gif	stop																								0.44	0.513316869736	0.0009779930114750001	0.384426116943	1.0	q	503.46952700599996																																	2015_Jun_30_1020	60.1203753739	LearningTask	1	68	
81	-200.0	a	-200.0																	0.0	0.0	0.0	0.0	14.0	2.0	58.0	3.0																													a	1.0	0.384255886078	None	0.0	0.5	circleyellow.gif	stop																								0.5	0.513561964035	0.0009670257568360001	0.384255886078	1.0	a	506.472372055																																	2015_Jun_30_1020	60.1203753739	LearningTask	1	68	
82	-200.0	a	-200.0																	0.0	0.0	0.0	0.0	14.0	3.0	59.0	3.0																													a	1.0	0.451199054718	None	0.0	2.0	diamondblue.gif	stop																								0.0	0.5144588947300001	0.018735885620099996	0.451199054718	1.0	a	509.476006985																																	2015_Jun_30_1020	60.1203753739	LearningTask	1	68	
83	200.0	s	-200.0																	0.0	0.0	0.0	0.0	15.0	0.0	60.0	2.0																													s	1.0	0.417373895645	None	0.0	0.5	circleyellow.gif	stop																								0.0	0.514277935028	0.0009069442749019998	0.417373895645	1.0	s	512.479962826																																	2015_Jun_30_1020	60.1203753739	LearningTask	1	68	
84	-200.0	q	200.0																	0.0	0.0	0.0	0.0	15.0	1.0	61.0	1.0																													q	1.0	0.434209108353	None	0.0	4.0	trianglemagenta.gif	stop																								4.22	0.513258934021	0.012503862381	0.434209108353	1.0	q	515.48267293																																	2015_Jun_30_1020	60.1203753739	LearningTask	1	68	
85	-200.0	q	200.0																	0.0	0.0	0.0	0.0	15.0	2.0	62.0	1.0																													q	1.0	0.40139484405500003	None	0.0	0.5	squaregreen.gif	go																								0.33	0.514234781265	0.0216867923737	0.401394844055	1.0	q	518.486032009																																	2015_Jun_30_1020	60.1203753739	LearningTask	1	68	
86	200.0	w	200.0																	0.0	0.0	0.0	0.0	15.0	3.0	63.0	0.0																													w	1.0	0.417493104935	None	0.0	1.0	crosswhite.gif	stop																								0.0	0.514343976974	0.0168199539185	0.417493104935	1.0	w	521.489452839																																	2015_Jun_30_1020	60.1203753739	LearningTask	1	68	
87	200.0	s	-200.0																	0.0	0.0	0.0	0.0	16.0	0.0	64.0	2.0																													s	1.0	0.41756701469400004	None	0.0	1.0	invertedtrianglecyan.gif	go																								1.11	0.514179944992	0.0375809669495	0.417567014694	1.0	s	524.492667913																																	2015_Jun_30_1020	60.1203753739	LearningTask	1	68	
88	200.0	s	-200.0																	0.0	0.0	0.0	0.0	16.0	1.0	65.0	2.0																													s	1.0	0.40086388588	None	0.0	1.0	invertedtrianglecyan.gif	go																								1.04	0.514528036118	0.0011570453643800001	0.40086388588	1.0	s	527.496237993																																	2015_Jun_30_1020	60.1203753739	LearningTask	1	68	
89	200.0	s	-200.0																	0.0	0.0	0.0	0.0	16.0	2.0	66.0	2.0																													s	1.0	0.401292800903	None	0.0	0.5	squaregreen.gif	go																								0.55	0.513961076736	0.0009469985961910001	0.401292800903	1.0	s	530.499321938																																	2015_Jun_30_1020	60.1203753739	LearningTask	1	68	
90	-200.0	q	200.0																	0.0	0.0	0.0	0.0	16.0	3.0	67.0	1.0																													q	1.0	0.40078377723700004	None	0.0	4.0	lineorange.gif	go																								3.79	0.514326095581	0.008790969848629999	0.400783777237	1.0	q	533.502775908																																	2015_Jun_30_1020	60.1203753739	LearningTask	1	68	
91	-200.0	a	-200.0																	0.0	0.0	0.0	0.0	17.0	0.0	68.0	3.0																													a	1.0	0.40132904052699997	None	0.0	1.0	invertedtrianglecyan.gif	go																								1.1	0.513709068298	0.000941038131714	0.401329040527	1.0	a	536.506309032																																	2015_Jun_30_1020	60.1203753739	LearningTask	1	68	
92	200.0	w	200.0																	0.0	0.0	0.0	0.0	17.0	1.0	69.0	0.0																													w	1.0	0.434602975845	None	0.0	1.0	invertedtrianglecyan.gif	go																								0.89	0.514051914215	0.000992059707642	0.434602975845	1.0	w	539.509513855																																	2015_Jun_30_1020	60.1203753739	LearningTask	1	68	
93	200.0	s	-200.0																	0.0	0.0	0.0	0.0	17.0	2.0	70.0	2.0																													s	1.0	0.367588043213	None	0.0	2.0	diamondblue.gif	stop																								0.0	0.514261960983	0.0279860496521	0.367588043213	1.0	s	542.512588978																																	2015_Jun_30_1020	60.1203753739	LearningTask	1	68	
94	-200.0	q	200.0																	0.0	0.0	0.0	0.0	17.0	3.0	71.0	1.0																													q	1.0	0.40071105956999997	None	0.0	2.0	hexagongray.gif	go																								1.87	0.514389038086	0.0250668525696	0.40071105957	1.0	q	545.516235828																																	2015_Jun_30_1020	60.1203753739	LearningTask	1	68	
95	-200.0	q	200.0																	0.0	0.0	0.0	0.0	18.0	0.0	72.0	1.0																													q	1.0	0.40079402923600005	None	0.0	4.0	lineorange.gif	go																								0.0	0.514098882675	0.0009360313415529999	0.400794029236	1.0	q	548.519281864																																	2015_Jun_30_1020	60.1203753739	LearningTask	1	68	
96	-200.0	q	200.0																	0.0	0.0	0.0	0.0	18.0	1.0	73.0	1.0																													q	1.0	0.400892972946	None	0.0	1.0	crosswhite.gif	stop																								0.0	0.514409065247	0.018554925918599998	0.400892972946	1.0	q	551.523061991																																	2015_Jun_30_1020	60.1203753739	LearningTask	1	68	
97	200.0	w	200.0																	0.0	0.0	0.0	0.0	18.0	2.0	74.0	0.0																													w	1.0	0.417321920395	None	0.0	4.0	trianglemagenta.gif	stop																								4.22	0.514154911041	0.0164289474487	0.417321920395	1.0	w	554.526804924																																	2015_Jun_30_1020	60.1203753739	LearningTask	1	68	
98	200.0	w	200.0																	0.0	0.0	0.0	0.0	18.0	3.0	75.0	0.0																													w	1.0	0.417673110962	None	0.0	1.0	invertedtrianglecyan.gif	go																								1.22	0.513605833054	0.0009758472442630001	0.417673110962	1.0	w	557.529778004																																	2015_Jun_30_1020	60.1203753739	LearningTask	1	68	
99	-200.0	q	200.0																	0.0	0.0	0.0	0.0	19.0	0.0	76.0	1.0																													q	1.0	0.384528875351	None	0.0	0.5	circleyellow.gif	stop																								0.56	0.514161109924	0.008513927459720001	0.384528875351	1.0	q	560.533311844																																	2015_Jun_30_1020	60.1203753739	LearningTask	1	68	
100	-200.0	q	200.0																	0.0	0.0	0.0	0.0	19.0	1.0	77.0	1.0																													q	1.0	0.383970022202	None	0.0	1.0	crosswhite.gif	stop																								0.76	0.513830900192	0.0009148120880130001	0.383970022202	1.0	q	563.536155939																																	2015_Jun_30_1020	60.1203753739	LearningTask	1	68	
101	200.0	s	-200.0																	0.0	0.0	0.0	0.0	19.0	2.0	78.0	2.0																													s	1.0	0.367685079575	None	0.0	0.5	squaregreen.gif	go																								0.0	0.514472961426	0.0009047985076900001	0.367685079575	1.0	s	566.539793968																																	2015_Jun_30_1020	60.1203753739	LearningTask	1	68	
102	-200.0	a	-200.0																	0.0	0.0	0.0	0.0	19.0	3.0	79.0	3.0																													a	1.0	0.45172190666199996	None	0.0	1.0	crosswhite.gif	stop																								1.23	0.513628959656	0.00104188919067	0.451721906662	1.0	a	569.543071032																																	2015_Jun_30_1020	60.1203753739	LearningTask	1	68	
103	-200.0	a	-200.0																	0.0	0.0	0.0	0.0	20.0	0.0	80.0	3.0																													a	1.0	0.384634971619	None	0.0	1.0	invertedtrianglecyan.gif	go																								1.04	0.513803005219	0.000949144363403	0.384634971619	1.0	a	572.546311855																																	2015_Jun_30_1020	60.1203753739	LearningTask	1	68	
104	-200.0	a	-200.0																	0.0	0.0	0.0	0.0	20.0	1.0	81.0	3.0																													a	1.0	0.367390871048	None	0.0	4.0	lineorange.gif	go																								0.0	0.514097929001	0.00101804733276	0.367390871048	1.0	a	575.5497708319999																																	2015_Jun_30_1020	60.1203753739	LearningTask	1	68	
105	200.0	w	200.0																	0.0	0.0	0.0	0.0	20.0	2.0	82.0	0.0																													w	1.0	0.43427586555500003	None	0.0	2.0	diamondblue.gif	stop																								2.12	0.514241218567	0.0009801387786869998	0.434275865555	1.0	w	578.5532848830001																																	2015_Jun_30_1020	60.1203753739	LearningTask	1	68	
106	-200.0	q	200.0																	0.0	0.0	0.0	0.0	20.0	3.0	83.0	1.0																													q	1.0	0.484665155411	None	0.0	0.5	squaregreen.gif	go																								0.38	0.513957977295	0.000946044921875	0.484665155411	1.0	q	581.556267977																																	2015_Jun_30_1020	60.1203753739	LearningTask	1	68	
107	-200.0	q	200.0																	0.0	0.0	0.0	0.0	21.0	0.0	84.0	1.0																													q	1.0	0.40129423141500004	None	0.0	2.0	diamondblue.gif	stop																								2.06	0.513984203339	0.0009820461273189998	0.401294231415	1.0	q	584.560135841																																	2015_Jun_30_1020	60.1203753739	LearningTask	1	68	
108	-200.0	q	200.0																	0.0	0.0	0.0	0.0	21.0	1.0	85.0	1.0																													q	1.0	0.400068044662	None	0.0	4.0	lineorange.gif	go																								3.76	0.514143943787	0.000913858413696	0.400068044662	1.0	q	587.563060999																																	2015_Jun_30_1020	60.1203753739	LearningTask	1	68	
109	200.0	w	200.0																	0.0	0.0	0.0	0.0	21.0	2.0	86.0	0.0																													w	1.0	0.43456196784999995	None	0.0	2.0	hexagongray.gif	go																								2.12	0.514486074448	0.00098705291748	0.43456196785	1.0	w	590.566546917																																	2015_Jun_30_1020	60.1203753739	LearningTask	1	68	
110	200.0	s	-200.0																	0.0	0.0	0.0	0.0	21.0	3.0	87.0	2.0																													s	1.0	0.43410587310800003	None	0.0	2.0	diamondblue.gif	stop																								2.11	0.513812065125	0.0009779930114750001	0.434105873108	1.0	s	593.569962978																																	2015_Jun_30_1020	60.1203753739	LearningTask	1	68	
111	200.0	s	-200.0																	0.0	0.0	0.0	0.0	22.0	0.0	88.0	2.0																													s	1.0	0.41775393486	None	0.0	0.5	circleyellow.gif	stop																								0.32	0.51433801651	0.0010430812835700001	0.41775393486	1.0	s	596.573319912																																	2015_Jun_30_1020	60.1203753739	LearningTask	1	68	
112	200.0	s	-200.0																	0.0	0.0	0.0	0.0	22.0	1.0	89.0	2.0																													s	1.0	0.384359836578	None	0.0	4.0	trianglemagenta.gif	stop																								0.0	0.513812065125	0.000977039337158	0.384359836578	1.0	s	599.576798916																																	2015_Jun_30_1020	60.1203753739	LearningTask	1	68	
113	200.0	w	200.0																	0.0	0.0	0.0	0.0	22.0	2.0	90.0	0.0																													w	1.0	0.417747974396	None	0.0	0.5	circleyellow.gif	stop																								0.47	0.51363992691	0.000998973846436	0.417747974396	1.0	w	602.580195904																																	2015_Jun_30_1020	60.1203753739	LearningTask	1	68	
114	-200.0	a	-200.0																	0.0	0.0	0.0	0.0	22.0	3.0	91.0	3.0																													a	1.0	0.401360988617	None	0.0	4.0	trianglemagenta.gif	stop																								3.89	0.513877868652	0.000918865203857	0.401360988617	1.0	a	605.58325386																																	2015_Jun_30_1020	60.1203753739	LearningTask	1	68	
115	-200.0	q	200.0																	0.0	0.0	0.0	0.0	23.0	0.0	92.0	1.0																													q	1.0	0.38431096077	None	0.0	1.0	invertedtrianglecyan.gif	go																								0.98	0.514188051224	0.0009801387786869998	0.38431096077	1.0	q	608.586904049																																	2015_Jun_30_1020	60.1203753739	LearningTask	1	68	
116	-200.0	q	200.0																	0.0	0.0	0.0	0.0	23.0	1.0	93.0	1.0																													q	1.0	0.38411593437200003	None	0.0	0.5	circleyellow.gif	stop																								0.47	0.514140129089	0.0009241104125980002	0.384115934372	1.0	q	611.5901319980001																																	2015_Jun_30_1020	60.1203753739	LearningTask	1	68	
117	200.0	s	-200.0																	0.0	0.0	0.0	0.0	23.0	2.0	94.0	2.0																													s	1.0	0.33443403244000003	None	0.0	2.0	hexagongray.gif	go																								0.0	0.513969182968	0.00122308731079	0.33443403244	1.0	s	614.5936770440001																																	2015_Jun_30_1020	60.1203753739	LearningTask	1	68	
118	200.0	w	200.0																	0.0	0.0	0.0	0.0	23.0	3.0	95.0	0.0																													w	1.0	0.41743183136	None	0.0	4.0	trianglemagenta.gif	stop																								4.17	0.513945102692	0.0009541511535639998	0.41743183136	1.0	w	617.5968840119999																																	2015_Jun_30_1020	60.1203753739	LearningTask	1	68	
119	200.0	w	200.0																	0.0	0.0	0.0	0.0	24.0	0.0	96.0	0.0																													w	1.0	0.43432807922399996	None	0.0	4.0	lineorange.gif	go																								3.81	0.513854980469	0.0009901523590089998	0.434328079224	1.0	w	620.600047827																																	2015_Jun_30_1020	60.1203753739	LearningTask	1	68	
120	200.0	s	-200.0																	0.0	0.0	0.0	0.0	24.0	1.0	97.0	2.0																													s	1.0	0.401015996933	None	0.0	4.0	lineorange.gif	go																								4.24	0.514437198639	0.00114107131958	0.401015996933	1.0	s	623.603798866																																	2015_Jun_30_1020	60.1203753739	LearningTask	1	68	
121	200.0	w	200.0																	0.0	0.0	0.0	0.0	24.0	2.0	98.0	0.0																													w	1.0	0.417517900467	None	0.0	2.0	hexagongray.gif	go																								2.11	0.5141639709470001	0.0009129047393799999	0.417517900467	1.0	w	626.606784821																																	2015_Jun_30_1020	60.1203753739	LearningTask	1	68	
122	-200.0	a	-200.0																	0.0	0.0	0.0	0.0	24.0	3.0	99.0	3.0																													a	1.0	0.43428587913500005	None	0.0	1.0	crosswhite.gif	stop																								0.99	0.514425039291	0.000942945480347	0.434285879135	1.0	a	629.6107308859999																																	2015_Jun_30_1020	60.1203753739	LearningTask	1	68	
123																				0.0	0.0	0.0	0.0																																																																														9.0	17.2839579582																								2015_Jun_30_1020	60.1203753739	LearningTask	1	68	
124	-200.0	q	200.0																	1.0	0.0	1.0	0.0	0.0	0.0	0.0	1.0																													q	1.0	0.701164960861	None	0.0	1.0	crosswhite.gif	stop																								0.0	0.500751018524	0.0009799003601070001	0.701164960861	1.0	q	650.417240858																																	2015_Jun_30_1020	60.1203753739	LearningTask	1	68	
125	200.0	w	200.0																	1.0	0.0	1.0	0.0	0.0	1.0	1.0	0.0																													w	1.0	0.717833995819	None	0.0	0.5	squaregreen.gif	go																								0.75	0.513314962387	0.00093412399292	0.717833995819	1.0	w	653.420135975																																	2015_Jun_30_1020	60.1203753739	LearningTask	1	68	
126	-200.0	a	-200.0																	1.0	0.0	1.0	0.0	0.0	2.0	2.0	3.0																													a	1.0	0.36720204353299996	None	0.0	0.5	squaregreen.gif	go																								0.64	0.5144820213319999	0.000900983810425	0.367202043533	1.0	a	656.423728943																																	2015_Jun_30_1020	60.1203753739	LearningTask	1	68	
127	-200.0	a	-200.0																	1.0	0.0	1.0	0.0	0.0	3.0	3.0	3.0																													a	1.0	0.43427205085799997	None	0.0	2.0	diamondblue.gif	stop																								1.8	0.513995885849	0.00092887878418	0.434272050858	1.0	a	659.427223921																																	2015_Jun_30_1020	60.1203753739	LearningTask	1	68	
128	-200.0	q	200.0																	1.0	0.0	1.0	0.0	1.0	0.0	4.0	1.0																													q	1.0	0.384078979492	None	0.0	1.0	crosswhite.gif	stop																								1.08	0.513618946075	0.0009059906005860001	0.384078979492	1.0	q	662.4305510519999																																	2015_Jun_30_1020	60.1203753739	LearningTask	1	68	
129	200.0	w	200.0																	1.0	0.0	1.0	0.0	1.0	1.0	5.0	0.0																													w	1.0	0.384303808212	None	0.0	2.0	diamondblue.gif	stop																								2.16	0.513803005219	0.000982999801636	0.384303808212	1.0	w	665.433734894																																	2015_Jun_30_1020	60.1203753739	LearningTask	1	68	
130	200.0	w	200.0																	1.0	0.0	1.0	0.0	1.0	2.0	6.0	0.0																													w	1.0	0.351083040237	None	0.0	2.0	hexagongray.gif	go																								0.0	0.514003992081	0.0009119510650630002	0.351083040237	1.0	w	668.437618971																																	2015_Jun_30_1020	60.1203753739	LearningTask	1	68	
131	200.0	w	200.0																	1.0	0.0	1.0	0.0	1.0	3.0	7.0	0.0																													w	1.0	0.317507982254	None	0.0	0.5	circleyellow.gif	stop																								0.73	0.513448953629	0.0009679794311519998	0.317507982254	1.0	w	671.44024682																																	2015_Jun_30_1020	60.1203753739	LearningTask	1	68	
132	200.0	s	-200.0																	1.0	0.0	1.0	0.0	2.0	0.0	8.0	2.0																													s	1.0	0.384198188782	None	0.0	4.0	lineorange.gif	go																								3.85	0.514248847961	0.000908851623535	0.384198188782	1.0	s	674.443979025																																	2015_Jun_30_1020	60.1203753739	LearningTask	1	68	
133	-200.0	q	200.0																	1.0	0.0	1.0	0.0	2.0	1.0	9.0	1.0																													q	1.0	0.36766409874	None	0.0	4.0	lineorange.gif	go																								4.1	0.513706922531	0.0009369850158689999	0.36766409874	1.0	q	677.447099924																																	2015_Jun_30_1020	60.1203753739	LearningTask	1	68	
134	-200.0	a	-200.0																	1.0	0.0	1.0	0.0	2.0	2.0	10.0	3.0																													a	1.0	0.384084939957	None	0.0	2.0	diamondblue.gif	stop																								2.01	0.514112949371	0.000982999801636	0.384084939957	1.0	a	680.450325012																																	2015_Jun_30_1020	60.1203753739	LearningTask	1	68	
135	200.0	w	200.0																	1.0	0.0	1.0	0.0	2.0	3.0	11.0	0.0																													w	1.0	0.351035118103	None	0.0	0.5	circleyellow.gif	stop																								0.29	0.5142009258269999	0.0011169910430899998	0.351035118103	1.0	w	683.453970909																																	2015_Jun_30_1020	60.1203753739	LearningTask	1	68	
136	200.0	s	-200.0																	1.0	0.0	1.0	0.0	3.0	0.0	12.0	2.0																													s	1.0	0.384345054626	None	0.0	0.5	circleyellow.gif	stop																								0.73	0.513713121414	0.0009291172027589999	0.384345054626	1.0	s	686.45728302																																	2015_Jun_30_1020	60.1203753739	LearningTask	1	68	
137	-200.0	a	-200.0																	1.0	0.0	1.0	0.0	3.0	1.0	13.0	3.0																													a	1.0	0.40093994140600003	None	0.0	2.0	diamondblue.gif	stop																								2.13	0.513953924179	0.000988006591797	0.400939941406	1.0	a	689.460254908																																	2015_Jun_30_1020	60.1203753739	LearningTask	1	68	
138	-200.0	q	200.0																	1.0	0.0	1.0	0.0	3.0	2.0	14.0	1.0																													q	1.0	0.434202194214	None	0.0	0.5	circleyellow.gif	stop																								0.55	0.514155864716	0.0009629726409910001	0.434202194214	1.0	q	692.464107037																																	2015_Jun_30_1020	60.1203753739	LearningTask	1	68	
139	200.0	w	200.0																	1.0	0.0	1.0	0.0	3.0	3.0	15.0	0.0																													w	1.0	0.38418006897	None	0.0	2.0	diamondblue.gif	stop																								1.8	0.513979196548	0.0009062290191649999	0.38418006897	1.0	w	695.467747927																																	2015_Jun_30_1020	60.1203753739	LearningTask	1	68	
140	-200.0	a	-200.0																	1.0	0.0	1.0	0.0	4.0	0.0	16.0	3.0																													a	1.0	0.40037608146700004	None	0.0	2.0	hexagongray.gif	go																								2.04	0.51398897171	0.0126149654388	0.400376081467	1.0	a	698.470845938																																	2015_Jun_30_1020	60.1203753739	LearningTask	1	68	
141	-200.0	q	200.0																	1.0	0.0	1.0	0.0	4.0	1.0	17.0	1.0																													q	1.0	0.367533922195	None	0.0	4.0	lineorange.gif	go																								4.22	0.5135710239410001	0.0009601116180419999	0.367533922195	1.0	q	701.473795891																																	2015_Jun_30_1020	60.1203753739	LearningTask	1	68	
142	200.0	s	-200.0																	1.0	0.0	1.0	0.0	4.0	2.0	18.0	2.0																													s	1.0	0.367371082306	None	0.0	2.0	hexagongray.gif	go																								1.94	0.514318943024	0.0009329319000239999	0.367371082306	1.0	s	704.47731185																																	2015_Jun_30_1020	60.1203753739	LearningTask	1	68	
143	-200.0	q	200.0																	1.0	0.0	1.0	0.0	4.0	3.0	19.0	1.0																													q	1.0	0.367853879929	None	0.0	0.5	circleyellow.gif	stop																								0.0	0.514189004898	0.0009200572967529999	0.367853879929	1.0	q	707.4807219510001																																	2015_Jun_30_1020	60.1203753739	LearningTask	1	68	
144	200.0	s	-200.0																	1.0	0.0	1.0	0.0	5.0	0.0	20.0	2.0																													s	1.0	0.401302099228	None	0.0	4.0	lineorange.gif	go																								4.25	0.513731956482	0.000951051712036	0.401302099228	1.0	s	710.4840409760001																																	2015_Jun_30_1020	60.1203753739	LearningTask	1	68	
145	200.0	w	200.0																	1.0	0.0	1.0	0.0	5.0	1.0	21.0	0.0																													w	1.0	0.384010076523	None	0.0	4.0	lineorange.gif	go																								0.0	0.514168977737	0.0009799003601070001	0.384010076523	1.0	w	713.48764205																																	2015_Jun_30_1020	60.1203753739	LearningTask	1	68	
146	-200.0	a	-200.0																	1.0	0.0	1.0	0.0	5.0	2.0	22.0	3.0																													a	1.0	0.45097208023100005	None	0.0	4.0	trianglemagenta.gif	stop																								4.21	0.513756990433	0.0172019004822	0.450972080231	1.0	a	716.4910049439999																																	2015_Jun_30_1020	60.1203753739	LearningTask	1	68	
147	200.0	s	-200.0																	1.0	0.0	1.0	0.0	5.0	3.0	23.0	2.0																													s	1.0	0.40102601051299996	None	0.0	0.5	circleyellow.gif	stop																								0.51	0.514056921005	0.000969886779785	0.401026010513	1.0	s	719.4941020010001																																	2015_Jun_30_1020	60.1203753739	LearningTask	1	68	
148	200.0	w	200.0																	1.0	0.0	1.0	0.0	6.0	0.0	24.0	0.0																													w	1.0	0.450776100159	None	0.0	1.0	invertedtrianglecyan.gif	go																								1.1	0.514158010483	0.0324120521545	0.450776100159	1.0	w	722.497269869																																	2015_Jun_30_1020	60.1203753739	LearningTask	1	68	
149	-200.0	a	-200.0																	1.0	0.0	1.0	0.0	6.0	1.0	25.0	3.0																													a	1.0	0.41717600822400003	None	0.0	0.5	circleyellow.gif	stop																								0.71	0.514125108719	0.00106906890869	0.417176008224	1.0	a	725.500763893																																	2015_Jun_30_1020	60.1203753739	LearningTask	1	68	
150	200.0	s	-200.0																	1.0	0.0	1.0	0.0	6.0	2.0	26.0	2.0																													s	1.0	0.350631952286	None	0.0	1.0	crosswhite.gif	stop																								0.8	0.513679027557	0.0139200687408	0.350631952286	1.0	s	728.50444293																																	2015_Jun_30_1020	60.1203753739	LearningTask	1	68	
151	-200.0	q	200.0																	1.0	0.0	1.0	0.0	6.0	3.0	27.0	1.0																													q	1.0	0.450986862183	None	0.0	1.0	invertedtrianglecyan.gif	go																								0.81	0.51397895813	0.0011451244354200002	0.450986862183	1.0	q	731.5078940389999																																	2015_Jun_30_1020	60.1203753739	LearningTask	1	68	
152	200.0	w	200.0																	1.0	0.0	1.0	0.0	7.0	0.0	28.0	0.0																													w	1.0	0.40092802047700005	None	0.0	2.0	hexagongray.gif	go																								0.0	0.5138750076290001	0.0191750526428	0.400928020477	1.0	w	734.5110499860001																																	2015_Jun_30_1020	60.1203753739	LearningTask	1	68	
153	200.0	w	200.0																	1.0	0.0	1.0	0.0	7.0	1.0	29.0	0.0																													w	1.0	0.384130001068	None	0.0	4.0	trianglemagenta.gif	stop																								4.23	0.513781070709	0.0009360313415529999	0.384130001068	1.0	w	737.514389038																																	2015_Jun_30_1020	60.1203753739	LearningTask	1	68	
154	-200.0	q	200.0																	1.0	0.0	1.0	0.0	7.0	2.0	30.0	1.0																													q	1.0	0.45129108429	None	0.0	4.0	trianglemagenta.gif	stop																								4.15	0.513663053513	0.0009529590606689998	0.45129108429	1.0	q	740.517582893																																	2015_Jun_30_1020	60.1203753739	LearningTask	1	68	
155	200.0	s	-200.0																	1.0	0.0	1.0	0.0	7.0	3.0	31.0	2.0																													s	1.0	0.417519807816	None	0.0	1.0	crosswhite.gif	stop																								0.85	0.513857126236	0.0009109973907470001	0.417519807816	1.0	s	743.521162987																																	2015_Jun_30_1020	60.1203753739	LearningTask	1	68	
156	-200.0	a	-200.0																	1.0	0.0	1.0	0.0	8.0	0.0	32.0	3.0																													a	1.0	0.35116815567000004	None	0.0	4.0	trianglemagenta.gif	stop																								0.0	0.5136818885800001	0.0009100437164310001	0.35116815567	1.0	a	746.5242500310001																																	2015_Jun_30_1020	60.1203753739	LearningTask	1	68	
157	200.0	s	-200.0																	1.0	0.0	1.0	0.0	8.0	1.0	33.0	2.0																													s	1.0	0.384080886841	None	0.0	4.0	lineorange.gif	go																								0.0	0.513928890228	0.0189518928528	0.384080886841	1.0	s	749.527645826																																	2015_Jun_30_1020	60.1203753739	LearningTask	1	68	
158	200.0	w	200.0																	1.0	0.0	1.0	0.0	8.0	2.0	34.0	0.0																													w	1.0	0.317595005035	None	0.0	1.0	crosswhite.gif	stop																								1.2	0.514002084732	0.000909090042114	0.317595005035	1.0	w	752.531162977																																	2015_Jun_30_1020	60.1203753739	LearningTask	1	68	
159	-200.0	q	200.0																	1.0	0.0	1.0	0.0	8.0	3.0	35.0	1.0																													q	1.0	0.36748600006099996	None	0.0	2.0	diamondblue.gif	stop																								1.77	0.513804912567	0.0411961078644	0.367486000061	1.0	q	755.5344078539999																																	2015_Jun_30_1020	60.1203753739	LearningTask	1	68	
160	200.0	w	200.0																	1.0	0.0	1.0	0.0	9.0	0.0	36.0	0.0																													w	1.0	0.400191068649	None	0.0	2.0	hexagongray.gif	go																								1.76	0.514022111893	0.0160520076752	0.400191068649	1.0	w	758.537679911																																	2015_Jun_30_1020	60.1203753739	LearningTask	1	68	
161	-200.0	q	200.0																	1.0	0.0	1.0	0.0	9.0	1.0	37.0	1.0																													q	1.0	0.535082101822	None	0.0	4.0	lineorange.gif	go																								4.09	0.51429605484	0.0008862018585209999	0.535082101822	1.0	q	761.54130888																																	2015_Jun_30_1020	60.1203753739	LearningTask	1	68	
162	-200.0	q	200.0																	1.0	0.0	1.0	0.0	9.0	2.0	38.0	1.0																													q	1.0	0.350962877274	None	0.0	0.5	circleyellow.gif	stop																								0.41	0.514014959335	0.00916695594788	0.350962877274	1.0	q	764.544831038																																	2015_Jun_30_1020	60.1203753739	LearningTask	1	68	
163	200.0	s	-200.0																	1.0	0.0	1.0	0.0	9.0	3.0	39.0	2.0																													s	1.0	0.333806991577	None	0.0	1.0	crosswhite.gif	stop																								1.02	0.514236211777	0.032333135604900004	0.333806991577	1.0	s	767.547762871																																	2015_Jun_30_1020	60.1203753739	LearningTask	1	68	
164	-200.0	q	200.0																	1.0	0.0	1.0	0.0	10.0	0.0	40.0	1.0																													q	1.0	0.317094087601	None	0.0	4.0	trianglemagenta.gif	stop																								3.87	0.5145008564	0.0269119739532	0.317094087601	1.0	q	770.5510690210001																																	2015_Jun_30_1020	60.1203753739	LearningTask	1	68	
165	200.0	s	-200.0																	1.0	0.0	1.0	0.0	10.0	1.0	41.0	2.0																													s	1.0	0.36747598648100005	None	0.0	1.0	invertedtrianglecyan.gif	go																								0.0	0.514193058014	0.022987127304099998	0.367475986481	1.0	s	773.554450989																																	2015_Jun_30_1020	60.1203753739	LearningTask	1	68	
166	200.0	w	200.0																	1.0	0.0	1.0	0.0	10.0	2.0	42.0	0.0																													w	1.0	0.383888959885	None	0.0	0.5	squaregreen.gif	go																								0.0	0.514683961868	0.119369029999	0.383888959885	1.0	w	776.5577518939999																																	2015_Jun_30_1020	60.1203753739	LearningTask	1	68	
167	-200.0	a	-200.0																	1.0	0.0	1.0	0.0	10.0	3.0	43.0	3.0																													a	1.0	0.350980997086	None	0.0	1.0	crosswhite.gif	stop																								1.24	0.514594078064	0.0160880088806	0.350980997086	1.0	a	779.5610449310001																																	2015_Jun_30_1020	60.1203753739	LearningTask	1	68	
168	200.0	s	-200.0																	1.0	0.0	1.0	0.0	11.0	0.0	44.0	2.0																													s	1.0	0.334139823914	None	0.0	1.0	crosswhite.gif	stop																								0.92	0.514366149902	0.0010600090026900001	0.334139823914	1.0	s	782.56458497																																	2015_Jun_30_1020	60.1203753739	LearningTask	1	68	
169	-200.0	a	-200.0																	1.0	0.0	1.0	0.0	11.0	1.0	45.0	3.0																													a	1.0	0.384732961655	None	0.0	4.0	lineorange.gif	go																								4.19	0.514059066772	0.000927209854126	0.384732961655	1.0	a	785.5678179260001																																	2015_Jun_30_1020	60.1203753739	LearningTask	1	68	
170	200.0	w	200.0																	1.0	0.0	1.0	0.0	11.0	2.0	46.0	0.0																													w	1.0	0.40099191665600004	None	0.0	2.0	diamondblue.gif	stop																								2.23	0.51417517662	0.039668083190900004	0.400991916656	1.0	w	788.571030855																																	2015_Jun_30_1020	60.1203753739	LearningTask	1	68	
171	200.0	w	200.0																	1.0	0.0	1.0	0.0	11.0	3.0	47.0	0.0																													w	1.0	0.350944042206	None	0.0	4.0	lineorange.gif	go																								0.0	0.514409065247	0.0009109973907470001	0.350944042206	1.0	w	791.574692011																																	2015_Jun_30_1020	60.1203753739	LearningTask	1	68	
172	-200.0	a	-200.0																	1.0	0.0	1.0	0.0	12.0	0.0	48.0	3.0																													a	1.0	0.36795091629	None	0.0	2.0	hexagongray.gif	go																								2.23	0.5140399932859999	0.0110769271851	0.36795091629	1.0	a	794.578222036																																	2015_Jun_30_1020	60.1203753739	LearningTask	1	68	
173	200.0	s	-200.0																	1.0	0.0	1.0	0.0	12.0	1.0	49.0	2.0																													s	1.0	0.317045927048	None	0.0	1.0	crosswhite.gif	stop																								1.17	0.513756990433	0.0010008811950700002	0.317045927048	1.0	s	797.581475973																																	2015_Jun_30_1020	60.1203753739	LearningTask	1	68	
174	-200.0	a	-200.0																	1.0	0.0	1.0	0.0	12.0	2.0	50.0	3.0																													a	1.0	0.401041030884	None	0.0	4.0	trianglemagenta.gif	stop																								4.19	0.513885974884	0.0009779930114750001	0.401041030884	1.0	a	800.584815025																																	2015_Jun_30_1020	60.1203753739	LearningTask	1	68	
175	-200.0	q	200.0																	1.0	0.0	1.0	0.0	12.0	3.0	51.0	1.0																													q	1.0	0.35107207298299997	None	0.0	1.0	crosswhite.gif	stop																								0.0	0.513809919357	0.00100588798523	0.351072072983	1.0	q	803.588286877																																	2015_Jun_30_1020	60.1203753739	LearningTask	1	68	
176	200.0	w	200.0																	1.0	0.0	1.0	0.0	13.0	0.0	52.0	0.0																													w	1.0	0.317821979523	None	0.0	2.0	diamondblue.gif	stop																								0.0	0.512938976288	0.00110411643982	0.317821979523	1.0	w	806.591521025																																	2015_Jun_30_1020	60.1203753739	LearningTask	1	68	
177	200.0	w	200.0																	1.0	0.0	1.0	0.0	13.0	1.0	53.0	0.0																													w	1.0	0.317389011383	None	0.0	2.0	diamondblue.gif	stop																								0.0	0.514003992081	0.00102114677429	0.317389011383	1.0	w	809.594760895																																	2015_Jun_30_1020	60.1203753739	LearningTask	1	68	
178	200.0	w	200.0																	1.0	0.0	1.0	0.0	13.0	2.0	54.0	0.0																													w	1.0	0.35090684890699997	None	0.0	1.0	invertedtrianglecyan.gif	go																								1.04	0.514079093933	0.0009751319885249999	0.350906848907	1.0	w	812.59860301																																	2015_Jun_30_1020	60.1203753739	LearningTask	1	68	
179	-200.0	q	200.0																	1.0	0.0	1.0	0.0	13.0	3.0	55.0	1.0																													q	1.0	0.384097099304	None	0.0	1.0	invertedtrianglecyan.gif	go																								0.0	0.513822078705	0.000904083251953	0.384097099304	1.0	q	815.601559877																																	2015_Jun_30_1020	60.1203753739	LearningTask	1	68	
180	200.0	s	-200.0																	1.0	0.0	1.0	0.0	14.0	0.0	56.0	2.0																													s	1.0	0.384391069412	None	0.0	4.0	trianglemagenta.gif	stop																								4.03	0.5139780044560001	0.0010359287262	0.384391069412	1.0	s	818.6047430039999																																	2015_Jun_30_1020	60.1203753739	LearningTask	1	68	
181	200.0	w	200.0																	1.0	0.0	1.0	0.0	14.0	1.0	57.0	0.0																													w	1.0	0.40136504173299997	None	0.0	2.0	diamondblue.gif	stop																								1.81	0.514362096786	0.00100803375244	0.401365041733	1.0	w	821.608160973																																	2015_Jun_30_1020	60.1203753739	LearningTask	1	68	
182	-200.0	a	-200.0																	1.0	0.0	1.0	0.0	14.0	2.0	58.0	3.0																													a	1.0	0.43478417396499996	None	0.0	1.0	invertedtrianglecyan.gif	go																								0.0	0.514014959335	0.0009570121765139998	0.434784173965	1.0	a	824.6114239689999																																	2015_Jun_30_1020	60.1203753739	LearningTask	1	68	
183	-200.0	a	-200.0																	1.0	0.0	1.0	0.0	14.0	3.0	59.0	3.0																													a	1.0	0.367516040802	None	0.0	0.5	circleyellow.gif	stop																								0.4	0.5143949985499999	0.009522914886469998	0.367516040802	1.0	a	827.615322828																																	2015_Jun_30_1020	60.1203753739	LearningTask	1	68	
184	-200.0	q	200.0																	1.0	0.0	1.0	0.0	15.0	0.0	60.0	1.0																													q	1.0	0.467385053635	None	0.0	1.0	crosswhite.gif	stop																								0.85	0.513650894165	0.0010290145874	0.467385053635	1.0	q	830.6182539460001																																	2015_Jun_30_1020	60.1203753739	LearningTask	1	68	
185	200.0	s	-200.0																	1.0	0.0	1.0	0.0	15.0	1.0	61.0	2.0																													s	1.0	0.400904178619	None	0.0	2.0	diamondblue.gif	stop																								1.9	0.514084815979	0.000938892364502	0.400904178619	1.0	s	833.6215729710001																																	2015_Jun_30_1020	60.1203753739	LearningTask	1	68	
186	-200.0	a	-200.0																	1.0	0.0	1.0	0.0	15.0	2.0	62.0	3.0																													a	1.0	0.617476940155	None	0.0	2.0	hexagongray.gif	go																								0.0	0.5140779018399999	0.0009548664093019999	0.617476940155	1.0	a	836.625061989																																	2015_Jun_30_1020	60.1203753739	LearningTask	1	68	
187	-200.0	a	-200.0																	1.0	0.0	1.0	0.0	15.0	3.0	63.0	3.0																													a	1.0	0.40095615386999994	None	0.0	2.0	hexagongray.gif	go																								2.01	0.514108896255	0.000982999801636	0.40095615387	1.0	a	839.628275871																																	2015_Jun_30_1020	60.1203753739	LearningTask	1	68	
188	-200.0	q	200.0																	1.0	0.0	1.0	0.0	16.0	0.0	64.0	1.0																													q	1.0	0.917900085449	None	0.0	0.5	circleyellow.gif	stop																								0.74	0.5143408775330001	0.00101184844971	0.917900085449	1.0	q	842.6317868230001																																	2015_Jun_30_1020	60.1203753739	LearningTask	1	68	
189	-200.0	a	-200.0																	1.0	0.0	1.0	0.0	16.0	1.0	65.0	3.0																													a	1.0	0.367089986801	None	0.0	1.0	crosswhite.gif	stop																								0.0	0.514276981354	0.0009298324584960001	0.367089986801	1.0	a	845.63508296																																	2015_Jun_30_1020	60.1203753739	LearningTask	1	68	
190	-200.0	a	-200.0																	1.0	0.0	1.0	0.0	16.0	2.0	66.0	3.0																													a	1.0	0.367328166962	None	0.0	4.0	lineorange.gif	go																								3.9	0.5142600536349999	0.014553070068399999	0.367328166962	1.0	a	848.6388800139999																																	2015_Jun_30_1020	60.1203753739	LearningTask	1	68	
191	-200.0	q	200.0																	1.0	0.0	1.0	0.0	16.0	3.0	67.0	1.0																													q	1.0	0.383802890778	None	0.0	2.0	diamondblue.gif	stop																								2.18	0.513753175735	0.0009150505065920001	0.383802890778	1.0	q	851.6423799989999																																	2015_Jun_30_1020	60.1203753739	LearningTask	1	68	
192	-200.0	q	200.0																	1.0	0.0	1.0	0.0	17.0	0.0	68.0	1.0																													q	1.0	0.35111618042	None	0.0	1.0	crosswhite.gif	stop																								0.79	0.513140916824	0.0009739398956299999	0.35111618042	1.0	q	854.6451509																																	2015_Jun_30_1020	60.1203753739	LearningTask	1	68	
193	-200.0	a	-200.0																	1.0	0.0	1.0	0.0	17.0	1.0	69.0	3.0																													a	1.0	0.367469072342	None	0.0	0.5	circleyellow.gif	stop																								0.55	0.514085054398	0.000912189483643	0.367469072342	1.0	a	857.648893833																																	2015_Jun_30_1020	60.1203753739	LearningTask	1	68	
194	-200.0	q	200.0																	1.0	0.0	1.0	0.0	17.0	2.0	70.0	1.0																													q	1.0	0.317703962326	None	0.0	4.0	trianglemagenta.gif	stop																								4.08	0.513523101807	0.000999212265015	0.317703962326	1.0	q	860.652390003																																	2015_Jun_30_1020	60.1203753739	LearningTask	1	68	
195	-200.0	q	200.0																	1.0	0.0	1.0	0.0	17.0	3.0	71.0	1.0																													q	1.0	0.383780002594	None	0.0	0.5	circleyellow.gif	stop																								0.43	0.513992071152	0.000988006591797	0.383780002594	1.0	q	863.65506196																																	2015_Jun_30_1020	60.1203753739	LearningTask	1	68	
196	200.0	s	-200.0																	1.0	0.0	1.0	0.0	18.0	0.0	72.0	2.0																													s	1.0	0.38418006897	None	0.0	1.0	crosswhite.gif	stop																								0.84	0.514519929886	0.0008938312530519999	0.38418006897	1.0	s	866.658591986																																	2015_Jun_30_1020	60.1203753739	LearningTask	1	68	
197	200.0	s	-200.0																	1.0	0.0	1.0	0.0	18.0	1.0	73.0	2.0																													s	1.0	0.38439893722499996	None	0.0	0.5	squaregreen.gif	go																								0.25	0.514241218567	0.0332491397858	0.384398937225	1.0	s	869.662078857																																	2015_Jun_30_1020	60.1203753739	LearningTask	1	68	
198	-200.0	q	200.0																	1.0	0.0	1.0	0.0	18.0	2.0	74.0	1.0																													q	1.0	0.384160041809	None	0.0	2.0	hexagongray.gif	go																								0.0	0.5137758255	0.0174188613892	0.384160041809	1.0	q	872.665462017																																	2015_Jun_30_1020	60.1203753739	LearningTask	1	68	
199	200.0	s	-200.0																	1.0	0.0	1.0	0.0	18.0	3.0	75.0	2.0																													s	1.0	0.317352056503	None	0.0	2.0	diamondblue.gif	stop																								2.23	0.513396978378	0.000963926315308	0.317352056503	1.0	s	875.668812037																																	2015_Jun_30_1020	60.1203753739	LearningTask	1	68	
200	200.0	w	200.0																	1.0	0.0	1.0	0.0	19.0	0.0	76.0	0.0																													w	1.0	0.350977897644	None	0.0	4.0	trianglemagenta.gif	stop																								0.0	0.514070987701	0.0008990764617919999	0.350977897644	1.0	w	878.671819925																																	2015_Jun_30_1020	60.1203753739	LearningTask	1	68	
201	200.0	w	200.0																	1.0	0.0	1.0	0.0	19.0	1.0	77.0	0.0																													w	1.0	0.43468093872100005	None	0.0	0.5	squaregreen.gif	go																								0.54	0.5143711566929999	0.0009369850158689999	0.434680938721	1.0	w	881.6753020289999																																	2015_Jun_30_1020	60.1203753739	LearningTask	1	68	
202	200.0	w	200.0																	1.0	0.0	1.0	0.0	19.0	2.0	78.0	0.0																													w	1.0	0.400537967682	None	0.0	2.0	hexagongray.gif	go																								2.2	0.514113903046	0.0010049343109099999	0.400537967682	1.0	w	884.6785290239999																																	2015_Jun_30_1020	60.1203753739	LearningTask	1	68	
203	200.0	w	200.0																	1.0	0.0	1.0	0.0	19.0	3.0	79.0	0.0																													w	1.0	0.384660959244	None	0.0	0.5	circleyellow.gif	stop																								0.73	0.5144081115720001	0.000907182693481	0.384660959244	1.0	w	887.6824018960001																																	2015_Jun_30_1020	60.1203753739	LearningTask	1	68	
204	200.0	s	-200.0																	1.0	0.0	1.0	0.0	20.0	0.0	80.0	2.0																													s	1.0	0.434146165848	None	0.0	0.5	squaregreen.gif	go																								0.0	0.513982057571	0.00090217590332	0.434146165848	1.0	s	890.685616016																																	2015_Jun_30_1020	60.1203753739	LearningTask	1	68	
205	-200.0	q	200.0																	1.0	0.0	1.0	0.0	20.0	1.0	81.0	1.0																													q	1.0	0.384291172028	None	0.0	1.0	invertedtrianglecyan.gif	go																								1.18	0.513414859772	0.017511844635	0.384291172028	1.0	q	893.6888370510001																																	2015_Jun_30_1020	60.1203753739	LearningTask	1	68	
206	200.0	s	-200.0																	1.0	0.0	1.0	0.0	20.0	2.0	82.0	2.0																													s	1.0	0.467566013336	None	0.0	0.5	circleyellow.gif	stop																								0.46	0.51398396492	0.0009658336639400001	0.467566013336	1.0	s	896.692263842																																	2015_Jun_30_1020	60.1203753739	LearningTask	1	68	
207	-200.0	a	-200.0																	1.0	0.0	1.0	0.0	20.0	3.0	83.0	3.0																													a	1.0	0.41747713089	None	0.0	0.5	circleyellow.gif	stop																								0.73	0.5139939785000001	0.0009450912475589999	0.41747713089	1.0	a	899.6959309580001																																	2015_Jun_30_1020	60.1203753739	LearningTask	1	68	
208	200.0	s	-200.0																	1.0	0.0	1.0	0.0	21.0	0.0	84.0	2.0																													s	1.0	0.401408195496	None	0.0	2.0	diamondblue.gif	stop																								2.07	0.5136852264399999	0.000962018966675	0.401408195496	1.0	s	902.6991729739999																																	2015_Jun_30_1020	60.1203753739	LearningTask	1	68	
209	-200.0	a	-200.0																	1.0	0.0	1.0	0.0	21.0	1.0	85.0	3.0																													a	1.0	0.367528915405	None	0.0	2.0	hexagongray.gif	go																								1.97	0.513842821121	0.00100898742676	0.367528915405	1.0	a	905.7025518419999																																	2015_Jun_30_1020	60.1203753739	LearningTask	1	68	
210	200.0	s	-200.0																	1.0	0.0	1.0	0.0	21.0	2.0	86.0	2.0																													s	1.0	0.40085601806599996	None	0.0	1.0	invertedtrianglecyan.gif	go																								1.03	0.514081954956	0.0008831024169919999	0.400856018066	1.0	s	908.705751896																																	2015_Jun_30_1020	60.1203753739	LearningTask	1	68	
211	200.0	s	-200.0																	1.0	0.0	1.0	0.0	21.0	3.0	87.0	2.0																													s	1.0	0.383551120758	None	0.0	0.5	circleyellow.gif	stop																								0.52	0.514193058014	0.00102305412292	0.383551120758	1.0	s	911.7087349889999																																	2015_Jun_30_1020	60.1203753739	LearningTask	1	68	
212	200.0	s	-200.0																	1.0	0.0	1.0	0.0	22.0	0.0	88.0	2.0																													s	1.0	0.38450503349299997	None	0.0	4.0	lineorange.gif	go																								0.0	0.514703989029	0.022573947906499997	0.384505033493	1.0	s	914.7124128339999																																	2015_Jun_30_1020	60.1203753739	LearningTask	1	68	
213	-200.0	a	-200.0																	1.0	0.0	1.0	0.0	22.0	1.0	89.0	3.0																													a	1.0	0.417625904083	None	0.0	1.0	crosswhite.gif	stop																								0.0	0.51419210434	0.0362749099731	0.417625904083	1.0	a	917.715734959																																	2015_Jun_30_1020	60.1203753739	LearningTask	1	68	
214	200.0	w	200.0																	1.0	0.0	1.0	0.0	22.0	2.0	90.0	0.0																													w	1.0	0.551453828812	None	0.0	0.5	squaregreen.gif	go																								0.54	0.513805150986	0.0123310089111	0.551453828812	1.0	w	920.7191710469999																																	2015_Jun_30_1020	60.1203753739	LearningTask	1	68	
215	200.0	w	200.0																	1.0	0.0	1.0	0.0	22.0	3.0	91.0	0.0																													w	1.0	0.367057085037	None	0.0	1.0	invertedtrianglecyan.gif	go																								0.0	0.514348983765	0.00105094909668	0.367057085037	1.0	w	923.722961903																																	2015_Jun_30_1020	60.1203753739	LearningTask	1	68	
216	200.0	s	-200.0																	1.0	0.0	1.0	0.0	23.0	0.0	92.0	2.0																													s	1.0	0.517575025558	None	0.0	0.5	squaregreen.gif	go																								0.48	0.513370990753	0.0011630058288599999	0.517575025558	1.0	s	926.7258620260001																																	2015_Jun_30_1020	60.1203753739	LearningTask	1	68	
217	-200.0	q	200.0																	1.0	0.0	1.0	0.0	23.0	1.0	93.0	1.0																													q	1.0	0.334594011307	None	0.0	4.0	trianglemagenta.gif	stop																								0.0	0.5140080451969999	0.013822078704799998	0.334594011307	1.0	q	929.729099035																																	2015_Jun_30_1020	60.1203753739	LearningTask	1	68	
218	-200.0	q	200.0																	1.0	0.0	1.0	0.0	23.0	2.0	94.0	1.0																													q	1.0	0.384552001953	None	0.0	4.0	lineorange.gif	go																								4.2	0.514037132263	0.00101208686829	0.384552001953	1.0	q	932.732722044																																	2015_Jun_30_1020	60.1203753739	LearningTask	1	68	
219	-200.0	a	-200.0																	1.0	0.0	1.0	0.0	23.0	3.0	95.0	3.0																													a	1.0	0.418125152588	None	0.0	1.0	invertedtrianglecyan.gif	go																								0.92	0.5135729312899999	0.0009758472442630001	0.418125152588	1.0	a	935.7359018330001																																	2015_Jun_30_1020	60.1203753739	LearningTask	1	68	
220	-200.0	a	-200.0																	1.0	0.0	1.0	0.0	24.0	0.0	96.0	3.0																													a	1.0	0.517200946808	None	0.0	4.0	lineorange.gif	go																								0.0	0.5142221450810001	0.000909090042114	0.517200946808	1.0	a	938.739125967																																	2015_Jun_30_1020	60.1203753739	LearningTask	1	68	
221	-200.0	a	-200.0																	1.0	0.0	1.0	0.0	24.0	1.0	97.0	3.0																													a	1.0	0.35102391243000003	None	0.0	2.0	diamondblue.gif	stop																								2.11	0.514123916626	0.044218778610199995	0.35102391243	1.0	a	941.742385864																																	2015_Jun_30_1020	60.1203753739	LearningTask	1	68	
222	-200.0	q	200.0																	1.0	0.0	1.0	0.0	24.0	2.0	98.0	1.0																													q	1.0	0.35086607932999997	None	0.0	4.0	lineorange.gif	go																								3.95	0.514330863953	0.000880002975464	0.35086607933	1.0	q	944.745503902																																	2015_Jun_30_1020	60.1203753739	LearningTask	1	68	
223	200.0	s	-200.0																	1.0	0.0	1.0	0.0	24.0	3.0	99.0	2.0																													s	1.0	0.38426089286799997	None	0.0	2.0	diamondblue.gif	stop																								1.81	0.5146150588989999	0.0008790493011469999	0.384260892868	1.0	s	947.74958086																																	2015_Jun_30_1020	60.1203753739	LearningTask	1	68	
224																				1.0	0.0	1.0	0.0																																																																														9.0	15.292170047799999																								2015_Jun_30_1020	60.1203753739	LearningTask	1	68	
225	-200.0	a	-200.0																	2.0	0.0	2.0	0.0	0.0	0.0	0.0	3.0																													a	1.0	0.768759012222	None	0.0	2.0	diamondblue.gif	stop																								2.01	0.512872934341	0.0008909702301030001	0.768759012222	1.0	a	966.721724033																																	2015_Jun_30_1020	60.1203753739	LearningTask	1	68	
226	200.0	w	200.0																	2.0	0.0	2.0	0.0	0.0	1.0	1.0	0.0																													w	1.0	0.334604978561	None	0.0	1.0	invertedtrianglecyan.gif	go																								1.11	0.512697935104	0.000953912734985	0.334604978561	1.0	w	969.7240529060001																																	2015_Jun_30_1020	60.1203753739	LearningTask	1	68	
227	200.0	s	-200.0																	2.0	0.0	2.0	0.0	0.0	2.0	2.0	2.0																													s	1.0	0.350672006607	None	0.0	4.0	lineorange.gif	go																								3.79	0.514235973358	0.0008790493011469999	0.350672006607	1.0	s	972.727215052																																	2015_Jun_30_1020	60.1203753739	LearningTask	1	68	
228	200.0	w	200.0																	2.0	0.0	2.0	0.0	0.0	3.0	3.0	0.0																													w	1.0	0.40045905113200003	None	0.0	1.0	invertedtrianglecyan.gif	go																								0.99	0.513983011246	0.000983953475952	0.400459051132	1.0	w	975.730917931																																	2015_Jun_30_1020	60.1203753739	LearningTask	1	68	
229	-200.0	a	-200.0																	2.0	0.0	2.0	0.0	1.0	0.0	4.0	3.0																													a	1.0	0.434393882751	None	0.0	0.5	circleyellow.gif	stop																								0.67	0.513244152069	0.00979614257812	0.434393882751	1.0	a	978.734156847																																	2015_Jun_30_1020	60.1203753739	LearningTask	1	68	
230	-200.0	a	-200.0																	2.0	0.0	2.0	0.0	1.0	1.0	5.0	3.0																													a	1.0	0.367668151855	None	0.0	1.0	invertedtrianglecyan.gif	go																								0.98	0.513803005219	0.0008859634399410001	0.367668151855	1.0	a	981.737216949																																	2015_Jun_30_1020	60.1203753739	LearningTask	1	68	
231	200.0	s	-200.0																	2.0	0.0	2.0	0.0	1.0	2.0	6.0	2.0																													s	1.0	0.33403396606400004	None	0.0	0.5	squaregreen.gif	go																								0.33	0.513963937759	0.0059270858764599995	0.334033966064	1.0	s	984.7412409780001																																	2015_Jun_30_1020	60.1203753739	LearningTask	1	68	
232	200.0	s	-200.0																	2.0	0.0	2.0	0.0	1.0	3.0	7.0	2.0																													s	1.0	0.36761879920999996	None	0.0	2.0	diamondblue.gif	stop																								2.02	0.513530015945	0.0010311603546100002	0.36761879921	1.0	s	987.74386692																																	2015_Jun_30_1020	60.1203753739	LearningTask	1	68	
233	200.0	s	-200.0																	2.0	0.0	2.0	0.0	2.0	0.0	8.0	2.0																													s	1.0	0.367363929749	None	0.0	4.0	lineorange.gif	go																								4.19	0.514152050018	0.00110983848572	0.367363929749	1.0	s	990.7474210260001																																	2015_Jun_30_1020	60.1203753739	LearningTask	1	68	
234	200.0	s	-200.0																	2.0	0.0	2.0	0.0	2.0	1.0	9.0	2.0																													s	1.0	0.334271192551	None	0.0	1.0	crosswhite.gif	stop																								0.86	0.514167785645	0.005602836608890001	0.334271192551	1.0	s	993.751245975																																	2015_Jun_30_1020	60.1203753739	LearningTask	1	68	
235	200.0	w	200.0																	2.0	0.0	2.0	0.0	2.0	2.0	10.0	0.0																													w	1.0	0.401293992996	None	0.0	1.0	invertedtrianglecyan.gif	go																								0.0	0.513245105743	0.00101494789124	0.401293992996	1.0	w	996.7540528769999																																	2015_Jun_30_1020	60.1203753739	LearningTask	1	68	
236	-200.0	a	-200.0																	2.0	0.0	2.0	0.0	2.0	3.0	11.0	3.0																													a	1.0	0.383727073669	None	0.0	2.0	hexagongray.gif	go																								2.11	0.514735937119	0.010998964309700002	0.383727073669	1.0	a	999.757601976																																	2015_Jun_30_1020	60.1203753739	LearningTask	1	68	
237	-200.0	a	-200.0																	2.0	0.0	2.0	0.0	3.0	0.0	12.0	3.0																													a	1.0	0.36734294891400004	None	0.0	2.0	hexagongray.gif	go																								2.04	0.5140399932859999	0.000904083251953	0.367342948914	1.0	a	1002.76079488																																	2015_Jun_30_1020	60.1203753739	LearningTask	1	68	
238	-200.0	q	200.0																	2.0	0.0	2.0	0.0	3.0	1.0	13.0	1.0																													q	1.0	0.417583942413	None	0.0	0.5	squaregreen.gif	go																								0.5	0.514183044434	0.0008769035339360002	0.417583942413	1.0	q	1005.76412988																																	2015_Jun_30_1020	60.1203753739	LearningTask	1	68	
239	200.0	s	-200.0																	2.0	0.0	2.0	0.0	3.0	2.0	14.0	2.0																													s	1.0	0.334206104279	None	0.0	1.0	invertedtrianglecyan.gif	go																								1.07	0.513996124268	0.0012362003326400002	0.334206104279	1.0	s	1008.76741004																																	2015_Jun_30_1020	60.1203753739	LearningTask	1	68	
240	200.0	w	200.0																	2.0	0.0	2.0	0.0	3.0	3.0	15.0	0.0																													w	1.0	0.5846750736240001	None	0.0	1.0	crosswhite.gif	stop																								0.99	0.514508008957	0.000881195068359	0.584675073624	1.0	w	1011.77117085																																	2015_Jun_30_1020	60.1203753739	LearningTask	1	68	
241	-200.0	a	-200.0																	2.0	0.0	2.0	0.0	4.0	0.0	16.0	3.0																													a	1.0	0.384396076202	None	0.0	4.0	trianglemagenta.gif	stop																								4.07	0.5138158798219999	0.00703287124634	0.384396076202	1.0	a	1014.77446294																																	2015_Jun_30_1020	60.1203753739	LearningTask	1	68	
242	200.0	s	-200.0																	2.0	0.0	2.0	0.0	4.0	1.0	17.0	2.0																													s	1.0	0.433816194534	None	0.0	2.0	diamondblue.gif	stop																								0.0	0.513689041138	0.0009400844573969999	0.433816194534	1.0	s	1017.77758789																																	2015_Jun_30_1020	60.1203753739	LearningTask	1	68	
243	200.0	w	200.0																	2.0	0.0	2.0	0.0	4.0	2.0	18.0	0.0																													w	1.0	0.383900880814	None	0.0	0.5	circleyellow.gif	stop																								0.0	0.514510154724	0.00088095664978	0.383900880814	1.0	w	1020.78089905																																	2015_Jun_30_1020	60.1203753739	LearningTask	1	68	
244	200.0	s	-200.0																	2.0	0.0	2.0	0.0	4.0	3.0	19.0	2.0																													s	1.0	0.40075802803000005	None	0.0	0.5	circleyellow.gif	stop																								0.35	0.514250040054	0.0008840560913089999	0.40075802803	1.0	s	1023.78497386																																	2015_Jun_30_1020	60.1203753739	LearningTask	1	68	
245	-200.0	a	-200.0																	2.0	0.0	2.0	0.0	5.0	0.0	20.0	3.0																													a	1.0	0.40122318267800006	None	0.0	0.5	circleyellow.gif	stop																								0.0	0.5132038593289999	0.000934839248657	0.401223182678	1.0	a	1026.78799295																																	2015_Jun_30_1020	60.1203753739	LearningTask	1	68	
246	-200.0	q	200.0																	2.0	0.0	2.0	0.0	5.0	1.0	21.0	1.0																													q	1.0	0.434527158737	None	0.0	1.0	crosswhite.gif	stop																								0.8	0.513751983643	0.000888109207153	0.434527158737	1.0	q	1029.79112387																																	2015_Jun_30_1020	60.1203753739	LearningTask	1	68	
247	200.0	s	-200.0																	2.0	0.0	2.0	0.0	5.0	2.0	22.0	2.0																													s	1.0	0.384179830551	None	0.0	1.0	crosswhite.gif	stop																								1.2	0.514546871185	0.000882863998413	0.384179830551	1.0	s	1032.79468799																																	2015_Jun_30_1020	60.1203753739	LearningTask	1	68	
248	-200.0	q	200.0																	2.0	0.0	2.0	0.0	5.0	3.0	23.0	1.0																													q	1.0	0.351099967957	None	0.0	1.0	crosswhite.gif	stop																								0.79	0.513873815536	0.00092601776123	0.351099967957	1.0	q	1035.79760385																																	2015_Jun_30_1020	60.1203753739	LearningTask	1	68	
249	-200.0	q	200.0																	2.0	0.0	2.0	0.0	6.0	0.0	24.0	1.0																													q	1.0	0.384162187576	None	0.0	0.5	squaregreen.gif	go																								0.34	0.514278888702	0.000963926315308	0.384162187576	1.0	q	1038.801126																																	2015_Jun_30_1020	60.1203753739	LearningTask	1	68	
250	-200.0	a	-200.0																	2.0	0.0	2.0	0.0	6.0	1.0	25.0	3.0																													a	1.0	0.384074211121	None	0.0	1.0	crosswhite.gif	stop																								1.07	0.514093875885	0.00117993354797	0.384074211121	1.0	a	1041.80432987																																	2015_Jun_30_1020	60.1203753739	LearningTask	1	68	
251	-200.0	q	200.0																	2.0	0.0	2.0	0.0	6.0	2.0	26.0	1.0																													q	1.0	0.36761212348899996	None	0.0	1.0	invertedtrianglecyan.gif	go																								0.0	0.513967037201	0.000885009765625	0.367612123489	1.0	q	1044.8078959																																	2015_Jun_30_1020	60.1203753739	LearningTask	1	68	
252	-200.0	a	-200.0																	2.0	0.0	2.0	0.0	6.0	3.0	27.0	3.0																													a	1.0	0.417669773102	None	0.0	1.0	crosswhite.gif	stop																								1.02	0.513995885849	0.0009400844573969999	0.417669773102	1.0	a	1047.81125188																																	2015_Jun_30_1020	60.1203753739	LearningTask	1	68	
253	200.0	s	-200.0																	2.0	0.0	2.0	0.0	7.0	0.0	28.0	2.0																													s	1.0	0.434382915497	None	0.0	1.0	invertedtrianglecyan.gif	go																								0.78	0.514097213745	0.000900030136108	0.434382915497	1.0	s	1050.81437182																																	2015_Jun_30_1020	60.1203753739	LearningTask	1	68	
254	200.0	w	200.0																	2.0	0.0	2.0	0.0	7.0	1.0	29.0	0.0																													w	1.0	0.43408703804	None	0.0	4.0	trianglemagenta.gif	stop																								4.02	0.514543771744	0.0009019374847410001	0.43408703804	1.0	w	1053.81782484																																	2015_Jun_30_1020	60.1203753739	LearningTask	1	68	
255	-200.0	q	200.0																	2.0	0.0	2.0	0.0	7.0	2.0	30.0	1.0																													q	1.0	0.36748290062	None	0.0	4.0	lineorange.gif	go																								3.84	0.514012098312	0.0009329319000239999	0.36748290062	1.0	q	1056.8211																																	2015_Jun_30_1020	60.1203753739	LearningTask	1	68	
256	200.0	s	-200.0																	2.0	0.0	2.0	0.0	7.0	3.0	31.0	2.0																													s	1.0	0.38457703590400005	None	0.0	4.0	trianglemagenta.gif	stop																								4.13	0.513847827911	0.0009448528289790001	0.384577035904	1.0	s	1059.82466984																																	2015_Jun_30_1020	60.1203753739	LearningTask	1	68	
257	-200.0	a	-200.0																	2.0	0.0	2.0	0.0	8.0	0.0	32.0	3.0																													a	1.0	0.367383003235	None	0.0	1.0	invertedtrianglecyan.gif	go																								0.0	0.514095067978	0.000880002975464	0.367383003235	1.0	a	1062.82798791																																	2015_Jun_30_1020	60.1203753739	LearningTask	1	68	
258	200.0	s	-200.0																	2.0	0.0	2.0	0.0	8.0	1.0	33.0	2.0																													s	1.0	0.333822965622	None	0.0	0.5	squaregreen.gif	go																								0.72	0.514028072357	0.000904083251953	0.333822965622	1.0	s	1065.83113384																																	2015_Jun_30_1020	60.1203753739	LearningTask	1	68	
259	200.0	s	-200.0																	2.0	0.0	2.0	0.0	8.0	2.0	34.0	2.0																													s	1.0	0.351202011108	None	0.0	4.0	trianglemagenta.gif	stop																								0.0	0.5142590999600001	0.000887155532837	0.284363985062	0.0	w	1068.83472395	4.25	0.515051841736	0.000995874404907	0.351202011108	1.0	s	1071.83884287																										2015_Jun_30_1020	60.1203753739	LearningTask	1	68	
260	200.0	w	200.0																	2.0	0.0	2.0	0.0	8.0	3.0	35.0	0.0																													w	1.0	0.417593955994	None	0.0	0.5	circleyellow.gif	stop																								0.5	0.513067960739	0.0009369850158689999	0.417593955994	1.0	w	1074.84175801																																	2015_Jun_30_1020	60.1203753739	LearningTask	1	68	
261	-200.0	a	-200.0																	2.0	0.0	2.0	0.0	9.0	0.0	36.0	3.0																													a	1.0	0.40044999122599995	None	0.0	2.0	diamondblue.gif	stop																								1.89	0.51428604126	0.0009169578552250001	0.400449991226	1.0	a	1077.84469295																																	2015_Jun_30_1020	60.1203753739	LearningTask	1	68	
262	200.0	s	-200.0																	2.0	0.0	2.0	0.0	9.0	1.0	37.0	2.0																													s	1.0	0.33445215225200003	None	0.0	4.0	trianglemagenta.gif	stop																								3.97	0.5144460201259999	0.0009350776672360002	0.334452152252	1.0	s	1080.84815884																																	2015_Jun_30_1020	60.1203753739	LearningTask	1	68	
263	-200.0	a	-200.0																	2.0	0.0	2.0	0.0	9.0	2.0	38.0	3.0																													a	1.0	0.45107007026699997	None	0.0	2.0	hexagongray.gif	go																								2.1	0.514034032822	0.000962018966675	0.451070070267	1.0	a	1083.85126686																																	2015_Jun_30_1020	60.1203753739	LearningTask	1	68	
264	200.0	w	200.0																	2.0	0.0	2.0	0.0	9.0	3.0	39.0	0.0																													w	1.0	0.45095705986	None	0.0	2.0	diamondblue.gif	stop																								2.23	0.514668941498	0.000882863998413	0.45095705986	1.0	w	1086.85458684																																	2015_Jun_30_1020	60.1203753739	LearningTask	1	68	
265	200.0	w	200.0																	2.0	0.0	2.0	0.0	10.0	0.0	40.0	0.0																													w	1.0	0.450985193253	None	0.0	0.5	squaregreen.gif	go																								0.66	0.514424800873	0.0008959770202639998	0.450985193253	1.0	w	1089.85809302																																	2015_Jun_30_1020	60.1203753739	LearningTask	1	68	
266	-200.0	q	200.0																	2.0	0.0	2.0	0.0	10.0	1.0	41.0	1.0																													q	1.0	0.384661912918	None	0.0	4.0	trianglemagenta.gif	stop																								0.0	0.513943910599	0.0008959770202639998	0.5012819767	0.0	w	1092.86141896	3.96	0.515616178513	0.000946044921875	0.384661912918	1.0	q	1095.86496091																										2015_Jun_30_1020	60.1203753739	LearningTask	1	68	
267	-200.0	q	200.0																	2.0	0.0	2.0	0.0	10.0	2.0	42.0	1.0																													q	1.0	0.38412308692900005	None	0.0	4.0	lineorange.gif	go																								3.89	0.514245986938	0.000881910324097	0.384123086929	1.0	q	1098.86869693																																	2015_Jun_30_1020	60.1203753739	LearningTask	1	68	
268	200.0	w	200.0																	2.0	0.0	2.0	0.0	10.0	3.0	43.0	0.0																													w	1.0	0.400737047195	None	0.0	0.5	circleyellow.gif	stop																								0.0	0.513608932495	0.00092887878418	0.400737047195	1.0	w	1101.87152004																																	2015_Jun_30_1020	60.1203753739	LearningTask	1	68	
269	200.0	w	200.0																	2.0	0.0	2.0	0.0	11.0	0.0	44.0	0.0																													w	1.0	0.400801181793	None	0.0	1.0	invertedtrianglecyan.gif	go																								0.85	0.514141082764	0.000974178314209	0.400801181793	1.0	w	1104.87480187																																	2015_Jun_30_1020	60.1203753739	LearningTask	1	68	
270	-200.0	q	200.0																	2.0	0.0	2.0	0.0	11.0	1.0	45.0	1.0																													q	1.0	0.417537927628	None	0.0	4.0	lineorange.gif	go																								4.1	0.514279842377	0.000880002975464	0.417537927628	1.0	q	1107.87855005																																	2015_Jun_30_1020	60.1203753739	LearningTask	1	68	
271	-200.0	q	200.0																	2.0	0.0	2.0	0.0	11.0	2.0	46.0	1.0																													q	1.0	0.384012937546	None	0.0	1.0	invertedtrianglecyan.gif	go																								0.8	0.5141639709470001	0.0008959770202639998	0.384012937546	1.0	q	1110.881814																																	2015_Jun_30_1020	60.1203753739	LearningTask	1	68	
272	200.0	s	-200.0																	2.0	0.0	2.0	0.0	11.0	3.0	47.0	2.0																													s	1.0	0.43427205085799997	None	0.0	0.5	squaregreen.gif	go																								0.26	0.513794898987	0.0009169578552250001	0.434272050858	1.0	s	1113.88491583																																	2015_Jun_30_1020	60.1203753739	LearningTask	1	68	
273	200.0	s	-200.0																	2.0	0.0	2.0	0.0	12.0	0.0	48.0	2.0																													s	1.0	0.467442989349	None	0.0	4.0	trianglemagenta.gif	stop																								0.0	0.514332056046	0.0009031295776369999	0.467442989349	1.0	s	1116.88843203																																	2015_Jun_30_1020	60.1203753739	LearningTask	1	68	
274	200.0	s	-200.0																	2.0	0.0	2.0	0.0	12.0	1.0	49.0	2.0																													s	1.0	0.401110172272	None	0.0	0.5	circleyellow.gif	stop																								0.32	0.5140399932859999	0.000908136367798	0.401110172272	1.0	s	1119.89191294																																	2015_Jun_30_1020	60.1203753739	LearningTask	1	68	
275	-200.0	q	200.0																	2.0	0.0	2.0	0.0	12.0	2.0	50.0	1.0																													q	1.0	0.41789197921800003	None	0.0	0.5	squaregreen.gif	go																								0.56	0.513657093048	0.0009369850158689999	0.417891979218	1.0	q	1122.89488101																																	2015_Jun_30_1020	60.1203753739	LearningTask	1	68	
276	-200.0	a	-200.0																	2.0	0.0	2.0	0.0	12.0	3.0	51.0	3.0																													a	1.0	0.7175688743590001	None	0.0	4.0	trianglemagenta.gif	stop																								3.84	0.514617919922	0.000900983810425	0.717568874359	1.0	a	1125.89837003																																	2015_Jun_30_1020	60.1203753739	LearningTask	1	68	
277	200.0	s	-200.0																	2.0	0.0	2.0	0.0	13.0	0.0	52.0	2.0																													s	1.0	0.534600973129	None	0.0	4.0	trianglemagenta.gif	stop																								3.76	0.514254808426	0.000902891159058	0.534600973129	1.0	s	1128.90205884																																	2015_Jun_30_1020	60.1203753739	LearningTask	1	68	
278	200.0	w	200.0																	2.0	0.0	2.0	0.0	13.0	1.0	53.0	0.0																													w	1.0	0.584575891495	None	0.0	0.5	squaregreen.gif	go																								0.38	0.513690948486	0.0008978843688960001	0.584575891495	1.0	w	1131.90508699																																	2015_Jun_30_1020	60.1203753739	LearningTask	1	68	
279	200.0	s	-200.0																	2.0	0.0	2.0	0.0	13.0	2.0	54.0	2.0																													s	1.0	0.6514170169829999	None	0.0	0.5	circleyellow.gif	stop																								0.75	0.514324188232	0.000909090042114	0.651417016983	1.0	s	1134.90839195																																	2015_Jun_30_1020	60.1203753739	LearningTask	1	68	
280	-200.0	a	-200.0																	2.0	0.0	2.0	0.0	13.0	3.0	55.0	3.0																													a	1.0	0.65119099617	None	0.0	1.0	crosswhite.gif	stop																								0.98	0.514206886292	0.0008997917175289999	0.65119099617	1.0	a	1137.91205788																																	2015_Jun_30_1020	60.1203753739	LearningTask	1	68	
281	-200.0	a	-200.0																	2.0	0.0	2.0	0.0	14.0	0.0	56.0	3.0																													a	1.0	0.43465304374700003	None	0.0	2.0	diamondblue.gif	stop																								0.0	0.513664960861	0.0008859634399410001	0.434653043747	1.0	a	1140.91514587																																	2015_Jun_30_1020	60.1203753739	LearningTask	1	68	
282	-200.0	a	-200.0																	2.0	0.0	2.0	0.0	14.0	1.0	57.0	3.0																													a	1.0	0.518124818802	None	0.0	2.0	hexagongray.gif	go																								1.89	0.514051914215	0.00108909606934	0.518124818802	1.0	a	1143.91869903																																	2015_Jun_30_1020	60.1203753739	LearningTask	1	68	
283	200.0	w	200.0																	2.0	0.0	2.0	0.0	14.0	2.0	58.0	0.0																													w	1.0	0.467540979385	None	0.0	4.0	lineorange.gif	go																								3.87	0.514094114304	0.00088095664978	0.467540979385	1.0	w	1146.92190599																																	2015_Jun_30_1020	60.1203753739	LearningTask	1	68	
284	-200.0	a	-200.0																	2.0	0.0	2.0	0.0	14.0	3.0	59.0	3.0																													a	1.0	0.451289892197	None	0.0	4.0	trianglemagenta.gif	stop																								4.15	0.5142600536349999	0.0011448860168499998	0.451289892197	1.0	a	1149.92525887																																	2015_Jun_30_1020	60.1203753739	LearningTask	1	68	
285	200.0	w	200.0																	2.0	0.0	2.0	0.0	15.0	0.0	60.0	0.0																													w	1.0	0.450876951218	None	0.0	1.0	invertedtrianglecyan.gif	go																								1.02	0.5144460201259999	0.0009250640869139999	0.450876951218	1.0	w	1152.92859697																																	2015_Jun_30_1020	60.1203753739	LearningTask	1	68	
286	-200.0	a	-200.0																	2.0	0.0	2.0	0.0	15.0	1.0	61.0	3.0																													a	1.0	0.41797304153399994	None	0.0	2.0	hexagongray.gif	go																								2.12	0.514400959015	0.0008940696716310001	0.417973041534	1.0	a	1155.93211293																																	2015_Jun_30_1020	60.1203753739	LearningTask	1	68	
287	-200.0	a	-200.0																	2.0	0.0	2.0	0.0	15.0	2.0	62.0	3.0																													a	1.0	0.417269945145	None	0.0	4.0	trianglemagenta.gif	stop																								0.0	0.514400959015	0.0008981227874760001	0.417269945145	1.0	a	1158.93533397																																	2015_Jun_30_1020	60.1203753739	LearningTask	1	68	
288	200.0	w	200.0																	2.0	0.0	2.0	0.0	15.0	3.0	63.0	0.0																													w	1.0	0.534448862076	None	0.0	2.0	hexagongray.gif	go																								0.0	0.514188051224	0.000900983810425	0.534448862076	1.0	w	1161.938586																																	2015_Jun_30_1020	60.1203753739	LearningTask	1	68	
289	200.0	w	200.0																	2.0	0.0	2.0	0.0	16.0	0.0	64.0	0.0																													w	1.0	0.48448395729099997	None	0.0	2.0	diamondblue.gif	stop																								2.19	0.514488935471	0.0009019374847410001	0.484483957291	1.0	w	1164.94222498																																	2015_Jun_30_1020	60.1203753739	LearningTask	1	68	
290	-200.0	a	-200.0																	2.0	0.0	2.0	0.0	16.0	1.0	65.0	3.0																													a	1.0	0.450834989548	None	0.0	2.0	hexagongray.gif	go																								1.99	0.514059066772	0.0009059906005860001	0.450834989548	1.0	a	1167.94550705																																	2015_Jun_30_1020	60.1203753739	LearningTask	1	68	
291	-200.0	q	200.0																	2.0	0.0	2.0	0.0	16.0	2.0	66.0	1.0																													q	1.0	0.401237010956	None	0.0	0.5	squaregreen.gif	go																								0.6	0.514376878738	0.0009319782257080001	0.401237010956	1.0	q	1170.94964695																																	2015_Jun_30_1020	60.1203753739	LearningTask	1	68	
292	-200.0	q	200.0																	2.0	0.0	2.0	0.0	16.0	3.0	67.0	1.0																													q	1.0	0.41775989532499996	None	0.0	4.0	trianglemagenta.gif	stop																								0.0	0.513360977173	0.0009169578552250001	0.417759895325	1.0	q	1173.95219302																																	2015_Jun_30_1020	60.1203753739	LearningTask	1	68	
293	200.0	w	200.0																	2.0	0.0	2.0	0.0	17.0	0.0	68.0	0.0																													w	1.0	0.483912944794	None	0.0	2.0	hexagongray.gif	go																								1.92	0.514346122742	0.000890016555786	0.483912944794	1.0	w	1176.95542288																																	2015_Jun_30_1020	60.1203753739	LearningTask	1	68	
294	-200.0	q	200.0																	2.0	0.0	2.0	0.0	17.0	1.0	69.0	1.0																													q	1.0	0.451001882553	None	0.0	4.0	trianglemagenta.gif	stop																								3.95	0.514027118683	0.0009250640869139999	0.451001882553	1.0	q	1179.95936203																																	2015_Jun_30_1020	60.1203753739	LearningTask	1	68	
