	xPos	corrAns	yPos	corrGoResp	yPosGoStim	xPosGoStim	pracTrials.thisRepN	pracTrials.thisTrialN	pracTrials.thisN	pracTrials.thisIndex	ReDoLoopPrac.thisRepN	ReDoLoopPrac.thisTrialN	ReDoLoopPrac.thisN	ReDoLoopPrac.thisIndex	ReDoLoopPrac.thisTrial	pracStopTrials.thisRepN	pracStopTrials.thisTrialN	pracStopTrials.thisN	pracStopTrials.thisIndex	Blocks.thisRepN	Blocks.thisTrialN	Blocks.thisN	Blocks.thisIndex	trials.thisRepN	trials.thisTrialN	trials.thisN	trials.thisIndex	ReDoLoopMain.thisRepN	ReDoLoopMain.thisTrialN	ReDoLoopMain.thisN	ReDoLoopMain.thisIndex	ReDoLoopMain.thisTrial	StopBlocks.thisRepN	StopBlocks.thisTrialN	StopBlocks.thisN	StopBlocks.thisIndex	StopTrials.thisRepN	StopTrials.thisTrialN	StopTrials.thisN	StopTrials.thisIndex	auctionBlocks.thisRepN	auctionBlocks.thisTrialN	auctionBlocks.thisN	auctionBlocks.thisIndex	auctionTrials.thisRepN	auctionTrials.thisTrialN	auctionTrials.thisN	auctionTrials.thisIndex	learningTrialList	learningPracTrialList	stopTrialList	stopPracTrialList	auctionTrialList	ok1.keys	ok1.rt	resp.keys	resp.corr	resp.rt	feedbackResp.keys	feedbackResp.corr	currentReward	currentStimulus	currentStimType	firstPracComputedRewardOutput	firstPracLearningStimOnset	firstPracLearningFixOnset	firstPracPresentationRT	firstPracPresentationAcc	firstPracPresentationResp	firstPracEndTrialTimeStamp	StartTrialTimeStamp	trialType	goStim	stimType	stopStimValue	goResp.keys	goResp.corr	goResp.rt	key_resp_9.keys	key_resp_9.corr	fixStopOnset	goStimOnset	stopSignalOnset	EndTrialTimeStamp	key_resp_3.keys	key_resp_3.rt	firstComputedRewardOutput	firstLearningStimOnset	firstLearningFixOnset	firstPresentationRT	firstPresentationAcc	firstPresentationResp	firstEndTrialTimeStamp	feedbackResp.rt	secondComputedRewardOutput	secondLearningStimOnset	secondLearningFixOnset	secondPresentationRT	secondPresentationAcc	secondPresentationResp	secondEndTrialTimeStamp	key_resp_7.keys	key_resp_7.rt	thirdComputedRewardOutput	thirdLearningStimOnset	thirdLearningFixOnset	thirdPresentationRT	thirdPresentationAcc	thirdPresentationResp	thirdEndTrialTimeStamp	beginningSSD	EndingSSD	key_resp_9.rt	key_resp_4.keys	key_resp_4.rt	auctionResponse.keys	auctionResponse.rt	auctionStimDuration	auctionStim	auctionAmounts	auctionStimValue	auctionCondition	chosenAuctionAmount	key_resp_5.keys	key_resp_5.rt	shuffledRewardList	chosenReward1	chosenReward2	chosenReward3	chosenReward4	chosenReward5	key_resp_6.keys	key_resp_6.rt	date	frameRate	expName	session	participant	Unnamed: 138
0																																																	[]	[]	[]	[]	[]	9.0	59.578469038																																																																															2015_Jul_07_0953	60.1413233	LearningTask	1	80	
1	200.0	s	-200.0				0.0	0.0	0.0	2.0																																														s	1.0	0.634742975235	None	0.0	4.0	diamondyellow.gif	stop	3.92	0.514573097229	0.0205430984497	0.634742975235	1.0	s	96.6077048779																																																																2015_Jul_07_0953	60.1413233	LearningTask	1	80	
2	-200.0	q	200.0				0.0	1.0	1.0	9.0																																														q	1.0	0.45121192932099996	None	0.0	1.0	squareblue.gif	stop	0.99	0.514782905579	0.042601823806800006	0.45121192932099996	1.0	q	99.61053705219999																																																																2015_Jul_07_0953	60.1413233	LearningTask	1	80	
3	-200.0	q	200.0				0.0	2.0	2.0	5.0																																														q	1.0	0.45125699043300005	None	0.0	1.0	squareblue.gif	stop	1.01	0.51513504982	0.000907897949219	0.45125699043300005	1.0	q	102.61416196799999																																																																2015_Jul_07_0953	60.1413233	LearningTask	1	80	
4	200.0	s	-200.0				0.0	3.0	3.0	6.0																																														s	1.0	0.467441082001	None	0.0	1.0	squareblue.gif	stop	1.24	0.514661073685	0.000881195068359	0.467441082001	1.0	s	105.617491961																																																																2015_Jul_07_0953	60.1413233	LearningTask	1	80	
5	200.0	w	200.0				0.0	4.0	4.0	4.0																																														w	1.0	0.468365192413	None	0.0	1.0	squareblue.gif	stop	0.92	0.515043973923	0.000885009765625	0.468365192413	1.0	w	108.621075869																																																																2015_Jul_07_0953	60.1413233	LearningTask	1	80	
6	-200.0	a	-200.0				0.0	5.0	5.0	3.0																																														a	1.0	0.45080208778399994	None	0.0	4.0	diamondyellow.gif	stop	4.19	0.514857053757	0.0009031295776369999	0.45080208778399994	1.0	a	111.6243999																																																																2015_Jul_07_0953	60.1413233	LearningTask	1	80	
7	200.0	w	200.0				0.0	6.0	6.0	0.0																																														w	1.0	0.450979948044	None	0.0	0.5	crossgreen.gif	go	0.63	0.514882087708	0.042876005172699995	0.450979948044	1.0	w	114.627644062																																																																2015_Jul_07_0953	60.1413233	LearningTask	1	80	
8	200.0	w	200.0				0.0	7.0	7.0	8.0																																														w	1.0	0.48430204391500004	None	0.0	1.0	squareblue.gif	stop	0.0	0.515021085739	0.0012109279632599999	0.48430204391500004	1.0	w	117.63138198899999																																																																2015_Jul_07_0953	60.1413233	LearningTask	1	80	
9	-200.0	a	-200.0				0.0	8.0	8.0	7.0																																														a	1.0	0.41758608818099996	None	0.0	4.0	diamondyellow.gif	stop	4.23	0.514631986618	0.0008959770202639998	0.41758608818099996	1.0	a	120.63451886200001																																																																2015_Jul_07_0953	60.1413233	LearningTask	1	80	
10	-200.0	q	200.0				0.0	9.0	9.0	1.0																																														q	1.0	0.6180400848390001	None	0.0	2.0	invertedtrianglewhite.gif	go	2.2	0.5151500701899999	0.06272315979	0.6180400848390001	1.0	q	123.637845039																																																																2015_Jul_07_0953	60.1413233	LearningTask	1	80	
11				m	0.0	200.0										0.0	0.0	0.0	1.0																																																				178.468276024	stop	diamondyellow.gif	stop	4.0	m	1.0	0.450437068939	None	0.0	0.0013611316680899998	0.513436079025	0.7638061046600001	181.46932292																																																		2015_Jul_07_0953	60.1413233	LearningTask	1	80	
12				z	0.0	-200.0										0.0	1.0	1.0	0.0																																																				181.469764948	stop	triangleorange.gif	stop	2.0	z	1.0	0.350780010223	None	0.0	0.0013599395752	0.51570892334	0.765789985657	184.472524881																																																		2015_Jul_07_0953	60.1413233	LearningTask	1	80	
13				z	0.0	-200.0										1.0	0.0	2.0	0.0																																																				184.472890854	stop	circlegray.gif	stop	0.5	None	0.0		None	0.0	0.0356168746948	0.5157988071440001	0.765986919403	187.475775957																																																		2015_Jul_07_0953	60.1413233	LearningTask	1	80	
14				m	0.0	200.0										1.0	1.0	3.0	1.0																																																				187.476285934	stop	circlegray.gif	stop	0.5	None	0.0		None	0.0	0.00102615356445	0.51555109024	0.76553606987	190.479220867																																																		2015_Jul_07_0953	60.1413233	LearningTask	1	80	
15				z	0.0	-200.0										2.0	0.0	4.0	0.0																																																				190.479588032	go	hexagonmagenta.gif	go	4.0	z	1.0	0.384149074554	None	0.0	0.00197911262512	0.515779018402		193.482719898																																																		2015_Jul_07_0953	60.1413233	LearningTask	1	80	
16				z	0.0	-200.0										2.0	1.0	5.0	0.0																																																				193.483087063	stop	circlegray.gif	stop	0.5	None	0.0		None	0.0	0.000994920730591	0.515971899033	0.766116857529	196.48609185200002																																																		2015_Jul_07_0953	60.1413233	LearningTask	1	80	
17				z	0.0	-200.0										3.0	0.0	6.0	0.0																																																				196.48650097799998	go	hexagonmagenta.gif	go	4.0	z	1.0	0.7344288825990001	None	0.0	0.000977039337158	0.515884160995		199.489235878																																																		2015_Jul_07_0953	60.1413233	LearningTask	1	80	
18				m	0.0	200.0										3.0	1.0	7.0	1.0																																																				199.489596844	stop	squareblue.gif	stop	1.0	None	0.0		None	0.0	0.0010039806366	0.5156810283659999	0.766318798065	202.492541075																																																		2015_Jul_07_0953	60.1413233	LearningTask	1	80	
19				m	0.0	200.0										4.0	0.0	8.0	1.0																																																				202.492909908	go	invertedtrianglewhite.gif	go	2.0	m	1.0	0.484319925308	None	0.0	0.0009670257568360001	0.515897035599		205.496161938																																																		2015_Jul_07_0953	60.1413233	LearningTask	1	80	
20				m	0.0	200.0										4.0	1.0	9.0	1.0																																																				205.49653005599998	stop	triangleorange.gif	stop	2.0	None	0.0		None	0.0	0.0009589195251460001	0.516202926636	0.766112804413	208.49983692200001																																																		2015_Jul_07_0953	60.1413233	LearningTask	1	80	
21																																																																																					9.0	64.2924239635																																																2015_Jul_07_0953	60.1413233	LearningTask	1	80	
22																																																						9.0	20.1061351299																																																																															2015_Jul_07_0953	60.1413233	LearningTask	1	80	
23	-200.0	a	-200.0																	0.0	0.0	0.0	0.0	0.0	0.0	0.0	3.0																													a	1.0	0.434346914291	None	0.0	4.0	diamondyellow.gif	stop																								4.21	0.504707098007	0.0009119510650630002	0.434346914291	1.0	a	296.115766048																																									2015_Jul_07_0953	60.1413233	LearningTask	1	80	
24	-200.0	a	-200.0																	0.0	0.0	0.0	0.0	0.0	1.0	1.0	3.0																													a	1.0	0.401038885117	None	0.0	2.0	triangleorange.gif	stop																								0.0	0.513821840286	0.0011348724365200001	0.401038885117	1.0	a	299.11836504900003																																									2015_Jul_07_0953	60.1413233	LearningTask	1	80	
25	-200.0	q	200.0																	0.0	0.0	0.0	0.0	0.0	2.0	2.0	1.0																													q	1.0	0.36832714080799994	None	0.0	4.0	hexagonmagenta.gif	go																								4.04	0.514643907547	0.0008978843688960001	0.36832714080799994	1.0	q	302.122056007																																									2015_Jul_07_0953	60.1413233	LearningTask	1	80	
26	-200.0	q	200.0																	0.0	0.0	0.0	0.0	0.0	3.0	3.0	1.0																													q	1.0	0.434117078781	None	0.0	2.0	invertedtrianglewhite.gif	go																								1.84	0.514338970184	0.0008959770202639998	0.434117078781	1.0	q	305.12548589700003																																									2015_Jul_07_0953	60.1413233	LearningTask	1	80	
27	-200.0	a	-200.0																	0.0	0.0	0.0	0.0	1.0	0.0	4.0	3.0																													a	1.0	0.417466163635	None	0.0	4.0	diamondyellow.gif	stop																								0.0	0.514070987701	0.000953912734985	0.417466163635	1.0	a	308.128746986																																									2015_Jul_07_0953	60.1413233	LearningTask	1	80	
28	200.0	w	200.0																	0.0	0.0	0.0	0.0	1.0	1.0	5.0	0.0																													w	1.0	0.500592947006	None	0.0	1.0	linecyan.gif	go																								1.23	0.51434803009	0.009210109710690001	0.500592947006	1.0	w	311.132179022																																									2015_Jul_07_0953	60.1413233	LearningTask	1	80	
29	-200.0	a	-200.0																	0.0	0.0	0.0	0.0	1.0	2.0	6.0	3.0																													a	1.0	0.468608140945	None	0.0	2.0	invertedtrianglewhite.gif	go																								0.0	0.5141038894650001	0.000913858413696	0.468608140945	1.0	a	314.135314941																																									2015_Jul_07_0953	60.1413233	LearningTask	1	80	
30	200.0	s	-200.0																	0.0	0.0	0.0	0.0	1.0	3.0	7.0	2.0																													s	1.0	0.517933130264	None	0.0	1.0	squareblue.gif	stop																								0.97	0.514923095703	0.0009319782257080001	0.517933130264	1.0	s	317.139095068																																									2015_Jul_07_0953	60.1413233	LearningTask	1	80	
31	200.0	w	200.0																	0.0	0.0	0.0	0.0	2.0	0.0	8.0	0.0																													w	1.0	0.434104204178	None	0.0	2.0	triangleorange.gif	stop																								1.91	0.514128923416	0.0009019374847410001	0.434104204178	1.0	w	320.142467976																																									2015_Jul_07_0953	60.1413233	LearningTask	1	80	
32	-200.0	a	-200.0																	0.0	0.0	0.0	0.0	2.0	1.0	9.0	3.0																													a	1.0	0.48432302475	None	0.0	2.0	triangleorange.gif	stop																								0.0	0.514225006104	0.000898838043213	0.48432302475	1.0	a	323.145900965																																									2015_Jul_07_0953	60.1413233	LearningTask	1	80	
33	200.0	w	200.0																	0.0	0.0	0.0	0.0	2.0	2.0	10.0	0.0																													w	1.0	0.401179790497	None	0.0	1.0	squareblue.gif	stop																								0.87	0.514069080353	0.0009150505065920001	0.401179790497	1.0	w	326.149250984																																									2015_Jul_07_0953	60.1413233	LearningTask	1	80	
34	-200.0	a	-200.0																	0.0	0.0	0.0	0.0	2.0	3.0	11.0	3.0																													a	1.0	0.467437028885	None	0.0	4.0	diamondyellow.gif	stop																								4.11	0.513991117477	0.00095009803772	0.467437028885	1.0	a	329.15250206																																									2015_Jul_07_0953	60.1413233	LearningTask	1	80	
35	-200.0	q	200.0																	0.0	0.0	0.0	0.0	3.0	0.0	12.0	1.0																													q	1.0	0.400721073151	None	0.0	0.5	crossgreen.gif	go																								0.27	0.514518976212	0.0009431838989260002	0.400721073151	1.0	q	332.156277895																																									2015_Jul_07_0953	60.1413233	LearningTask	1	80	
36	200.0	s	-200.0																	0.0	0.0	0.0	0.0	3.0	1.0	13.0	2.0																													s	1.0	0.450615882874	None	0.0	1.0	squareblue.gif	stop																								1.16	0.513967990875	0.0009109973907470001	0.450615882874	1.0	s	335.159151077																																									2015_Jul_07_0953	60.1413233	LearningTask	1	80	
37	-200.0	q	200.0																	0.0	0.0	0.0	0.0	3.0	2.0	14.0	1.0																													q	1.0	0.500864982605	None	0.0	4.0	hexagonmagenta.gif	go																								3.98	0.514322042465	0.0009059906005860001	0.500864982605	1.0	q	338.16248488400004																																									2015_Jul_07_0953	60.1413233	LearningTask	1	80	
38	200.0	w	200.0																	0.0	0.0	0.0	0.0	3.0	3.0	15.0	0.0																													w	1.0	0.483771085739	None	0.0	0.5	circlegray.gif	stop																								0.35	0.514823913574	0.000922918319702	0.483771085739	1.0	w	341.165994883																																									2015_Jul_07_0953	60.1413233	LearningTask	1	80	
39	200.0	s	-200.0																	0.0	0.0	0.0	0.0	4.0	0.0	16.0	2.0																													s	1.0	0.450626134872	None	0.0	2.0	invertedtrianglewhite.gif	go																								2.01	0.514401912689	0.0008978843688960001	0.450626134872	1.0	s	344.169177055																																									2015_Jul_07_0953	60.1413233	LearningTask	1	80	
40	200.0	s	-200.0																	0.0	0.0	0.0	0.0	4.0	1.0	17.0	2.0																													s	1.0	0.467190980911	None	0.0	1.0	linecyan.gif	go																								1.23	0.514715909958	0.0009529590606689998	0.467190980911	1.0	s	347.172976017																																									2015_Jul_07_0953	60.1413233	LearningTask	1	80	
41	-200.0	q	200.0																	0.0	0.0	0.0	0.0	4.0	2.0	18.0	1.0																													q	1.0	0.417435884476	None	0.0	0.5	crossgreen.gif	go																								0.0	0.51368689537	0.0012719631195099999	0.417435884476	1.0	q	350.17636203800004																																									2015_Jul_07_0953	60.1413233	LearningTask	1	80	
42	-200.0	q	200.0																	0.0	0.0	0.0	0.0	4.0	3.0	19.0	1.0																													q	1.0	0.500960826874	None	0.0	2.0	triangleorange.gif	stop																								1.98	0.5138750076290001	0.0009658336639400001	0.500960826874	1.0	q	353.17940402																																									2015_Jul_07_0953	60.1413233	LearningTask	1	80	
43	-200.0	q	200.0																	0.0	0.0	0.0	0.0	5.0	0.0	20.0	1.0																													q	1.0	0.451088905334	None	0.0	4.0	hexagonmagenta.gif	go																								0.0	0.514080047607	0.000962018966675	0.451088905334	1.0	q	356.18277406699997																																									2015_Jul_07_0953	60.1413233	LearningTask	1	80	
44	-200.0	a	-200.0																	0.0	0.0	0.0	0.0	5.0	1.0	21.0	3.0																													a	1.0	0.41759490966799995	None	0.0	4.0	hexagonmagenta.gif	go																								4.06	0.51444196701	0.0009069442749019998	0.41759490966799995	1.0	a	359.18618392900004																																									2015_Jul_07_0953	60.1413233	LearningTask	1	80	
45	200.0	w	200.0																	0.0	0.0	0.0	0.0	5.0	2.0	22.0	0.0																													w	1.0	0.41737413406400004	None	0.0	1.0	linecyan.gif	go																								0.81	0.5143699646000001	0.000908851623535	0.41737413406400004	1.0	w	362.18997407																																									2015_Jul_07_0953	60.1413233	LearningTask	1	80	
46	200.0	w	200.0																	0.0	0.0	0.0	0.0	5.0	3.0	23.0	0.0																													w	1.0	0.484068155289	None	0.0	0.5	crossgreen.gif	go																								0.63	0.513963937759	0.000931024551392	0.484068155289	1.0	w	365.192934036																																									2015_Jul_07_0953	60.1413233	LearningTask	1	80	
47	-200.0	a	-200.0																	0.0	0.0	0.0	0.0	6.0	0.0	24.0	3.0																													a	1.0	0.46788787841799995	None	0.0	2.0	invertedtrianglewhite.gif	go																								1.79	0.51433801651	0.0008859634399410001	0.46788787841799995	1.0	a	368.19616103199996																																									2015_Jul_07_0953	60.1413233	LearningTask	1	80	
48	200.0	w	200.0																	0.0	0.0	0.0	0.0	6.0	1.0	25.0	0.0																													w	1.0	0.368180036545	None	0.0	2.0	invertedtrianglewhite.gif	go																								0.0	0.5142509937290001	0.0008940696716310001	0.368180036545	1.0	w	371.199851036																																									2015_Jul_07_0953	60.1413233	LearningTask	1	80	
49	200.0	s	-200.0																	0.0	0.0	0.0	0.0	6.0	2.0	26.0	2.0																													s	1.0	0.35074996948200005	None	0.0	1.0	squareblue.gif	stop																								0.8	0.513920783997	0.000917911529541	0.35074996948200005	1.0	s	374.20299887699997																																									2015_Jul_07_0953	60.1413233	LearningTask	1	80	
50	-200.0	a	-200.0																	0.0	0.0	0.0	0.0	6.0	3.0	27.0	3.0																													a	1.0	0.451370000839	None	0.0	2.0	triangleorange.gif	stop																								0.0	0.51441693306	0.00116991996765	0.451370000839	1.0	a	377.20636487																																									2015_Jul_07_0953	60.1413233	LearningTask	1	80	
51	200.0	s	-200.0																	0.0	0.0	0.0	0.0	7.0	0.0	28.0	2.0																													s	1.0	0.5009880065919999	None	0.0	0.5	circlegray.gif	stop																								0.39	0.514590024948	0.0009069442749019998	0.5009880065919999	1.0	s	380.209852934																																									2015_Jul_07_0953	60.1413233	LearningTask	1	80	
52	-200.0	a	-200.0																	0.0	0.0	0.0	0.0	7.0	1.0	29.0	3.0																													a	1.0	0.434206962585	None	0.0	0.5	crossgreen.gif	go																								0.73	0.5142688751219999	0.000909805297852	0.434206962585	1.0	a	383.21306204800004																																									2015_Jul_07_0953	60.1413233	LearningTask	1	80	
53	200.0	s	-200.0																	0.0	0.0	0.0	0.0	7.0	2.0	30.0	2.0																													s	1.0	0.401002883911	None	0.0	2.0	invertedtrianglewhite.gif	go																								1.98	0.5144078731539999	0.0009548664093019999	0.401002883911	1.0	s	386.216347933																																									2015_Jul_07_0953	60.1413233	LearningTask	1	80	
54	200.0	w	200.0																	0.0	0.0	0.0	0.0	7.0	3.0	31.0	0.0																													w	1.0	0.36748290062	None	0.0	0.5	circlegray.gif	stop																								0.0	0.514631986618	0.000900983810425	0.36748290062	1.0	w	389.219974995																																									2015_Jul_07_0953	60.1413233	LearningTask	1	80	
55	-200.0	q	200.0																	0.0	0.0	0.0	0.0	8.0	0.0	32.0	1.0																													q	1.0	0.46754884719800005	None	0.0	2.0	triangleorange.gif	stop																								1.82	0.514181137085	0.00090503692627	0.46754884719800005	1.0	q	392.223294973																																									2015_Jul_07_0953	60.1413233	LearningTask	1	80	
56	-200.0	q	200.0																	0.0	0.0	0.0	0.0	8.0	1.0	33.0	1.0																													q	1.0	0.434079170227	None	0.0	2.0	invertedtrianglewhite.gif	go																								0.0	0.514361858368	0.0009448528289790001	0.434079170227	1.0	q	395.226522923																																									2015_Jul_07_0953	60.1413233	LearningTask	1	80	
57	-200.0	a	-200.0																	0.0	0.0	0.0	0.0	8.0	2.0	34.0	3.0																													a	1.0	0.468219995499	None	0.0	1.0	linecyan.gif	go																								1.04	0.514189004898	0.000892877578735	0.468219995499	1.0	a	398.229980946																																									2015_Jul_07_0953	60.1413233	LearningTask	1	80	
58	-200.0	a	-200.0																	0.0	0.0	0.0	0.0	8.0	3.0	35.0	3.0																													a	1.0	0.45121693611100006	None	0.0	0.5	circlegray.gif	stop																								0.57	0.514446973801	0.000913858413696	0.45121693611100006	1.0	a	401.233250856																																									2015_Jul_07_0953	60.1413233	LearningTask	1	80	
59	200.0	w	200.0																	0.0	0.0	0.0	0.0	9.0	0.0	36.0	0.0																													w	1.0	0.401527881622	None	0.0	2.0	triangleorange.gif	stop																								1.92	0.5141119956970001	0.0009479522705080001	0.401527881622	1.0	w	404.236685991																																									2015_Jul_07_0953	60.1413233	LearningTask	1	80	
60	-200.0	a	-200.0																	0.0	0.0	0.0	0.0	9.0	1.0	37.0	3.0																													a	1.0	0.50062084198	None	0.0	0.5	crossgreen.gif	go																								0.0	0.514759063721	0.0009589195251460001	0.50062084198	1.0	a	407.240164995																																									2015_Jul_07_0953	60.1413233	LearningTask	1	80	
61	200.0	s	-200.0																	0.0	0.0	0.0	0.0	9.0	2.0	38.0	2.0																													s	1.0	0.667991161346	None	0.0	2.0	triangleorange.gif	stop																								0.0	0.514355897903	0.000900983810425	0.667991161346	1.0	s	410.243762016																																									2015_Jul_07_0953	60.1413233	LearningTask	1	80	
62	200.0	s	-200.0																	0.0	0.0	0.0	0.0	9.0	3.0	39.0	2.0																													s	1.0	0.5006999969479999	None	0.0	4.0	hexagonmagenta.gif	go																								3.97	0.5138540267939999	0.0009548664093019999	0.5006999969479999	1.0	s	413.246841908																																									2015_Jul_07_0953	60.1413233	LearningTask	1	80	
63	200.0	s	-200.0																	0.0	0.0	0.0	0.0	10.0	0.0	40.0	2.0																													s	1.0	0.417734146118	None	0.0	0.5	crossgreen.gif	go																								0.53	0.514330863953	0.000917911529541	0.417734146118	1.0	s	416.250087976																																									2015_Jul_07_0953	60.1413233	LearningTask	1	80	
64	200.0	w	200.0																	0.0	0.0	0.0	0.0	10.0	1.0	41.0	0.0																													w	1.0	0.400818824768	None	0.0	1.0	squareblue.gif	stop																								0.9	0.514413833618	0.000908851623535	0.400818824768	1.0	w	419.25397086099997																																									2015_Jul_07_0953	60.1413233	LearningTask	1	80	
65	-200.0	q	200.0																	0.0	0.0	0.0	0.0	10.0	2.0	42.0	1.0																													q	1.0	0.38411808013899995	None	0.0	2.0	triangleorange.gif	stop																								0.0	0.513953924179	0.0009160041809079999	0.38411808013899995	1.0	q	422.25700998300005																																									2015_Jul_07_0953	60.1413233	LearningTask	1	80	
66	200.0	s	-200.0																	0.0	0.0	0.0	0.0	10.0	3.0	43.0	2.0																													s	1.0	0.350358009338	None	0.0	0.5	circlegray.gif	stop																								0.57	0.514549970627	0.0009119510650630002	0.350358009338	1.0	s	425.26041197800004																																									2015_Jul_07_0953	60.1413233	LearningTask	1	80	
67	-200.0	a	-200.0																	0.0	0.0	0.0	0.0	11.0	0.0	44.0	3.0																													a	1.0	0.417286157608	None	0.0	1.0	squareblue.gif	stop																								1.07	0.5144388675689999	0.000902891159058	0.417286157608	1.0	a	428.263779879																																									2015_Jul_07_0953	60.1413233	LearningTask	1	80	
68	-200.0	q	200.0																	0.0	0.0	0.0	0.0	11.0	1.0	45.0	1.0																													q	1.0	0.384170055389	None	0.0	4.0	hexagonmagenta.gif	go																								3.89	0.514307022095	0.0009319782257080001	0.384170055389	1.0	q	431.267328978																																									2015_Jul_07_0953	60.1413233	LearningTask	1	80	
69	-200.0	q	200.0																	0.0	0.0	0.0	0.0	11.0	2.0	46.0	1.0																													q	1.0	0.3841381073	None	0.0	0.5	crossgreen.gif	go																								0.59	0.514071941376	0.0010359287262	0.3841381073	1.0	q	434.27078104																																									2015_Jul_07_0953	60.1413233	LearningTask	1	80	
70	200.0	w	200.0																	0.0	0.0	0.0	0.0	11.0	3.0	47.0	0.0																													w	1.0	0.350491046906	None	0.0	1.0	linecyan.gif	go																								0.0	0.5142378807069999	0.0009059906005860001	0.350491046906	1.0	w	437.274092913																																									2015_Jul_07_0953	60.1413233	LearningTask	1	80	
71	200.0	w	200.0																	0.0	0.0	0.0	0.0	12.0	0.0	48.0	0.0																													w	1.0	0.367191076279	None	0.0	2.0	triangleorange.gif	stop																								0.0	0.514317989349	0.0009059906005860001	0.367191076279	1.0	w	440.27725505800004																																									2015_Jul_07_0953	60.1413233	LearningTask	1	80	
72	-200.0	q	200.0																	0.0	0.0	0.0	0.0	12.0	1.0	49.0	1.0																													q	1.0	0.484853982925	None	0.0	0.5	circlegray.gif	stop																								0.57	0.514235019684	0.0009450912475589999	0.484853982925	1.0	q	443.28051304800005																																									2015_Jul_07_0953	60.1413233	LearningTask	1	80	
73	-200.0	q	200.0																	0.0	0.0	0.0	0.0	12.0	2.0	50.0	1.0																													q	1.0	0.46728587150600004	None	0.0	0.5	circlegray.gif	stop																								0.42	0.514465093613	0.000984907150269	0.46728587150600004	1.0	q	446.28401494																																									2015_Jul_07_0953	60.1413233	LearningTask	1	80	
74	-200.0	q	200.0																	0.0	0.0	0.0	0.0	12.0	3.0	51.0	1.0																													q	1.0	0.35095477104199996	None	0.0	4.0	diamondyellow.gif	stop																								4.23	0.514308929443	0.0009119510650630002	0.35095477104199996	1.0	q	449.287576914																																									2015_Jul_07_0953	60.1413233	LearningTask	1	80	
75	200.0	w	200.0																	0.0	0.0	0.0	0.0	13.0	0.0	52.0	0.0																													w	1.0	0.317988872528	None	0.0	4.0	diamondyellow.gif	stop																								4.04	0.513654947281	0.0009479522705080001	0.317988872528	1.0	w	452.290791035																																									2015_Jul_07_0953	60.1413233	LearningTask	1	80	
76	-200.0	q	200.0																	0.0	0.0	0.0	0.0	13.0	1.0	53.0	1.0																													q	1.0	0.367942094803	None	0.0	1.0	linecyan.gif	go																								0.86	0.514398813248	0.000900983810425	0.367942094803	1.0	q	455.29421186400003																																									2015_Jul_07_0953	60.1413233	LearningTask	1	80	
77	-200.0	q	200.0																	0.0	0.0	0.0	0.0	13.0	2.0	54.0	1.0																													q	1.0	0.334185838699	None	0.0	2.0	invertedtrianglewhite.gif	go																								2.08	0.514269828796	0.0009608268737789999	0.334185838699	1.0	q	458.29750704800006																																									2015_Jul_07_0953	60.1413233	LearningTask	1	80	
78	-200.0	a	-200.0																	0.0	0.0	0.0	0.0	13.0	3.0	55.0	3.0																													a	1.0	0.41728305816699995	None	0.0	2.0	triangleorange.gif	stop																								0.0	0.5140378475190001	0.0009059906005860001	0.367870092392	0.0	q	461.301120043	0.14289498329199998	0.0	0.51567196846	0.00096607208252	0.417283058167	1.0	a	464.304308891																																	2015_Jul_07_0953	60.1413233	LearningTask	1	80	
79	200.0	w	200.0																	0.0	0.0	0.0	0.0	14.0	0.0	56.0	0.0																													w	1.0	0.334125995636	None	0.0	0.5	circlegray.gif	stop																								0.0	0.513845920563	0.0009319782257080001	0.334125995636	1.0	w	467.308146																																									2015_Jul_07_0953	60.1413233	LearningTask	1	80	
80	200.0	w	200.0																	0.0	0.0	0.0	0.0	14.0	1.0	57.0	0.0																													w	1.0	0.40054988861100005	None	0.0	1.0	linecyan.gif	go																								0.0	0.513951063156	0.0009200572967529999	0.40054988861100005	1.0	w	470.31100106199995																																									2015_Jul_07_0953	60.1413233	LearningTask	1	80	
81	-200.0	a	-200.0																	0.0	0.0	0.0	0.0	14.0	2.0	58.0	3.0																													a	1.0	0.40150213241599997	None	0.0	2.0	triangleorange.gif	stop																								1.75	0.514568090439	0.00088906288147	0.40150213241599997	1.0	a	473.314270973																																									2015_Jul_07_0953	60.1413233	LearningTask	1	80	
82	-200.0	q	200.0																	0.0	0.0	0.0	0.0	14.0	3.0	59.0	1.0																													q	1.0	0.38412189483599996	None	0.0	0.5	crossgreen.gif	go																								0.0	0.514228105545	0.0009210109710689999	0.38412189483599996	1.0	q	476.317759991																																									2015_Jul_07_0953	60.1413233	LearningTask	1	80	
83	-200.0	a	-200.0																	0.0	0.0	0.0	0.0	15.0	0.0	60.0	3.0																													a	1.0	0.401578187943	None	0.0	1.0	linecyan.gif	go																								1.21	0.514267921448	0.0008981227874760001	0.401578187943	1.0	a	479.32115507099996																																									2015_Jul_07_0953	60.1413233	LearningTask	1	80	
84	-200.0	a	-200.0																	0.0	0.0	0.0	0.0	15.0	1.0	61.0	3.0																													a	1.0	0.383975028992	None	0.0	1.0	linecyan.gif	go																								1.21	0.514525175095	0.0013680458068800001	0.383975028992	1.0	a	482.324583054																																									2015_Jul_07_0953	60.1413233	LearningTask	1	80	
85	-200.0	q	200.0																	0.0	0.0	0.0	0.0	15.0	2.0	62.0	1.0																													q	1.0	0.417813062668	None	0.0	4.0	diamondyellow.gif	stop																								0.0	0.514364957809	0.000900030136108	0.417813062668	1.0	q	485.327836037																																									2015_Jul_07_0953	60.1413233	LearningTask	1	80	
86	200.0	s	-200.0																	0.0	0.0	0.0	0.0	15.0	3.0	63.0	2.0																													s	1.0	0.35125088691699996	None	0.0	2.0	invertedtrianglewhite.gif	go																								1.83	0.5142891407010001	0.00105500221252	0.35125088691699996	1.0	s	488.33129406																																									2015_Jul_07_0953	60.1413233	LearningTask	1	80	
87	-200.0	q	200.0																	0.0	0.0	0.0	0.0	16.0	0.0	64.0	1.0																													q	1.0	0.35115289688100004	None	0.0	0.5	crossgreen.gif	go																								0.61	0.513909816742	0.0009679794311519998	0.35115289688100004	1.0	q	491.33454203599996																																									2015_Jul_07_0953	60.1413233	LearningTask	1	80	
88	-200.0	a	-200.0																	0.0	0.0	0.0	0.0	16.0	1.0	65.0	3.0																													a	1.0	0.384853124619	None	0.0	1.0	squareblue.gif	stop																								1.24	0.514155864716	0.0008878707885739998	0.384853124619	1.0	a	494.338052988																																									2015_Jul_07_0953	60.1413233	LearningTask	1	80	
89	-200.0	a	-200.0																	0.0	0.0	0.0	0.0	16.0	2.0	66.0	3.0																													a	1.0	0.417119979858	None	0.0	2.0	invertedtrianglewhite.gif	go																								1.86	0.514661073685	0.000904083251953	0.417119979858	1.0	a	497.341431856																																									2015_Jul_07_0953	60.1413233	LearningTask	1	80	
90	200.0	s	-200.0																	0.0	0.0	0.0	0.0	16.0	3.0	67.0	2.0																													s	1.0	0.38376617431599996	None	0.0	1.0	squareblue.gif	stop																								1.09	0.514266014099	0.0009369850158689999	0.38376617431599996	1.0	s	500.344734907																																									2015_Jul_07_0953	60.1413233	LearningTask	1	80	
91	200.0	w	200.0																	0.0	0.0	0.0	0.0	17.0	0.0	68.0	0.0																													w	1.0	0.350689172745	None	0.0	2.0	triangleorange.gif	stop																								1.92	0.514707803726	0.0009398460388180001	0.350689172745	1.0	w	503.34809398699997																																									2015_Jul_07_0953	60.1413233	LearningTask	1	80	
92	200.0	w	200.0																	0.0	0.0	0.0	0.0	17.0	1.0	69.0	0.0																													w	1.0	0.38415288925200003	None	0.0	2.0	invertedtrianglewhite.gif	go																								1.76	0.514352798462	0.0009047985076900001	0.38415288925200003	1.0	w	506.35184097300004																																									2015_Jul_07_0953	60.1413233	LearningTask	1	80	
93	-200.0	q	200.0																	0.0	0.0	0.0	0.0	17.0	2.0	70.0	1.0																													q	1.0	0.40108299255400004	None	0.0	4.0	hexagonmagenta.gif	go																								0.0	0.514043092728	0.000926971435547	0.33383417129500004	0.0	a	509.355782986	0.645111083984	4.25	0.514825820923	0.000990867614746	0.401082992554	1.0	q	512.358320951																																	2015_Jul_07_0953	60.1413233	LearningTask	1	80	
94	200.0	s	-200.0																	0.0	0.0	0.0	0.0	17.0	3.0	71.0	2.0																													s	1.0	0.40059208869900004	None	0.0	1.0	linecyan.gif	go																								1.02	0.5145049095149999	0.000894784927368	0.40059208869900004	1.0	s	515.3617100719999																																									2015_Jul_07_0953	60.1413233	LearningTask	1	80	
95	-200.0	a	-200.0																	0.0	0.0	0.0	0.0	18.0	0.0	72.0	3.0																													a	1.0	0.400942802429	None	0.0	4.0	hexagonmagenta.gif	go																								0.0	0.514158964157	0.00103712081909	0.38409900665299995	0.0	q	518.364946842	0.5294320583340001	3.79	0.5156068801879999	0.0009710788726810001	0.400942802429	1.0	a	521.368932009																																	2015_Jul_07_0953	60.1413233	LearningTask	1	80	
96	200.0	w	200.0																	0.0	0.0	0.0	0.0	18.0	1.0	73.0	0.0																													w	1.0	0.333873987198	None	0.0	2.0	triangleorange.gif	stop																								2.18	0.514085054398	0.0008990764617919999	0.333873987198	1.0	w	524.3717808719999																																									2015_Jul_07_0953	60.1413233	LearningTask	1	80	
97	-200.0	a	-200.0																	0.0	0.0	0.0	0.0	18.0	2.0	74.0	3.0																													a	1.0	0.350494146347	None	0.0	0.5	crossgreen.gif	go																								0.56	0.514405012131	0.0009031295776369999	0.350494146347	1.0	a	527.375071049																																									2015_Jul_07_0953	60.1413233	LearningTask	1	80	
98	200.0	w	200.0																	0.0	0.0	0.0	0.0	18.0	3.0	75.0	0.0																													w	1.0	0.351133108139	None	0.0	1.0	squareblue.gif	stop																								0.95	0.513990879059	0.0009739398956299999	0.351133108139	1.0	w	530.378473997																																									2015_Jul_07_0953	60.1413233	LearningTask	1	80	
99	200.0	s	-200.0																	0.0	0.0	0.0	0.0	19.0	0.0	76.0	2.0																													s	1.0	0.300790071487	None	0.0	4.0	hexagonmagenta.gif	go																								3.81	0.5142741203310001	0.000904083251953	0.300790071487	1.0	s	533.3819129469999																																									2015_Jul_07_0953	60.1413233	LearningTask	1	80	
100	200.0	s	-200.0																	0.0	0.0	0.0	0.0	19.0	1.0	77.0	2.0																													s	1.0	0.384004831314	None	0.0	0.5	circlegray.gif	stop																								0.0	0.514266014099	0.0009160041809079999	0.384525060654	0.0	w	536.385484934		0.0	0.515069007874	0.0010449886322	0.384004831314	1.0	s	539.388550043																																	2015_Jul_07_0953	60.1413233	LearningTask	1	80	
101	200.0	s	-200.0																	0.0	0.0	0.0	0.0	19.0	2.0	78.0	2.0																													s	1.0	0.35037803649899996	None	0.0	1.0	squareblue.gif	stop																								0.97	0.5148148536680001	0.000900983810425	0.35037803649899996	1.0	s	542.392086983																																									2015_Jul_07_0953	60.1413233	LearningTask	1	80	
102	200.0	w	200.0																	0.0	0.0	0.0	0.0	19.0	3.0	79.0	0.0																													w	1.0	0.384037017822	None	0.0	4.0	hexagonmagenta.gif	go																								4.14	0.514341115952	0.0009059906005860001	0.384037017822	1.0	w	545.395730019																																									2015_Jul_07_0953	60.1413233	LearningTask	1	80	
103	200.0	s	-200.0																	0.0	0.0	0.0	0.0	20.0	0.0	80.0	2.0																													s	1.0	0.383848190308	None	0.0	1.0	squareblue.gif	stop																								0.94	0.5140600204469999	0.0009140968322749999	0.383848190308	1.0	s	548.398887873																																									2015_Jul_07_0953	60.1413233	LearningTask	1	80	
104	-200.0	a	-200.0																	0.0	0.0	0.0	0.0	20.0	1.0	81.0	3.0																													a	1.0	0.367923974991	None	0.0	4.0	diamondyellow.gif	stop																								0.0	0.514036893845	0.00120282173157	0.367923974991	1.0	a	551.402698994																																									2015_Jul_07_0953	60.1413233	LearningTask	1	80	
105	200.0	s	-200.0																	0.0	0.0	0.0	0.0	20.0	2.0	82.0	2.0																													s	1.0	0.434317111969	None	0.0	2.0	invertedtrianglewhite.gif	go																								1.87	0.513355016708	0.00134706497192	0.434317111969	1.0	s	554.405838966																																									2015_Jul_07_0953	60.1413233	LearningTask	1	80	
106	200.0	s	-200.0																	0.0	0.0	0.0	0.0	20.0	3.0	83.0	2.0																													s	1.0	0.434615850449	None	0.0	0.5	crossgreen.gif	go																								0.38	0.513731002808	0.000923156738281	0.434615850449	1.0	s	557.4089128969999																																									2015_Jul_07_0953	60.1413233	LearningTask	1	80	
107	-200.0	q	200.0																	0.0	0.0	0.0	0.0	21.0	0.0	84.0	1.0																													q	1.0	0.417546987534	None	0.0	2.0	invertedtrianglewhite.gif	go																								1.81	0.514511108398	0.0008981227874760001	0.417546987534	1.0	q	560.412333012																																									2015_Jul_07_0953	60.1413233	LearningTask	1	80	
108	200.0	s	-200.0																	0.0	0.0	0.0	0.0	21.0	1.0	85.0	2.0																													s	1.0	0.367479085922	None	0.0	1.0	linecyan.gif	go																								0.0	0.514245033264	0.0009489059448239998	0.38417506218	0.0	w	563.4158129690001		1.09	0.515329837799	0.0009799003601070001	0.367479085922	1.0	s	566.418998957																																	2015_Jul_07_0953	60.1413233	LearningTask	1	80	
109	200.0	s	-200.0																	0.0	0.0	0.0	0.0	21.0	2.0	86.0	2.0																													s	1.0	0.36723804473899996	None	0.0	1.0	squareblue.gif	stop																								1.25	0.514199018478	0.0010681152343800001	0.36723804473899996	1.0	s	569.422510862																																									2015_Jul_07_0953	60.1413233	LearningTask	1	80	
110	200.0	w	200.0																	0.0	0.0	0.0	0.0	21.0	3.0	87.0	0.0																													w	1.0	0.38391709327699997	None	0.0	1.0	linecyan.gif	go																								0.98	0.5141508579249999	0.000913858413696	0.38391709327699997	1.0	w	572.425719023																																									2015_Jul_07_0953	60.1413233	LearningTask	1	80	
111	200.0	w	200.0																	0.0	0.0	0.0	0.0	22.0	0.0	88.0	0.0																													w	1.0	0.400728940964	None	0.0	0.5	crossgreen.gif	go																								0.0	0.514450073242	0.000900030136108	0.400728940964	1.0	w	575.429051876																																									2015_Jul_07_0953	60.1413233	LearningTask	1	80	
112	200.0	w	200.0																	0.0	0.0	0.0	0.0	22.0	1.0	89.0	0.0																													w	1.0	0.450845956802	None	0.0	4.0	diamondyellow.gif	stop																								3.89	0.5142331123349999	0.0009541511535639998	0.450845956802	1.0	w	578.432422876																																									2015_Jul_07_0953	60.1413233	LearningTask	1	80	
113	-200.0	q	200.0																	0.0	0.0	0.0	0.0	22.0	2.0	90.0	1.0																													q	1.0	0.43415403366099997	None	0.0	2.0	triangleorange.gif	stop																								0.0	0.514412164688	0.0009059906005860001	0.43415403366099997	1.0	q	581.4358658790001																																									2015_Jul_07_0953	60.1413233	LearningTask	1	80	
114	200.0	w	200.0																	0.0	0.0	0.0	0.0	22.0	3.0	91.0	0.0																													w	1.0	0.401224136353	None	0.0	4.0	diamondyellow.gif	stop																								4.22	0.514289855957	0.000907897949219	0.401224136353	1.0	w	584.439606905																																									2015_Jul_07_0953	60.1413233	LearningTask	1	80	
115	-200.0	q	200.0																	0.0	0.0	0.0	0.0	23.0	0.0	92.0	1.0																													q	1.0	0.333736896515	None	0.0	4.0	diamondyellow.gif	stop																								4.03	0.514079093933	0.000926971435547	0.333736896515	1.0	q	587.442529917																																									2015_Jul_07_0953	60.1413233	LearningTask	1	80	
116	-200.0	a	-200.0																	0.0	0.0	0.0	0.0	23.0	1.0	93.0	3.0																													a	1.0	0.40081405639600004	None	0.0	0.5	circlegray.gif	stop																								0.0	0.514574050903	0.00111198425293	0.40081405639600004	1.0	a	590.445920944																																									2015_Jul_07_0953	60.1413233	LearningTask	1	80	
117	200.0	s	-200.0																	0.0	0.0	0.0	0.0	23.0	2.0	94.0	2.0																													s	1.0	0.483762979507	None	0.0	4.0	hexagonmagenta.gif	go																								4.19	0.514405965805	0.0009160041809079999	0.483762979507	1.0	s	593.449670076																																									2015_Jul_07_0953	60.1413233	LearningTask	1	80	
118	200.0	s	-200.0																	0.0	0.0	0.0	0.0	23.0	3.0	95.0	2.0																													s	1.0	0.400937080383	None	0.0	1.0	linecyan.gif	go																								1.1	0.513999938965	0.0009140968322749999	0.400937080383	1.0	s	596.452745914																																									2015_Jul_07_0953	60.1413233	LearningTask	1	80	
119	200.0	s	-200.0																	0.0	0.0	0.0	0.0	24.0	0.0	96.0	2.0																													s	1.0	0.38390183448799997	None	0.0	4.0	hexagonmagenta.gif	go																								4.07	0.514189958572	0.0009069442749019998	0.38390183448799997	1.0	s	599.4561569690001																																									2015_Jul_07_0953	60.1413233	LearningTask	1	80	
120	200.0	w	200.0																	0.0	0.0	0.0	0.0	24.0	1.0	97.0	0.0																													w	1.0	0.35037612915	None	0.0	2.0	triangleorange.gif	stop																								2.22	0.514592885971	0.000943899154663	0.35037612915	1.0	w	602.45955801																																									2015_Jul_07_0953	60.1413233	LearningTask	1	80	
121	-200.0	a	-200.0																	0.0	0.0	0.0	0.0	24.0	2.0	98.0	3.0																													a	1.0	0.350676059723	None	0.0	1.0	linecyan.gif	go																								0.0	0.5140461921689999	0.0010859966278099998	0.350676059723	1.0	a	605.462852001																																									2015_Jul_07_0953	60.1413233	LearningTask	1	80	
122	-200.0	q	200.0																	0.0	0.0	0.0	0.0	24.0	3.0	99.0	1.0																													q	1.0	0.450690031052	None	0.0	1.0	linecyan.gif	go																								0.0	0.514633178711	0.000951051712036	0.450690031052	1.0	q	608.466019869																																									2015_Jul_07_0953	60.1413233	LearningTask	1	80	
123																				0.0	0.0	0.0	0.0																																																																															9.0	11.3482189178																															2015_Jul_07_0953	60.1413233	LearningTask	1	80	
124	-200.0	a	-200.0																	1.0	0.0	1.0	0.0	0.0	0.0	0.0	3.0																													a	1.0	0.567862987518	None	0.0	1.0	squareblue.gif	stop																								1.0	0.50958609581	0.000888109207153	0.567862987518	1.0	a	623.250016928																																									2015_Jul_07_0953	60.1413233	LearningTask	1	80	
125	200.0	s	-200.0																	1.0	0.0	1.0	0.0	0.0	1.0	1.0	2.0																													s	1.0	0.351109981537	None	0.0	1.0	squareblue.gif	stop																								1.0	0.5135939121249999	0.0009760856628420001	0.351109981537	1.0	s	626.252820969																																									2015_Jul_07_0953	60.1413233	LearningTask	1	80	
126	-200.0	q	200.0																	1.0	0.0	1.0	0.0	0.0	2.0	2.0	1.0																													q	1.0	0.35056900978100003	None	0.0	2.0	triangleorange.gif	stop																								0.0	0.5147960186	0.0009019374847410001	0.35056900978100003	1.0	q	629.2562549109999																																									2015_Jul_07_0953	60.1413233	LearningTask	1	80	
127	200.0	s	-200.0																	1.0	0.0	1.0	0.0	0.0	3.0	3.0	2.0																													s	1.0	0.35079598426799996	None	0.0	2.0	triangleorange.gif	stop																								2.19	0.514501094818	0.000900983810425	0.35079598426799996	1.0	s	632.259660006																																									2015_Jul_07_0953	60.1413233	LearningTask	1	80	
128	-200.0	a	-200.0																	1.0	0.0	1.0	0.0	1.0	0.0	4.0	3.0																													a	1.0	0.417751073837	None	0.0	2.0	triangleorange.gif	stop																								0.0	0.514266967773	0.0009520053863530001	0.417751073837	1.0	a	635.263226986																																									2015_Jul_07_0953	60.1413233	LearningTask	1	80	
129	-200.0	a	-200.0																	1.0	0.0	1.0	0.0	1.0	1.0	5.0	3.0																													a	1.0	0.384725809097	None	0.0	4.0	diamondyellow.gif	stop																								3.91	0.5142598152160001	0.00090503692627	0.384725809097	1.0	a	638.266352892																																									2015_Jul_07_0953	60.1413233	LearningTask	1	80	
130	-200.0	q	200.0																	1.0	0.0	1.0	0.0	1.0	2.0	6.0	1.0																													q	1.0	0.36718082428000004	None	0.0	2.0	invertedtrianglewhite.gif	go																								1.87	0.514525175095	0.0009059906005860001	0.36718082428000004	1.0	q	641.269659996																																									2015_Jul_07_0953	60.1413233	LearningTask	1	80	
131	200.0	w	200.0																	1.0	0.0	1.0	0.0	1.0	3.0	7.0	0.0																													w	1.0	0.40078902244599995	None	0.0	1.0	linecyan.gif	go																								1.13	0.514004945755	0.00094199180603	0.40078902244599995	1.0	w	644.2737019059999																																									2015_Jul_07_0953	60.1413233	LearningTask	1	80	
132	-200.0	q	200.0																	1.0	0.0	1.0	0.0	2.0	0.0	8.0	1.0																													q	1.0	0.384386062622	None	0.0	1.0	linecyan.gif	go																								1.04	0.513211011887	0.0009670257568360001	0.384386062622	1.0	q	647.276504993																																									2015_Jul_07_0953	60.1413233	LearningTask	1	80	
133	200.0	w	200.0																	1.0	0.0	1.0	0.0	2.0	1.0	9.0	0.0																													w	1.0	0.417621850967	None	0.0	4.0	diamondyellow.gif	stop																								4.13	0.514479160309	0.000900983810425	0.417621850967	1.0	w	650.280140877																																									2015_Jul_07_0953	60.1413233	LearningTask	1	80	
134	-200.0	a	-200.0																	1.0	0.0	1.0	0.0	2.0	2.0	10.0	3.0																													a	1.0	0.317803144455	None	0.0	4.0	hexagonmagenta.gif	go																								0.0	0.513849020004	0.000928163528442	0.317803144455	1.0	a	653.283340931																																									2015_Jul_07_0953	60.1413233	LearningTask	1	80	
135	200.0	s	-200.0																	1.0	0.0	1.0	0.0	2.0	3.0	11.0	2.0																													s	1.0	0.267066955566	None	0.0	0.5	crossgreen.gif	go																								0.39	0.514451026917	0.0009350776672360002	0.267066955566	1.0	s	656.286723852																																									2015_Jul_07_0953	60.1413233	LearningTask	1	80	
136	200.0	s	-200.0																	1.0	0.0	1.0	0.0	3.0	0.0	12.0	2.0																													s	1.0	0.38432002067599996	None	0.0	0.5	circlegray.gif	stop																								0.0	0.514065980911	0.000912189483643	0.38432002067599996	1.0	s	659.2903380390001																																									2015_Jul_07_0953	60.1413233	LearningTask	1	80	
137	-200.0	a	-200.0																	1.0	0.0	1.0	0.0	3.0	1.0	13.0	3.0																													a	1.0	0.333962202072	None	0.0	2.0	invertedtrianglewhite.gif	go																								2.16	0.514060974121	0.0009670257568360001	0.333962202072	1.0	a	662.293385029																																									2015_Jul_07_0953	60.1413233	LearningTask	1	80	
138	-200.0	a	-200.0																	1.0	0.0	1.0	0.0	3.0	2.0	14.0	3.0																													a	1.0	0.451200008392	None	0.0	4.0	diamondyellow.gif	stop																								0.0	0.514488935471	0.0008981227874760001	0.451200008392	1.0	a	665.296691895																																									2015_Jul_07_0953	60.1413233	LearningTask	1	80	
139	-200.0	a	-200.0																	1.0	0.0	1.0	0.0	3.0	3.0	15.0	3.0																													a	1.0	0.400540113449	None	0.0	2.0	invertedtrianglewhite.gif	go																								2.16	0.514618873596	0.0008940696716310001	0.400540113449	1.0	a	668.300616026																																									2015_Jul_07_0953	60.1413233	LearningTask	1	80	
140	-200.0	q	200.0																	1.0	0.0	1.0	0.0	4.0	0.0	16.0	1.0																													q	1.0	0.334069013596	None	0.0	4.0	diamondyellow.gif	stop																								0.0	0.513870954514	0.000882863998413	0.334069013596	1.0	q	671.303685904																																									2015_Jul_07_0953	60.1413233	LearningTask	1	80	
141	200.0	w	200.0																	1.0	0.0	1.0	0.0	4.0	1.0	17.0	0.0																													w	1.0	0.36761713028000004	None	0.0	0.5	crossgreen.gif	go																								0.0	0.514142990112	0.000988960266113	0.36761713028000004	1.0	w	674.307175875																																									2015_Jul_07_0953	60.1413233	LearningTask	1	80	
142	200.0	w	200.0																	1.0	0.0	1.0	0.0	4.0	2.0	18.0	0.0																													w	1.0	0.38375091552699997	None	0.0	4.0	hexagonmagenta.gif	go																								0.0	0.514370203018	0.0008761882781980001	0.38375091552699997	1.0	w	677.310245037																																									2015_Jul_07_0953	60.1413233	LearningTask	1	80	
143	-200.0	q	200.0																	1.0	0.0	1.0	0.0	4.0	3.0	19.0	1.0																													q	1.0	0.333737850189	None	0.0	2.0	invertedtrianglewhite.gif	go																								1.99	0.514536142349	0.0008821487426760002	0.333737850189	1.0	q	680.31359005																																									2015_Jul_07_0953	60.1413233	LearningTask	1	80	
144	200.0	w	200.0																	1.0	0.0	1.0	0.0	5.0	0.0	20.0	0.0																													w	1.0	0.41766905784599995	None	0.0	2.0	invertedtrianglewhite.gif	go																								2.04	0.514137029648	0.0009710788726810001	0.41766905784599995	1.0	w	683.317075968																																									2015_Jul_07_0953	60.1413233	LearningTask	1	80	
145	-200.0	a	-200.0																	1.0	0.0	1.0	0.0	5.0	1.0	21.0	3.0																													a	1.0	0.384302854538	None	0.0	1.0	linecyan.gif	go																								1.19	0.514282941818	0.00088095664978	0.384302854538	1.0	a	686.320544958																																									2015_Jul_07_0953	60.1413233	LearningTask	1	80	
146	-200.0	a	-200.0																	1.0	0.0	1.0	0.0	5.0	2.0	22.0	3.0																													a	1.0	0.41752314567599996	None	0.0	4.0	hexagonmagenta.gif	go																								4.09	0.514169216156	0.000877141952515	0.41752314567599996	1.0	a	689.3239660260001																																									2015_Jul_07_0953	60.1413233	LearningTask	1	80	
147	-200.0	a	-200.0																	1.0	0.0	1.0	0.0	5.0	3.0	23.0	3.0																													a	1.0	0.533684968948	None	0.0	2.0	triangleorange.gif	stop																								0.0	0.5141038894650001	0.00109481811523	0.401012182236	0.0	q	692.327199936		2.05	0.515598058701	0.000953912734985	0.533684968948	1.0	a	695.330749989																																	2015_Jul_07_0953	60.1413233	LearningTask	1	80	
148	200.0	w	200.0																	1.0	0.0	1.0	0.0	6.0	0.0	24.0	0.0																													w	1.0	0.500375032425	None	0.0	0.5	circlegray.gif	stop																								0.25	0.514165878296	0.000882863998413	0.500375032425	1.0	w	698.3345220089999																																									2015_Jul_07_0953	60.1413233	LearningTask	1	80	
149	-200.0	a	-200.0																	1.0	0.0	1.0	0.0	6.0	1.0	25.0	3.0																													a	1.0	0.367294073105	None	0.0	4.0	diamondyellow.gif	stop																								4.19	0.513383150101	0.000892162322998	0.367294073105	1.0	a	701.33729887																																									2015_Jul_07_0953	60.1413233	LearningTask	1	80	
150	-200.0	a	-200.0																	1.0	0.0	1.0	0.0	6.0	2.0	26.0	3.0																													a	1.0	0.40109205246	None	0.0	0.5	crossgreen.gif	go																								0.69	0.514204025269	0.0009019374847410001	0.40109205246	1.0	a	704.340863943																																									2015_Jul_07_0953	60.1413233	LearningTask	1	80	
151	200.0	w	200.0																	1.0	0.0	1.0	0.0	6.0	3.0	27.0	0.0																													w	1.0	0.36749100685099995	None	0.0	4.0	hexagonmagenta.gif	go																								3.81	0.514427900314	0.000881910324097	0.36749100685099995	1.0	w	707.344096899																																									2015_Jul_07_0953	60.1413233	LearningTask	1	80	
152	200.0	w	200.0																	1.0	0.0	1.0	0.0	7.0	0.0	28.0	0.0																													w	1.0	0.36712408065800006	None	0.0	1.0	linecyan.gif	go																								0.9	0.5144898891449999	0.0008919239044189998	0.36712408065800006	1.0	w	710.3473639489999																																									2015_Jul_07_0953	60.1413233	LearningTask	1	80	
153	-200.0	q	200.0																	1.0	0.0	1.0	0.0	7.0	1.0	29.0	1.0																													q	1.0	0.417442083359	None	0.0	0.5	circlegray.gif	stop																								0.0	0.514460086823	0.000907182693481	0.417442083359	1.0	q	713.3506829739999																																									2015_Jul_07_0953	60.1413233	LearningTask	1	80	
154	200.0	w	200.0																	1.0	0.0	1.0	0.0	7.0	2.0	30.0	0.0																													w	1.0	0.367506980896	None	0.0	2.0	triangleorange.gif	stop																								1.77	0.51441693306	0.000881910324097	0.367506980896	1.0	w	716.354255915																																									2015_Jul_07_0953	60.1413233	LearningTask	1	80	
155	200.0	w	200.0																	1.0	0.0	1.0	0.0	7.0	3.0	31.0	0.0																													w	1.0	0.38381505012500006	None	0.0	1.0	squareblue.gif	stop																								0.95	0.514435052872	0.0008950233459470001	0.38381505012500006	1.0	w	719.357730865																																									2015_Jul_07_0953	60.1413233	LearningTask	1	80	
156	-200.0	a	-200.0																	1.0	0.0	1.0	0.0	8.0	0.0	32.0	3.0																													a	1.0	0.367942094803	None	0.0	4.0	hexagonmagenta.gif	go																								4.06	0.513994932175	0.0009329319000239999	0.367942094803	1.0	a	722.3609290119999																																									2015_Jul_07_0953	60.1413233	LearningTask	1	80	
157	-200.0	q	200.0																	1.0	0.0	1.0	0.0	8.0	1.0	33.0	1.0																													q	1.0	0.400853157043	None	0.0	1.0	linecyan.gif	go																								0.75	0.514225959778	0.0008769035339360002	0.400853157043	1.0	q	725.3644080160001																																									2015_Jul_07_0953	60.1413233	LearningTask	1	80	
158	-200.0	a	-200.0																	1.0	0.0	1.0	0.0	8.0	2.0	34.0	3.0																													a	1.0	0.38406300544699995	None	0.0	1.0	squareblue.gif	stop																								0.95	0.5143120288849999	0.000871181488037	0.38406300544699995	1.0	a	728.3677680489999																																									2015_Jul_07_0953	60.1413233	LearningTask	1	80	
159	200.0	w	200.0																	1.0	0.0	1.0	0.0	8.0	3.0	35.0	0.0																													w	1.0	0.417641162872	None	0.0	2.0	triangleorange.gif	stop																								0.0	0.513830900192	0.000938892364502	0.417641162872	1.0	w	731.3709988589999																																									2015_Jul_07_0953	60.1413233	LearningTask	1	80	
160	200.0	s	-200.0																	1.0	0.0	1.0	0.0	9.0	0.0	36.0	2.0																													s	1.0	0.300938844681	None	0.0	4.0	hexagonmagenta.gif	go																								3.96	0.5140910148619999	0.000885009765625	0.300938844681	1.0	s	734.3744189739999																																									2015_Jul_07_0953	60.1413233	LearningTask	1	80	
161	-200.0	q	200.0																	1.0	0.0	1.0	0.0	9.0	1.0	37.0	1.0																													q	1.0	0.41723704338100004	None	0.0	1.0	linecyan.gif	go																								1.08	0.51443696022	0.000917911529541	0.41723704338100004	1.0	q	737.3778300289999																																									2015_Jul_07_0953	60.1413233	LearningTask	1	80	
162	-200.0	q	200.0																	1.0	0.0	1.0	0.0	9.0	2.0	38.0	1.0																													q	1.0	0.450880050659	None	0.0	1.0	squareblue.gif	stop																								0.0	0.514069080353	0.0008859634399410001	0.36744809150700003	0.0	a	740.380918026		0.83	0.515892982483	0.000951051712036	0.450880050659	1.0	q	743.384716988																																	2015_Jul_07_0953	60.1413233	LearningTask	1	80	
163	200.0	s	-200.0																	1.0	0.0	1.0	0.0	9.0	3.0	39.0	2.0																													s	1.0	0.417340040207	None	0.0	1.0	linecyan.gif	go																								0.0	0.51403594017	0.0008780956268310002	0.38427901268	0.0	w	746.38835001		0.99	0.515163898468	0.000976800918579	0.417340040207	1.0	s	749.391363859																																	2015_Jul_07_0953	60.1413233	LearningTask	1	80	
164	-200.0	a	-200.0																	1.0	0.0	1.0	0.0	10.0	0.0	40.0	3.0																													a	1.0	0.700469970703	None	0.0	4.0	hexagonmagenta.gif	go																								0.0	0.514849901199	0.000877857208252	0.700469970703	1.0	a	752.394659042																																									2015_Jul_07_0953	60.1413233	LearningTask	1	80	
165	200.0	w	200.0																	1.0	0.0	1.0	0.0	10.0	1.0	41.0	0.0																													w	1.0	0.384083986282	None	0.0	0.5	circlegray.gif	stop																								0.41	0.5142819881440001	0.000923871994019	0.384083986282	1.0	w	755.3980300430001																																									2015_Jul_07_0953	60.1413233	LearningTask	1	80	
166	200.0	s	-200.0																	1.0	0.0	1.0	0.0	10.0	2.0	42.0	2.0																													s	1.0	0.35103392600999994	None	0.0	4.0	diamondyellow.gif	stop																								0.0	0.513959169388	0.000887155532837	0.435089826584	0.0	w	758.4013769630001		3.94	0.515512943268	0.000949144363403	0.35103392601	1.0	s	761.4051718710001																																	2015_Jul_07_0953	60.1413233	LearningTask	1	80	
167	200.0	s	-200.0																	1.0	0.0	1.0	0.0	10.0	3.0	43.0	2.0																													s	1.0	0.46764993667599997	None	0.0	1.0	squareblue.gif	stop																								0.87	0.513942956924	0.0008909702301030001	0.46764993667599997	1.0	s	764.4083020689999																																									2015_Jul_07_0953	60.1413233	LearningTask	1	80	
168	-200.0	a	-200.0																	1.0	0.0	1.0	0.0	11.0	0.0	44.0	3.0																													a	1.0	0.400779008865	None	0.0	1.0	squareblue.gif	stop																								1.21	0.514156103134	0.000888109207153	0.400779008865	1.0	a	767.411303043																																									2015_Jul_07_0953	60.1413233	LearningTask	1	80	
169	-200.0	q	200.0																	1.0	0.0	1.0	0.0	11.0	1.0	45.0	1.0																													q	1.0	0.400825977325	None	0.0	0.5	circlegray.gif	stop																								0.39	0.514380931854	0.00101804733276	0.400825977325	1.0	q	770.414921999																																									2015_Jul_07_0953	60.1413233	LearningTask	1	80	
170	200.0	w	200.0																	1.0	0.0	1.0	0.0	11.0	2.0	46.0	0.0																													w	1.0	0.36760282516500004	None	0.0	1.0	linecyan.gif	go																								0.81	0.514091968536	0.00087308883667	0.36760282516500004	1.0	w	773.418550968																																									2015_Jul_07_0953	60.1413233	LearningTask	1	80	
171	-200.0	a	-200.0																	1.0	0.0	1.0	0.0	11.0	3.0	47.0	3.0																													a	1.0	0.46784400939900006	None	0.0	0.5	crossgreen.gif	go																								0.0	0.5143568515779999	0.0008878707885739998	0.46784400939900006	1.0	a	776.422111034																																									2015_Jul_07_0953	60.1413233	LearningTask	1	80	
172	-200.0	q	200.0																	1.0	0.0	1.0	0.0	12.0	0.0	48.0	1.0																													q	1.0	0.467164039612	None	0.0	0.5	crossgreen.gif	go																								0.75	0.5141119956970001	0.000908851623535	0.467164039612	1.0	q	779.425195932																																									2015_Jul_07_0953	60.1413233	LearningTask	1	80	
173	200.0	w	200.0																	1.0	0.0	1.0	0.0	12.0	1.0	49.0	0.0																													w	1.0	0.417497873306	None	0.0	0.5	circlegray.gif	stop																								0.53	0.514350175858	0.0008749961853029999	0.417497873306	1.0	w	782.4285779																																									2015_Jul_07_0953	60.1413233	LearningTask	1	80	
174	-200.0	q	200.0																	1.0	0.0	1.0	0.0	12.0	2.0	50.0	1.0																													q	1.0	0.41848087310800003	None	0.0	0.5	circlegray.gif	stop																								0.56	0.5138821601870001	0.0008981227874760001	0.41848087310800003	1.0	q	785.432136059																																									2015_Jul_07_0953	60.1413233	LearningTask	1	80	
175	200.0	s	-200.0																	1.0	0.0	1.0	0.0	12.0	3.0	51.0	2.0																													s	1.0	0.33407998085	None	0.0	0.5	crossgreen.gif	go																								0.0	0.514074087143	0.000900030136108	0.33407998085	1.0	s	788.435266972																																									2015_Jul_07_0953	60.1413233	LearningTask	1	80	
176	200.0	w	200.0																	1.0	0.0	1.0	0.0	13.0	0.0	52.0	0.0																													w	1.0	0.517468929291	None	0.0	1.0	linecyan.gif	go																								0.84	0.514063835144	0.0008749961853029999	0.517468929291	1.0	w	791.438649893																																									2015_Jul_07_0953	60.1413233	LearningTask	1	80	
177	200.0	s	-200.0																	1.0	0.0	1.0	0.0	13.0	1.0	53.0	2.0																													s	1.0	0.367079019547	None	0.0	2.0	triangleorange.gif	stop																								1.89	0.514618873596	0.00088095664978	0.367079019547	1.0	s	794.442354918																																									2015_Jul_07_0953	60.1413233	LearningTask	1	80	
178	200.0	w	200.0																	1.0	0.0	1.0	0.0	13.0	2.0	54.0	0.0																													w	1.0	0.41804599761999994	None	0.0	0.5	crossgreen.gif	go																								0.71	0.513516187668	0.00123310089111	0.41804599761999994	1.0	w	797.44520998																																									2015_Jul_07_0953	60.1413233	LearningTask	1	80	
179	200.0	w	200.0																	1.0	0.0	1.0	0.0	13.0	3.0	55.0	0.0																													w	1.0	0.383946180344	None	0.0	0.5	circlegray.gif	stop																								0.0	0.514583826065	0.000890016555786	0.383946180344	1.0	w	800.448462009																																									2015_Jul_07_0953	60.1413233	LearningTask	1	80	
180	-200.0	a	-200.0																	1.0	0.0	1.0	0.0	14.0	0.0	56.0	3.0																													a	1.0	0.383959054947	None	0.0	2.0	invertedtrianglewhite.gif	go																								1.83	0.514655828476	0.000890016555786	0.383959054947	1.0	a	803.4523348810001																																									2015_Jul_07_0953	60.1413233	LearningTask	1	80	
181	200.0	s	-200.0																	1.0	0.0	1.0	0.0	14.0	1.0	57.0	2.0																													s	1.0	0.368278026581	None	0.0	4.0	hexagonmagenta.gif	go																								3.81	0.513731002808	0.0010130405426	0.368278026581	1.0	s	806.455667973																																									2015_Jul_07_0953	60.1413233	LearningTask	1	80	
182	-200.0	a	-200.0																	1.0	0.0	1.0	0.0	14.0	2.0	58.0	3.0																													a	1.0	0.467371940613	None	0.0	4.0	diamondyellow.gif	stop																								3.81	0.514219045639	0.000930070877075	0.467371940613	1.0	a	809.45897007																																									2015_Jul_07_0953	60.1413233	LearningTask	1	80	
183	200.0	w	200.0																	1.0	0.0	1.0	0.0	14.0	3.0	59.0	0.0																													w	1.0	0.38440203666699996	None	0.0	0.5	circlegray.gif	stop																								0.0	0.514228105545	0.00088906288147	0.38440203666699996	1.0	w	812.4622108939999																																									2015_Jul_07_0953	60.1413233	LearningTask	1	80	
184	-200.0	q	200.0																	1.0	0.0	1.0	0.0	15.0	0.0	60.0	1.0																													q	1.0	0.41816782951399994	None	0.0	4.0	diamondyellow.gif	stop																								3.93	0.514115095139	0.0008790493011469999	0.41816782951399994	1.0	q	815.465399981																																									2015_Jul_07_0953	60.1413233	LearningTask	1	80	
185	-200.0	a	-200.0																	1.0	0.0	1.0	0.0	15.0	1.0	61.0	3.0																													a	1.0	0.41769695281999997	None	0.0	1.0	linecyan.gif	go																								1.17	0.51424407959	0.000964879989624	0.41769695281999997	1.0	a	818.468920946																																									2015_Jul_07_0953	60.1413233	LearningTask	1	80	
186	-200.0	q	200.0																	1.0	0.0	1.0	0.0	15.0	2.0	62.0	1.0																													q	1.0	0.38440203666699996	None	0.0	1.0	linecyan.gif	go																								0.0	0.514058828354	0.0008769035339360002	0.38440203666699996	1.0	q	821.472532034																																									2015_Jul_07_0953	60.1413233	LearningTask	1	80	
187	200.0	s	-200.0																	1.0	0.0	1.0	0.0	15.0	3.0	63.0	2.0																													s	1.0	0.350682020187	None	0.0	0.5	circlegray.gif	stop																								0.6	0.513914108276	0.00113415718079	0.350682020187	1.0	s	824.4756979939999																																									2015_Jul_07_0953	60.1413233	LearningTask	1	80	
188	-200.0	a	-200.0																	1.0	0.0	1.0	0.0	16.0	0.0	64.0	3.0																													a	1.0	0.350966930389	None	0.0	0.5	circlegray.gif	stop																								0.49	0.513891935349	0.0009338855743410001	0.350966930389	1.0	a	827.478769064																																									2015_Jul_07_0953	60.1413233	LearningTask	1	80	
189	-200.0	q	200.0																	1.0	0.0	1.0	0.0	16.0	1.0	65.0	1.0																													q	1.0	0.35089302063	None	0.0	4.0	diamondyellow.gif	stop																								3.89	0.5145778656009999	0.000900030136108	0.35089302063	1.0	q	830.4829549789999																																									2015_Jul_07_0953	60.1413233	LearningTask	1	80	
190	-200.0	q	200.0																	1.0	0.0	1.0	0.0	16.0	2.0	66.0	1.0																													q	1.0	0.384366989136	None	0.0	4.0	hexagonmagenta.gif	go																								4.25	0.513760089874	0.0009191036224369998	0.384366989136	1.0	q	833.4863719939999																																									2015_Jul_07_0953	60.1413233	LearningTask	1	80	
191	-200.0	q	200.0																	1.0	0.0	1.0	0.0	16.0	3.0	67.0	1.0																													q	1.0	0.367233037949	None	0.0	4.0	hexagonmagenta.gif	go																								3.9	0.513714075089	0.0009019374847410001	0.367233037949	1.0	q	836.48930788																																									2015_Jul_07_0953	60.1413233	LearningTask	1	80	
192	200.0	w	200.0																	1.0	0.0	1.0	0.0	17.0	0.0	68.0	0.0																													w	1.0	0.36712384223899996	None	0.0	1.0	squareblue.gif	stop																								1.01	0.514616966248	0.00088906288147	0.36712384223899996	1.0	w	839.492651939																																									2015_Jul_07_0953	60.1413233	LearningTask	1	80	
193	200.0	w	200.0																	1.0	0.0	1.0	0.0	17.0	1.0	69.0	0.0																													w	1.0	0.36717414855999997	None	0.0	0.5	circlegray.gif	stop																								0.5	0.5146050453190001	0.000892162322998	0.36717414855999997	1.0	w	842.495976925																																									2015_Jul_07_0953	60.1413233	LearningTask	1	80	
194	-200.0	q	200.0																	1.0	0.0	1.0	0.0	17.0	2.0	70.0	1.0																													q	1.0	0.36712312698399996	None	0.0	0.5	circlegray.gif	stop																								0.0	0.514449834824	0.000909805297852	0.36712312698399996	1.0	q	845.499213934																																									2015_Jul_07_0953	60.1413233	LearningTask	1	80	
195	200.0	s	-200.0																	1.0	0.0	1.0	0.0	17.0	3.0	71.0	2.0																													s	1.0	0.384401082993	None	0.0	1.0	squareblue.gif	stop																								0.97	0.514361143112	0.00104904174805	0.384401082993	1.0	s	848.5023610589999																																									2015_Jul_07_0953	60.1413233	LearningTask	1	80	
196	200.0	w	200.0																	1.0	0.0	1.0	0.0	18.0	0.0	72.0	0.0																													w	1.0	0.41748094558700005	None	0.0	4.0	diamondyellow.gif	stop																								4.21	0.514846086502	0.00087308883667	0.41748094558700005	1.0	w	851.5061969760001																																									2015_Jul_07_0953	60.1413233	LearningTask	1	80	
197	200.0	s	-200.0																	1.0	0.0	1.0	0.0	18.0	1.0	73.0	2.0																													s	1.0	0.33365988731400004	None	0.0	0.5	circlegray.gif	stop																								0.73	0.514353990555	0.0008990764617919999	0.33365988731400004	1.0	s	854.50957799																																									2015_Jul_07_0953	60.1413233	LearningTask	1	80	
198	200.0	s	-200.0																	1.0	0.0	1.0	0.0	18.0	2.0	74.0	2.0																													s	1.0	0.40095996856700006	None	0.0	0.5	circlegray.gif	stop																								0.71	0.5139939785000001	0.000994920730591	0.40095996856700006	1.0	s	857.512726068																																									2015_Jul_07_0953	60.1413233	LearningTask	1	80	
199	200.0	s	-200.0																	1.0	0.0	1.0	0.0	18.0	3.0	75.0	2.0																													s	1.0	0.334084033966	None	0.0	2.0	triangleorange.gif	stop																								2.13	0.514400959015	0.0008878707885739998	0.334084033966	1.0	s	860.516238928																																									2015_Jul_07_0953	60.1413233	LearningTask	1	80	
200	-200.0	q	200.0																	1.0	0.0	1.0	0.0	19.0	0.0	76.0	1.0																													q	1.0	0.35066080093400004	None	0.0	2.0	triangleorange.gif	stop																								2.1	0.514362812042	0.0008769035339360002	0.35066080093400004	1.0	q	863.519922972																																									2015_Jul_07_0953	60.1413233	LearningTask	1	80	
201	-200.0	q	200.0																	1.0	0.0	1.0	0.0	19.0	1.0	77.0	1.0																													q	1.0	0.384614944458	None	0.0	2.0	invertedtrianglewhite.gif	go																								1.97	0.513489961624	0.000900983810425	0.384614944458	1.0	q	866.5228719710001																																									2015_Jul_07_0953	60.1413233	LearningTask	1	80	
202	200.0	s	-200.0																	1.0	0.0	1.0	0.0	19.0	2.0	78.0	2.0																													s	1.0	0.384054899216	None	0.0	1.0	linecyan.gif	go																								1.13	0.514425039291	0.00088095664978	0.384054899216	1.0	s	869.526332855																																									2015_Jul_07_0953	60.1413233	LearningTask	1	80	
203	200.0	s	-200.0																	1.0	0.0	1.0	0.0	19.0	3.0	79.0	2.0																													s	1.0	0.384468078613	None	0.0	4.0	diamondyellow.gif	stop																								3.75	0.5142509937290001	0.00088095664978	0.384468078613	1.0	s	872.529819012																																									2015_Jul_07_0953	60.1413233	LearningTask	1	80	
204	200.0	w	200.0																	1.0	0.0	1.0	0.0	20.0	0.0	80.0	0.0																													w	1.0	0.451376914978	None	0.0	2.0	invertedtrianglewhite.gif	go																								0.0	0.5139939785000001	0.0009150505065920001	0.451376914978	1.0	w	875.533155918																																									2015_Jul_07_0953	60.1413233	LearningTask	1	80	
205	200.0	s	-200.0																	1.0	0.0	1.0	0.0	20.0	1.0	81.0	2.0																													s	1.0	0.36732602119400004	None	0.0	2.0	invertedtrianglewhite.gif	go																								1.86	0.514338970184	0.000880002975464	0.36732602119400004	1.0	s	878.536328077																																									2015_Jul_07_0953	60.1413233	LearningTask	1	80	
206	200.0	w	200.0																	1.0	0.0	1.0	0.0	20.0	2.0	82.0	0.0																													w	1.0	0.36744403839100004	None	0.0	4.0	hexagonmagenta.gif	go																								3.99	0.514267921448	0.0008838176727290001	0.36744403839100004	1.0	w	881.540166855																																									2015_Jul_07_0953	60.1413233	LearningTask	1	80	
207	200.0	s	-200.0																	1.0	0.0	1.0	0.0	20.0	3.0	83.0	2.0																													s	1.0	0.350821018219	None	0.0	2.0	invertedtrianglewhite.gif	go																								0.0	0.513927936554	0.0008840560913089999	0.350821018219	1.0	s	884.5430970189999																																									2015_Jul_07_0953	60.1413233	LearningTask	1	80	
208	-200.0	a	-200.0																	1.0	0.0	1.0	0.0	21.0	0.0	84.0	3.0																													a	1.0	0.467716932297	None	0.0	0.5	crossgreen.gif	go																								0.59	0.514574050903	0.0009181499481200001	0.467716932297	1.0	a	887.546512842																																									2015_Jul_07_0953	60.1413233	LearningTask	1	80	
209	-200.0	a	-200.0																	1.0	0.0	1.0	0.0	21.0	1.0	85.0	3.0																													a	1.0	0.35097694397	None	0.0	0.5	crossgreen.gif	go																								0.71	0.514514923096	0.0008759498596189999	0.35097694397	1.0	a	890.550482988																																									2015_Jul_07_0953	60.1413233	LearningTask	1	80	
210	200.0	s	-200.0																	1.0	0.0	1.0	0.0	21.0	2.0	86.0	2.0																													s	1.0	0.351256132126	None	0.0	2.0	invertedtrianglewhite.gif	go																								1.95	0.513865947723	0.0008709430694580001	0.351256132126	1.0	s	893.5536289219999																																									2015_Jul_07_0953	60.1413233	LearningTask	1	80	
211	-200.0	a	-200.0																	1.0	0.0	1.0	0.0	21.0	3.0	87.0	3.0																													a	1.0	0.40102386474600005	None	0.0	2.0	triangleorange.gif	stop																								2.11	0.513903856277	0.0012159347534200001	0.40102386474600005	1.0	a	896.556985855																																									2015_Jul_07_0953	60.1413233	LearningTask	1	80	
212	-200.0	q	200.0																	1.0	0.0	1.0	0.0	22.0	0.0	88.0	1.0																													q	1.0	0.367520093918	None	0.0	1.0	linecyan.gif	go																								0.0	0.5139338970180001	0.0009529590606689998	0.383916854858	0.0	a	899.5598459239999		0.0	0.51571393013	0.0009679794311519998	0.350677013397	0.0	a	902.5634160039999			0.0	0.515449047089	0.000963926315308	0.367520093918	1.0	q	905.5671029089999																								2015_Jul_07_0953	60.1413233	LearningTask	1	80	
213	-200.0	q	200.0																	1.0	0.0	1.0	0.0	22.0	1.0	89.0	1.0																													q	1.0	0.418052911758	None	0.0	2.0	invertedtrianglewhite.gif	go																								1.97	0.513921976089	0.00087308883667	0.418052911758	1.0	q	908.570150852																																									2015_Jul_07_0953	60.1413233	LearningTask	1	80	
214	200.0	s	-200.0																	1.0	0.0	1.0	0.0	22.0	2.0	90.0	2.0																													s	1.0	0.36783981323200005	None	0.0	4.0	diamondyellow.gif	stop																								4.19	0.514271974564	0.00087308883667	0.36783981323200005	1.0	s	911.573628902																																									2015_Jul_07_0953	60.1413233	LearningTask	1	80	
215	200.0	s	-200.0																	1.0	0.0	1.0	0.0	22.0	3.0	91.0	2.0																													s	1.0	0.36820912361100006	None	0.0	1.0	squareblue.gif	stop																								1.08	0.513647079468	0.0009100437164310001	0.36820912361100006	1.0	s	914.576691866																																									2015_Jul_07_0953	60.1413233	LearningTask	1	80	
216	-200.0	q	200.0																	1.0	0.0	1.0	0.0	23.0	0.0	92.0	1.0																													q	1.0	0.40072202682499997	None	0.0	1.0	squareblue.gif	stop																								0.88	0.514641046524	0.0008940696716310001	0.40072202682499997	1.0	q	917.580322027																																									2015_Jul_07_0953	60.1413233	LearningTask	1	80	
217	-200.0	q	200.0																	1.0	0.0	1.0	0.0	23.0	1.0	93.0	1.0																													q	1.0	0.35038208961499995	None	0.0	2.0	triangleorange.gif	stop																								1.8	0.514719963074	0.00088095664978	0.35038208961499995	1.0	q	920.5837919710001																																									2015_Jul_07_0953	60.1413233	LearningTask	1	80	
218	200.0	s	-200.0																	1.0	0.0	1.0	0.0	23.0	2.0	94.0	2.0																													s	1.0	0.40080904960600006	None	0.0	0.5	circlegray.gif	stop																								0.52	0.514061927795	0.000909090042114	0.40080904960600006	1.0	s	923.587106943																																									2015_Jul_07_0953	60.1413233	LearningTask	1	80	
219	200.0	w	200.0																	1.0	0.0	1.0	0.0	23.0	3.0	95.0	0.0																													w	1.0	0.33452296256999997	None	0.0	0.5	crossgreen.gif	go																								0.49	0.5143098831180001	0.0009069442749019998	0.33452296256999997	1.0	w	926.590285063																																									2015_Jul_07_0953	60.1413233	LearningTask	1	80	
220	200.0	s	-200.0																	1.0	0.0	1.0	0.0	24.0	0.0	96.0	2.0																													s	1.0	0.35038208961499995	None	0.0	4.0	hexagonmagenta.gif	go																								3.96	0.5147919654850001	0.000885009765625	0.35038208961499995	1.0	s	929.593869925																																									2015_Jul_07_0953	60.1413233	LearningTask	1	80	
221	-200.0	a	-200.0																	1.0	0.0	1.0	0.0	24.0	1.0	97.0	3.0																													a	1.0	0.48422980308499997	None	0.0	2.0	invertedtrianglewhite.gif	go																								0.0	0.5144519805910001	0.000880002975464	0.38427805900600004	0.0	q	932.597159863		2.11	0.51559305191	0.000949144363403	0.484229803085	1.0	a	935.60036993																																	2015_Jul_07_0953	60.1413233	LearningTask	1	80	
222	-200.0	q	200.0																	1.0	0.0	1.0	0.0	24.0	2.0	98.0	1.0																													q	1.0	0.450736999512	None	0.0	2.0	invertedtrianglewhite.gif	go																								2.13	0.514590978622	0.000880002975464	0.450736999512	1.0	q	938.6039500239999																																									2015_Jul_07_0953	60.1413233	LearningTask	1	80	
223	200.0	w	200.0																	1.0	0.0	1.0	0.0	24.0	3.0	99.0	0.0																													w	1.0	0.45133590698200005	None	0.0	2.0	invertedtrianglewhite.gif	go																								1.81	0.514265060425	0.0008790493011469999	0.45133590698200005	1.0	w	941.60730195																																									2015_Jul_07_0953	60.1413233	LearningTask	1	80	
224																				1.0	0.0	1.0	0.0																																																																															9.0	2.01789093018																															2015_Jul_07_0953	60.1413233	LearningTask	1	80	
225	200.0	s	-200.0																	2.0	0.0	2.0	0.0	0.0	0.0	0.0	2.0																													s	1.0	0.701326847076	None	0.0	0.5	crossgreen.gif	go																								0.37	0.50939822197	0.0009181499481200001	0.701326847076	1.0	s	947.4477019310001																																									2015_Jul_07_0953	60.1413233	LearningTask	1	80	
226	200.0	w	200.0																	2.0	0.0	2.0	0.0	0.0	1.0	1.0	0.0																													w	1.0	0.38382911682099996	None	0.0	0.5	circlegray.gif	stop																								0.42	0.514011859894	0.000907897949219	0.38382911682099996	1.0	w	950.4508390430001																																									2015_Jul_07_0953	60.1413233	LearningTask	1	80	
227	200.0	s	-200.0																	2.0	0.0	2.0	0.0	0.0	2.0	2.0	2.0																													s	1.0	0.383675813675	None	0.0	4.0	diamondyellow.gif	stop																								4.06	0.513951063156	0.000904083251953	0.383675813675	1.0	s	953.454210997																																									2015_Jul_07_0953	60.1413233	LearningTask	1	80	
228	-200.0	a	-200.0																	2.0	0.0	2.0	0.0	0.0	3.0	3.0	3.0																													a	1.0	0.36721897125200004	None	0.0	0.5	crossgreen.gif	go																								0.51	0.514182090759	0.0008950233459470001	0.36721897125200004	1.0	a	956.457236052																																									2015_Jul_07_0953	60.1413233	LearningTask	1	80	
229	200.0	w	200.0																	2.0	0.0	2.0	0.0	1.0	0.0	4.0	0.0																													w	1.0	0.35112285614	None	0.0	1.0	squareblue.gif	stop																								0.95	0.514132022858	0.000877857208252	0.35112285614	1.0	w	959.461287022																																									2015_Jul_07_0953	60.1413233	LearningTask	1	80	
230	200.0	w	200.0																	2.0	0.0	2.0	0.0	1.0	1.0	5.0	0.0																													w	1.0	0.36737608909599995	None	0.0	1.0	linecyan.gif	go																								0.92	0.5136899948120001	0.0008840560913089999	0.36737608909599995	1.0	w	962.4640920160001																																									2015_Jul_07_0953	60.1413233	LearningTask	1	80	
231	-200.0	q	200.0																	2.0	0.0	2.0	0.0	1.0	2.0	6.0	1.0																													q	1.0	0.40081405639600004	None	0.0	4.0	diamondyellow.gif	stop																								4.07	0.514123916626	0.0008978843688960001	0.40081405639600004	1.0	q	965.4675199989999																																									2015_Jul_07_0953	60.1413233	LearningTask	1	80	
232	-200.0	q	200.0																	2.0	0.0	2.0	0.0	1.0	3.0	7.0	1.0																													q	1.0	0.35095000267	None	0.0	2.0	triangleorange.gif	stop																								1.92	0.51416015625	0.000881195068359	0.35095000267	1.0	q	968.4710130689999																																									2015_Jul_07_0953	60.1413233	LearningTask	1	80	
233	-200.0	a	-200.0																	2.0	0.0	2.0	0.0	2.0	0.0	8.0	3.0																													a	1.0	0.367996931076	None	0.0	0.5	circlegray.gif	stop																								0.67	0.5138518810270001	0.000900983810425	0.367996931076	1.0	a	971.4742159839999																																									2015_Jul_07_0953	60.1413233	LearningTask	1	80	
234	-200.0	q	200.0																	2.0	0.0	2.0	0.0	2.0	1.0	9.0	1.0																													q	1.0	0.3341319561	None	0.0	2.0	invertedtrianglewhite.gif	go																								2.06	0.514174938202	0.00108909606934	0.3341319561	1.0	q	974.4781038760001																																									2015_Jul_07_0953	60.1413233	LearningTask	1	80	
235	-200.0	a	-200.0																	2.0	0.0	2.0	0.0	2.0	2.0	10.0	3.0																													a	1.0	0.367327928543	None	0.0	2.0	triangleorange.gif	stop																								0.0	0.514063119888	0.00116610527039	0.367327928543	1.0	a	977.481025934																																									2015_Jul_07_0953	60.1413233	LearningTask	1	80	
236	-200.0	q	200.0																	2.0	0.0	2.0	0.0	2.0	3.0	11.0	1.0																													q	1.0	0.36731314659100006	None	0.0	1.0	squareblue.gif	stop																								0.75	0.514355897903	0.000913858413696	0.36731314659100006	1.0	q	980.484331846																																									2015_Jul_07_0953	60.1413233	LearningTask	1	80	
237	-200.0	q	200.0																	2.0	0.0	2.0	0.0	3.0	0.0	12.0	1.0																													q	1.0	0.38472294807400004	None	0.0	0.5	crossgreen.gif	go																								0.0	0.51393699646	0.0010199546814	0.38472294807400004	1.0	q	983.487815857																																									2015_Jul_07_0953	60.1413233	LearningTask	1	80	
238	200.0	w	200.0																	2.0	0.0	2.0	0.0	3.0	1.0	13.0	0.0																													w	1.0	0.36744499206500003	None	0.0	0.5	crossgreen.gif	go																								0.0	0.514271974564	0.0008687973022460001	0.36744499206500003	1.0	w	986.4911339280001																																									2015_Jul_07_0953	60.1413233	LearningTask	1	80	
239	200.0	s	-200.0																	2.0	0.0	2.0	0.0	3.0	2.0	14.0	2.0																													s	1.0	0.334115982056	None	0.0	1.0	linecyan.gif	go																								0.79	0.514311075211	0.000949859619141	0.334115982056	1.0	s	989.494193077																																									2015_Jul_07_0953	60.1413233	LearningTask	1	80	
240	200.0	w	200.0																	2.0	0.0	2.0	0.0	3.0	3.0	15.0	0.0																													w	1.0	0.33465600013700003	None	0.0	4.0	hexagonmagenta.gif	go																								0.0	0.5140378475190001	0.000934839248657	0.33465600013700003	1.0	w	992.497845888																																									2015_Jul_07_0953	60.1413233	LearningTask	1	80	
241	200.0	s	-200.0																	2.0	0.0	2.0	0.0	4.0	0.0	16.0	2.0																													s	1.0	0.35125088691699996	None	0.0	0.5	crossgreen.gif	go																								0.0	0.514642953873	0.0008721351623539999	0.36734676361100005	0.0	w	995.5012938980001		0.53	0.5152649879460001	0.00104188919067	0.351250886917	1.0	s	998.5053329469999																																	2015_Jul_07_0953	60.1413233	LearningTask	1	80	
242	-200.0	q	200.0																	2.0	0.0	2.0	0.0	4.0	1.0	17.0	1.0																													q	1.0	0.35059094429	None	0.0	1.0	squareblue.gif	stop																								1.1	0.513519048691	0.0008859634399410001	0.35059094429	1.0	q	1001.50834394																																									2015_Jul_07_0953	60.1413233	LearningTask	1	80	
243	-200.0	a	-200.0																	2.0	0.0	2.0	0.0	4.0	2.0	18.0	3.0																													a	1.0	0.383986949921	None	0.0	0.5	crossgreen.gif	go																								0.0	0.514299154282	0.0008981227874760001	0.417234897614	0.0	s	1004.51184988		0.32	0.515165805817	0.000974893569946	0.383986949921	1.0	a	1007.51498604																																	2015_Jul_07_0953	60.1413233	LearningTask	1	80	
244	200.0	w	200.0																	2.0	0.0	2.0	0.0	4.0	3.0	19.0	0.0																													w	1.0	0.350956916809	None	0.0	0.5	crossgreen.gif	go																								0.54	0.5141651630399999	0.000880002975464	0.350956916809	1.0	w	1010.51792502																																									2015_Jul_07_0953	60.1413233	LearningTask	1	80	
245	-200.0	q	200.0																	2.0	0.0	2.0	0.0	5.0	0.0	20.0	1.0																													q	1.0	0.351360082626	None	0.0	4.0	hexagonmagenta.gif	go																								4.23	0.514397859573	0.0008878707885739998	0.351360082626	1.0	q	1013.52169204																																									2015_Jul_07_0953	60.1413233	LearningTask	1	80	
246	200.0	w	200.0																	2.0	0.0	2.0	0.0	5.0	1.0	21.0	0.0																													w	1.0	0.38446211814900005	None	0.0	0.5	crossgreen.gif	go																								0.43	0.514226913452	0.0008938312530519999	0.38446211814900005	1.0	w	1016.52477098																																									2015_Jul_07_0953	60.1413233	LearningTask	1	80	
247	200.0	w	200.0																	2.0	0.0	2.0	0.0	5.0	2.0	22.0	0.0																													w	1.0	0.38453578949	None	0.0	0.5	crossgreen.gif	go																								0.0	0.51397895813	0.0009069442749019998	0.38453578949	1.0	w	1019.52814889																																									2015_Jul_07_0953	60.1413233	LearningTask	1	80	
248	200.0	s	-200.0																	2.0	0.0	2.0	0.0	5.0	3.0	23.0	2.0																													s	1.0	0.350625038147	None	0.0	1.0	squareblue.gif	stop																								1.21	0.514672040939	0.0012061595916700002	0.350625038147	1.0	s	1022.53175688																																									2015_Jul_07_0953	60.1413233	LearningTask	1	80	
249	-200.0	q	200.0																	2.0	0.0	2.0	0.0	6.0	0.0	24.0	1.0																													q	1.0	0.45107889175399996	None	0.0	2.0	triangleorange.gif	stop																								2.19	0.51411485672	0.0008759498596189999	0.45107889175399996	1.0	q	1025.53513288																																									2015_Jul_07_0953	60.1413233	LearningTask	1	80	
250	-200.0	q	200.0																	2.0	0.0	2.0	0.0	6.0	1.0	25.0	1.0																													q	1.0	0.434005022049	None	0.0	4.0	diamondyellow.gif	stop																								4.13	0.514314889908	0.000921964645386	0.434005022049	1.0	q	1028.53825092																																									2015_Jul_07_0953	60.1413233	LearningTask	1	80	
251	-200.0	q	200.0																	2.0	0.0	2.0	0.0	6.0	2.0	26.0	1.0																													q	1.0	0.384616136551	None	0.0	2.0	invertedtrianglewhite.gif	go																								2.14	0.5141048431399999	0.0009248256683350001	0.384616136551	1.0	q	1031.54179502																																									2015_Jul_07_0953	60.1413233	LearningTask	1	80	
252	200.0	w	200.0																	2.0	0.0	2.0	0.0	6.0	3.0	27.0	0.0																													w	1.0	0.367383956909	None	0.0	4.0	diamondyellow.gif	stop																								4.05	0.5142121315	0.0008790493011469999	0.367383956909	1.0	w	1034.54529405																																									2015_Jul_07_0953	60.1413233	LearningTask	1	80	
253	200.0	s	-200.0																	2.0	0.0	2.0	0.0	7.0	0.0	28.0	2.0																													s	1.0	0.334319114685	None	0.0	0.5	circlegray.gif	stop																								0.0	0.514226913452	0.00092887878418	0.334319114685	1.0	s	1037.54847097																																									2015_Jul_07_0953	60.1413233	LearningTask	1	80	
254	-200.0	q	200.0																	2.0	0.0	2.0	0.0	7.0	1.0	29.0	1.0																													q	1.0	0.367428064346	None	0.0	4.0	diamondyellow.gif	stop																								3.91	0.5141518116	0.000953912734985	0.367428064346	1.0	q	1040.55178595																																									2015_Jul_07_0953	60.1413233	LearningTask	1	80	
255	200.0	w	200.0																	2.0	0.0	2.0	0.0	7.0	2.0	30.0	0.0																													w	1.0	0.31782102584800004	None	0.0	4.0	hexagonmagenta.gif	go																								4.07	0.514433145523	0.0008971691131589999	0.31782102584800004	1.0	w	1043.55519199																																									2015_Jul_07_0953	60.1413233	LearningTask	1	80	
256	-200.0	q	200.0																	2.0	0.0	2.0	0.0	7.0	3.0	31.0	1.0																													q	1.0	0.334475040436	None	0.0	4.0	hexagonmagenta.gif	go																								4.1	0.514120101929	0.0009129047393799999	0.334475040436	1.0	q	1046.55862403																																									2015_Jul_07_0953	60.1413233	LearningTask	1	80	
257	200.0	s	-200.0																	2.0	0.0	2.0	0.0	8.0	0.0	32.0	2.0																													s	1.0	0.400911808014	None	0.0	0.5	circlegray.gif	stop																								0.5	0.514276981354	0.00090217590332	0.400911808014	1.0	s	1049.56188393																																									2015_Jul_07_0953	60.1413233	LearningTask	1	80	
258	-200.0	a	-200.0																	2.0	0.0	2.0	0.0	8.0	1.0	33.0	3.0																													a	1.0	0.35093808174099994	None	0.0	4.0	hexagonmagenta.gif	go																								0.0	0.514642953873	0.0008831024169919999	0.35093808174099994	1.0	a	1052.56546593																																									2015_Jul_07_0953	60.1413233	LearningTask	1	80	
259	200.0	s	-200.0																	2.0	0.0	2.0	0.0	8.0	2.0	34.0	2.0																													s	1.0	0.450840950012	None	0.0	4.0	diamondyellow.gif	stop																								4.07	0.513808965683	0.0008780956268310002	0.450840950012	1.0	s	1055.56887984																																									2015_Jul_07_0953	60.1413233	LearningTask	1	80	
260	200.0	w	200.0																	2.0	0.0	2.0	0.0	8.0	3.0	35.0	0.0																													w	1.0	0.351088047028	None	0.0	1.0	squareblue.gif	stop																								1.1	0.513922929764	0.0008630752563480002	0.351088047028	1.0	w	1058.57208991																																									2015_Jul_07_0953	60.1413233	LearningTask	1	80	
261	200.0	w	200.0																	2.0	0.0	2.0	0.0	9.0	0.0	36.0	0.0																													w	1.0	0.351053953171	None	0.0	0.5	circlegray.gif	stop																								0.0	0.5142300128939999	0.0011169910430899998	0.351053953171	1.0	w	1061.57624507																																									2015_Jul_07_0953	60.1413233	LearningTask	1	80	
262	200.0	w	200.0																	2.0	0.0	2.0	0.0	9.0	1.0	37.0	0.0																													w	1.0	0.350437879562	None	0.0	1.0	squareblue.gif	stop																								1.12	0.513829231262	0.0008702278137210001	0.350437879562	1.0	w	1064.57886291																																									2015_Jul_07_0953	60.1413233	LearningTask	1	80	
263	-200.0	q	200.0																	2.0	0.0	2.0	0.0	9.0	2.0	38.0	1.0																													q	1.0	0.334614992142	None	0.0	2.0	triangleorange.gif	stop																								2.21	0.514312982559	0.0008749961853029999	0.334614992142	1.0	q	1067.5822679999999																																									2015_Jul_07_0953	60.1413233	LearningTask	1	80	
264	-200.0	q	200.0																	2.0	0.0	2.0	0.0	9.0	3.0	39.0	1.0																													q	1.0	0.384266138077	None	0.0	2.0	triangleorange.gif	stop																								2.23	0.5141048431399999	0.000943899154663	0.384266138077	1.0	q	1070.58576703																																									2015_Jul_07_0953	60.1413233	LearningTask	1	80	
265	200.0	s	-200.0																	2.0	0.0	2.0	0.0	10.0	0.0	40.0	2.0																													s	1.0	0.367515087128	None	0.0	0.5	crossgreen.gif	go																								0.45	0.514073133469	0.000877141952515	0.367515087128	1.0	s	1073.58917999																																									2015_Jul_07_0953	60.1413233	LearningTask	1	80	
266	-200.0	q	200.0																	2.0	0.0	2.0	0.0	10.0	1.0	41.0	1.0																													q	1.0	0.33410501480099997	None	0.0	2.0	invertedtrianglewhite.gif	go																								1.89	0.514085054398	0.0010809898376500002	0.33410501480099997	1.0	q	1076.59230304																																									2015_Jul_07_0953	60.1413233	LearningTask	1	80	
267	200.0	s	-200.0																	2.0	0.0	2.0	0.0	10.0	2.0	42.0	2.0																													s	1.0	0.35157585144000003	None	0.0	4.0	diamondyellow.gif	stop																								4.07	0.513857126236	0.00092601776123	0.35157585144000003	1.0	s	1079.59598589																																									2015_Jul_07_0953	60.1413233	LearningTask	1	80	
268	-200.0	q	200.0																	2.0	0.0	2.0	0.0	10.0	3.0	43.0	1.0																													q	1.0	0.351027965546	None	0.0	0.5	crossgreen.gif	go																								0.52	0.514023065567	0.000892877578735	0.351027965546	1.0	q	1082.5991869000002																																									2015_Jul_07_0953	60.1413233	LearningTask	1	80	
269	-200.0	a	-200.0																	2.0	0.0	2.0	0.0	11.0	0.0	44.0	3.0																													a	1.0	0.40024900436399996	None	0.0	2.0	triangleorange.gif	stop																								1.89	0.514148950577	0.00093412399292	0.40024900436399996	1.0	a	1085.6027019																																									2015_Jul_07_0953	60.1413233	LearningTask	1	80	
270	200.0	s	-200.0																	2.0	0.0	2.0	0.0	11.0	1.0	45.0	2.0																													s	1.0	0.350999116898	None	0.0	4.0	diamondyellow.gif	stop																								0.0	0.513670921326	0.0009369850158689999	0.350999116898	1.0	s	1088.60567784																																									2015_Jul_07_0953	60.1413233	LearningTask	1	80	
271	-200.0	a	-200.0																	2.0	0.0	2.0	0.0	11.0	2.0	46.0	3.0																													a	1.0	0.40091300010700004	None	0.0	4.0	diamondyellow.gif	stop																								3.79	0.514282941818	0.00102996826172	0.40091300010700004	1.0	a	1091.60928893																																									2015_Jul_07_0953	60.1413233	LearningTask	1	80	
272	200.0	s	-200.0																	2.0	0.0	2.0	0.0	11.0	3.0	47.0	2.0																													s	1.0	0.43388199806199995	None	0.0	1.0	linecyan.gif	go																								0.92	0.514377117157	0.0009181499481200001	0.43388199806199995	1.0	s	1094.61328697																																									2015_Jul_07_0953	60.1413233	LearningTask	1	80	
273	200.0	s	-200.0																	2.0	0.0	2.0	0.0	12.0	0.0	48.0	2.0																													s	1.0	0.334409952164	None	0.0	0.5	circlegray.gif	stop																								0.52	0.513187885284	0.00100898742676	0.334409952164	1.0	s	1097.61609006																																									2015_Jul_07_0953	60.1413233	LearningTask	1	80	
274	200.0	s	-200.0																	2.0	0.0	2.0	0.0	12.0	1.0	49.0	2.0																													s	1.0	0.334434986115	None	0.0	1.0	linecyan.gif	go																								1.15	0.514314174652	0.000923156738281	0.334434986115	1.0	s	1100.61950994																																									2015_Jul_07_0953	60.1413233	LearningTask	1	80	
275	200.0	w	200.0																	2.0	0.0	2.0	0.0	12.0	2.0	50.0	0.0																													w	1.0	0.36802005767800006	None	0.0	0.5	circlegray.gif	stop																								0.66	0.513906955719	0.000848054885864	0.36802005767800006	1.0	w	1103.62286091																																									2015_Jul_07_0953	60.1413233	LearningTask	1	80	
276	-200.0	q	200.0																	2.0	0.0	2.0	0.0	12.0	3.0	51.0	1.0																													q	1.0	0.451236963272	None	0.0	2.0	triangleorange.gif	stop																								0.0	0.51417183876	0.0008668899536130001	0.33407902717599997	0.0	a	1106.62631106		2.16	0.515232086182	0.0009729862213130002	0.451236963272	1.0	q	1109.62974906																																	2015_Jul_07_0953	60.1413233	LearningTask	1	80	
277	-200.0	q	200.0																	2.0	0.0	2.0	0.0	13.0	0.0	52.0	1.0																													q	1.0	0.401224136353	None	0.0	0.5	crossgreen.gif	go																								0.69	0.513345956802	0.00115990638733	0.401224136353	1.0	q	1112.63292289																																									2015_Jul_07_0953	60.1413233	LearningTask	1	80	
278	200.0	w	200.0																	2.0	0.0	2.0	0.0	13.0	1.0	53.0	0.0																													w	1.0	0.334223985672	None	0.0	1.0	squareblue.gif	stop																								0.76	0.514406204224	0.00129699707031	0.334223985672	1.0	w	1115.63621306																																									2015_Jul_07_0953	60.1413233	LearningTask	1	80	
279	200.0	s	-200.0																	2.0	0.0	2.0	0.0	13.0	2.0	54.0	2.0																													s	1.0	0.334183931351	None	0.0	2.0	invertedtrianglewhite.gif	go																								2.21	0.51394701004	0.0013790130615200001	0.334183931351	1.0	s	1118.63969088																																									2015_Jul_07_0953	60.1413233	LearningTask	1	80	
280	200.0	s	-200.0																	2.0	0.0	2.0	0.0	13.0	3.0	55.0	2.0																													s	1.0	0.35080003738399995	None	0.0	4.0	diamondyellow.gif	stop																								3.94	0.514492988586	0.0012679100036600002	0.35080003738399995	1.0	s	1121.64280605																																									2015_Jul_07_0953	60.1413233	LearningTask	1	80	
281	200.0	s	-200.0																	2.0	0.0	2.0	0.0	14.0	0.0	56.0	2.0																													s	1.0	0.35054898261999995	None	0.0	1.0	linecyan.gif	go																								1.16	0.514720916748	0.00129294395447	0.35054898261999995	1.0	s	1124.64681101																																									2015_Jul_07_0953	60.1413233	LearningTask	1	80	
282	200.0	w	200.0																	2.0	0.0	2.0	0.0	14.0	1.0	57.0	0.0																													w	1.0	0.384124040604	None	0.0	0.5	crossgreen.gif	go																								0.64	0.5137639045719999	0.00122690200806	0.384124040604	1.0	w	1127.64999604																																									2015_Jul_07_0953	60.1413233	LearningTask	1	80	
283	-200.0	q	200.0																	2.0	0.0	2.0	0.0	14.0	2.0	58.0	1.0																													q	1.0	0.350954055786	None	0.0	1.0	squareblue.gif	stop																								1.25	0.514292001724	0.0009100437164310001	0.350954055786	1.0	q	1130.65321302																																									2015_Jul_07_0953	60.1413233	LearningTask	1	80	
284	-200.0	a	-200.0																	2.0	0.0	2.0	0.0	14.0	3.0	59.0	3.0																													a	1.0	0.334295034409	None	0.0	2.0	triangleorange.gif	stop																								1.76	0.513903141022	0.00131011009216	0.334295034409	1.0	a	1133.65710187																																									2015_Jul_07_0953	60.1413233	LearningTask	1	80	
