	xPos	corrAns	yPos	corrGoResp	yPosGoStim	xPosGoStim	pracTrials.thisRepN	pracTrials.thisTrialN	pracTrials.thisN	pracTrials.thisIndex	ReDoLoopPrac.thisRepN	ReDoLoopPrac.thisTrialN	ReDoLoopPrac.thisN	ReDoLoopPrac.thisIndex	ReDoLoopPrac.thisTrial	pracStopTrials.thisRepN	pracStopTrials.thisTrialN	pracStopTrials.thisN	pracStopTrials.thisIndex	Blocks.thisRepN	Blocks.thisTrialN	Blocks.thisN	Blocks.thisIndex	trials.thisRepN	trials.thisTrialN	trials.thisN	trials.thisIndex	ReDoLoopMain.thisRepN	ReDoLoopMain.thisTrialN	ReDoLoopMain.thisN	ReDoLoopMain.thisIndex	ReDoLoopMain.thisTrial	StopBlocks.thisRepN	StopBlocks.thisTrialN	StopBlocks.thisN	StopBlocks.thisIndex	StopTrials.thisRepN	StopTrials.thisTrialN	StopTrials.thisN	StopTrials.thisIndex	auctionBlocks.thisRepN	auctionBlocks.thisTrialN	auctionBlocks.thisN	auctionBlocks.thisIndex	auctionTrials.thisRepN	auctionTrials.thisTrialN	auctionTrials.thisN	auctionTrials.thisIndex	learningTrialList	learningPracTrialList	stopTrialList	stopPracTrialList	auctionTrialList	ok1.keys	ok1.rt	resp.keys	resp.corr	resp.rt	feedbackResp.keys	feedbackResp.corr	currentReward	currentStimulus	currentStimType	firstPracComputedRewardOutput	firstPracLearningStimOnset	firstPracLearningFixOnset	firstPracPresentationRT	firstPracPresentationAcc	firstPracPresentationResp	firstPracEndTrialTimeStamp	StartTrialTimeStamp	trialType	goStim	stimType	stopStimValue	goResp.keys	goResp.corr	goResp.rt	key_resp_9.keys	key_resp_9.corr	fixStopOnset	goStimOnset	stopSignalOnset	EndTrialTimeStamp	key_resp_3.keys	key_resp_3.rt	firstComputedRewardOutput	firstLearningStimOnset	firstLearningFixOnset	firstPresentationRT	firstPresentationAcc	firstPresentationResp	firstEndTrialTimeStamp	key_resp_7.keys	key_resp_7.rt	feedbackResp.rt	secondComputedRewardOutput	secondLearningStimOnset	secondLearningFixOnset	secondPresentationRT	secondPresentationAcc	secondPresentationResp	secondEndTrialTimeStamp	beginningSSD	EndingSSD	key_resp_4.keys	key_resp_4.rt	auctionResponse.keys	auctionResponse.rt	auctionStimDuration	auctionStim	auctionAmounts	auctionStimValue	auctionCondition	chosenAuctionAmount	key_resp_5.keys	key_resp_5.rt	shuffledRewardList	chosenReward1	chosenReward2	chosenReward3	chosenReward4	chosenReward5	key_resp_6.keys	key_resp_6.rt	date	frameRate	expName	session	participant	Unnamed: 130
0																																																	[]	[]	[]	[]	[]	9.0	78.1156201363																																																																							2015_Jul_06_1004	59.7029304128	LearningTask	1	55	
1	200.0	s	-200.0				0.0	0.0	0.0	2.0																																														s	1.0	0.718077898026	None	0.0	0.5	trianglemagenta.gif	go	0.37	0.500169038773	0.017307996749900002	0.718077898026	1.0	s	92.3617539406																																																								2015_Jul_06_1004	59.7029304128	LearningTask	1	55	
2	200.0	w	200.0				0.0	1.0	1.0	8.0																																														w	1.0	0.36748290062	None	0.0	0.5	diamondblue.gif	stop	0.67	0.51510310173	0.0440800189972	0.36748290062	1.0	w	95.3651478291																																																								2015_Jul_06_1004	59.7029304128	LearningTask	1	55	
3	-200.0	a	-200.0				0.0	2.0	2.0	3.0																																														a	1.0	0.43422603607199994	None	0.0	2.0	squaregray.gif	stop	0.0	0.514620065689	0.044666051864599994	0.43422603607199994	1.0	a	98.3685588837																																																								2015_Jul_06_1004	59.7029304128	LearningTask	1	55	
4	-200.0	a	-200.0				0.0	3.0	3.0	7.0																																														a	1.0	0.46773481369	None	0.0	4.0	linecyan.gif	go	0.0	0.514469146729	0.0221149921417	0.46773481369	1.0	a	101.371257782																																																								2015_Jul_06_1004	59.7029304128	LearningTask	1	55	
5	200.0	w	200.0				0.0	4.0	4.0	0.0																																														w	1.0	0.485095977783	None	0.0	4.0	hexagonwhite.gif	stop	4.08	0.515114068985	0.041579961776699995	0.485095977783	1.0	w	104.374832869																																																								2015_Jul_06_1004	59.7029304128	LearningTask	1	55	
6	-200.0	q	200.0				0.0	5.0	5.0	9.0																																														q	1.0	0.384427070618	None	0.0	4.0	hexagonwhite.gif	stop	3.87	0.51492190361	0.0008978843688960001	0.384427070618	1.0	q	107.37814688700001																																																								2015_Jul_06_1004	59.7029304128	LearningTask	1	55	
7	200.0	s	-200.0				0.0	6.0	6.0	6.0																																														s	1.0	0.333741903305	None	0.0	2.0	invertedtriangleorange.gif	go	2.23	0.51557803154	0.0122539997101	0.333741903305	1.0	s	110.381582975																																																								2015_Jul_06_1004	59.7029304128	LearningTask	1	55	
8	200.0	w	200.0				0.0	7.0	7.0	4.0																																														w	1.0	0.38406586647	None	0.0	2.0	squaregray.gif	stop	2.19	0.514957904816	0.0009279251098630001	0.38406586647	1.0	w	113.385146856																																																								2015_Jul_06_1004	59.7029304128	LearningTask	1	55	
9	-200.0	q	200.0				0.0	8.0	8.0	5.0																																														q	1.0	0.351015090942	None	0.0	0.5	trianglemagenta.gif	go	0.67	0.514724969864	0.0009589195251460001	0.351015090942	1.0	q	116.388089895																																																								2015_Jul_06_1004	59.7029304128	LearningTask	1	55	
10	-200.0	q	200.0				0.0	9.0	9.0	1.0																																														q	1.0	0.334236860275	None	0.0	2.0	squaregray.gif	stop	0.0	0.515160799026	0.0011389255523699998	0.334236860275	1.0	q	119.391418934																																																								2015_Jul_06_1004	59.7029304128	LearningTask	1	55	
11				m	0.0	200.0										0.0	0.0	0.0	1.0																																																				171.468287945	stop	diamondblue.gif	stop	0.5	m	1.0	0.618407964706	None	0.0	0.0015451908111600002	0.513185024261	0.763430118561	174.469712973																																										2015_Jul_06_1004	59.7029304128	LearningTask	1	55	
12				m	0.0	200.0										0.0	1.0	1.0	1.0																																																				174.47015190099998	go	linecyan.gif	go	4.0	m	1.0	0.467651128769	None	0.0	0.0009520053863530001	0.515564918518		177.472730875																																										2015_Jul_06_1004	59.7029304128	LearningTask	1	55	
13				z	0.0	-200.0										1.0	0.0	2.0	0.0																																																				177.473090887	stop	squaregray.gif	stop	2.0	z	1.0	0.667673826218	None	0.0	0.000951051712036	0.515986919403	0.766340970993	180.476113796																																										2015_Jul_06_1004	59.7029304128	LearningTask	1	55	
14				z	0.0	-200.0										1.0	1.0	3.0	0.0																																																				180.476472855	stop	diamondblue.gif	stop	0.5	z	1.0	0.617841005325	None	0.0	0.0009629726409910001	0.515803813934	0.766269922256	183.479519844																																										2015_Jul_06_1004	59.7029304128	LearningTask	1	55	
15				z	0.0	-200.0										2.0	0.0	4.0	0.0																																																				183.479908943	stop	hexagonwhite.gif	stop	4.0	z	1.0	0.601180076599	None	0.0	0.00108504295349	0.515788078308	0.76601099968	186.48290896400002																																										2015_Jul_06_1004	59.7029304128	LearningTask	1	55	
16				z	0.0	-200.0										2.0	1.0	5.0	0.0																																																				186.483270884	go	linecyan.gif	go	4.0	None	0.0		None	0.0	0.000949144363403	0.5156891345979999		189.48688197099997																																										2015_Jul_06_1004	59.7029304128	LearningTask	1	55	
17				m	0.0	200.0										3.0	0.0	6.0	1.0																																																				189.487290859	go	trianglemagenta.gif	go	0.5	m	1.0	0.7515082359309999	None	0.0	0.000978946685791	0.514804840088		192.489501953																																										2015_Jul_06_1004	59.7029304128	LearningTask	1	55	
18				z	0.0	-200.0										3.0	1.0	7.0	0.0																																																				192.48986697200002	go	linecyan.gif	go	4.0	None	0.0		None	0.0	0.0010049343109099999	0.515855073929		195.49285292599998																																										2015_Jul_06_1004	59.7029304128	LearningTask	1	55	
19				m	0.0	200.0										4.0	0.0	8.0	1.0																																																				195.49321484599997	stop	hexagonwhite.gif	stop	4.0	m	1.0	0.734879016876	None	0.0	0.0009729862213130002	0.5158729553220001	0.7663788795469999	198.496634007																																										2015_Jul_06_1004	59.7029304128	LearningTask	1	55	
20				m	0.0	200.0										4.0	1.0	9.0	1.0																																																				198.497049809	stop	squaregray.gif	stop	2.0	m	1.0	0.701135158539	None	0.0	0.0009570121765139998	0.515283107758	0.7658660411830001	201.499625921																																										2015_Jul_06_1004	59.7029304128	LearningTask	1	55	
21																																																																																					9.0	56.990738153500004																																								2015_Jul_06_1004	59.7029304128	LearningTask	1	55	
22																																																						9.0	6.65742516518																																																																							2015_Jul_06_1004	59.7029304128	LearningTask	1	55	
23	200.0	w	200.0																	0.0	0.0	0.0	0.0	0.0	0.0	0.0	0.0																													w	1.0	0.834726810455	None	0.0	2.0	invertedtriangleorange.gif	go																								2.16	0.514117002487	0.0009248256683350001	0.834726810455	1.0	w	268.358704805																																	2015_Jul_06_1004	59.7029304128	LearningTask	1	55	
24	-200.0	q	200.0																	0.0	0.0	0.0	0.0	0.0	1.0	1.0	1.0																													q	1.0	0.367548942566	None	0.0	4.0	linecyan.gif	go																								3.91	0.5136299133300001	0.000926971435547	0.367548942566	1.0	q	271.36181879																																	2015_Jul_06_1004	59.7029304128	LearningTask	1	55	
25	200.0	s	-200.0																	0.0	0.0	0.0	0.0	0.0	2.0	2.0	2.0																													s	1.0	0.350723981857	None	0.0	2.0	invertedtriangleorange.gif	go																								1.81	0.514353990555	0.0009601116180419999	0.350723981857	1.0	s	274.364980936																																	2015_Jul_06_1004	59.7029304128	LearningTask	1	55	
26	-200.0	a	-200.0																	0.0	0.0	0.0	0.0	0.0	3.0	3.0	3.0																													a	1.0	0.334416151047	None	0.0	0.5	trianglemagenta.gif	go																								0.39	0.514132022858	0.0009520053863530001	0.334416151047	1.0	a	277.36835098299997																																	2015_Jul_06_1004	59.7029304128	LearningTask	1	55	
27	200.0	w	200.0																	0.0	0.0	0.0	0.0	1.0	0.0	4.0	0.0																													w	1.0	0.38387298584	None	0.0	0.5	trianglemagenta.gif	go																								0.3	0.514420032501	0.0009751319885249999	0.38387298584	1.0	w	280.371703863																																	2015_Jul_06_1004	59.7029304128	LearningTask	1	55	
28	-200.0	a	-200.0																	0.0	0.0	0.0	0.0	1.0	1.0	5.0	3.0																													a	1.0	0.35093188285800003	None	0.0	1.0	crossyellow.gif	go																								1.11	0.514506101608	0.00700807571411	0.350931882858	1.0	a	283.375110865																																	2015_Jul_06_1004	59.7029304128	LearningTask	1	55	
29	-200.0	a	-200.0																	0.0	0.0	0.0	0.0	1.0	2.0	6.0	3.0																													a	1.0	0.417950868607	None	0.0	4.0	linecyan.gif	go																								4.17	0.51443696022	0.0008859634399410001	0.417950868607	1.0	a	286.378579855																																	2015_Jul_06_1004	59.7029304128	LearningTask	1	55	
30	200.0	w	200.0																	0.0	0.0	0.0	0.0	1.0	3.0	7.0	0.0																													w	1.0	0.5008330345149999	None	0.0	2.0	invertedtriangleorange.gif	go																								0.0	0.5140080451969999	0.000900030136108	0.500833034515	1.0	w	289.38176679599997																																	2015_Jul_06_1004	59.7029304128	LearningTask	1	55	
31	200.0	s	-200.0																	0.0	0.0	0.0	0.0	2.0	0.0	8.0	2.0																													s	1.0	0.41743612289399995	None	0.0	2.0	invertedtriangleorange.gif	go																								1.88	0.51435303688	0.0009059906005860001	0.417436122894	1.0	s	292.385113955																																	2015_Jul_06_1004	59.7029304128	LearningTask	1	55	
32	200.0	w	200.0																	0.0	0.0	0.0	0.0	2.0	1.0	9.0	0.0																													w	1.0	0.40084695816	None	0.0	2.0	invertedtriangleorange.gif	go																								0.0	0.514308929443	0.00094199180603	0.40084695816	1.0	w	295.388863802																																	2015_Jul_06_1004	59.7029304128	LearningTask	1	55	
33	-200.0	a	-200.0																	0.0	0.0	0.0	0.0	2.0	2.0	10.0	3.0																													a	1.0	0.317359924316	None	0.0	2.0	invertedtriangleorange.gif	go																								1.96	0.513361930847	0.0010008811950700002	0.317359924316	1.0	a	298.391935825																																	2015_Jul_06_1004	59.7029304128	LearningTask	1	55	
34	200.0	s	-200.0																	0.0	0.0	0.0	0.0	2.0	3.0	11.0	2.0																													s	1.0	0.334714889526	None	0.0	2.0	invertedtriangleorange.gif	go																								1.93	0.514055013657	0.00090503692627	0.334714889526	1.0	s	301.39517784099996																																	2015_Jul_06_1004	59.7029304128	LearningTask	1	55	
35	200.0	s	-200.0																	0.0	0.0	0.0	0.0	3.0	0.0	12.0	2.0																													s	1.0	0.367653131485	None	0.0	1.0	crossyellow.gif	go																								1.25	0.514246940613	0.0009059906005860001	0.367653131485	1.0	s	304.398599863																																	2015_Jul_06_1004	59.7029304128	LearningTask	1	55	
36	-200.0	a	-200.0																	0.0	0.0	0.0	0.0	3.0	1.0	13.0	3.0																													a	1.0	0.36816596984899996	None	0.0	0.5	diamondblue.gif	stop																								0.34	0.5141859054569999	0.0009019374847410001	0.368165969849	1.0	a	307.402070999																																	2015_Jul_06_1004	59.7029304128	LearningTask	1	55	
37	-200.0	a	-200.0																	0.0	0.0	0.0	0.0	3.0	2.0	14.0	3.0																													a	1.0	0.334290027618	None	0.0	1.0	crossyellow.gif	go																								0.0	0.514220952988	0.00101494789124	0.334290027618	1.0	a	310.40516281099997																																	2015_Jul_06_1004	59.7029304128	LearningTask	1	55	
38	200.0	w	200.0																	0.0	0.0	0.0	0.0	3.0	3.0	15.0	0.0																													w	1.0	0.36747598648100005	None	0.0	1.0	circlegreen.gif	stop																								0.88	0.515097856522	0.00747585296631	0.367475986481	1.0	w	313.40896391900003																																	2015_Jul_06_1004	59.7029304128	LearningTask	1	55	
39	-200.0	a	-200.0																	0.0	0.0	0.0	0.0	4.0	0.0	16.0	3.0																													a	1.0	0.367493867874	None	0.0	4.0	hexagonwhite.gif	stop																								4.02	0.51407289505	0.0017838478088399998	0.367493867874	1.0	a	316.412040949																																	2015_Jul_06_1004	59.7029304128	LearningTask	1	55	
40	-200.0	a	-200.0																	0.0	0.0	0.0	0.0	4.0	1.0	17.0	3.0																													a	1.0	0.350641012192	None	0.0	4.0	hexagonwhite.gif	stop																								4.13	0.514206886292	0.00110483169556	0.350641012192	1.0	a	319.415879965																																	2015_Jul_06_1004	59.7029304128	LearningTask	1	55	
41	200.0	s	-200.0																	0.0	0.0	0.0	0.0	4.0	2.0	18.0	2.0																													s	1.0	0.36731696128799995	None	0.0	4.0	hexagonwhite.gif	stop																								3.9	0.513626098633	0.00101017951965	0.367316961288	1.0	s	322.419115782																																	2015_Jul_06_1004	59.7029304128	LearningTask	1	55	
42	-200.0	a	-200.0																	0.0	0.0	0.0	0.0	4.0	3.0	19.0	3.0																													a	1.0	0.351100921631	None	0.0	1.0	crossyellow.gif	go																								0.0	0.514023065567	0.0008990764617919999	0.351100921631	1.0	a	325.422076941																																	2015_Jul_06_1004	59.7029304128	LearningTask	1	55	
43	200.0	s	-200.0																	0.0	0.0	0.0	0.0	5.0	0.0	20.0	2.0																													s	1.0	0.384594202042	None	0.0	4.0	hexagonwhite.gif	stop																								3.91	0.514099836349	0.00092601776123	0.384594202042	1.0	s	328.425390005																																	2015_Jul_06_1004	59.7029304128	LearningTask	1	55	
44	-200.0	a	-200.0																	0.0	0.0	0.0	0.0	5.0	1.0	21.0	3.0																													a	1.0	0.35054397583	None	0.0	0.5	diamondblue.gif	stop																								0.41	0.514405965805	0.000908851623535	0.35054397583	1.0	a	331.42905187599996																																	2015_Jul_06_1004	59.7029304128	LearningTask	1	55	
45	-200.0	q	200.0																	0.0	0.0	0.0	0.0	5.0	2.0	22.0	1.0																													q	1.0	0.317714929581	None	0.0	1.0	circlegreen.gif	stop																								0.0	0.514154195786	0.0008940696716310001	0.317714929581	1.0	q	334.432374954																																	2015_Jul_06_1004	59.7029304128	LearningTask	1	55	
46	-200.0	a	-200.0																	0.0	0.0	0.0	0.0	5.0	3.0	23.0	3.0																													a	1.0	0.318017959595	None	0.0	0.5	diamondblue.gif	stop																								0.6	0.513805150986	0.0009200572967529999	0.318017959595	1.0	a	337.43605899799996																																	2015_Jul_06_1004	59.7029304128	LearningTask	1	55	
47	-200.0	a	-200.0																	0.0	0.0	0.0	0.0	6.0	0.0	24.0	3.0																													a	1.0	0.317578077316	None	0.0	0.5	trianglemagenta.gif	go																								0.31	0.513746023178	0.000888109207153	0.317578077316	1.0	a	340.439393997																																	2015_Jul_06_1004	59.7029304128	LearningTask	1	55	
48	-200.0	a	-200.0																	0.0	0.0	0.0	0.0	6.0	1.0	25.0	3.0																													a	1.0	0.31759595871	None	0.0	4.0	linecyan.gif	go																								4.24	0.513887166977	0.0009431838989260002	0.31759595871	1.0	a	343.442674875																																	2015_Jul_06_1004	59.7029304128	LearningTask	1	55	
49	200.0	w	200.0																	0.0	0.0	0.0	0.0	6.0	2.0	26.0	0.0																													w	1.0	0.451112031937	None	0.0	4.0	hexagonwhite.gif	stop																								4.01	0.513682842255	0.00092887878418	0.451112031937	1.0	w	346.445542812																																	2015_Jul_06_1004	59.7029304128	LearningTask	1	55	
50	200.0	w	200.0																	0.0	0.0	0.0	0.0	6.0	3.0	27.0	0.0																													w	1.0	0.46789312362700003	None	0.0	2.0	squaregray.gif	stop																								2.1	0.5143928527830001	0.0008878707885739998	0.467893123627	1.0	w	349.448771																																	2015_Jul_06_1004	59.7029304128	LearningTask	1	55	
51	-200.0	a	-200.0																	0.0	0.0	0.0	0.0	7.0	0.0	28.0	3.0																													a	1.0	0.300512075424	None	0.0	0.5	diamondblue.gif	stop																								0.25	0.514609098434	0.000917911529541	0.300512075424	1.0	a	352.45258688900003																																	2015_Jul_06_1004	59.7029304128	LearningTask	1	55	
52	-200.0	q	200.0																	0.0	0.0	0.0	0.0	7.0	1.0	29.0	1.0																													q	1.0	0.33414888382	None	0.0	4.0	hexagonwhite.gif	stop																								4.24	0.514025211334	0.0008981227874760001	0.33414888382	1.0	q	355.45559287099996																																	2015_Jul_06_1004	59.7029304128	LearningTask	1	55	
53	200.0	w	200.0																	0.0	0.0	0.0	0.0	7.0	2.0	30.0	0.0																													w	1.0	0.38392686843900004	None	0.0	0.5	diamondblue.gif	stop																								0.71	0.514521121979	0.00101804733276	0.383926868439	1.0	w	358.45881795900004																																	2015_Jul_06_1004	59.7029304128	LearningTask	1	55	
54	200.0	w	200.0																	0.0	0.0	0.0	0.0	7.0	3.0	31.0	0.0																													w	1.0	0.467505931854	None	0.0	0.5	diamondblue.gif	stop																								0.57	0.514568090439	0.0008940696716310001	0.467505931854	1.0	w	361.462509871																																	2015_Jul_06_1004	59.7029304128	LearningTask	1	55	
55	-200.0	q	200.0																	0.0	0.0	0.0	0.0	8.0	0.0	32.0	1.0																													q	1.0	0.31774210929900004	None	0.0	2.0	invertedtriangleorange.gif	go																								2.07	0.5140309333799999	0.0009059906005860001	0.317742109299	1.0	q	364.465754986																																	2015_Jul_06_1004	59.7029304128	LearningTask	1	55	
56	-200.0	a	-200.0																	0.0	0.0	0.0	0.0	8.0	1.0	33.0	3.0																													a	1.0	0.334177017212	None	0.0	4.0	hexagonwhite.gif	stop																								4.11	0.513833045959	0.000942945480347	0.334177017212	1.0	a	367.469064951																																	2015_Jul_06_1004	59.7029304128	LearningTask	1	55	
57	-200.0	a	-200.0																	0.0	0.0	0.0	0.0	8.0	2.0	34.0	3.0																													a	1.0	0.350608110428	None	0.0	1.0	circlegreen.gif	stop																								0.0	0.5142741203310001	0.000908136367798	0.350608110428	1.0	a	370.47220397																																	2015_Jul_06_1004	59.7029304128	LearningTask	1	55	
58	200.0	w	200.0																	0.0	0.0	0.0	0.0	8.0	3.0	35.0	0.0																													w	1.0	0.367280960083	None	0.0	2.0	invertedtriangleorange.gif	go																								1.87	0.5146450996399999	0.000900983810425	0.367280960083	1.0	w	373.47581982599996																																	2015_Jul_06_1004	59.7029304128	LearningTask	1	55	
59	200.0	w	200.0																	0.0	0.0	0.0	0.0	9.0	0.0	36.0	0.0																													w	1.0	0.36760592460600006	None	0.0	0.5	diamondblue.gif	stop																								0.31	0.513972997665	0.0009241104125980002	0.367605924606	1.0	w	376.478949785																																	2015_Jul_06_1004	59.7029304128	LearningTask	1	55	
60	200.0	s	-200.0																	0.0	0.0	0.0	0.0	9.0	1.0	37.0	2.0																													s	1.0	0.384269952774	None	0.0	1.0	circlegreen.gif	stop																								0.99	0.5145039558410001	0.0011348724365200001	0.384269952774	1.0	s	379.482385874																																	2015_Jul_06_1004	59.7029304128	LearningTask	1	55	
61	200.0	s	-200.0																	0.0	0.0	0.0	0.0	9.0	2.0	38.0	2.0																													s	1.0	0.350926876068	None	0.0	4.0	linecyan.gif	go																								3.75	0.514524936676	0.00090503692627	0.350926876068	1.0	s	382.48624491699996																																	2015_Jul_06_1004	59.7029304128	LearningTask	1	55	
62	200.0	s	-200.0																	0.0	0.0	0.0	0.0	9.0	3.0	39.0	2.0																													s	1.0	0.351050853729	None	0.0	4.0	linecyan.gif	go																								4.1	0.513413190842	0.000909090042114	0.351050853729	1.0	s	385.48940587																																	2015_Jul_06_1004	59.7029304128	LearningTask	1	55	
63	-200.0	q	200.0																	0.0	0.0	0.0	0.0	10.0	0.0	40.0	1.0																													q	1.0	0.38389801979099997	None	0.0	0.5	trianglemagenta.gif	go																								0.0	0.514270067215	0.00092601776123	0.383898019791	1.0	q	388.492403984																																	2015_Jul_06_1004	59.7029304128	LearningTask	1	55	
64	-200.0	a	-200.0																	0.0	0.0	0.0	0.0	10.0	1.0	41.0	3.0																													a	1.0	0.317378997803	None	0.0	1.0	circlegreen.gif	stop																								0.77	0.514388084412	0.00090503692627	0.317378997803	1.0	a	391.49599289900004																																	2015_Jul_06_1004	59.7029304128	LearningTask	1	55	
65	200.0	w	200.0																	0.0	0.0	0.0	0.0	10.0	2.0	42.0	0.0																													w	1.0	0.351056098938	None	0.0	4.0	linecyan.gif	go																								3.91	0.513855934143	0.000949859619141	0.351056098938	1.0	w	394.499487877																																	2015_Jul_06_1004	59.7029304128	LearningTask	1	55	
66	-200.0	q	200.0																	0.0	0.0	0.0	0.0	10.0	3.0	43.0	1.0																													q	1.0	0.317039012909	None	0.0	4.0	hexagonwhite.gif	stop																								3.81	0.514058113098	0.00106310844421	0.317039012909	1.0	q	397.502465963																																	2015_Jul_06_1004	59.7029304128	LearningTask	1	55	
67	200.0	w	200.0																	0.0	0.0	0.0	0.0	11.0	0.0	44.0	0.0																													w	1.0	0.367094039917	None	0.0	4.0	hexagonwhite.gif	stop																								3.99	0.514647960663	0.0009160041809079999	0.367094039917	1.0	w	400.506064892																																	2015_Jul_06_1004	59.7029304128	LearningTask	1	55	
68	-200.0	q	200.0																	0.0	0.0	0.0	0.0	11.0	1.0	45.0	1.0																													q	1.0	0.367479085922	None	0.0	2.0	squaregray.gif	stop																								0.0	0.514299869537	0.000903844833374	0.367479085922	1.0	q	403.50923991199994																																	2015_Jul_06_1004	59.7029304128	LearningTask	1	55	
69	-200.0	q	200.0																	0.0	0.0	0.0	0.0	11.0	2.0	46.0	1.0																													q	1.0	0.300480127335	None	0.0	0.5	diamondblue.gif	stop																								0.3	0.5146350860600001	0.00099515914917	0.300480127335	1.0	q	406.51269388199995																																	2015_Jul_06_1004	59.7029304128	LearningTask	1	55	
70	-200.0	q	200.0																	0.0	0.0	0.0	0.0	11.0	3.0	47.0	1.0																													q	1.0	0.401193141937	None	0.0	1.0	circlegreen.gif	stop																								0.79	0.514299869537	0.000907897949219	0.401193141937	1.0	q	409.51612877800005																																	2015_Jul_06_1004	59.7029304128	LearningTask	1	55	
71	-200.0	q	200.0																	0.0	0.0	0.0	0.0	12.0	0.0	48.0	1.0																													q	1.0	0.334285974503	None	0.0	0.5	diamondblue.gif	stop																								0.26	0.514477968216	0.000930070877075	0.334285974503	1.0	q	412.519159794																																	2015_Jul_06_1004	59.7029304128	LearningTask	1	55	
72	200.0	s	-200.0																	0.0	0.0	0.0	0.0	12.0	1.0	49.0	2.0																													s	1.0	0.36761713028000004	None	0.0	2.0	invertedtriangleorange.gif	go																								0.0	0.514330863953	0.0009608268737789999	0.36761713028	1.0	s	415.522840977																																	2015_Jul_06_1004	59.7029304128	LearningTask	1	55	
73	-200.0	a	-200.0																	0.0	0.0	0.0	0.0	12.0	2.0	50.0	3.0																													a	1.0	0.351358175278	None	0.0	2.0	squaregray.gif	stop																								2.18	0.514136075974	0.000892162322998	0.351358175278	1.0	a	418.525982857																																	2015_Jul_06_1004	59.7029304128	LearningTask	1	55	
74	-200.0	q	200.0																	0.0	0.0	0.0	0.0	12.0	3.0	51.0	1.0																													q	1.0	0.334020137787	None	0.0	2.0	invertedtriangleorange.gif	go																								2.17	0.51452589035	0.000902891159058	0.334020137787	1.0	q	421.52943778																																	2015_Jul_06_1004	59.7029304128	LearningTask	1	55	
75	200.0	w	200.0																	0.0	0.0	0.0	0.0	13.0	0.0	52.0	0.0																													w	1.0	0.400990962982	None	0.0	1.0	crossyellow.gif	go																								0.87	0.514064073563	0.0009369850158689999	0.400990962982	1.0	w	424.532780886																																	2015_Jul_06_1004	59.7029304128	LearningTask	1	55	
76	-200.0	q	200.0																	0.0	0.0	0.0	0.0	13.0	1.0	53.0	1.0																													q	1.0	0.33410406112700003	None	0.0	4.0	hexagonwhite.gif	stop																								4.03	0.514518976212	0.000918865203857	0.334104061127	1.0	q	427.536134005																																	2015_Jul_06_1004	59.7029304128	LearningTask	1	55	
77	200.0	w	200.0																	0.0	0.0	0.0	0.0	13.0	2.0	54.0	0.0																													w	1.0	0.4009308815	None	0.0	2.0	squaregray.gif	stop																								0.0	0.514318943024	0.0009150505065920001	0.4009308815	1.0	w	430.539596796																																	2015_Jul_06_1004	59.7029304128	LearningTask	1	55	
78	-200.0	a	-200.0																	0.0	0.0	0.0	0.0	13.0	3.0	55.0	3.0																													a	1.0	0.333914995193	None	0.0	1.0	circlegreen.gif	stop																								1.02	0.513976097107	0.0009169578552250001	0.333914995193	1.0	a	433.543176889																																	2015_Jul_06_1004	59.7029304128	LearningTask	1	55	
79	200.0	s	-200.0																	0.0	0.0	0.0	0.0	14.0	0.0	56.0	2.0																													s	1.0	0.350476026535	None	0.0	1.0	crossyellow.gif	go																								1.23	0.5138070583340001	0.00100207328796	0.350476026535	1.0	s	436.54627084699996																																	2015_Jul_06_1004	59.7029304128	LearningTask	1	55	
80	200.0	s	-200.0																	0.0	0.0	0.0	0.0	14.0	1.0	57.0	2.0																													s	1.0	0.38426017761200004	None	0.0	1.0	circlegreen.gif	stop																								0.87	0.5141398906710001	0.0026218891143800003	0.384260177612	1.0	s	439.549966812																																	2015_Jul_06_1004	59.7029304128	LearningTask	1	55	
81	-200.0	q	200.0																	0.0	0.0	0.0	0.0	14.0	2.0	58.0	1.0																													q	1.0	0.301280975342	None	0.0	2.0	squaregray.gif	stop																								2.16	0.513776063919	0.0008940696716310001	0.301280975342	1.0	q	442.55288982400003																																	2015_Jul_06_1004	59.7029304128	LearningTask	1	55	
82	200.0	w	200.0																	0.0	0.0	0.0	0.0	14.0	3.0	59.0	0.0																													w	1.0	0.35113286971999996	None	0.0	0.5	diamondblue.gif	stop																								0.26	0.5144081115720001	0.000951051712036	0.35113286972	1.0	w	445.556196928																																	2015_Jul_06_1004	59.7029304128	LearningTask	1	55	
83	-200.0	a	-200.0																	0.0	0.0	0.0	0.0	15.0	0.0	60.0	3.0																													a	1.0	0.317280054092	None	0.0	2.0	invertedtriangleorange.gif	go																								0.0	0.514543056488	0.0008931159973139998	0.317280054092	1.0	a	448.559757948																																	2015_Jul_06_1004	59.7029304128	LearningTask	1	55	
84	200.0	s	-200.0																	0.0	0.0	0.0	0.0	15.0	1.0	61.0	2.0																													s	1.0	0.36745095253	None	0.0	0.5	trianglemagenta.gif	go																								0.6	0.514266014099	0.0009729862213130002	0.36745095253	1.0	s	451.562923908																																	2015_Jul_06_1004	59.7029304128	LearningTask	1	55	
85	200.0	s	-200.0																	0.0	0.0	0.0	0.0	15.0	2.0	62.0	2.0																													s	1.0	0.35110020637500006	None	0.0	0.5	trianglemagenta.gif	go																								0.53	0.514487028122	0.00097918510437	0.351100206375	1.0	s	454.566249847																																	2015_Jul_06_1004	59.7029304128	LearningTask	1	55	
86	-200.0	q	200.0																	0.0	0.0	0.0	0.0	15.0	3.0	63.0	1.0																													q	1.0	0.284544944763	None	0.0	2.0	squaregray.gif	stop																								2.16	0.514285087585	0.000890016555786	0.284544944763	1.0	q	457.56978392599996																																	2015_Jul_06_1004	59.7029304128	LearningTask	1	55	
87	-200.0	a	-200.0																	0.0	0.0	0.0	0.0	16.0	0.0	64.0	3.0																													a	1.0	0.284223079681	None	0.0	0.5	trianglemagenta.gif	go																								0.34	0.514064073563	0.0008959770202639998	0.284223079681	1.0	a	460.57297897300003																																	2015_Jul_06_1004	59.7029304128	LearningTask	1	55	
88	-200.0	q	200.0																	0.0	0.0	0.0	0.0	16.0	1.0	65.0	1.0																													q	1.0	0.300971984863	None	0.0	2.0	squaregray.gif	stop																								0.0	0.5142970085140001	0.0012609958648699998	0.300971984863	1.0	q	463.576444864																																	2015_Jul_06_1004	59.7029304128	LearningTask	1	55	
89	200.0	s	-200.0																	0.0	0.0	0.0	0.0	16.0	2.0	66.0	2.0																													s	1.0	0.33407402038600004	None	0.0	0.5	diamondblue.gif	stop																								0.39	0.514317035675	0.0008919239044189998	0.334074020386	1.0	s	466.579777956																																	2015_Jul_06_1004	59.7029304128	LearningTask	1	55	
90	200.0	w	200.0																	0.0	0.0	0.0	0.0	16.0	3.0	67.0	0.0																													w	1.0	0.367319822311	None	0.0	2.0	squaregray.gif	stop																								1.91	0.514318943024	0.000888109207153	0.367319822311	1.0	w	469.583059788																																	2015_Jul_06_1004	59.7029304128	LearningTask	1	55	
91	200.0	w	200.0																	0.0	0.0	0.0	0.0	17.0	0.0	68.0	0.0																													w	1.0	0.367213010788	None	0.0	2.0	invertedtriangleorange.gif	go																								1.98	0.514381885529	0.0009360313415529999	0.367213010788	1.0	w	472.586471796																																	2015_Jul_06_1004	59.7029304128	LearningTask	1	55	
92	200.0	s	-200.0																	0.0	0.0	0.0	0.0	17.0	1.0	69.0	2.0																													s	1.0	0.317884922028	None	0.0	0.5	diamondblue.gif	stop																								0.46	0.51423406601	0.0008978843688960001	0.317884922028	1.0	s	475.58968997																																	2015_Jul_06_1004	59.7029304128	LearningTask	1	55	
93	-200.0	q	200.0																	0.0	0.0	0.0	0.0	17.0	2.0	70.0	1.0																													q	1.0	0.267471075058	None	0.0	2.0	invertedtriangleorange.gif	go																								2.25	0.514345884323	0.000900983810425	0.267471075058	1.0	q	478.593183994																																	2015_Jul_06_1004	59.7029304128	LearningTask	1	55	
94	200.0	s	-200.0																	0.0	0.0	0.0	0.0	17.0	3.0	71.0	2.0																													s	1.0	0.33407998085	None	0.0	1.0	circlegreen.gif	stop																								0.97	0.514183044434	0.00093412399292	0.33407998085	1.0	s	481.596400976																																	2015_Jul_06_1004	59.7029304128	LearningTask	1	55	
95	-200.0	q	200.0																	0.0	0.0	0.0	0.0	18.0	0.0	72.0	1.0																													q	1.0	0.333744049072	None	0.0	2.0	invertedtriangleorange.gif	go																								2.13	0.514771938324	0.0008959770202639998	0.333744049072	1.0	q	484.599975824																																	2015_Jul_06_1004	59.7029304128	LearningTask	1	55	
96	200.0	w	200.0																	0.0	0.0	0.0	0.0	18.0	1.0	73.0	0.0																													w	1.0	0.36788392067000003	None	0.0	2.0	squaregray.gif	stop																								2.07	0.514205932617	0.0008919239044189998	0.36788392067	1.0	w	487.60363984099996																																	2015_Jul_06_1004	59.7029304128	LearningTask	1	55	
97	-200.0	q	200.0																	0.0	0.0	0.0	0.0	18.0	2.0	74.0	1.0																													q	1.0	0.317329883575	None	0.0	4.0	hexagonwhite.gif	stop																								3.81	0.513643026352	0.0009160041809079999	0.317329883575	1.0	q	490.606604815																																	2015_Jul_06_1004	59.7029304128	LearningTask	1	55	
98	200.0	w	200.0																	0.0	0.0	0.0	0.0	18.0	3.0	75.0	0.0																													w	1.0	0.334530115128	None	0.0	2.0	squaregray.gif	stop																								2.08	0.514270067215	0.0008959770202639998	0.334530115128	1.0	w	493.609862804																																	2015_Jul_06_1004	59.7029304128	LearningTask	1	55	
99	200.0	s	-200.0																	0.0	0.0	0.0	0.0	19.0	0.0	76.0	2.0																													s	1.0	0.334036111832	None	0.0	4.0	hexagonwhite.gif	stop																								4.24	0.514631032944	0.0008981227874760001	0.334036111832	1.0	s	496.61347389199994																																	2015_Jul_06_1004	59.7029304128	LearningTask	1	55	
100	-200.0	q	200.0																	0.0	0.0	0.0	0.0	19.0	1.0	77.0	1.0																													q	1.0	0.317468881607	None	0.0	0.5	trianglemagenta.gif	go																								0.69	0.513927936554	0.00096607208252	0.317468881607	1.0	q	499.616619825																																	2015_Jul_06_1004	59.7029304128	LearningTask	1	55	
101	200.0	w	200.0																	0.0	0.0	0.0	0.0	19.0	2.0	78.0	0.0																													w	1.0	0.384144067764	None	0.0	0.5	diamondblue.gif	stop																								0.44	0.514490127563	0.00113105773926	0.384144067764	1.0	w	502.61979389199996																																	2015_Jul_06_1004	59.7029304128	LearningTask	1	55	
102	-200.0	q	200.0																	0.0	0.0	0.0	0.0	19.0	3.0	79.0	1.0																													q	1.0	0.317487955093	None	0.0	0.5	trianglemagenta.gif	go																								0.57	0.514616966248	0.000898838043213	0.317487955093	1.0	q	505.62350177800005																																	2015_Jul_06_1004	59.7029304128	LearningTask	1	55	
103	-200.0	a	-200.0																	0.0	0.0	0.0	0.0	20.0	0.0	80.0	3.0																													a	1.0	0.417850017548	None	0.0	1.0	crossyellow.gif	go																								1.09	0.514115095139	0.000909090042114	0.417850017548	1.0	a	508.626572847																																	2015_Jul_06_1004	59.7029304128	LearningTask	1	55	
104	200.0	s	-200.0																	0.0	0.0	0.0	0.0	20.0	1.0	81.0	2.0																													s	1.0	0.351423025131	None	0.0	4.0	linecyan.gif	go																								4.15	0.5142509937290001	0.000983953475952	0.351423025131	1.0	s	511.63009691199994																																	2015_Jul_06_1004	59.7029304128	LearningTask	1	55	
105	200.0	w	200.0																	0.0	0.0	0.0	0.0	20.0	2.0	82.0	0.0																													w	1.0	0.333936214447	None	0.0	1.0	circlegreen.gif	stop																								1.19	0.514402866364	0.00089693069458	0.333936214447	1.0	w	514.633270979																																	2015_Jul_06_1004	59.7029304128	LearningTask	1	55	
106	-200.0	q	200.0																	0.0	0.0	0.0	0.0	20.0	3.0	83.0	1.0																													q	1.0	0.317306041718	None	0.0	4.0	linecyan.gif	go																								0.0	0.514740943909	0.0009169578552250001	0.317306041718	1.0	q	517.63674593																																	2015_Jul_06_1004	59.7029304128	LearningTask	1	55	
107	-200.0	a	-200.0																	0.0	0.0	0.0	0.0	21.0	0.0	84.0	3.0																													a	1.0	0.284222126007	None	0.0	4.0	linecyan.gif	go																								0.0	0.5140831470489999	0.000931024551392	0.284222126007	1.0	a	520.640008926																																	2015_Jul_06_1004	59.7029304128	LearningTask	1	55	
108	200.0	s	-200.0																	0.0	0.0	0.0	0.0	21.0	1.0	85.0	2.0																													s	1.0	0.367687940598	None	0.0	2.0	squaregray.gif	stop																								2.25	0.514462947845	0.000890016555786	0.367687940598	1.0	s	523.643426895																																	2015_Jul_06_1004	59.7029304128	LearningTask	1	55	
109	-200.0	a	-200.0																	0.0	0.0	0.0	0.0	21.0	2.0	86.0	3.0																													a	1.0	0.45101499557499997	None	0.0	1.0	circlegreen.gif	stop																								0.0	0.514339923859	0.0009248256683350001	0.451014995575	1.0	a	526.646892786																																	2015_Jul_06_1004	59.7029304128	LearningTask	1	55	
110	200.0	w	200.0																	0.0	0.0	0.0	0.0	21.0	3.0	87.0	0.0																													w	1.0	0.333420038223	None	0.0	2.0	squaregray.gif	stop																								1.87	0.5142600536349999	0.0009250640869139999	0.333420038223	1.0	w	529.650195837																																	2015_Jul_06_1004	59.7029304128	LearningTask	1	55	
111	200.0	s	-200.0																	0.0	0.0	0.0	0.0	22.0	0.0	88.0	2.0																													s	1.0	0.333998203278	None	0.0	1.0	circlegreen.gif	stop																								0.75	0.514263153076	0.00100612640381	0.333998203278	1.0	s	532.653582811																																	2015_Jul_06_1004	59.7029304128	LearningTask	1	55	
112	200.0	s	-200.0																	0.0	0.0	0.0	0.0	22.0	1.0	89.0	2.0																													s	1.0	0.35140109062200003	None	0.0	1.0	crossyellow.gif	go																								1.17	0.514245033264	0.0009520053863530001	0.351401090622	1.0	s	535.657073975																																	2015_Jul_06_1004	59.7029304128	LearningTask	1	55	
113	-200.0	q	200.0																	0.0	0.0	0.0	0.0	22.0	2.0	90.0	1.0																													q	1.0	0.301208019257	None	0.0	2.0	invertedtriangleorange.gif	go																								2.13	0.513924121857	0.0009191036224369998	0.301208019257	1.0	q	538.660284996																																	2015_Jul_06_1004	59.7029304128	LearningTask	1	55	
114	200.0	w	200.0																	0.0	0.0	0.0	0.0	22.0	3.0	91.0	0.0																													w	1.0	0.38404393196099995	None	0.0	2.0	invertedtriangleorange.gif	go																								1.77	0.51429605484	0.0008940696716310001	0.384043931961	1.0	w	541.66346693																																	2015_Jul_06_1004	59.7029304128	LearningTask	1	55	
115	200.0	s	-200.0																	0.0	0.0	0.0	0.0	23.0	0.0	92.0	2.0																													s	1.0	0.33379006385800003	None	0.0	1.0	crossyellow.gif	go																								0.99	0.5146448612210001	0.000917911529541	0.333790063858	1.0	s	544.6671748159999																																	2015_Jul_06_1004	59.7029304128	LearningTask	1	55	
116	-200.0	q	200.0																	0.0	0.0	0.0	0.0	23.0	1.0	93.0	1.0																													q	1.0	0.30095696449299997	None	0.0	1.0	circlegreen.gif	stop																								0.77	0.514316082001	0.000922918319702	0.300956964493	1.0	q	547.670282841																																	2015_Jul_06_1004	59.7029304128	LearningTask	1	55	
117	200.0	s	-200.0																	0.0	0.0	0.0	0.0	23.0	2.0	94.0	2.0																													s	1.0	0.334026098251	None	0.0	1.0	crossyellow.gif	go																								1.12	0.5144081115720001	0.00100994110107	0.334026098251	1.0	s	550.673520803																																	2015_Jul_06_1004	59.7029304128	LearningTask	1	55	
118	-200.0	a	-200.0																	0.0	0.0	0.0	0.0	23.0	3.0	95.0	3.0																													a	1.0	0.317454099655	None	0.0	0.5	diamondblue.gif	stop																								0.71	0.5142970085140001	0.0009739398956299999	0.317454099655	1.0	a	553.677229881																																	2015_Jul_06_1004	59.7029304128	LearningTask	1	55	
119	200.0	w	200.0																	0.0	0.0	0.0	0.0	24.0	0.0	96.0	0.0																													w	1.0	0.401155948639	None	0.0	1.0	crossyellow.gif	go																								1.25	0.514055013657	0.000907897949219	0.401155948639	1.0	w	556.680302858																																	2015_Jul_06_1004	59.7029304128	LearningTask	1	55	
120	200.0	s	-200.0																	0.0	0.0	0.0	0.0	24.0	1.0	97.0	2.0																													s	1.0	0.300759077072	None	0.0	1.0	circlegreen.gif	stop																								1.2	0.5142819881440001	0.0010600090026900001	0.300759077072	1.0	s	559.683939934																																	2015_Jul_06_1004	59.7029304128	LearningTask	1	55	
121	-200.0	q	200.0																	0.0	0.0	0.0	0.0	24.0	2.0	98.0	1.0																													q	1.0	0.350669145584	None	0.0	2.0	squaregray.gif	stop																								0.0	0.514047861099	0.0008950233459470001	0.350669145584	1.0	q	562.687289																																	2015_Jul_06_1004	59.7029304128	LearningTask	1	55	
122	-200.0	q	200.0																	0.0	0.0	0.0	0.0	24.0	3.0	99.0	1.0																													q	1.0	0.283980131149	None	0.0	1.0	crossyellow.gif	go																								1.11	0.514133930206	0.0008978843688960001	0.283980131149	1.0	q	565.690267801																																	2015_Jul_06_1004	59.7029304128	LearningTask	1	55	
123																				0.0	0.0	0.0	0.0																																																																							9.0	5.0078690052																															2015_Jul_06_1004	59.7029304128	LearningTask	1	55	
124	200.0	w	200.0																	1.0	0.0	1.0	0.0	0.0	0.0	0.0	0.0																													w	1.0	0.33404016494800004	None	0.0	4.0	hexagonwhite.gif	stop																								0.0	0.509161949158	0.0009679794311519998	[]	0.0	None	574.033685923			0.0242569446564	3.84	0.514919996262	0.00107908248901	0.33404016494800004	1.0	w	577.036665916																							2015_Jul_06_1004	59.7029304128	LearningTask	1	55	
125	-200.0	q	200.0																	1.0	0.0	1.0	0.0	0.0	1.0	1.0	1.0																													q	1.0	0.334594964981	None	0.0	0.5	trianglemagenta.gif	go																								0.42	0.514179944992	0.000900983810425	0.334594964981	1.0	q	580.039706945																																	2015_Jul_06_1004	59.7029304128	LearningTask	1	55	
126	-200.0	a	-200.0																	1.0	0.0	1.0	0.0	0.0	2.0	2.0	3.0																													a	1.0	0.334469079971	None	0.0	1.0	circlegreen.gif	stop																								1.19	0.514086961746	0.000943899154663	0.334469079971	1.0	a	583.043032885																																	2015_Jul_06_1004	59.7029304128	LearningTask	1	55	
127	200.0	s	-200.0																	1.0	0.0	1.0	0.0	0.0	3.0	3.0	2.0																													s	1.0	0.367814064026	None	0.0	4.0	hexagonwhite.gif	stop																								4.25	0.5138540267939999	0.0009551048278810001	0.367814064026	1.0	s	586.046489																																	2015_Jul_06_1004	59.7029304128	LearningTask	1	55	
128	200.0	w	200.0																	1.0	0.0	1.0	0.0	1.0	0.0	4.0	0.0																													w	1.0	0.284055948257	None	0.0	0.5	trianglemagenta.gif	go																								0.0	0.5144519805910001	0.000890016555786	0.284055948257	1.0	w	589.050163984																																	2015_Jul_06_1004	59.7029304128	LearningTask	1	55	
129	-200.0	a	-200.0																	1.0	0.0	1.0	0.0	1.0	1.0	5.0	3.0																													a	1.0	0.300888061523	None	0.0	0.5	diamondblue.gif	stop																								0.34	0.5140910148619999	0.000900030136108	0.300888061523	1.0	a	592.0537478919999																																	2015_Jul_06_1004	59.7029304128	LearningTask	1	55	
130	200.0	s	-200.0																	1.0	0.0	1.0	0.0	1.0	2.0	6.0	2.0																													s	1.0	0.35095810890199997	None	0.0	1.0	crossyellow.gif	go																								0.78	0.51352596283	0.0009241104125980002	0.350958108902	1.0	s	595.056542873																																	2015_Jul_06_1004	59.7029304128	LearningTask	1	55	
131	-200.0	q	200.0																	1.0	0.0	1.0	0.0	1.0	3.0	7.0	1.0																													q	1.0	0.267263889313	None	0.0	2.0	squaregray.gif	stop																								0.0	0.51423406601	0.00118017196655	0.267596960068	0.0	a	598.0604498390001				2.08	0.514877080917	0.000965118408203	0.267263889313	1.0	q	601.063742876																							2015_Jul_06_1004	59.7029304128	LearningTask	1	55	
132	200.0	s	-200.0																	1.0	0.0	1.0	0.0	2.0	0.0	8.0	2.0																													s	1.0	0.333951950073	None	0.0	0.5	diamondblue.gif	stop																								0.0	0.513785123825	0.0009520053863530001	0.333951950073	1.0	s	604.066711903																																	2015_Jul_06_1004	59.7029304128	LearningTask	1	55	
133	-200.0	a	-200.0																	1.0	0.0	1.0	0.0	2.0	1.0	9.0	3.0																													a	1.0	0.26720404624899996	None	0.0	2.0	invertedtriangleorange.gif	go																								0.0	0.514323949814	0.000900983810425	0.267204046249	1.0	a	607.069969893																																	2015_Jul_06_1004	59.7029304128	LearningTask	1	55	
134	-200.0	q	200.0																	1.0	0.0	1.0	0.0	2.0	2.0	10.0	1.0																													q	1.0	0.301095962524	None	0.0	1.0	circlegreen.gif	stop																								0.86	0.514338970184	0.000923871994019	0.301095962524	1.0	q	610.073615789																																	2015_Jul_06_1004	59.7029304128	LearningTask	1	55	
135	200.0	w	200.0																	1.0	0.0	1.0	0.0	2.0	3.0	11.0	0.0																													w	1.0	0.384192943573	None	0.0	0.5	diamondblue.gif	stop																								0.0	0.513963937759	0.000926971435547	0.384192943573	1.0	w	613.076578856																																	2015_Jul_06_1004	59.7029304128	LearningTask	1	55	
136	200.0	w	200.0																	1.0	0.0	1.0	0.0	3.0	0.0	12.0	0.0																													w	1.0	0.38428711891199996	None	0.0	4.0	linecyan.gif	go																								0.0	0.51448392868	0.0009338855743410001	0.384287118912	1.0	w	616.0799119469999																																	2015_Jul_06_1004	59.7029304128	LearningTask	1	55	
137	-200.0	a	-200.0																	1.0	0.0	1.0	0.0	3.0	1.0	13.0	3.0																													a	1.0	0.334071874619	None	0.0	2.0	invertedtriangleorange.gif	go																								0.0	0.514522075653	0.0008950233459470001	0.334071874619	1.0	a	619.083589792																																	2015_Jul_06_1004	59.7029304128	LearningTask	1	55	
138	-200.0	a	-200.0																	1.0	0.0	1.0	0.0	3.0	2.0	14.0	3.0																													a	1.0	0.384274959564	None	0.0	1.0	circlegreen.gif	stop																								0.92	0.51403594017	0.000963926315308	0.384274959564	1.0	a	622.086843014																																	2015_Jul_06_1004	59.7029304128	LearningTask	1	55	
139	-200.0	q	200.0																	1.0	0.0	1.0	0.0	3.0	3.0	15.0	1.0																													q	1.0	0.284369945526	None	0.0	1.0	crossyellow.gif	go																								0.91	0.514029026031	0.000963926315308	0.284369945526	1.0	q	625.089933872																																	2015_Jul_06_1004	59.7029304128	LearningTask	1	55	
140	200.0	w	200.0																	1.0	0.0	1.0	0.0	4.0	0.0	16.0	0.0																													w	1.0	0.384285211563	None	0.0	0.5	diamondblue.gif	stop																								0.38	0.514491796494	0.000898838043213	0.384285211563	1.0	w	628.093608856																																	2015_Jul_06_1004	59.7029304128	LearningTask	1	55	
141	200.0	w	200.0																	1.0	0.0	1.0	0.0	4.0	1.0	17.0	0.0																													w	1.0	0.384586811066	None	0.0	2.0	invertedtriangleorange.gif	go																								2.23	0.513966798782	0.0009307861328119999	0.384586811066	1.0	w	631.096741915																																	2015_Jul_06_1004	59.7029304128	LearningTask	1	55	
142	-200.0	q	200.0																	1.0	0.0	1.0	0.0	4.0	2.0	18.0	1.0																													q	1.0	0.30083489418000003	None	0.0	0.5	diamondblue.gif	stop																								0.44	0.514038085938	0.0009329319000239999	0.30083489418	1.0	q	634.1001598830001																																	2015_Jul_06_1004	59.7029304128	LearningTask	1	55	
143	200.0	s	-200.0																	1.0	0.0	1.0	0.0	4.0	3.0	19.0	2.0																													s	1.0	0.334014892578	None	0.0	2.0	invertedtriangleorange.gif	go																								0.0	0.514365196228	0.0008780956268310002	0.334014892578	1.0	s	637.103676796																																	2015_Jul_06_1004	59.7029304128	LearningTask	1	55	
144	200.0	s	-200.0																	1.0	0.0	1.0	0.0	5.0	0.0	20.0	2.0																													s	1.0	0.36733007431000003	None	0.0	0.5	diamondblue.gif	stop																								0.26	0.5143349170679999	0.0008769035339360002	0.36733007431	1.0	s	640.106984854																																	2015_Jul_06_1004	59.7029304128	LearningTask	1	55	
145	-200.0	q	200.0																	1.0	0.0	1.0	0.0	5.0	1.0	21.0	1.0																													q	1.0	0.384061098099	None	0.0	1.0	crossyellow.gif	go																								0.88	0.513849020004	0.0008749961853029999	0.384061098099	1.0	q	643.11015296																																	2015_Jul_06_1004	59.7029304128	LearningTask	1	55	
146	200.0	w	200.0																	1.0	0.0	1.0	0.0	5.0	2.0	22.0	0.0																													w	1.0	0.301184177399	None	0.0	4.0	linecyan.gif	go																								0.0	0.5144388675689999	0.0008718967437739999	0.301184177399	1.0	w	646.113542795																																	2015_Jul_06_1004	59.7029304128	LearningTask	1	55	
147	-200.0	a	-200.0																	1.0	0.0	1.0	0.0	5.0	3.0	23.0	3.0																													a	1.0	0.283910036087	None	0.0	2.0	squaregray.gif	stop																								2.1	0.514245986938	0.0009338855743410001	0.283910036087	1.0	a	649.117316961																																	2015_Jul_06_1004	59.7029304128	LearningTask	1	55	
148	200.0	s	-200.0																	1.0	0.0	1.0	0.0	6.0	0.0	24.0	2.0																													s	1.0	0.334391117096	None	0.0	4.0	linecyan.gif	go																								3.76	0.513828992844	0.000953912734985	0.334391117096	1.0	s	652.120237827																																	2015_Jul_06_1004	59.7029304128	LearningTask	1	55	
149	200.0	w	200.0																	1.0	0.0	1.0	0.0	6.0	1.0	25.0	0.0																													w	1.0	0.300673961639	None	0.0	2.0	invertedtriangleorange.gif	go																								1.8	0.514492034912	0.0009100437164310001	0.300673961639	1.0	w	655.123948812																																	2015_Jul_06_1004	59.7029304128	LearningTask	1	55	
150	200.0	s	-200.0																	1.0	0.0	1.0	0.0	6.0	2.0	26.0	2.0																													s	1.0	0.334671020508	None	0.0	2.0	squaregray.gif	stop																								2.17	0.51397895813	0.000885009765625	0.334671020508	1.0	s	658.127040863																																	2015_Jul_06_1004	59.7029304128	LearningTask	1	55	
151	-200.0	q	200.0																	1.0	0.0	1.0	0.0	6.0	3.0	27.0	1.0																													q	1.0	0.317315101624	None	0.0	1.0	circlegreen.gif	stop																								0.0	0.514364004135	0.000885009765625	0.317315101624	1.0	q	661.130168915																																	2015_Jul_06_1004	59.7029304128	LearningTask	1	55	
152	200.0	w	200.0																	1.0	0.0	1.0	0.0	7.0	0.0	28.0	0.0																													w	1.0	0.317675113678	None	0.0	4.0	linecyan.gif	go																								3.98	0.514477968216	0.0008831024169919999	0.317675113678	1.0	w	664.133603811																																	2015_Jul_06_1004	59.7029304128	LearningTask	1	55	
153	200.0	s	-200.0																	1.0	0.0	1.0	0.0	7.0	1.0	29.0	2.0																													s	1.0	0.35117197036700004	None	0.0	0.5	diamondblue.gif	stop																								0.52	0.51434803009	0.000877857208252	0.351171970367	1.0	s	667.137004852																																	2015_Jul_06_1004	59.7029304128	LearningTask	1	55	
154	200.0	s	-200.0																	1.0	0.0	1.0	0.0	7.0	2.0	30.0	2.0																													s	1.0	0.417895078659	None	0.0	1.0	circlegreen.gif	stop																								0.0	0.514088153839	0.0009369850158689999	0.417895078659	1.0	s	670.1405229569999																																	2015_Jul_06_1004	59.7029304128	LearningTask	1	55	
155	-200.0	q	200.0																	1.0	0.0	1.0	0.0	7.0	3.0	31.0	1.0																													q	1.0	0.317403078079	None	0.0	1.0	circlegreen.gif	stop																								0.77	0.514179944992	0.00102281570435	0.317403078079	1.0	q	673.143706799																																	2015_Jul_06_1004	59.7029304128	LearningTask	1	55	
156	200.0	w	200.0																	1.0	0.0	1.0	0.0	8.0	0.0	32.0	0.0																													w	1.0	0.367436885834	None	0.0	0.5	diamondblue.gif	stop																								0.62	0.5144460201259999	0.0008759498596189999	0.367436885834	1.0	w	676.147069931																																	2015_Jul_06_1004	59.7029304128	LearningTask	1	55	
157	-200.0	a	-200.0																	1.0	0.0	1.0	0.0	8.0	1.0	33.0	3.0																													a	1.0	0.350818872452	None	0.0	0.5	diamondblue.gif	stop																								0.35	0.514173984528	0.0010039806366	0.350818872452	1.0	a	679.150304794																																	2015_Jul_06_1004	59.7029304128	LearningTask	1	55	
158	-200.0	q	200.0																	1.0	0.0	1.0	0.0	8.0	2.0	34.0	1.0																													q	1.0	0.317225933075	None	0.0	4.0	hexagonwhite.gif	stop																								3.96	0.51464009285	0.0010359287262	0.317225933075	1.0	q	682.153831005																																	2015_Jul_06_1004	59.7029304128	LearningTask	1	55	
159	-200.0	q	200.0																	1.0	0.0	1.0	0.0	8.0	3.0	35.0	1.0																													q	1.0	0.284226894379	None	0.0	2.0	invertedtriangleorange.gif	go																								2.07	0.514508962631	0.0010159015655499999	0.284226894379	1.0	q	685.157231808																																	2015_Jul_06_1004	59.7029304128	LearningTask	1	55	
160	200.0	w	200.0																	1.0	0.0	1.0	0.0	9.0	0.0	36.0	0.0																													w	1.0	0.317563056946	None	0.0	4.0	hexagonwhite.gif	stop																								0.0	0.5142610073089999	0.000964879989624	0.317563056946	1.0	w	688.16098094																																	2015_Jul_06_1004	59.7029304128	LearningTask	1	55	
161	-200.0	q	200.0																	1.0	0.0	1.0	0.0	9.0	1.0	37.0	1.0																													q	1.0	0.30067896843	None	0.0	2.0	invertedtriangleorange.gif	go																								0.0	0.513755083084	0.0009670257568360001	0.30067896843	1.0	q	691.163825989																																	2015_Jul_06_1004	59.7029304128	LearningTask	1	55	
162	200.0	s	-200.0																	1.0	0.0	1.0	0.0	9.0	2.0	38.0	2.0																													s	1.0	0.30084609985399996	None	0.0	1.0	crossyellow.gif	go																								0.82	0.514294862747	0.000880002975464	0.300846099854	1.0	s	694.1670918460001																																	2015_Jul_06_1004	59.7029304128	LearningTask	1	55	
163	-200.0	a	-200.0																	1.0	0.0	1.0	0.0	9.0	3.0	39.0	3.0																													a	1.0	0.334110975266	None	0.0	0.5	trianglemagenta.gif	go																								0.69	0.514328956604	0.0008790493011469999	0.334110975266	1.0	a	697.170994997																																	2015_Jul_06_1004	59.7029304128	LearningTask	1	55	
164	200.0	s	-200.0																	1.0	0.0	1.0	0.0	10.0	0.0	40.0	2.0																													s	1.0	0.30042195320099996	None	0.0	0.5	trianglemagenta.gif	go																								0.57	0.513786077499	0.0009391307830810002	0.300421953201	1.0	s	700.1739568710001																																	2015_Jul_06_1004	59.7029304128	LearningTask	1	55	
165	-200.0	a	-200.0																	1.0	0.0	1.0	0.0	10.0	1.0	41.0	3.0																													a	1.0	0.30058693885800003	None	0.0	0.5	trianglemagenta.gif	go																								0.56	0.514423131943	0.0008780956268310002	0.300586938858	1.0	a	703.177587986																																	2015_Jul_06_1004	59.7029304128	LearningTask	1	55	
166	200.0	s	-200.0																	1.0	0.0	1.0	0.0	10.0	2.0	42.0	2.0																													s	1.0	0.267600059509	None	0.0	1.0	circlegreen.gif	stop																								1.19	0.5141639709470001	0.000885009765625	0.267600059509	1.0	s	706.1808269019999																																	2015_Jul_06_1004	59.7029304128	LearningTask	1	55	
167	200.0	w	200.0																	1.0	0.0	1.0	0.0	10.0	3.0	43.0	0.0																													w	1.0	0.31724786758400003	None	0.0	1.0	circlegreen.gif	stop																								1.18	0.514172077179	0.000887155532837	0.317247867584	1.0	w	709.183895826																																	2015_Jul_06_1004	59.7029304128	LearningTask	1	55	
168	200.0	s	-200.0																	1.0	0.0	1.0	0.0	11.0	0.0	44.0	2.0																													s	1.0	0.317708015442	None	0.0	0.5	trianglemagenta.gif	go																								0.63	0.514197826385	0.000880002975464	0.317708015442	1.0	s	712.187456846																																	2015_Jul_06_1004	59.7029304128	LearningTask	1	55	
169	-200.0	a	-200.0																	1.0	0.0	1.0	0.0	11.0	1.0	45.0	3.0																													a	1.0	0.333962917328	None	0.0	1.0	circlegreen.gif	stop																								0.0	0.514267206192	0.000880002975464	0.333962917328	1.0	a	715.190602779																																	2015_Jul_06_1004	59.7029304128	LearningTask	1	55	
170	-200.0	q	200.0																	1.0	0.0	1.0	0.0	11.0	2.0	46.0	1.0																													q	1.0	0.300534963608	None	0.0	4.0	hexagonwhite.gif	stop																								3.88	0.514569997787	0.000941038131714	0.300534963608	1.0	q	718.194229841																																	2015_Jul_06_1004	59.7029304128	LearningTask	1	55	
171	-200.0	a	-200.0																	1.0	0.0	1.0	0.0	11.0	3.0	47.0	3.0																													a	1.0	0.350728034973	None	0.0	4.0	hexagonwhite.gif	stop																								3.77	0.513976097107	0.0010290145874	0.350728034973	1.0	a	721.197483778																																	2015_Jul_06_1004	59.7029304128	LearningTask	1	55	
172	-200.0	q	200.0																	1.0	0.0	1.0	0.0	12.0	0.0	48.0	1.0																													q	1.0	0.351191997528	None	0.0	4.0	linecyan.gif	go																								4.07	0.514271020889	0.0008959770202639998	0.351191997528	1.0	q	724.200863838																																	2015_Jul_06_1004	59.7029304128	LearningTask	1	55	
173	200.0	w	200.0																	1.0	0.0	1.0	0.0	12.0	1.0	49.0	0.0																													w	1.0	0.350692033768	None	0.0	4.0	linecyan.gif	go																								3.88	0.514182090759	0.0009379386901860002	0.350692033768	1.0	w	727.2044909																																	2015_Jul_06_1004	59.7029304128	LearningTask	1	55	
174	-200.0	q	200.0																	1.0	0.0	1.0	0.0	12.0	2.0	50.0	1.0																													q	1.0	0.33455681800799997	None	0.0	2.0	invertedtriangleorange.gif	go																								0.0	0.5135478973390001	0.0014019012451199997	0.334556818008	1.0	q	730.207606792																																	2015_Jul_06_1004	59.7029304128	LearningTask	1	55	
175	-200.0	a	-200.0																	1.0	0.0	1.0	0.0	12.0	3.0	51.0	3.0																													a	1.0	0.367044210434	None	0.0	1.0	crossyellow.gif	go																								0.83	0.5145690441130001	0.00088906288147	0.367044210434	1.0	a	733.2116699219999																																	2015_Jul_06_1004	59.7029304128	LearningTask	1	55	
176	200.0	w	200.0																	1.0	0.0	1.0	0.0	13.0	0.0	52.0	0.0																													w	1.0	0.31765103340100004	None	0.0	1.0	circlegreen.gif	stop																								0.0	0.513720989227	0.00088906288147	0.317651033401	1.0	w	736.215047836																																	2015_Jul_06_1004	59.7029304128	LearningTask	1	55	
177	200.0	w	200.0																	1.0	0.0	1.0	0.0	13.0	1.0	53.0	0.0																													w	1.0	0.36737608909599995	None	0.0	1.0	crossyellow.gif	go																								0.98	0.5135428905489999	0.0008950233459470001	0.367376089096	1.0	w	739.2176978589999																																	2015_Jul_06_1004	59.7029304128	LearningTask	1	55	
178	200.0	s	-200.0																	1.0	0.0	1.0	0.0	13.0	2.0	54.0	2.0																													s	1.0	0.31774187088000005	None	0.0	1.0	crossyellow.gif	go																								1.19	0.514225959778	0.00088095664978	0.31774187088	1.0	s	742.2210359569999																																	2015_Jul_06_1004	59.7029304128	LearningTask	1	55	
179	-200.0	a	-200.0																	1.0	0.0	1.0	0.0	13.0	3.0	55.0	3.0																													a	1.0	0.318074941635	None	0.0	2.0	squaregray.gif	stop																								1.84	0.514099121094	0.00088095664978	0.318074941635	1.0	a	745.2244508269999																																	2015_Jul_06_1004	59.7029304128	LearningTask	1	55	
180	200.0	s	-200.0																	1.0	0.0	1.0	0.0	14.0	0.0	56.0	2.0																													s	1.0	0.334393978119	None	0.0	4.0	linecyan.gif	go																								4.07	0.514039039612	0.0009059906005860001	0.334393978119	1.0	s	748.227672815																																	2015_Jul_06_1004	59.7029304128	LearningTask	1	55	
181	-200.0	q	200.0																	1.0	0.0	1.0	0.0	14.0	1.0	57.0	1.0																													q	1.0	0.283776044846	None	0.0	0.5	trianglemagenta.gif	go																								0.0	0.514544963837	0.0008769035339360002	0.283776044846	1.0	q	751.231209993																																	2015_Jul_06_1004	59.7029304128	LearningTask	1	55	
182	-200.0	a	-200.0																	1.0	0.0	1.0	0.0	14.0	2.0	58.0	3.0																													a	1.0	0.284096956253	None	0.0	0.5	diamondblue.gif	stop																								0.27	0.514076948166	0.0008878707885739998	0.284096956253	1.0	a	754.2344608310001																																	2015_Jul_06_1004	59.7029304128	LearningTask	1	55	
183	-200.0	q	200.0																	1.0	0.0	1.0	0.0	14.0	3.0	59.0	1.0																													q	1.0	0.317394971848	None	0.0	2.0	squaregray.gif	stop																								2.11	0.514131784439	0.0008668899536130001	0.317394971848	1.0	q	757.237562895																																	2015_Jul_06_1004	59.7029304128	LearningTask	1	55	
184	200.0	w	200.0																	1.0	0.0	1.0	0.0	15.0	0.0	60.0	0.0																													w	1.0	0.367470979691	None	0.0	4.0	hexagonwhite.gif	stop																								0.0	0.5144519805910001	0.0012059211730999998	0.367470979691	1.0	w	760.241147995																																	2015_Jul_06_1004	59.7029304128	LearningTask	1	55	
185	200.0	w	200.0																	1.0	0.0	1.0	0.0	15.0	1.0	61.0	0.0																													w	1.0	0.38427901268	None	0.0	2.0	squaregray.gif	stop																								2.0	0.514204978943	0.00087308883667	0.38427901268	1.0	w	763.244573832																																	2015_Jul_06_1004	59.7029304128	LearningTask	1	55	
186	-200.0	q	200.0																	1.0	0.0	1.0	0.0	15.0	2.0	62.0	1.0																													q	1.0	0.334036111832	None	0.0	0.5	diamondblue.gif	stop																								0.35	0.5142750740049999	0.0009150505065920001	0.334036111832	1.0	q	766.247815847																																	2015_Jul_06_1004	59.7029304128	LearningTask	1	55	
187	200.0	w	200.0																	1.0	0.0	1.0	0.0	15.0	3.0	63.0	0.0																													w	1.0	0.36776685714699997	None	0.0	4.0	hexagonwhite.gif	stop																								4.09	0.513981819153	0.0009369850158689999	0.367766857147	1.0	w	769.25138092																																	2015_Jul_06_1004	59.7029304128	LearningTask	1	55	
188	200.0	w	200.0																	1.0	0.0	1.0	0.0	16.0	0.0	64.0	0.0																													w	1.0	0.334087848663	None	0.0	4.0	linecyan.gif	go																								4.04	0.51433801651	0.0008709430694580001	0.334087848663	1.0	w	772.254423857																																	2015_Jul_06_1004	59.7029304128	LearningTask	1	55	
189	-200.0	a	-200.0																	1.0	0.0	1.0	0.0	16.0	1.0	65.0	3.0																													a	1.0	0.33445286750799996	None	0.0	0.5	diamondblue.gif	stop																								0.72	0.514195203781	0.0009541511535639998	0.334452867508	1.0	a	775.257809877																																	2015_Jul_06_1004	59.7029304128	LearningTask	1	55	
190	-200.0	a	-200.0																	1.0	0.0	1.0	0.0	16.0	2.0	66.0	3.0																													a	1.0	0.384204149246	None	0.0	2.0	squaregray.gif	stop																								1.82	0.5141420364379999	0.0009191036224369998	0.384204149246	1.0	a	778.261409998																																	2015_Jul_06_1004	59.7029304128	LearningTask	1	55	
191	200.0	s	-200.0																	1.0	0.0	1.0	0.0	16.0	3.0	67.0	2.0																													s	1.0	0.317939043045	None	0.0	2.0	invertedtriangleorange.gif	go																								0.0	0.514098882675	0.000882863998413	0.317939043045	1.0	s	781.264652967																																	2015_Jul_06_1004	59.7029304128	LearningTask	1	55	
192	-200.0	q	200.0																	1.0	0.0	1.0	0.0	17.0	0.0	68.0	1.0																													q	1.0	0.30028796195999996	None	0.0	4.0	hexagonwhite.gif	stop																								4.03	0.514362096786	0.000888109207153	0.30028796196	1.0	q	784.268179893																																	2015_Jul_06_1004	59.7029304128	LearningTask	1	55	
193	-200.0	q	200.0																	1.0	0.0	1.0	0.0	17.0	1.0	69.0	1.0																													q	1.0	0.30065679550200003	None	0.0	4.0	hexagonwhite.gif	stop																								3.89	0.513923883438	0.0009350776672360002	0.300656795502	1.0	q	787.271381855																																	2015_Jul_06_1004	59.7029304128	LearningTask	1	55	
194	-200.0	a	-200.0																	1.0	0.0	1.0	0.0	17.0	2.0	70.0	3.0																													a	1.0	0.317474842072	None	0.0	0.5	trianglemagenta.gif	go																								0.0	0.514137029648	0.000877141952515	0.317474842072	1.0	a	790.274574995																																	2015_Jul_06_1004	59.7029304128	LearningTask	1	55	
195	200.0	w	200.0																	1.0	0.0	1.0	0.0	17.0	3.0	71.0	0.0																													w	1.0	0.317481994629	None	0.0	4.0	linecyan.gif	go																								0.0	0.514313936234	0.0008909702301030001	0.317481994629	1.0	w	793.2782208919999																																	2015_Jul_06_1004	59.7029304128	LearningTask	1	55	
196	-200.0	q	200.0																	1.0	0.0	1.0	0.0	18.0	0.0	72.0	1.0																													q	1.0	0.284247159958	None	0.0	0.5	trianglemagenta.gif	go																								0.64	0.513909816742	0.00088095664978	0.284247159958	1.0	q	796.2813358310001																																	2015_Jul_06_1004	59.7029304128	LearningTask	1	55	
197	-200.0	q	200.0																	1.0	0.0	1.0	0.0	18.0	1.0	73.0	1.0																													q	1.0	0.300784111023	None	0.0	2.0	invertedtriangleorange.gif	go																								1.81	0.514409065247	0.0009241104125980002	0.300784111023	1.0	q	799.2847998139999																																	2015_Jul_06_1004	59.7029304128	LearningTask	1	55	
198	200.0	w	200.0																	1.0	0.0	1.0	0.0	18.0	2.0	74.0	0.0																													w	1.0	0.35068106651299996	None	0.0	2.0	squaregray.gif	stop																								2.21	0.5144898891449999	0.000877857208252	0.350681066513	1.0	w	802.288214922																																	2015_Jul_06_1004	59.7029304128	LearningTask	1	55	
199	200.0	w	200.0																	1.0	0.0	1.0	0.0	18.0	3.0	75.0	0.0																													w	1.0	0.318041086197	None	0.0	4.0	hexagonwhite.gif	stop																								3.81	0.514019012451	0.00093412399292	0.318041086197	1.0	w	805.2913239																																	2015_Jul_06_1004	59.7029304128	LearningTask	1	55	
200	200.0	s	-200.0																	1.0	0.0	1.0	0.0	19.0	0.0	76.0	2.0																													s	1.0	0.33399605751	None	0.0	1.0	circlegreen.gif	stop																								1.02	0.514573097229	0.0009520053863530001	0.33399605751	1.0	s	808.2948667999999																																	2015_Jul_06_1004	59.7029304128	LearningTask	1	55	
201	-200.0	q	200.0																	1.0	0.0	1.0	0.0	19.0	1.0	77.0	1.0																													q	1.0	0.317878007889	None	0.0	4.0	hexagonwhite.gif	stop																								4.12	0.514251947403	0.0008940696716310001	0.317878007889	1.0	q	811.2981879710001																																	2015_Jul_06_1004	59.7029304128	LearningTask	1	55	
202	200.0	w	200.0																	1.0	0.0	1.0	0.0	19.0	2.0	78.0	0.0																													w	1.0	0.317299842834	None	0.0	4.0	linecyan.gif	go																								3.8	0.514527797699	0.000949859619141	0.317299842834	1.0	w	814.301524878																																	2015_Jul_06_1004	59.7029304128	LearningTask	1	55	
203	-200.0	a	-200.0																	1.0	0.0	1.0	0.0	19.0	3.0	79.0	3.0																													a	1.0	0.334580183029	None	0.0	2.0	squaregray.gif	stop																								0.0	0.514106988907	0.000949144363403	0.334580183029	1.0	a	817.304843903																																	2015_Jul_06_1004	59.7029304128	LearningTask	1	55	
204	200.0	w	200.0																	1.0	0.0	1.0	0.0	20.0	0.0	80.0	0.0																													w	1.0	0.317352056503	None	0.0	1.0	circlegreen.gif	stop																								1.12	0.5144388675689999	0.00088095664978	0.317352056503	1.0	w	820.308156967																																	2015_Jul_06_1004	59.7029304128	LearningTask	1	55	
205	-200.0	q	200.0																	1.0	0.0	1.0	0.0	20.0	1.0	81.0	1.0																													q	1.0	0.334499120712	None	0.0	0.5	diamondblue.gif	stop																								0.67	0.514144897461	0.0009198188781739999	0.334499120712	1.0	q	823.311416864																																	2015_Jul_06_1004	59.7029304128	LearningTask	1	55	
206	-200.0	q	200.0																	1.0	0.0	1.0	0.0	20.0	2.0	82.0	1.0																													q	1.0	0.267539024353	None	0.0	0.5	trianglemagenta.gif	go																								0.6	0.51412987709	0.0009200572967529999	0.267539024353	1.0	q	826.314978838																																	2015_Jul_06_1004	59.7029304128	LearningTask	1	55	
207	200.0	s	-200.0																	1.0	0.0	1.0	0.0	20.0	3.0	83.0	2.0																													s	1.0	0.317971944809	None	0.0	0.5	trianglemagenta.gif	go																								0.57	0.514042139053	0.0009431838989260002	0.317971944809	1.0	s	829.3186399939999																																	2015_Jul_06_1004	59.7029304128	LearningTask	1	55	
208	200.0	s	-200.0																	1.0	0.0	1.0	0.0	21.0	0.0	84.0	2.0																													s	1.0	0.350872993469	None	0.0	4.0	linecyan.gif	go																								3.93	0.51385807991	0.0008780956268310002	0.350872993469	1.0	s	832.321871996																																	2015_Jul_06_1004	59.7029304128	LearningTask	1	55	
209	200.0	s	-200.0																	1.0	0.0	1.0	0.0	21.0	1.0	85.0	2.0																													s	1.0	0.333896160126	None	0.0	2.0	invertedtriangleorange.gif	go																								1.93	0.513927936554	0.0008869171142580001	0.333896160126	1.0	s	835.325110912																																	2015_Jul_06_1004	59.7029304128	LearningTask	1	55	
210	-200.0	a	-200.0																	1.0	0.0	1.0	0.0	21.0	2.0	86.0	3.0																													a	1.0	0.350975990295	None	0.0	2.0	squaregray.gif	stop																								2.16	0.5141420364379999	0.000869989395142	0.350975990295	1.0	a	838.3283720019999																																	2015_Jul_06_1004	59.7029304128	LearningTask	1	55	
211	-200.0	q	200.0																	1.0	0.0	1.0	0.0	21.0	3.0	87.0	1.0																													q	1.0	0.317781925201	None	0.0	0.5	diamondblue.gif	stop																								0.69	0.514043807983	0.0008740425109860002	0.317781925201	1.0	q	841.3322429660001																																	2015_Jul_06_1004	59.7029304128	LearningTask	1	55	
212	200.0	s	-200.0																	1.0	0.0	1.0	0.0	22.0	0.0	88.0	2.0																													s	1.0	0.350272893906	None	0.0	2.0	squaregray.gif	stop																								2.09	0.5141048431399999	0.0008938312530519999	0.350272893906	1.0	s	844.335114002																																	2015_Jul_06_1004	59.7029304128	LearningTask	1	55	
213	-200.0	a	-200.0																	1.0	0.0	1.0	0.0	22.0	1.0	89.0	3.0																													a	1.0	0.351561069489	None	0.0	2.0	squaregray.gif	stop																								2.22	0.5139939785000001	0.0008668899536130001	0.351561069489	1.0	a	847.3383820060001																																	2015_Jul_06_1004	59.7029304128	LearningTask	1	55	
214	-200.0	a	-200.0																	1.0	0.0	1.0	0.0	22.0	2.0	90.0	3.0																													a	1.0	0.35149502754199996	None	0.0	4.0	hexagonwhite.gif	stop																								3.82	0.514156103134	0.000888109207153	0.351495027542	1.0	a	850.3417389389999																																	2015_Jul_06_1004	59.7029304128	LearningTask	1	55	
215	-200.0	a	-200.0																	1.0	0.0	1.0	0.0	22.0	3.0	91.0	3.0																													a	1.0	0.317353963852	None	0.0	1.0	crossyellow.gif	go																								1.15	0.51428103447	0.0009298324584960001	0.317353963852	1.0	a	853.34488678																																	2015_Jul_06_1004	59.7029304128	LearningTask	1	55	
216	-200.0	a	-200.0																	1.0	0.0	1.0	0.0	23.0	0.0	92.0	3.0																													a	1.0	0.31734919548	None	0.0	0.5	trianglemagenta.gif	go																								0.0	0.514508962631	0.0008840560913089999	0.31734919548	1.0	a	856.348340988																																	2015_Jul_06_1004	59.7029304128	LearningTask	1	55	
217	200.0	s	-200.0																	1.0	0.0	1.0	0.0	23.0	1.0	93.0	2.0																													s	1.0	0.334254026413	None	0.0	4.0	linecyan.gif	go																								3.87	0.514653921127	0.000885009765625	0.334254026413	1.0	s	859.351612806																																	2015_Jul_06_1004	59.7029304128	LearningTask	1	55	
218	200.0	s	-200.0																	1.0	0.0	1.0	0.0	23.0	2.0	94.0	2.0																													s	1.0	0.317359209061	None	0.0	0.5	trianglemagenta.gif	go																								0.29	0.514669895172	0.0009601116180419999	0.317359209061	1.0	s	862.355152845																																	2015_Jul_06_1004	59.7029304128	LearningTask	1	55	
219	-200.0	a	-200.0																	1.0	0.0	1.0	0.0	23.0	3.0	95.0	3.0																													a	1.0	0.300683021545	None	0.0	1.0	circlegreen.gif	stop																								1.11	0.514095067978	0.0011191368103	0.300683021545	1.0	a	865.3585557939999																																	2015_Jul_06_1004	59.7029304128	LearningTask	1	55	
220	200.0	w	200.0																	1.0	0.0	1.0	0.0	24.0	0.0	96.0	0.0																													w	1.0	0.350733995438	None	0.0	1.0	crossyellow.gif	go																								1.05	0.514337062836	0.000877857208252	0.350733995438	1.0	w	868.361841917																																	2015_Jul_06_1004	59.7029304128	LearningTask	1	55	
221	200.0	s	-200.0																	1.0	0.0	1.0	0.0	24.0	1.0	97.0	2.0																													s	1.0	0.30142807960499995	None	0.0	4.0	linecyan.gif	go																								0.0	0.5140259265899999	0.000991106033325	0.301428079605	1.0	s	871.3650929930001																																	2015_Jul_06_1004	59.7029304128	LearningTask	1	55	
222	-200.0	a	-200.0																	1.0	0.0	1.0	0.0	24.0	2.0	98.0	3.0																													a	1.0	0.300632953644	None	0.0	2.0	squaregray.gif	stop																								2.25	0.51406288147	0.0009739398956299999	0.300632953644	1.0	a	874.368518829																																	2015_Jul_06_1004	59.7029304128	LearningTask	1	55	
223	200.0	s	-200.0																	1.0	0.0	1.0	0.0	24.0	3.0	99.0	2.0																													s	1.0	0.284078836441	None	0.0	2.0	invertedtriangleorange.gif	go																								0.0	0.514220952988	0.000888109207153	0.284078836441	1.0	s	877.3721408839999																																	2015_Jul_06_1004	59.7029304128	LearningTask	1	55	
224																				1.0	0.0	1.0	0.0																																																																							9.0	6.11774086952																															2015_Jul_06_1004	59.7029304128	LearningTask	1	55	
225	200.0	w	200.0																	2.0	0.0	2.0	0.0	0.0	0.0	0.0	0.0																													w	1.0	0.450824022293	None	0.0	1.0	circlegreen.gif	stop																								0.9	0.5093910694120001	0.000880002975464	0.450824022293	1.0	w	887.050160885																																	2015_Jul_06_1004	59.7029304128	LearningTask	1	55	
226	200.0	s	-200.0																	2.0	0.0	2.0	0.0	0.0	1.0	1.0	2.0																													s	1.0	0.301378011703	None	0.0	2.0	squaregray.gif	stop																								1.86	0.513500928879	0.000885009765625	0.301378011703	1.0	s	890.052706003																																	2015_Jul_06_1004	59.7029304128	LearningTask	1	55	
227	200.0	s	-200.0																	2.0	0.0	2.0	0.0	0.0	2.0	2.0	2.0																													s	1.0	0.31756615638700003	None	0.0	2.0	squaregray.gif	stop																								2.17	0.514101028442	0.0009469985961910001	0.317566156387	1.0	s	893.056216955																																	2015_Jul_06_1004	59.7029304128	LearningTask	1	55	
228	200.0	w	200.0																	2.0	0.0	2.0	0.0	0.0	3.0	3.0	0.0																													w	1.0	0.366914987564	None	0.0	1.0	circlegreen.gif	stop																								0.85	0.5138700008389999	0.0009191036224369998	0.366914987564	1.0	w	896.0594317910001																																	2015_Jul_06_1004	59.7029304128	LearningTask	1	55	
229	-200.0	q	200.0																	2.0	0.0	2.0	0.0	1.0	0.0	4.0	1.0																													q	1.0	0.350636959076	None	0.0	4.0	hexagonwhite.gif	stop																								4.01	0.514450073242	0.000890016555786	0.350636959076	1.0	q	899.0628829																																	2015_Jul_06_1004	59.7029304128	LearningTask	1	55	
230	-200.0	q	200.0																	2.0	0.0	2.0	0.0	1.0	1.0	5.0	1.0																													q	1.0	0.333952188492	None	0.0	2.0	squaregray.gif	stop																								1.75	0.514132976532	0.0009469985961910001	0.333952188492	1.0	q	902.0668709280001																																	2015_Jul_06_1004	59.7029304128	LearningTask	1	55	
231	-200.0	q	200.0																	2.0	0.0	2.0	0.0	1.0	2.0	6.0	1.0																													q	1.0	0.317964076996	None	0.0	4.0	linecyan.gif	go																								3.78	0.513139009476	0.000892877578735	0.317964076996	1.0	q	905.069877863																																	2015_Jul_06_1004	59.7029304128	LearningTask	1	55	
232	200.0	s	-200.0																	2.0	0.0	2.0	0.0	1.0	3.0	7.0	2.0																													s	1.0	0.367363929749	None	0.0	1.0	crossyellow.gif	go																								0.92	0.514208078384	0.00088095664978	0.367363929749	1.0	s	908.0732748510001																																	2015_Jul_06_1004	59.7029304128	LearningTask	1	55	
233	200.0	s	-200.0																	2.0	0.0	2.0	0.0	2.0	0.0	8.0	2.0																													s	1.0	0.35138297081000003	None	0.0	1.0	crossyellow.gif	go																								1.0	0.513862848282	0.000881910324097	0.35138297081	1.0	s	911.07673192																																	2015_Jul_06_1004	59.7029304128	LearningTask	1	55	
234	-200.0	q	200.0																	2.0	0.0	2.0	0.0	2.0	1.0	9.0	1.0																													q	1.0	0.35091114044200006	None	0.0	0.5	trianglemagenta.gif	go																								0.0	0.513732910156	0.000882863998413	0.350911140442	1.0	q	914.079639912																																	2015_Jul_06_1004	59.7029304128	LearningTask	1	55	
235	-200.0	q	200.0																	2.0	0.0	2.0	0.0	2.0	2.0	10.0	1.0																													q	1.0	0.334063053131	None	0.0	1.0	circlegreen.gif	stop																								0.85	0.514467954636	0.0008788108825680001	0.334063053131	1.0	q	917.0828108789999																																	2015_Jul_06_1004	59.7029304128	LearningTask	1	55	
236	200.0	s	-200.0																	2.0	0.0	2.0	0.0	2.0	3.0	11.0	2.0																													s	1.0	0.33375000953699996	None	0.0	4.0	linecyan.gif	go																								0.0	0.5148580074310001	0.0008740425109860002	0.333750009537	1.0	s	920.086486816																																	2015_Jul_06_1004	59.7029304128	LearningTask	1	55	
237	-200.0	a	-200.0																	2.0	0.0	2.0	0.0	3.0	0.0	12.0	3.0																													a	1.0	0.333969831467	None	0.0	4.0	hexagonwhite.gif	stop																								3.82	0.514370203018	0.0008821487426760002	0.333969831467	1.0	a	923.08976388																																	2015_Jul_06_1004	59.7029304128	LearningTask	1	55	
238	200.0	s	-200.0																	2.0	0.0	2.0	0.0	3.0	1.0	13.0	2.0																													s	1.0	0.316955089569	None	0.0	4.0	hexagonwhite.gif	stop																								3.88	0.514467954636	0.00115609169006	0.316955089569	1.0	s	926.093286991																																	2015_Jul_06_1004	59.7029304128	LearningTask	1	55	
239	-200.0	q	200.0																	2.0	0.0	2.0	0.0	3.0	2.0	14.0	1.0																													q	1.0	0.284162044525	None	0.0	0.5	trianglemagenta.gif	go																								0.32	0.514011144638	0.0008740425109860002	0.284162044525	1.0	q	929.096352816																																	2015_Jul_06_1004	59.7029304128	LearningTask	1	55	
240	-200.0	q	200.0																	2.0	0.0	2.0	0.0	3.0	3.0	15.0	1.0																													q	1.0	0.351106882095	None	0.0	1.0	crossyellow.gif	go																								1.02	0.514058113098	0.0008759498596189999	0.351106882095	1.0	q	932.099762917																																	2015_Jul_06_1004	59.7029304128	LearningTask	1	55	
241	200.0	s	-200.0																	2.0	0.0	2.0	0.0	4.0	0.0	16.0	2.0																													s	1.0	0.334038972855	None	0.0	2.0	invertedtriangleorange.gif	go																								2.08	0.513997077942	0.000942945480347	0.334038972855	1.0	s	935.1033358569999																																	2015_Jul_06_1004	59.7029304128	LearningTask	1	55	
242	200.0	w	200.0																	2.0	0.0	2.0	0.0	4.0	1.0	17.0	0.0																													w	1.0	0.36734104156499997	None	0.0	4.0	linecyan.gif	go																								0.0	0.514279127121	0.0008780956268310002	0.367341041565	1.0	w	938.106330872																																	2015_Jul_06_1004	59.7029304128	LearningTask	1	55	
243	200.0	s	-200.0																	2.0	0.0	2.0	0.0	4.0	2.0	18.0	2.0																													s	1.0	0.367414951324	None	0.0	2.0	squaregray.gif	stop																								2.16	0.5143120288849999	0.0008919239044189998	0.367414951324	1.0	s	941.1097919939999																																	2015_Jul_06_1004	59.7029304128	LearningTask	1	55	
244	200.0	s	-200.0																	2.0	0.0	2.0	0.0	4.0	3.0	19.0	2.0																													s	1.0	0.384447097778	None	0.0	4.0	hexagonwhite.gif	stop																								4.08	0.514255046844	0.0009191036224369998	0.384447097778	1.0	s	944.1130888460001																																	2015_Jul_06_1004	59.7029304128	LearningTask	1	55	
245	200.0	s	-200.0																	2.0	0.0	2.0	0.0	5.0	0.0	20.0	2.0																													s	1.0	0.317804098129	None	0.0	0.5	trianglemagenta.gif	go																								0.0	0.514477968216	0.0008761882781980001	0.317804098129	1.0	s	947.116750956																																	2015_Jul_06_1004	59.7029304128	LearningTask	1	55	
246	-200.0	a	-200.0																	2.0	0.0	2.0	0.0	5.0	1.0	21.0	3.0																													a	1.0	0.317749023438	None	0.0	0.5	diamondblue.gif	stop																								0.62	0.5140910148619999	0.0008931159973139998	0.317749023438	1.0	a	950.1201019289999																																	2015_Jul_06_1004	59.7029304128	LearningTask	1	55	
247	200.0	s	-200.0																	2.0	0.0	2.0	0.0	5.0	2.0	22.0	2.0																													s	1.0	0.30004405975299997	None	0.0	2.0	invertedtriangleorange.gif	go																								2.14	0.514152050018	0.0008878707885739998	0.300044059753	1.0	s	953.123291969																																	2015_Jul_06_1004	59.7029304128	LearningTask	1	55	
248	-200.0	a	-200.0																	2.0	0.0	2.0	0.0	5.0	3.0	23.0	3.0																													a	1.0	0.317820072174	None	0.0	0.5	trianglemagenta.gif	go																								0.0	0.514161109924	0.0008840560913089999	0.317820072174	1.0	a	956.126682997																																	2015_Jul_06_1004	59.7029304128	LearningTask	1	55	
249	200.0	w	200.0																	2.0	0.0	2.0	0.0	6.0	0.0	24.0	0.0																													w	1.0	0.40043091774000006	None	0.0	4.0	linecyan.gif	go																								4.09	0.514519929886	0.000869035720825	0.40043091774	1.0	w	959.130555868																																	2015_Jul_06_1004	59.7029304128	LearningTask	1	55	
250	-200.0	q	200.0																	2.0	0.0	2.0	0.0	6.0	1.0	25.0	1.0																													q	1.0	0.334223985672	None	0.0	2.0	squaregray.gif	stop																								1.8	0.513334035873	0.0008552074432369999	0.334223985672	1.0	q	962.133367777																																	2015_Jul_06_1004	59.7029304128	LearningTask	1	55	
251	-200.0	q	200.0																	2.0	0.0	2.0	0.0	6.0	2.0	26.0	1.0																													q	1.0	0.283936023712	None	0.0	1.0	crossyellow.gif	go																								1.14	0.514276981354	0.00087308883667	0.283936023712	1.0	q	965.136657																																	2015_Jul_06_1004	59.7029304128	LearningTask	1	55	
252	-200.0	a	-200.0																	2.0	0.0	2.0	0.0	6.0	3.0	27.0	3.0																													a	1.0	0.284321069717	None	0.0	1.0	circlegreen.gif	stop																								0.92	0.514181852341	0.000884771347046	0.284321069717	1.0	a	968.140049934																																	2015_Jul_06_1004	59.7029304128	LearningTask	1	55	
253	-200.0	a	-200.0																	2.0	0.0	2.0	0.0	7.0	0.0	28.0	3.0																													a	1.0	0.267457008362	None	0.0	1.0	crossyellow.gif	go																								0.75	0.5142741203310001	0.0008709430694580001	0.267457008362	1.0	a	971.143441916																																	2015_Jul_06_1004	59.7029304128	LearningTask	1	55	
254	200.0	w	200.0																	2.0	0.0	2.0	0.0	7.0	1.0	29.0	0.0																													w	1.0	0.367772102356	None	0.0	4.0	linecyan.gif	go																								3.85	0.514210939407	0.00103282928467	0.367772102356	1.0	w	974.146691799																																	2015_Jul_06_1004	59.7029304128	LearningTask	1	55	
255	200.0	w	200.0																	2.0	0.0	2.0	0.0	7.0	2.0	30.0	0.0																													w	1.0	0.368001937866	None	0.0	0.5	trianglemagenta.gif	go																								0.0	0.514132022858	0.0008759498596189999	0.368001937866	1.0	w	977.1504240039999																																	2015_Jul_06_1004	59.7029304128	LearningTask	1	55	
256	200.0	w	200.0																	2.0	0.0	2.0	0.0	7.0	3.0	31.0	0.0																													w	1.0	0.751149177551	None	0.0	0.5	diamondblue.gif	stop																								0.58	0.514045953751	0.00086498260498	0.751149177551	1.0	w	980.1533918380001																																	2015_Jul_06_1004	59.7029304128	LearningTask	1	55	
257	200.0	w	200.0																	2.0	0.0	2.0	0.0	8.0	0.0	32.0	0.0																													w	1.0	0.300724983215	None	0.0	0.5	trianglemagenta.gif	go																								0.32	0.513939142227	0.000926971435547	0.300724983215	1.0	w	983.15703392																																	2015_Jul_06_1004	59.7029304128	LearningTask	1	55	
258	-200.0	a	-200.0																	2.0	0.0	2.0	0.0	8.0	1.0	33.0	3.0																													a	1.0	0.283702850342	None	0.0	2.0	squaregray.gif	stop																								1.77	0.51429104805	0.000862836837769	0.283702850342	1.0	a	986.159827948																																	2015_Jul_06_1004	59.7029304128	LearningTask	1	55	
259	-200.0	q	200.0																	2.0	0.0	2.0	0.0	8.0	2.0	34.0	1.0																													q	1.0	0.300564050674	None	0.0	4.0	hexagonwhite.gif	stop																								3.78	0.514620065689	0.0009360313415529999	0.300564050674	1.0	q	989.1634438039999																																	2015_Jul_06_1004	59.7029304128	LearningTask	1	55	
260	200.0	w	200.0																	2.0	0.0	2.0	0.0	8.0	3.0	35.0	0.0																													w	1.0	0.350000858307	None	0.0	1.0	crossyellow.gif	go																								0.0	0.514380931854	0.0009200572967529999	0.350000858307	1.0	w	992.1667199130001																																	2015_Jul_06_1004	59.7029304128	LearningTask	1	55	
261	200.0	w	200.0																	2.0	0.0	2.0	0.0	9.0	0.0	36.0	0.0																													w	1.0	0.300430774689	None	0.0	2.0	invertedtriangleorange.gif	go																								1.83	0.5146448612210001	0.0008749961853029999	0.300430774689	1.0	w	995.1704289910001																																	2015_Jul_06_1004	59.7029304128	LearningTask	1	55	
262	-200.0	q	200.0																	2.0	0.0	2.0	0.0	9.0	1.0	37.0	1.0																													q	1.0	0.31738114356999997	None	0.0	0.5	trianglemagenta.gif	go																								0.25	0.514097929001	0.000949859619141	0.31738114357	1.0	q	998.173870802																																	2015_Jul_06_1004	59.7029304128	LearningTask	1	55	
263	-200.0	a	-200.0																	2.0	0.0	2.0	0.0	9.0	2.0	38.0	3.0																													a	1.0	0.300282001495	None	0.0	1.0	circlegreen.gif	stop																								0.0	0.514166116714	0.0009150505065920001	0.300282001495	1.0	a	1001.17688489																																	2015_Jul_06_1004	59.7029304128	LearningTask	1	55	
264	-200.0	q	200.0																	2.0	0.0	2.0	0.0	9.0	3.0	39.0	1.0																													q	1.0	0.300785064697	None	0.0	1.0	circlegreen.gif	stop																								0.94	0.51430106163	0.0008780956268310002	0.300785064697	1.0	q	1004.18038797																																	2015_Jul_06_1004	59.7029304128	LearningTask	1	55	
265	-200.0	a	-200.0																	2.0	0.0	2.0	0.0	10.0	0.0	40.0	3.0																													a	1.0	0.283967018127	None	0.0	0.5	diamondblue.gif	stop																								0.64	0.514514923096	0.0008718967437739999	0.283967018127	1.0	a	1007.18393779																																	2015_Jul_06_1004	59.7029304128	LearningTask	1	55	
266	-200.0	q	200.0																	2.0	0.0	2.0	0.0	10.0	1.0	41.0	1.0																													q	1.0	0.300825834274	None	0.0	4.0	hexagonwhite.gif	stop																								3.9	0.513894081116	0.0009109973907470001	0.300825834274	1.0	q	1010.18687797																																	2015_Jul_06_1004	59.7029304128	LearningTask	1	55	
267	-200.0	q	200.0																	2.0	0.0	2.0	0.0	10.0	2.0	42.0	1.0																													q	1.0	0.284247159958	None	0.0	1.0	crossyellow.gif	go																								0.0	0.514601945877	0.00124096870422	0.284247159958	1.0	q	1013.19049692																																	2015_Jul_06_1004	59.7029304128	LearningTask	1	55	
268	-200.0	a	-200.0																	2.0	0.0	2.0	0.0	10.0	3.0	43.0	3.0																													a	1.0	0.300867080688	None	0.0	4.0	linecyan.gif	go																								4.25	0.514070987701	0.0009169578552250001	0.300867080688	1.0	a	1016.19384193																																	2015_Jul_06_1004	59.7029304128	LearningTask	1	55	
269	-200.0	a	-200.0																	2.0	0.0	2.0	0.0	11.0	0.0	44.0	3.0																													a	1.0	0.301364898682	None	0.0	4.0	linecyan.gif	go																								0.0	0.514086008072	0.0008909702301030001	0.301364898682	1.0	a	1019.19703984																																	2015_Jul_06_1004	59.7029304128	LearningTask	1	55	
270	200.0	w	200.0																	2.0	0.0	2.0	0.0	11.0	1.0	45.0	0.0																													w	1.0	0.31743979454	None	0.0	1.0	crossyellow.gif	go																								1.01	0.5142300128939999	0.00102519989014	0.31743979454	1.0	w	1022.20035982																																	2015_Jul_06_1004	59.7029304128	LearningTask	1	55	
271	-200.0	a	-200.0																	2.0	0.0	2.0	0.0	11.0	2.0	46.0	3.0																													a	1.0	0.333751916885	None	0.0	4.0	linecyan.gif	go																								3.83	0.51434803009	0.00089693069458	0.333751916885	1.0	a	1025.20374799																																	2015_Jul_06_1004	59.7029304128	LearningTask	1	55	
272	200.0	w	200.0																	2.0	0.0	2.0	0.0	11.0	3.0	47.0	0.0																													w	1.0	0.334503889084	None	0.0	2.0	invertedtriangleorange.gif	go																								2.05	0.514477014542	0.0008769035339360002	0.334503889084	1.0	w	1028.20707798																																	2015_Jul_06_1004	59.7029304128	LearningTask	1	55	
273	-200.0	q	200.0																	2.0	0.0	2.0	0.0	12.0	0.0	48.0	1.0																													q	1.0	0.267349004745	None	0.0	1.0	crossyellow.gif	go																								1.03	0.514029026031	0.000983953475952	0.267349004745	1.0	q	1031.21100593																																	2015_Jul_06_1004	59.7029304128	LearningTask	1	55	
274	200.0	s	-200.0																	2.0	0.0	2.0	0.0	12.0	1.0	49.0	2.0																													s	1.0	0.35116291046099996	None	0.0	1.0	circlegreen.gif	stop																								0.0	0.51394701004	0.00088906288147	0.351162910461	1.0	s	1034.21384096																																	2015_Jul_06_1004	59.7029304128	LearningTask	1	55	
275	-200.0	a	-200.0																	2.0	0.0	2.0	0.0	12.0	2.0	50.0	3.0																													a	1.0	0.300869941711	None	0.0	2.0	invertedtriangleorange.gif	go																								2.04	0.5144300460819999	0.0009319782257080001	0.300869941711	1.0	a	1037.21729493																																	2015_Jul_06_1004	59.7029304128	LearningTask	1	55	
276	-200.0	q	200.0																	2.0	0.0	2.0	0.0	12.0	3.0	51.0	1.0																													q	1.0	0.300241947174	None	0.0	4.0	hexagonwhite.gif	stop																								3.77	0.514279842377	0.0009148120880130001	0.300241947174	1.0	q	1040.22053099																																	2015_Jul_06_1004	59.7029304128	LearningTask	1	55	
277	200.0	s	-200.0																	2.0	0.0	2.0	0.0	13.0	0.0	52.0	2.0																													s	1.0	0.334007024765	None	0.0	0.5	diamondblue.gif	stop																								0.0	0.514290094376	0.000877141952515	0.334007024765	1.0	s	1043.22393179																																	2015_Jul_06_1004	59.7029304128	LearningTask	1	55	
278	-200.0	q	200.0																	2.0	0.0	2.0	0.0	13.0	1.0	53.0	1.0																													q	1.0	0.367920160294	None	0.0	0.5	diamondblue.gif	stop																								0.57	0.514183044434	0.000938177108765	0.367920160294	1.0	q	1046.22780681																																	2015_Jul_06_1004	59.7029304128	LearningTask	1	55	
279	200.0	w	200.0																	2.0	0.0	2.0	0.0	13.0	2.0	54.0	0.0																													w	1.0	0.333791971207	None	0.0	0.5	trianglemagenta.gif	go																								0.54	0.513895988464	0.000904083251953	0.333791971207	1.0	w	1049.23067784																																	2015_Jul_06_1004	59.7029304128	LearningTask	1	55	
280	-200.0	q	200.0																	2.0	0.0	2.0	0.0	13.0	3.0	55.0	1.0																													q	1.0	0.367521047592	None	0.0	2.0	invertedtriangleorange.gif	go																								1.83	0.513999938965	0.0008959770202639998	0.367521047592	1.0	q	1052.23375487																																	2015_Jul_06_1004	59.7029304128	LearningTask	1	55	
281	-200.0	a	-200.0																	2.0	0.0	2.0	0.0	14.0	0.0	56.0	3.0																													a	1.0	0.266696929932	None	0.0	4.0	linecyan.gif	go																								4.11	0.515075922012	0.0008780956268310002	0.266696929932	1.0	a	1055.2378509																																	2015_Jul_06_1004	59.7029304128	LearningTask	1	55	
282	-200.0	q	200.0																	2.0	0.0	2.0	0.0	14.0	1.0	57.0	1.0																													q	1.0	0.283741950989	None	0.0	1.0	crossyellow.gif	go																								0.0	0.5137422084809999	0.000904083251953	0.283741950989	1.0	q	1058.24090195																																	2015_Jul_06_1004	59.7029304128	LearningTask	1	55	
283	200.0	w	200.0																	2.0	0.0	2.0	0.0	14.0	2.0	58.0	0.0																													w	1.0	0.31737303733800004	None	0.0	4.0	linecyan.gif	go																								4.07	0.514191150665	0.0009400844573969999	0.317373037338	1.0	w	1061.2439549																																	2015_Jul_06_1004	59.7029304128	LearningTask	1	55	
284	200.0	s	-200.0																	2.0	0.0	2.0	0.0	14.0	3.0	59.0	2.0																													s	1.0	0.35113286971999996	None	0.0	0.5	trianglemagenta.gif	go																								0.0	0.514117002487	0.0008971691131589999	0.35113286972	1.0	s	1064.24733281																																	2015_Jul_06_1004	59.7029304128	LearningTask	1	55	
285	-200.0	a	-200.0																	2.0	0.0	2.0	0.0	15.0	0.0	60.0	3.0																													a	1.0	0.284235954285	None	0.0	4.0	linecyan.gif	go																								0.0	0.5144300460819999	0.00141787528992	0.284235954285	1.0	a	1067.25054193																																	2015_Jul_06_1004	59.7029304128	LearningTask	1	55	
286	200.0	s	-200.0																	2.0	0.0	2.0	0.0	15.0	1.0	61.0	2.0																													s	1.0	0.317570924759	None	0.0	4.0	hexagonwhite.gif	stop																								0.0	0.514724969864	0.00107502937317	0.35040307045	0.0	w	1070.25398493				4.04	0.51543879509	0.0009448528289790001	0.317570924759	1.0	s	1073.25778198																							2015_Jul_06_1004	59.7029304128	LearningTask	1	55	
287	-200.0	q	200.0																	2.0	0.0	2.0	0.0	15.0	2.0	62.0	1.0																													q	1.0	0.31749200820900003	None	0.0	2.0	squaregray.gif	stop																								0.0	0.5139060020449999	0.000880002975464	0.317492008209	1.0	q	1076.26075792																																	2015_Jul_06_1004	59.7029304128	LearningTask	1	55	
288	-200.0	a	-200.0																	2.0	0.0	2.0	0.0	15.0	3.0	63.0	3.0																													a	1.0	0.28389596939100004	None	0.0	0.5	trianglemagenta.gif	go																								0.0	0.5140981674189999	0.00102996826172	0.283895969391	1.0	a	1079.26433682																																	2015_Jul_06_1004	59.7029304128	LearningTask	1	55	
289	200.0	s	-200.0																	2.0	0.0	2.0	0.0	16.0	0.0	64.0	2.0																													s	1.0	0.333786010742	None	0.0	0.5	trianglemagenta.gif	go																								0.65	0.514410972595	0.0008769035339360002	0.333786010742	1.0	s	1082.26770878																																	2015_Jul_06_1004	59.7029304128	LearningTask	1	55	
290	200.0	s	-200.0																	2.0	0.0	2.0	0.0	16.0	1.0	65.0	2.0																													s	1.0	0.33355689048799997	None	0.0	2.0	invertedtriangleorange.gif	go																								2.04	0.514096975327	0.0008721351623539999	0.333556890488	1.0	s	1085.270823																																	2015_Jul_06_1004	59.7029304128	LearningTask	1	55	
291	200.0	s	-200.0																	2.0	0.0	2.0	0.0	16.0	2.0	66.0	2.0																													s	1.0	0.283957004547	None	0.0	2.0	invertedtriangleorange.gif	go																								1.79	0.513925075531	0.000921964645386	0.283957004547	1.0	s	1088.27416492																																	2015_Jul_06_1004	59.7029304128	LearningTask	1	55	
292	-200.0	a	-200.0																	2.0	0.0	2.0	0.0	16.0	3.0	67.0	3.0																													a	1.0	0.300574064255	None	0.0	1.0	crossyellow.gif	go																								1.12	0.5145540237430001	0.000880002975464	0.300574064255	1.0	a	1091.27768898																																	2015_Jul_06_1004	59.7029304128	LearningTask	1	55	
293	200.0	w	200.0																	2.0	0.0	2.0	0.0	17.0	0.0	68.0	0.0																													w	1.0	0.33381915092500003	None	0.0	2.0	invertedtriangleorange.gif	go																								1.98	0.5142378807069999	0.0008790493011469999	0.333819150925	1.0	w	1094.28170896																																	2015_Jul_06_1004	59.7029304128	LearningTask	1	55	
