	xPos	corrAns	yPos	corrGoResp	yPosGoStim	xPosGoStim	pracTrials.thisRepN	pracTrials.thisTrialN	pracTrials.thisN	pracTrials.thisIndex	ReDoLoopPrac.thisRepN	ReDoLoopPrac.thisTrialN	ReDoLoopPrac.thisN	ReDoLoopPrac.thisIndex	ReDoLoopPrac.thisTrial	pracStopTrials.thisRepN	pracStopTrials.thisTrialN	pracStopTrials.thisN	pracStopTrials.thisIndex	Blocks.thisRepN	Blocks.thisTrialN	Blocks.thisN	Blocks.thisIndex	trials.thisRepN	trials.thisTrialN	trials.thisN	trials.thisIndex	ReDoLoopMain.thisRepN	ReDoLoopMain.thisTrialN	ReDoLoopMain.thisN	ReDoLoopMain.thisIndex	ReDoLoopMain.thisTrial	StopBlocks.thisRepN	StopBlocks.thisTrialN	StopBlocks.thisN	StopBlocks.thisIndex	StopTrials.thisRepN	StopTrials.thisTrialN	StopTrials.thisN	StopTrials.thisIndex	auctionBlocks.thisRepN	auctionBlocks.thisTrialN	auctionBlocks.thisN	auctionBlocks.thisIndex	auctionTrials.thisRepN	auctionTrials.thisTrialN	auctionTrials.thisN	auctionTrials.thisIndex	learningTrialList	learningPracTrialList	stopTrialList	stopPracTrialList	auctionTrialList	ok1.keys	ok1.rt	resp.keys	resp.corr	resp.rt	feedbackResp.keys	feedbackResp.corr	currentReward	currentStimulus	currentStimType	firstPracComputedRewardOutput	firstPracLearningStimOnset	firstPracLearningFixOnset	firstPracPresentationRT	firstPracPresentationAcc	firstPracPresentationResp	firstPracEndTrialTimeStamp	feedbackResp.rt	StartTrialTimeStamp	trialType	goStim	stimType	stopStimValue	goResp.keys	goResp.corr	goResp.rt	key_resp_9.keys	key_resp_9.corr	fixStopOnset	goStimOnset	stopSignalOnset	EndTrialTimeStamp	key_resp_3.keys	key_resp_3.rt	firstComputedRewardOutput	firstLearningStimOnset	firstLearningFixOnset	firstPresentationRT	firstPresentationAcc	firstPresentationResp	firstEndTrialTimeStamp	secondComputedRewardOutput	secondLearningStimOnset	secondLearningFixOnset	secondPresentationRT	secondPresentationAcc	secondPresentationResp	secondEndTrialTimeStamp	key_resp_7.keys	key_resp_7.rt	beginningSSD	EndingSSD	key_resp_9.rt	key_resp_4.keys	key_resp_4.rt	auctionResponse.keys	auctionStimDuration	auctionStim	auctionAmounts	auctionStimValue	auctionCondition	chosenAuctionAmount	auctionResponse.rt	key_resp_5.keys	key_resp_5.rt	shuffledRewardList	chosenReward1	chosenReward2	chosenReward3	chosenReward4	chosenReward5	key_resp_6.keys	key_resp_6.rt	date	frameRate	expName	session	participant	Unnamed: 131
0																																																	[]	[]	[]	[]	[]	9.0	43.0904119015																																																																								2015_Jul_06_1123	59.7196767341	LearningTask	1	77	
1	-200.0	a	-200.0				0.0	0.0	0.0	3.0																																														a	1.0	0.567687034607	None	0.0	2.0	squareblue.gif	stop	1.97	0.515309095383	0.0098569393158	0.567687034607	1.0	a	99.868350029																																																									2015_Jul_06_1123	59.7196767341	LearningTask	1	77	
2	200.0	w	200.0				0.0	1.0	1.0	8.0																																														w	1.0	0.53484416008	None	0.0	0.5	invertedtrianglecyan.gif	stop	0.0	0.514518976212	0.036324024200400006	0.53484416008	1.0	w	102.871011972																																																									2015_Jul_06_1123	59.7196767341	LearningTask	1	77	
3	200.0	w	200.0				0.0	2.0	2.0	0.0																																														w	1.0	0.417383909225	None	0.0	0.5	invertedtrianglecyan.gif	stop	0.64	0.515254974365	0.00090503692627	0.417383909225	1.0	w	105.87458491299999																																																									2015_Jul_06_1123	59.7196767341	LearningTask	1	77	
4	-200.0	q	200.0				0.0	3.0	3.0	9.0																																														q	1.0	0.31772589683499997	a	0.0	0.5	invertedtrianglecyan.gif	stop	0.0	0.514709949493	0.000926971435547	0.31772589683499997	1.0	q	108.878172874	0.025357961654699997																																																								2015_Jul_06_1123	59.7196767341	LearningTask	1	77	
5	200.0	s	-200.0				0.0	4.0	4.0	6.0																																														s	1.0	0.384192943573	None	0.0	4.0	crossmagenta.gif	stop	4.09	0.515029907227	0.0371890068054	0.384192943573	1.0	s	111.881150007																																																									2015_Jul_06_1123	59.7196767341	LearningTask	1	77	
6	-200.0	q	200.0				0.0	5.0	5.0	1.0																																														q	1.0	0.55113697052	None	0.0	0.5	invertedtrianglecyan.gif	stop	0.3	0.515461921692	0.0008959770202639998	0.55113697052	1.0	q	114.884716988																																																									2015_Jul_06_1123	59.7196767341	LearningTask	1	77	
7	200.0	w	200.0				0.0	6.0	6.0	4.0																																														w	1.0	0.551130056381	None	0.0	4.0	crossmagenta.gif	stop	4.09	0.514945030212	0.0009109973907470001	0.551130056381	1.0	w	117.88805794700001																																																									2015_Jul_06_1123	59.7196767341	LearningTask	1	77	
8	200.0	s	-200.0				0.0	7.0	7.0	2.0																																														s	1.0	0.551354885101	None	0.0	4.0	crossmagenta.gif	stop	3.95	0.515005111694	0.000900030136108	0.551354885101	1.0	s	120.89171695700001																																																									2015_Jul_06_1123	59.7196767341	LearningTask	1	77	
9	-200.0	a	-200.0				0.0	8.0	8.0	7.0																																														a	1.0	0.618045091629	None	0.0	2.0	linegreen.gif	go	1.8	0.51450586319	0.0205960273743	0.618045091629	1.0	a	123.894748926																																																									2015_Jul_06_1123	59.7196767341	LearningTask	1	77	
10	-200.0	q	200.0				0.0	9.0	9.0	5.0																																														q	1.0	0.41776895523100005	None	0.0	1.0	hexagonwhite.gif	stop	1.06	0.515052080154	0.0397920608521	0.41776895523100005	1.0	q	126.898115873																																																									2015_Jul_06_1123	59.7196767341	LearningTask	1	77	
11				z	0.0	-200.0										0.0	0.0	0.0	0.0																																																					167.826726913	stop	crossmagenta.gif	stop	4.0	z	1.0	0.617921113968	None	0.0	0.0013210773467999999	0.516136884689	0.7664649486540001	170.830626965																																										2015_Jul_06_1123	59.7196767341	LearningTask	1	77	
12				m	0.0	200.0										0.0	1.0	1.0	1.0																																																					170.831017017	stop	crossmagenta.gif	stop	4.0	m	1.0	0.38423705100999994	None	0.0	0.00112295150757	0.515757083893	0.7659680843350001	173.833811045																																										2015_Jul_06_1123	59.7196767341	LearningTask	1	77	
13				m	0.0	200.0										1.0	0.0	2.0	1.0																																																					173.83417606400002	go	linegreen.gif	go	2.0	m	1.0	0.45086407661399996	None	0.0	0.000965118408203	0.51592206955		176.83718705200002																																										2015_Jul_06_1123	59.7196767341	LearningTask	1	77	
14				z	0.0	-200.0										1.0	1.0	3.0	0.0																																																					176.837549925	stop	invertedtrianglecyan.gif	stop	0.5	None	0.0		None	0.0	0.000951051712036	0.515902042389	0.766493082047	179.840842962																																										2015_Jul_06_1123	59.7196767341	LearningTask	1	77	
15				m	0.0	200.0										2.0	0.0	4.0	1.0																																																					179.84127593	go	diamondgray.gif	go	1.0	m	1.0	0.483989953995	None	0.0	0.0158708095551	0.515463829041		182.844033957																																										2015_Jul_06_1123	59.7196767341	LearningTask	1	77	
16				m	0.0	200.0										2.0	1.0	5.0	1.0																																																					182.844439983	go	diamondgray.gif	go	1.0	m	1.0	0.567565917969	None	0.0	0.0009489059448239998	0.5157020092010001		185.847230911																																										2015_Jul_06_1123	59.7196767341	LearningTask	1	77	
17				z	0.0	-200.0										3.0	0.0	6.0	0.0																																																					185.847645998	stop	invertedtrianglecyan.gif	stop	0.5	None	0.0		None	0.0	0.00101613998413	0.515846967697	0.766044139862	188.850955963																																										2015_Jul_06_1123	59.7196767341	LearningTask	1	77	
18				z	0.0	-200.0										3.0	1.0	7.0	0.0																																																					188.851393938	stop	hexagonwhite.gif	stop	1.0	None	0.0		None	0.0	0.00103402137756	0.515475034714	0.765586137772	191.854232073																																										2015_Jul_06_1123	59.7196767341	LearningTask	1	77	
19				z	0.0	-200.0										4.0	0.0	8.0	0.0																																																					191.854597092	go	diamondgray.gif	go	1.0	z	1.0	0.434135913849	None	0.0	0.0009520053863530001	0.515710115433		194.85736703900002																																										2015_Jul_06_1123	59.7196767341	LearningTask	1	77	
20				m	0.0	200.0										4.0	1.0	9.0	1.0																																																					194.85772800400002	go	triangleyellow.gif	go	4.0	m	1.0	0.534624099731	None	0.0	0.042815923690800006	0.515973091125		197.86097002																																										2015_Jul_06_1123	59.7196767341	LearningTask	1	77	
21																																																																																						9.0	3.0812420845																																								2015_Jul_06_1123	59.7196767341	LearningTask	1	77	
22																																																						9.0	61.0691981316																																																																								2015_Jul_06_1123	59.7196767341	LearningTask	1	77	
23	-200.0	a	-200.0																	0.0	0.0	0.0	0.0	0.0	0.0	0.0	3.0																													a	1.0	0.6015510559080001	None	0.0	4.0	triangleyellow.gif	go																									3.76	0.500571012497	0.0009109973907470001	0.601551055908	1.0	a	265.204319																																	2015_Jul_06_1123	59.7196767341	LearningTask	1	77	
24	200.0	w	200.0																	0.0	0.0	0.0	0.0	0.0	1.0	1.0	0.0																													w	1.0	0.417226791382	None	0.0	1.0	diamondgray.gif	go																									0.98	0.513768911362	0.0008909702301030001	0.417226791382	1.0	w	268.207688093																																	2015_Jul_06_1123	59.7196767341	LearningTask	1	77	
25	-200.0	q	200.0																	0.0	0.0	0.0	0.0	0.0	2.0	2.0	1.0																													q	1.0	0.400767087936	None	0.0	0.5	invertedtrianglecyan.gif	stop																									0.39	0.513782024384	0.000994920730591	0.400767087936	1.0	q	271.21064496																																	2015_Jul_06_1123	59.7196767341	LearningTask	1	77	
26	200.0	w	200.0																	0.0	0.0	0.0	0.0	0.0	3.0	3.0	0.0																													w	1.0	0.501106023788	None	0.0	2.0	squareblue.gif	stop																									1.87	0.514054059982	0.0009529590606689998	0.501106023788	1.0	w	274.213931084																																	2015_Jul_06_1123	59.7196767341	LearningTask	1	77	
27	-200.0	a	-200.0																	0.0	0.0	0.0	0.0	1.0	0.0	4.0	3.0																													a	1.0	0.45069408416699996	None	0.0	2.0	squareblue.gif	stop																									0.0	0.514739990234	0.000904083251953	0.450694084167	1.0	a	277.217442989																																	2015_Jul_06_1123	59.7196767341	LearningTask	1	77	
28	200.0	s	-200.0																	0.0	0.0	0.0	0.0	1.0	1.0	5.0	2.0																													s	1.0	0.518218994141	None	0.0	2.0	linegreen.gif	go																									1.9	0.51429104805	0.0008981227874760001	0.518218994141	1.0	s	280.221069098																																	2015_Jul_06_1123	59.7196767341	LearningTask	1	77	
29	200.0	s	-200.0																	0.0	0.0	0.0	0.0	1.0	2.0	6.0	2.0																													s	1.0	0.384649991989	None	0.0	2.0	linegreen.gif	go																									2.09	0.513341903687	0.00089693069458	0.384649991989	1.0	s	283.224174023																																	2015_Jul_06_1123	59.7196767341	LearningTask	1	77	
30	-200.0	q	200.0																	0.0	0.0	0.0	0.0	1.0	3.0	7.0	1.0																													q	1.0	0.317795991898	None	0.0	4.0	triangleyellow.gif	go																									3.84	0.5143120288849999	0.0008959770202639998	0.317795991898	1.0	q	286.22753405599997																																	2015_Jul_06_1123	59.7196767341	LearningTask	1	77	
31	200.0	s	-200.0																	0.0	0.0	0.0	0.0	2.0	0.0	8.0	2.0																													s	1.0	0.384231090546	None	0.0	4.0	crossmagenta.gif	stop																									0.0	0.514387130737	0.000909090042114	0.384231090546	1.0	s	289.231476068																																	2015_Jul_06_1123	59.7196767341	LearningTask	1	77	
32	200.0	w	200.0																	0.0	0.0	0.0	0.0	2.0	1.0	9.0	0.0																													w	1.0	0.317622900009	None	0.0	0.5	circleorange.gif	go																									0.46	0.513575077057	0.0348799228668	0.317622900009	1.0	w	292.234390974																																	2015_Jul_06_1123	59.7196767341	LearningTask	1	77	
33	200.0	w	200.0																	0.0	0.0	0.0	0.0	2.0	2.0	10.0	0.0																													w	1.0	0.31752109527600003	None	0.0	4.0	crossmagenta.gif	stop																									3.95	0.514243125916	0.0008940696716310001	0.317521095276	1.0	w	295.237618923																																	2015_Jul_06_1123	59.7196767341	LearningTask	1	77	
34	200.0	s	-200.0																	0.0	0.0	0.0	0.0	2.0	3.0	11.0	2.0																													s	1.0	0.350760936737	None	0.0	4.0	triangleyellow.gif	go																									4.03	0.514698982239	0.0009019374847410001	0.350760936737	1.0	s	298.24126005200003																																	2015_Jul_06_1123	59.7196767341	LearningTask	1	77	
35	-200.0	q	200.0																	0.0	0.0	0.0	0.0	3.0	0.0	12.0	1.0																													q	1.0	0.384577989578	None	0.0	4.0	crossmagenta.gif	stop																									4.09	0.514070034027	0.000904083251953	0.384577989578	1.0	q	301.244630098																																	2015_Jul_06_1123	59.7196767341	LearningTask	1	77	
36	-200.0	q	200.0																	0.0	0.0	0.0	0.0	3.0	1.0	13.0	1.0																													q	1.0	0.38414478302	None	0.0	0.5	circleorange.gif	go																									0.33	0.513733148575	0.00117301940918	0.38414478302	1.0	q	304.24772596400004																																	2015_Jul_06_1123	59.7196767341	LearningTask	1	77	
37	-200.0	q	200.0																	0.0	0.0	0.0	0.0	3.0	2.0	14.0	1.0																													q	1.0	0.334496974945	None	0.0	1.0	diamondgray.gif	go																									0.0	0.514246940613	0.00095796585083	0.334496974945	1.0	q	307.251441956																																	2015_Jul_06_1123	59.7196767341	LearningTask	1	77	
38	-200.0	q	200.0																	0.0	0.0	0.0	0.0	3.0	3.0	15.0	1.0																													q	1.0	0.33404898643500003	None	0.0	1.0	hexagonwhite.gif	stop																									0.79	0.513635873795	0.00102186203003	0.334048986435	1.0	q	310.254266024																																	2015_Jul_06_1123	59.7196767341	LearningTask	1	77	
39	-200.0	a	-200.0																	0.0	0.0	0.0	0.0	4.0	0.0	16.0	3.0																													a	1.0	0.40126299858099995	None	0.0	4.0	crossmagenta.gif	stop																									3.97	0.514595985413	0.00115990638733	0.401262998581	1.0	a	313.258039951																																	2015_Jul_06_1123	59.7196767341	LearningTask	1	77	
40	-200.0	a	-200.0																	0.0	0.0	0.0	0.0	4.0	1.0	17.0	3.0																													a	1.0	0.434617996216	None	0.0	4.0	triangleyellow.gif	go																									3.82	0.513948202133	0.00095009803772	0.434617996216	1.0	a	316.261178017																																	2015_Jul_06_1123	59.7196767341	LearningTask	1	77	
41	-200.0	a	-200.0																	0.0	0.0	0.0	0.0	4.0	2.0	18.0	3.0																													a	1.0	0.601622104645	None	0.0	2.0	linegreen.gif	go																									0.0	0.514497041702	0.0008940696716310001	0.601622104645	1.0	a	319.26460289999994																																	2015_Jul_06_1123	59.7196767341	LearningTask	1	77	
42	-200.0	q	200.0																	0.0	0.0	0.0	0.0	4.0	3.0	19.0	1.0																													q	1.0	0.36736321449299997	None	0.0	0.5	invertedtrianglecyan.gif	stop																									0.34	0.514128923416	0.0009551048278810001	0.367363214493	1.0	q	322.26799988700003																																	2015_Jul_06_1123	59.7196767341	LearningTask	1	77	
43	200.0	s	-200.0																	0.0	0.0	0.0	0.0	5.0	0.0	20.0	2.0																													s	1.0	0.417915821075	None	0.0	1.0	hexagonwhite.gif	stop																									1.2	0.514235973358	0.000951051712036	0.417915821075	1.0	s	325.27127194400003																																	2015_Jul_06_1123	59.7196767341	LearningTask	1	77	
44	-200.0	a	-200.0																	0.0	0.0	0.0	0.0	5.0	1.0	21.0	3.0																													a	1.0	0.517456054688	None	0.0	0.5	circleorange.gif	go																									0.44	0.514605998993	0.00090503692627	0.517456054688	1.0	a	328.274849892																																	2015_Jul_06_1123	59.7196767341	LearningTask	1	77	
45	200.0	w	200.0																	0.0	0.0	0.0	0.0	5.0	2.0	22.0	0.0																													w	1.0	0.467216014862	None	0.0	1.0	diamondgray.gif	go																									0.8	0.514256954193	0.0009248256683350001	0.467216014862	1.0	w	331.278300047																																	2015_Jul_06_1123	59.7196767341	LearningTask	1	77	
46	-200.0	a	-200.0																	0.0	0.0	0.0	0.0	5.0	3.0	23.0	3.0																													a	1.0	0.5848519802090001	None	0.0	4.0	crossmagenta.gif	stop																									3.82	0.514093160629	0.0008940696716310001	0.584851980209	1.0	a	334.28143286700004																																	2015_Jul_06_1123	59.7196767341	LearningTask	1	77	
47	-200.0	a	-200.0																	0.0	0.0	0.0	0.0	6.0	0.0	24.0	3.0																													a	1.0	0.801789045334	None	0.0	0.5	invertedtrianglecyan.gif	stop																									0.73	0.514285087585	0.000930070877075	0.801789045334	1.0	a	337.285373926																																	2015_Jul_06_1123	59.7196767341	LearningTask	1	77	
48	200.0	w	200.0																	0.0	0.0	0.0	0.0	6.0	1.0	25.0	0.0																													w	1.0	0.484046936035	None	0.0	2.0	linegreen.gif	go																									1.94	0.5138599872590001	0.0009019374847410001	0.484046936035	1.0	w	340.288227081																																	2015_Jul_06_1123	59.7196767341	LearningTask	1	77	
49	200.0	s	-200.0																	0.0	0.0	0.0	0.0	6.0	2.0	26.0	2.0																													s	1.0	0.384527921677	None	0.0	4.0	triangleyellow.gif	go																									4.11	0.514090061188	0.0008931159973139998	0.384527921677	1.0	s	343.291673899																																	2015_Jul_06_1123	59.7196767341	LearningTask	1	77	
50	200.0	s	-200.0																	0.0	0.0	0.0	0.0	6.0	3.0	27.0	2.0																													s	1.0	0.38412213325499994	None	0.0	1.0	diamondgray.gif	go																									0.79	0.514448881149	0.000978946685791	0.384122133255	1.0	s	346.295475006																																	2015_Jul_06_1123	59.7196767341	LearningTask	1	77	
51	-200.0	q	200.0																	0.0	0.0	0.0	0.0	7.0	0.0	28.0	1.0																													q	1.0	0.801498889923	None	0.0	0.5	invertedtrianglecyan.gif	stop																									0.41	0.513746023178	0.0009198188781739999	0.801498889923	1.0	q	349.298424006																																	2015_Jul_06_1123	59.7196767341	LearningTask	1	77	
52	-200.0	q	200.0																	0.0	0.0	0.0	0.0	7.0	1.0	29.0	1.0																													q	1.0	0.6680531501770001	None	0.0	1.0	hexagonwhite.gif	stop																									0.0	0.5142331123349999	0.00100302696228	0.668053150177	1.0	q	352.30153203																																	2015_Jul_06_1123	59.7196767341	LearningTask	1	77	
53	200.0	w	200.0																	0.0	0.0	0.0	0.0	7.0	2.0	30.0	0.0																													w	1.0	0.41801404953000004	None	0.0	2.0	linegreen.gif	go																									1.83	0.5145192146299999	0.000953197479248	0.41801404953	1.0	w	355.305375099																																	2015_Jul_06_1123	59.7196767341	LearningTask	1	77	
54	200.0	w	200.0																	0.0	0.0	0.0	0.0	7.0	3.0	31.0	0.0																													w	1.0	0.38405013084399997	None	0.0	1.0	diamondgray.gif	go																									1.11	0.514107942581	0.0009031295776369999	0.384050130844	1.0	w	358.308713913																																	2015_Jul_06_1123	59.7196767341	LearningTask	1	77	
55	200.0	w	200.0																	0.0	0.0	0.0	0.0	8.0	0.0	32.0	0.0																													w	1.0	0.300894021988	None	0.0	4.0	triangleyellow.gif	go																									4.21	0.513884067535	0.0010249614715599998	0.300894021988	1.0	w	361.311965942																																	2015_Jul_06_1123	59.7196767341	LearningTask	1	77	
56	200.0	s	-200.0																	0.0	0.0	0.0	0.0	8.0	1.0	33.0	2.0																													s	1.0	0.417224884033	None	0.0	4.0	crossmagenta.gif	stop																									3.93	0.5143229961399999	0.0010998249054	0.417224884033	1.0	s	364.31521105800005																																	2015_Jul_06_1123	59.7196767341	LearningTask	1	77	
57	-200.0	q	200.0																	0.0	0.0	0.0	0.0	8.0	2.0	34.0	1.0																													q	1.0	0.367382049561	None	0.0	2.0	linegreen.gif	go																									0.0	0.514330148697	0.0009012222290039999	0.367382049561	1.0	q	367.31857895900004																																	2015_Jul_06_1123	59.7196767341	LearningTask	1	77	
58	-200.0	a	-200.0																	0.0	0.0	0.0	0.0	8.0	3.0	35.0	3.0																													a	1.0	0.401238918304	None	0.0	0.5	circleorange.gif	go																									0.25	0.514051914215	0.00094199180603	0.401238918304	1.0	a	370.321985006																																	2015_Jul_06_1123	59.7196767341	LearningTask	1	77	
59	-200.0	q	200.0																	0.0	0.0	0.0	0.0	9.0	0.0	36.0	1.0																													q	1.0	0.401043891907	None	0.0	0.5	invertedtrianglecyan.gif	stop																									0.54	0.514236927032	0.00089693069458	0.401043891907	1.0	q	373.325291872																																	2015_Jul_06_1123	59.7196767341	LearningTask	1	77	
60	-200.0	q	200.0																	0.0	0.0	0.0	0.0	9.0	1.0	37.0	1.0																													q	1.0	0.35093903541599997	None	0.0	4.0	triangleyellow.gif	go																									4.13	0.5144460201259999	0.00090503692627	0.350939035416	1.0	q	376.328809023																																	2015_Jul_06_1123	59.7196767341	LearningTask	1	77	
61	-200.0	a	-200.0																	0.0	0.0	0.0	0.0	9.0	2.0	38.0	3.0																													a	1.0	0.400661945343	None	0.0	4.0	triangleyellow.gif	go																									4.02	0.51433300972	0.0009489059448239998	0.400661945343	1.0	a	379.332256079																																	2015_Jul_06_1123	59.7196767341	LearningTask	1	77	
62	200.0	w	200.0																	0.0	0.0	0.0	0.0	9.0	3.0	39.0	0.0																													w	1.0	0.350941181183	None	0.0	4.0	crossmagenta.gif	stop																									3.96	0.514142990112	0.000900983810425	0.350941181183	1.0	w	382.33540892599996																																	2015_Jul_06_1123	59.7196767341	LearningTask	1	77	
63	-200.0	a	-200.0																	0.0	0.0	0.0	0.0	10.0	0.0	40.0	3.0																													a	1.0	0.350728988647	None	0.0	0.5	circleorange.gif	go																									0.53	0.514364004135	0.000923156738281	0.350728988647	1.0	a	385.33923888199996																																	2015_Jul_06_1123	59.7196767341	LearningTask	1	77	
64	200.0	s	-200.0																	0.0	0.0	0.0	0.0	10.0	1.0	41.0	2.0																													s	1.0	0.334271907806	None	0.0	2.0	squareblue.gif	stop																									1.88	0.513788938522	0.0008959770202639998	0.334271907806	1.0	s	388.342451096																																	2015_Jul_06_1123	59.7196767341	LearningTask	1	77	
65	200.0	w	200.0																	0.0	0.0	0.0	0.0	10.0	2.0	42.0	0.0																													w	1.0	0.350535154343	None	0.0	1.0	diamondgray.gif	go																									0.78	0.514167070389	0.0008990764617919999	0.350535154343	1.0	w	391.345546007																																	2015_Jul_06_1123	59.7196767341	LearningTask	1	77	
66	200.0	s	-200.0																	0.0	0.0	0.0	0.0	10.0	3.0	43.0	2.0																													s	1.0	0.368076086044	None	0.0	0.5	invertedtrianglecyan.gif	stop																									0.0	0.514099836349	0.000966787338257	0.368076086044	1.0	s	394.34923887300005																																	2015_Jul_06_1123	59.7196767341	LearningTask	1	77	
67	-200.0	q	200.0																	0.0	0.0	0.0	0.0	11.0	0.0	44.0	1.0																													q	1.0	0.30086803436299997	None	0.0	2.0	linegreen.gif	go																									2.01	0.513834953308	0.000922918319702	0.300868034363	1.0	q	397.35227704																																	2015_Jul_06_1123	59.7196767341	LearningTask	1	77	
68	-200.0	a	-200.0																	0.0	0.0	0.0	0.0	11.0	1.0	45.0	3.0																													a	1.0	0.417541027069	None	0.0	4.0	triangleyellow.gif	go																									3.95	0.514322042465	0.00110006332397	0.417541027069	1.0	a	400.356112957																																	2015_Jul_06_1123	59.7196767341	LearningTask	1	77	
69	-200.0	q	200.0																	0.0	0.0	0.0	0.0	11.0	2.0	46.0	1.0																													q	1.0	0.417676925659	None	0.0	2.0	linegreen.gif	go																									1.83	0.513752937317	0.0009191036224369998	0.417676925659	1.0	q	403.359123945																																	2015_Jul_06_1123	59.7196767341	LearningTask	1	77	
70	200.0	w	200.0																	0.0	0.0	0.0	0.0	11.0	3.0	47.0	0.0																													w	1.0	0.317342042923	None	0.0	4.0	triangleyellow.gif	go																									4.13	0.514307022095	0.000931024551392	0.317342042923	1.0	w	406.362385035																																	2015_Jul_06_1123	59.7196767341	LearningTask	1	77	
71	200.0	w	200.0																	0.0	0.0	0.0	0.0	12.0	0.0	48.0	0.0																													w	1.0	0.316890954971	w	1.0	1.0	diamondgray.gif	go								0.591385126114																	1.18	0.5147621631620001	0.000969171524048	0.316890954971	1.0	w	409.36579489699994																																	2015_Jul_06_1123	59.7196767341	LearningTask	1	77	
72	-200.0	a	-200.0																	0.0	0.0	0.0	0.0	12.0	1.0	49.0	3.0																													a	1.0	0.384443044662	None	0.0	4.0	crossmagenta.gif	stop																									3.9	0.514363050461	0.000896215438843	0.384443044662	1.0	a	412.369126081																																	2015_Jul_06_1123	59.7196767341	LearningTask	1	77	
73	-200.0	q	200.0																	0.0	0.0	0.0	0.0	12.0	2.0	50.0	1.0																													q	1.0	0.384293079376	None	0.0	0.5	circleorange.gif	go																									0.53	0.51428604126	0.0008990764617919999	0.384293079376	1.0	q	415.372713089																																	2015_Jul_06_1123	59.7196767341	LearningTask	1	77	
74	-200.0	a	-200.0																	0.0	0.0	0.0	0.0	12.0	3.0	51.0	3.0																													a	1.0	0.41770100593599996	None	0.0	2.0	linegreen.gif	go																									2.04	0.513653039932	0.0009369850158689999	0.417701005936	1.0	a	418.376224041																																	2015_Jul_06_1123	59.7196767341	LearningTask	1	77	
75	200.0	s	-200.0																	0.0	0.0	0.0	0.0	13.0	0.0	52.0	2.0																													s	1.0	0.417928934097	None	0.0	4.0	crossmagenta.gif	stop																									4.14	0.513576030731	0.00109314918518	0.417928934097	1.0	s	421.379287004																																	2015_Jul_06_1123	59.7196767341	LearningTask	1	77	
76	-200.0	q	200.0																	0.0	0.0	0.0	0.0	13.0	1.0	53.0	1.0																													q	1.0	0.366955041885	None	0.0	1.0	hexagonwhite.gif	stop																									1.06	0.5143940448759999	0.0009031295776369999	0.366955041885	1.0	q	424.383146048																																	2015_Jul_06_1123	59.7196767341	LearningTask	1	77	
77	200.0	w	200.0																	0.0	0.0	0.0	0.0	13.0	2.0	54.0	0.0																													w	1.0	0.300614833832	w	1.0	2.0	squareblue.gif	stop								0.541531085968																	1.81	0.513644218445	0.000927209854126	0.300614833832	1.0	w	427.38617992400003																																	2015_Jul_06_1123	59.7196767341	LearningTask	1	77	
78	-200.0	q	200.0																	0.0	0.0	0.0	0.0	13.0	3.0	55.0	1.0																													q	1.0	0.31727790832499997	None	0.0	0.5	circleorange.gif	go																									0.49	0.51420378685	0.000908851623535	0.317277908325	1.0	q	430.389545918																																	2015_Jul_06_1123	59.7196767341	LearningTask	1	77	
79	200.0	w	200.0																	0.0	0.0	0.0	0.0	14.0	0.0	56.0	0.0																													w	1.0	0.317144155502	None	0.0	1.0	diamondgray.gif	go																									1.09	0.514611005783	0.00102710723877	0.317144155502	1.0	w	433.393074989																																	2015_Jul_06_1123	59.7196767341	LearningTask	1	77	
80	200.0	s	-200.0																	0.0	0.0	0.0	0.0	14.0	1.0	57.0	2.0																													s	1.0	0.350786924362	None	0.0	4.0	crossmagenta.gif	stop																									0.0	0.514033794403	0.0009119510650630002	0.350786924362	1.0	s	436.39617800699995																																	2015_Jul_06_1123	59.7196767341	LearningTask	1	77	
81	200.0	s	-200.0																	0.0	0.0	0.0	0.0	14.0	2.0	58.0	2.0																													s	1.0	0.400676012039	None	0.0	0.5	invertedtrianglecyan.gif	stop																									0.41	0.514498949051	0.0009100437164310001	0.400676012039	1.0	s	439.399484873																																	2015_Jul_06_1123	59.7196767341	LearningTask	1	77	
82	-200.0	a	-200.0																	0.0	0.0	0.0	0.0	14.0	3.0	59.0	3.0																													a	1.0	0.400486946106	None	0.0	0.5	circleorange.gif	go																									0.0	0.5145931243899999	0.0009319782257080001	0.400486946106	1.0	a	442.40305805199995																																	2015_Jul_06_1123	59.7196767341	LearningTask	1	77	
83	200.0	w	200.0																	0.0	0.0	0.0	0.0	15.0	0.0	60.0	0.0																													w	1.0	0.283562898636	None	0.0	1.0	hexagonwhite.gif	stop																									0.9	0.514596939087	0.000907897949219	0.283562898636	1.0	w	445.406358004																																	2015_Jul_06_1123	59.7196767341	LearningTask	1	77	
84	-200.0	q	200.0																	0.0	0.0	0.0	0.0	15.0	1.0	61.0	1.0																													q	1.0	0.31735801696800003	None	0.0	0.5	circleorange.gif	go																									0.61	0.51461315155	0.0010840892791700002	0.317358016968	1.0	q	448.40996789900004																																	2015_Jul_06_1123	59.7196767341	LearningTask	1	77	
85	-200.0	q	200.0																	0.0	0.0	0.0	0.0	15.0	2.0	62.0	1.0																													q	1.0	0.417759180069	None	0.0	2.0	linegreen.gif	go																									2.1	0.513685941696	0.0013680458068800001	0.417759180069	1.0	q	451.413053036																																	2015_Jul_06_1123	59.7196767341	LearningTask	1	77	
86	200.0	w	200.0																	0.0	0.0	0.0	0.0	15.0	3.0	63.0	0.0																													w	1.0	0.26777195930500003	None	0.0	2.0	squareblue.gif	stop																									1.84	0.51434803009	0.0008940696716310001	0.267771959305	1.0	w	454.416409016																																	2015_Jul_06_1123	59.7196767341	LearningTask	1	77	
87	200.0	w	200.0																	0.0	0.0	0.0	0.0	16.0	0.0	64.0	0.0																													w	1.0	0.334070920944	None	0.0	1.0	hexagonwhite.gif	stop																									0.0	0.51420712471	0.0009591579437260001	0.150822877884	0.0	q	457.419781923	1.04	0.5155701637269999	0.0009820461273189998	0.334070920944	1.0	w	460.423501015																										2015_Jul_06_1123	59.7196767341	LearningTask	1	77	
88	-200.0	q	200.0																	0.0	0.0	0.0	0.0	16.0	1.0	65.0	1.0																													q	1.0	0.384401082993	None	0.0	0.5	circleorange.gif	go																									0.0	0.513772964478	0.0008940696716310001	0.384401082993	1.0	q	463.426621914																																	2015_Jul_06_1123	59.7196767341	LearningTask	1	77	
89	200.0	s	-200.0																	0.0	0.0	0.0	0.0	16.0	2.0	66.0	2.0																													s	1.0	0.36742901802100003	None	0.0	0.5	invertedtrianglecyan.gif	stop																									0.64	0.51390004158	0.0009291172027589999	0.367429018021	1.0	s	466.430155993																																	2015_Jul_06_1123	59.7196767341	LearningTask	1	77	
90	200.0	s	-200.0																	0.0	0.0	0.0	0.0	16.0	3.0	67.0	2.0																													s	1.0	0.351366996765	None	0.0	1.0	hexagonwhite.gif	stop																									0.88	0.514242172241	0.000907182693481	0.351366996765	1.0	s	469.433218002																																	2015_Jul_06_1123	59.7196767341	LearningTask	1	77	
91	-200.0	a	-200.0																	0.0	0.0	0.0	0.0	17.0	0.0	68.0	3.0																													a	1.0	0.417650938034	None	0.0	1.0	diamondgray.gif	go																									0.91	0.5143709182739999	0.000890016555786	0.417650938034	1.0	a	472.437229872																																	2015_Jul_06_1123	59.7196767341	LearningTask	1	77	
92	-200.0	q	200.0																	0.0	0.0	0.0	0.0	17.0	1.0	69.0	1.0																													q	1.0	0.45080113410899997	None	0.0	2.0	linegreen.gif	go																									1.94	0.513650894165	0.000913858413696	0.450801134109	1.0	q	475.44012808800005																																	2015_Jul_06_1123	59.7196767341	LearningTask	1	77	
93	-200.0	a	-200.0																	0.0	0.0	0.0	0.0	17.0	2.0	70.0	3.0																													a	1.0	0.467514038086	None	0.0	2.0	squareblue.gif	stop																									2.04	0.5142331123349999	0.00088095664978	0.467514038086	1.0	a	478.443492889																																	2015_Jul_06_1123	59.7196767341	LearningTask	1	77	
94	-200.0	a	-200.0																	0.0	0.0	0.0	0.0	17.0	3.0	71.0	3.0																													a	1.0	0.384382009506	None	0.0	4.0	crossmagenta.gif	stop																									3.9	0.514187812805	0.0009398460388180001	0.384382009506	1.0	a	481.447156906																																	2015_Jul_06_1123	59.7196767341	LearningTask	1	77	
95	-200.0	a	-200.0																	0.0	0.0	0.0	0.0	18.0	0.0	72.0	3.0																													a	1.0	0.43366193771399997	None	0.0	2.0	linegreen.gif	go																									1.95	0.51398396492	0.0008878707885739998	0.433661937714	1.0	a	484.450141907																																	2015_Jul_06_1123	59.7196767341	LearningTask	1	77	
96	200.0	w	200.0																	0.0	0.0	0.0	0.0	18.0	1.0	73.0	0.0																													w	1.0	0.384636878967	None	0.0	0.5	invertedtrianglecyan.gif	stop																									0.53	0.514349937439	0.0009601116180419999	0.384636878967	1.0	w	487.453361034																																	2015_Jul_06_1123	59.7196767341	LearningTask	1	77	
97	200.0	s	-200.0																	0.0	0.0	0.0	0.0	18.0	2.0	74.0	2.0																													s	1.0	0.40076208114600004	None	0.0	4.0	crossmagenta.gif	stop																									0.0	0.5145030021670001	0.000946044921875	0.400762081146	1.0	s	490.456844091																																	2015_Jul_06_1123	59.7196767341	LearningTask	1	77	
98	-200.0	a	-200.0																	0.0	0.0	0.0	0.0	18.0	3.0	75.0	3.0																													a	1.0	0.38456010818499997	None	0.0	2.0	squareblue.gif	stop																									2.11	0.514470100403	0.00088906288147	0.384560108185	1.0	a	493.460265875																																	2015_Jul_06_1123	59.7196767341	LearningTask	1	77	
99	-200.0	a	-200.0																	0.0	0.0	0.0	0.0	19.0	0.0	76.0	3.0																													a	1.0	0.467333078384	None	0.0	0.5	invertedtrianglecyan.gif	stop																									0.35	0.5143940448759999	0.0009891986846919999	0.467333078384	1.0	a	496.463847876																																	2015_Jul_06_1123	59.7196767341	LearningTask	1	77	
100	-200.0	q	200.0																	0.0	0.0	0.0	0.0	19.0	1.0	77.0	1.0																													q	1.0	0.417059183121	q	1.0	2.0	linegreen.gif	go								0.925551891327																	2.13	0.514358997345	0.000888109207153	0.417059183121	1.0	q	499.467072964																																	2015_Jul_06_1123	59.7196767341	LearningTask	1	77	
101	200.0	w	200.0																	0.0	0.0	0.0	0.0	19.0	2.0	78.0	0.0																													w	1.0	0.367442846298	None	0.0	2.0	linegreen.gif	go																									0.0	0.514511108398	0.000900983810425	0.4342648983	0.0	s	502.47057104099997	1.98	0.515175104141	0.0011789798736600002	0.367442846298	1.0	w	505.47388696699994																										2015_Jul_06_1123	59.7196767341	LearningTask	1	77	
102	200.0	s	-200.0																	0.0	0.0	0.0	0.0	19.0	3.0	79.0	2.0																													s	1.0	0.40108489990199997	None	0.0	1.0	diamondgray.gif	go																									1.13	0.514193058014	0.00126504898071	0.401084899902	1.0	s	508.47715091699996																																	2015_Jul_06_1123	59.7196767341	LearningTask	1	77	
103	-200.0	a	-200.0																	0.0	0.0	0.0	0.0	20.0	0.0	80.0	3.0																													a	1.0	0.434320926666	None	0.0	4.0	triangleyellow.gif	go																									4.2	0.514511108398	0.0013461112976099999	0.434320926666	1.0	a	511.480974913																																	2015_Jul_06_1123	59.7196767341	LearningTask	1	77	
104	-200.0	a	-200.0																	0.0	0.0	0.0	0.0	20.0	1.0	81.0	3.0																													a	1.0	0.3841381073	None	0.0	4.0	crossmagenta.gif	stop																									4.15	0.513675928116	0.0009069442749019998	0.3841381073	1.0	a	514.484266043																																	2015_Jul_06_1123	59.7196767341	LearningTask	1	77	
105	-200.0	a	-200.0																	0.0	0.0	0.0	0.0	20.0	2.0	82.0	3.0																													a	1.0	0.384531021118	None	0.0	2.0	linegreen.gif	go																									2.11	0.513731002808	0.0010681152343800001	0.384531021118	1.0	a	517.487351894																																	2015_Jul_06_1123	59.7196767341	LearningTask	1	77	
106	200.0	w	200.0																	0.0	0.0	0.0	0.0	20.0	3.0	83.0	0.0																													w	1.0	0.400956869125	None	0.0	4.0	triangleyellow.gif	go																									3.95	0.514215946198	0.0008938312530519999	0.400956869125	1.0	w	520.491136074																																	2015_Jul_06_1123	59.7196767341	LearningTask	1	77	
107	200.0	s	-200.0																	0.0	0.0	0.0	0.0	21.0	0.0	84.0	2.0																													s	1.0	0.38417506218	None	0.0	0.5	circleorange.gif	go																									0.74	0.513596057892	0.0009350776672360002	0.38417506218	1.0	s	523.494076014																																	2015_Jul_06_1123	59.7196767341	LearningTask	1	77	
108	200.0	s	-200.0																	0.0	0.0	0.0	0.0	21.0	1.0	85.0	2.0																													s	1.0	0.36819314956699994	None	0.0	0.5	invertedtrianglecyan.gif	stop																									0.64	0.514312982559	0.000902891159058	0.368193149567	1.0	s	526.497396946																																	2015_Jul_06_1123	59.7196767341	LearningTask	1	77	
109	200.0	w	200.0																	0.0	0.0	0.0	0.0	21.0	2.0	86.0	0.0																													w	1.0	0.350651025772	None	0.0	1.0	diamondgray.gif	go																									0.87	0.514588832855	0.00095796585083	0.350651025772	1.0	w	529.500907898																																	2015_Jul_06_1123	59.7196767341	LearningTask	1	77	
110	200.0	s	-200.0																	0.0	0.0	0.0	0.0	21.0	3.0	87.0	2.0																													s	1.0	0.35107588768	None	0.0	0.5	circleorange.gif	go																									0.4	0.5142509937290001	0.000900983810425	0.35107588768	1.0	s	532.504190922																																	2015_Jul_06_1123	59.7196767341	LearningTask	1	77	
111	200.0	s	-200.0																	0.0	0.0	0.0	0.0	22.0	0.0	88.0	2.0																													s	1.0	0.350735902786	q	0.0	0.5	invertedtrianglecyan.gif	stop								0.458541870117																	0.68	0.51428103447	0.00106406211853	0.350735902786	1.0	s	535.507276058																																	2015_Jul_06_1123	59.7196767341	LearningTask	1	77	
112	200.0	s	-200.0																	0.0	0.0	0.0	0.0	22.0	1.0	89.0	2.0																													s	1.0	0.351400136948	None	0.0	1.0	diamondgray.gif	go																									1.22	0.5143098831180001	0.000942945480347	0.351400136948	1.0	s	538.510957956																																	2015_Jul_06_1123	59.7196767341	LearningTask	1	77	
113	-200.0	q	200.0																	0.0	0.0	0.0	0.0	22.0	2.0	90.0	1.0																													q	1.0	0.418081998825	None	0.0	2.0	linegreen.gif	go																									1.76	0.514287948608	0.0009119510650630002	0.418081998825	1.0	q	541.514275074																																	2015_Jul_06_1123	59.7196767341	LearningTask	1	77	
114	200.0	s	-200.0																	0.0	0.0	0.0	0.0	22.0	3.0	91.0	2.0																													s	1.0	0.351136922836	None	0.0	4.0	crossmagenta.gif	stop																									3.79	0.5140299797060001	0.0009541511535639998	0.351136922836	1.0	s	544.517731905																																	2015_Jul_06_1123	59.7196767341	LearningTask	1	77	
115	200.0	w	200.0																	0.0	0.0	0.0	0.0	23.0	0.0	92.0	0.0																													w	1.0	0.351480007172	None	0.0	2.0	squareblue.gif	stop																									2.0	0.513924121857	0.0008931159973139998	0.351480007172	1.0	w	547.520915985																																	2015_Jul_06_1123	59.7196767341	LearningTask	1	77	
116	200.0	s	-200.0																	0.0	0.0	0.0	0.0	23.0	1.0	93.0	2.0																													s	1.0	0.367650032043	None	0.0	4.0	triangleyellow.gif	go																									3.91	0.514397144318	0.0009360313415529999	0.367650032043	1.0	s	550.524568081																																	2015_Jul_06_1123	59.7196767341	LearningTask	1	77	
117	200.0	w	200.0																	0.0	0.0	0.0	0.0	23.0	2.0	94.0	0.0																													w	1.0	0.367038965225	None	0.0	0.5	circleorange.gif	go																									0.55	0.514280796051	0.0009398460388180001	0.367038965225	1.0	w	553.527819872																																	2015_Jul_06_1123	59.7196767341	LearningTask	1	77	
118	-200.0	q	200.0																	0.0	0.0	0.0	0.0	23.0	3.0	95.0	1.0																													q	1.0	0.384117841721	None	0.0	4.0	triangleyellow.gif	go																									4.24	0.514137029648	0.000898838043213	0.384117841721	1.0	q	556.531419992																																	2015_Jul_06_1123	59.7196767341	LearningTask	1	77	
119	200.0	w	200.0																	0.0	0.0	0.0	0.0	24.0	0.0	96.0	0.0																													w	1.0	0.3010430336	None	0.0	0.5	invertedtrianglecyan.gif	stop																									0.0	0.51358795166	0.000951051712036	0.3010430336	1.0	w	559.534872055																																	2015_Jul_06_1123	59.7196767341	LearningTask	1	77	
120	-200.0	a	-200.0																	0.0	0.0	0.0	0.0	24.0	1.0	97.0	3.0																													a	1.0	0.350641965866	None	0.0	2.0	squareblue.gif	stop																									0.0	0.513906955719	0.0028870105743400002	0.367433071136	0.0	s	562.538019896	2.04	0.515440940857	0.0009520053863530001	0.350641965866	1.0	a	565.5413470269999																										2015_Jul_06_1123	59.7196767341	LearningTask	1	77	
121	-200.0	q	200.0																	0.0	0.0	0.0	0.0	24.0	2.0	98.0	1.0																													q	1.0	0.400532007217	None	0.0	4.0	triangleyellow.gif	go																									4.21	0.514582872391	0.00104904174805	0.400532007217	1.0	q	568.545001984																																	2015_Jul_06_1123	59.7196767341	LearningTask	1	77	
122	200.0	s	-200.0																	0.0	0.0	0.0	0.0	24.0	3.0	99.0	2.0																													s	1.0	0.36747694015500004	None	0.0	2.0	squareblue.gif	stop																									2.19	0.513967990875	0.0009059906005860001	0.367476940155	1.0	s	571.548017025																																	2015_Jul_06_1123	59.7196767341	LearningTask	1	77	
123																				0.0	0.0	0.0	0.0																																																																															9.0	23.4643437862																								2015_Jul_06_1123	59.7196767341	LearningTask	1	77	
124	-200.0	q	200.0																	1.0	0.0	1.0	0.0	0.0	0.0	0.0	1.0																													q	1.0	0.467876911163	None	0.0	1.0	hexagonwhite.gif	stop																									1.21	0.509400129318	0.000942945480347	0.467876911163	1.0	q	598.462172985																																	2015_Jul_06_1123	59.7196767341	LearningTask	1	77	
125	-200.0	q	200.0																	1.0	0.0	1.0	0.0	0.0	1.0	1.0	1.0																													q	1.0	0.38442301750200003	None	0.0	4.0	crossmagenta.gif	stop																									0.0	0.51368689537	0.000917911529541	0.384423017502	1.0	q	601.4652030469999																																	2015_Jul_06_1123	59.7196767341	LearningTask	1	77	
126	-200.0	a	-200.0																	1.0	0.0	1.0	0.0	0.0	2.0	2.0	3.0																													a	1.0	0.41796302795400003	None	0.0	1.0	diamondgray.gif	go																									1.1	0.514012813568	0.000918865203857	0.417963027954	1.0	a	604.468379021																																	2015_Jul_06_1123	59.7196767341	LearningTask	1	77	
127	-200.0	q	200.0																	1.0	0.0	1.0	0.0	0.0	3.0	3.0	1.0																													q	1.0	0.384207010269	None	0.0	0.5	invertedtrianglecyan.gif	stop																									0.49	0.514297962189	0.00089693069458	0.384207010269	1.0	q	607.4716749190001																																	2015_Jul_06_1123	59.7196767341	LearningTask	1	77	
128	-200.0	q	200.0																	1.0	0.0	1.0	0.0	1.0	0.0	4.0	1.0																													q	1.0	0.384349107742	None	0.0	0.5	circleorange.gif	go																									0.67	0.514345884323	0.0009129047393799999	0.384349107742	1.0	q	610.475414991																																	2015_Jul_06_1123	59.7196767341	LearningTask	1	77	
129	200.0	s	-200.0																	1.0	0.0	1.0	0.0	1.0	1.0	5.0	2.0																													s	1.0	0.38398289680500003	w	0.0	4.0	crossmagenta.gif	stop								0.808222055435																	3.89	0.513994932175	0.0008950233459470001	0.383982896805	1.0	s	613.478430986																																	2015_Jul_06_1123	59.7196767341	LearningTask	1	77	
130	-200.0	q	200.0																	1.0	0.0	1.0	0.0	1.0	2.0	6.0	1.0																													q	1.0	0.384212017059	None	0.0	1.0	diamondgray.gif	go																									0.75	0.514558076859	0.0009279251098630001	0.384212017059	1.0	q	616.481751919																																	2015_Jul_06_1123	59.7196767341	LearningTask	1	77	
131	200.0	w	200.0																	1.0	0.0	1.0	0.0	1.0	3.0	7.0	0.0																													w	1.0	0.334290981293	None	0.0	0.5	circleorange.gif	go																									0.68	0.514773845673	0.000900030136108	0.334290981293	1.0	w	619.485418081																																	2015_Jul_06_1123	59.7196767341	LearningTask	1	77	
132	200.0	w	200.0																	1.0	0.0	1.0	0.0	2.0	0.0	8.0	0.0																													w	1.0	0.434612035751	None	0.0	2.0	squareblue.gif	stop																									0.0	0.513987064362	0.000926971435547	0.434612035751	1.0	w	622.488645077																																	2015_Jul_06_1123	59.7196767341	LearningTask	1	77	
133	-200.0	a	-200.0																	1.0	0.0	1.0	0.0	2.0	1.0	9.0	3.0																													a	1.0	0.400810003281	None	0.0	1.0	diamondgray.gif	go																									1.2	0.514246940613	0.000993013381958	0.400810003281	1.0	a	625.492000103																																	2015_Jul_06_1123	59.7196767341	LearningTask	1	77	
134	-200.0	a	-200.0																	1.0	0.0	1.0	0.0	2.0	2.0	10.0	3.0																													a	1.0	0.450513839722	None	0.0	4.0	triangleyellow.gif	go																									3.91	0.514485120773	0.000900983810425	0.450513839722	1.0	a	628.495409012																																	2015_Jul_06_1123	59.7196767341	LearningTask	1	77	
135	200.0	s	-200.0																	1.0	0.0	1.0	0.0	2.0	3.0	11.0	2.0																													s	1.0	0.36788892746	q	0.0	1.0	diamondgray.gif	go								0.27419090270999996																	1.21	0.51429104805	0.000900983810425	0.36788892746	1.0	s	631.498718977																																	2015_Jul_06_1123	59.7196767341	LearningTask	1	77	
136	200.0	w	200.0																	1.0	0.0	1.0	0.0	3.0	0.0	12.0	0.0																													w	1.0	0.401054143906	None	0.0	2.0	squareblue.gif	stop																									1.93	0.5141508579249999	0.000938892364502	0.401054143906	1.0	w	634.502117872																																	2015_Jul_06_1123	59.7196767341	LearningTask	1	77	
137	200.0	w	200.0																	1.0	0.0	1.0	0.0	3.0	1.0	13.0	0.0																													w	1.0	0.351034879684	None	0.0	1.0	hexagonwhite.gif	stop																									1.07	0.514254808426	0.0009489059448239998	0.351034879684	1.0	w	637.505892992																																	2015_Jul_06_1123	59.7196767341	LearningTask	1	77	
138	-200.0	a	-200.0																	1.0	0.0	1.0	0.0	3.0	2.0	14.0	3.0																													a	1.0	0.417637825012	None	0.0	2.0	squareblue.gif	stop																									1.79	0.514088153839	0.000892162322998	0.417637825012	1.0	a	640.50917697																																	2015_Jul_06_1123	59.7196767341	LearningTask	1	77	
139	200.0	s	-200.0																	1.0	0.0	1.0	0.0	3.0	3.0	15.0	2.0																													s	1.0	0.483869075775	None	0.0	2.0	squareblue.gif	stop																									1.95	0.5140240192409999	0.0009720325469970001	0.483869075775	1.0	s	643.512286901																																	2015_Jul_06_1123	59.7196767341	LearningTask	1	77	
140	200.0	s	-200.0																	1.0	0.0	1.0	0.0	4.0	0.0	16.0	2.0																													s	1.0	0.40055990219099996	q	0.0	0.5	circleorange.gif	go								0.809137821198																	0.45	0.5140829086300001	0.0009047985076900001	0.400559902191	1.0	s	646.515564919																																	2015_Jul_06_1123	59.7196767341	LearningTask	1	77	
141	200.0	s	-200.0																	1.0	0.0	1.0	0.0	4.0	1.0	17.0	2.0																													s	1.0	0.40078902244599995	None	0.0	4.0	triangleyellow.gif	go																									4.2	0.514324188232	0.0008790493011469999	0.400789022446	1.0	s	649.5191130640001																																	2015_Jul_06_1123	59.7196767341	LearningTask	1	77	
142	200.0	w	200.0																	1.0	0.0	1.0	0.0	4.0	2.0	18.0	0.0																													w	1.0	0.33352804184	None	0.0	4.0	crossmagenta.gif	stop																									4.21	0.514069080353	0.000900030136108	0.33352804184	1.0	w	652.5221860409999																																	2015_Jul_06_1123	59.7196767341	LearningTask	1	77	
143	200.0	w	200.0																	1.0	0.0	1.0	0.0	4.0	3.0	19.0	0.0																													w	1.0	0.46803092956500003	None	0.0	0.5	circleorange.gif	go																									0.55	0.514510154724	0.000900030136108	0.468030929565	1.0	w	655.525762081																																	2015_Jul_06_1123	59.7196767341	LearningTask	1	77	
144	200.0	s	-200.0																	1.0	0.0	1.0	0.0	5.0	0.0	20.0	2.0																													s	1.0	0.317818880081	None	0.0	1.0	diamondgray.gif	go																									1.18	0.5142149925230001	0.0008761882781980001	0.317818880081	1.0	s	658.5294780730001																																	2015_Jul_06_1123	59.7196767341	LearningTask	1	77	
145	-200.0	a	-200.0																	1.0	0.0	1.0	0.0	5.0	1.0	21.0	3.0																													a	1.0	0.367308855057	None	0.0	4.0	triangleyellow.gif	go																									3.94	0.514132976532	0.0008790493011469999	0.367308855057	1.0	a	661.532746077																																	2015_Jul_06_1123	59.7196767341	LearningTask	1	77	
146	-200.0	q	200.0																	1.0	0.0	1.0	0.0	5.0	2.0	22.0	1.0																													q	1.0	0.351405143738	q	1.0	0.5	invertedtrianglecyan.gif	stop								0.07309007644650001																	0.5	0.5138700008389999	0.00109195709229	0.351405143738	1.0	q	664.535657883																																	2015_Jul_06_1123	59.7196767341	LearningTask	1	77	
147	-200.0	q	200.0																	1.0	0.0	1.0	0.0	5.0	3.0	23.0	1.0																													q	1.0	0.367635011673	None	0.0	4.0	crossmagenta.gif	stop																									0.0	0.5146160125729999	0.0008790493011469999	0.367378950119	0.0	a	667.5392329690001	0.0	0.515610933304	0.00092887878418	0.367635011673	1.0	q	670.542902946																										2015_Jul_06_1123	59.7196767341	LearningTask	1	77	
148	-200.0	q	200.0																	1.0	0.0	1.0	0.0	6.0	0.0	24.0	1.0																													q	1.0	0.384437084198	None	0.0	4.0	crossmagenta.gif	stop																									4.14	0.513917922974	0.00101804733276	0.384437084198	1.0	q	673.545964003																																	2015_Jul_06_1123	59.7196767341	LearningTask	1	77	
149	200.0	w	200.0																	1.0	0.0	1.0	0.0	6.0	1.0	25.0	0.0																													w	1.0	0.500808954239	None	0.0	1.0	hexagonwhite.gif	stop																									0.94	0.51446890831	0.000938892364502	0.500808954239	1.0	w	676.549463987																																	2015_Jul_06_1123	59.7196767341	LearningTask	1	77	
150	-200.0	q	200.0																	1.0	0.0	1.0	0.0	6.0	2.0	26.0	1.0																													q	1.0	0.551362991333	None	0.0	1.0	diamondgray.gif	go																									1.14	0.514177083969	0.0008769035339360002	0.551362991333	1.0	q	679.552615881																																	2015_Jul_06_1123	59.7196767341	LearningTask	1	77	
151	200.0	s	-200.0																	1.0	0.0	1.0	0.0	6.0	3.0	27.0	2.0																													s	1.0	0.484476089478	None	0.0	2.0	linegreen.gif	go																									0.0	0.514359951019	0.0009279251098630001	0.484476089478	1.0	s	682.556065083																																	2015_Jul_06_1123	59.7196767341	LearningTask	1	77	
152	-200.0	a	-200.0																	1.0	0.0	1.0	0.0	7.0	0.0	28.0	3.0																													a	1.0	0.41768193244900004	None	0.0	2.0	linegreen.gif	go																									0.0	0.5143098831180001	0.0008769035339360002	0.417681932449	1.0	a	685.55942297																																	2015_Jul_06_1123	59.7196767341	LearningTask	1	77	
153	200.0	w	200.0																	1.0	0.0	1.0	0.0	7.0	1.0	29.0	0.0																													w	1.0	0.35084700584399997	None	0.0	1.0	hexagonwhite.gif	stop																									0.82	0.5144309997559999	0.0009031295776369999	0.350847005844	1.0	w	688.563184977																																	2015_Jul_06_1123	59.7196767341	LearningTask	1	77	
154	200.0	s	-200.0																	1.0	0.0	1.0	0.0	7.0	2.0	30.0	2.0																													s	1.0	0.350369930267	None	0.0	0.5	circleorange.gif	go																									0.0	0.514184951782	0.000913143157959	0.350369930267	1.0	s	691.566210985																																	2015_Jul_06_1123	59.7196767341	LearningTask	1	77	
155	200.0	s	-200.0																	1.0	0.0	1.0	0.0	7.0	3.0	31.0	2.0																													s	1.0	0.35107493400600004	None	0.0	0.5	invertedtrianglecyan.gif	stop																									0.35	0.514412164688	0.0008859634399410001	0.351074934006	1.0	s	694.569504023																																	2015_Jul_06_1123	59.7196767341	LearningTask	1	77	
156	-200.0	q	200.0																	1.0	0.0	1.0	0.0	8.0	0.0	32.0	1.0																													q	1.0	0.43405699729900005	None	0.0	2.0	linegreen.gif	go																									1.86	0.514376878738	0.00102400779724	0.434056997299	1.0	q	697.573153973																																	2015_Jul_06_1123	59.7196767341	LearningTask	1	77	
157	200.0	w	200.0																	1.0	0.0	1.0	0.0	8.0	1.0	33.0	0.0																													w	1.0	0.367880105972	None	0.0	2.0	linegreen.gif	go																									2.2	0.514197826385	0.0009129047393799999	0.367880105972	1.0	w	700.576286077																																	2015_Jul_06_1123	59.7196767341	LearningTask	1	77	
158	-200.0	q	200.0																	1.0	0.0	1.0	0.0	8.0	2.0	34.0	1.0																													q	1.0	0.38430094718900004	None	0.0	1.0	diamondgray.gif	go																									0.0	0.5144300460819999	0.0008740425109860002	0.384300947189	1.0	q	703.579698086																																	2015_Jul_06_1123	59.7196767341	LearningTask	1	77	
159	200.0	s	-200.0																	1.0	0.0	1.0	0.0	8.0	3.0	35.0	2.0																													s	1.0	0.50127196312	None	0.0	2.0	linegreen.gif	go																									1.94	0.514380216599	0.0008761882781980001	0.50127196312	1.0	s	706.583553076																																	2015_Jul_06_1123	59.7196767341	LearningTask	1	77	
160	200.0	w	200.0																	1.0	0.0	1.0	0.0	9.0	0.0	36.0	0.0																													w	1.0	0.35068106651299996	None	0.0	4.0	triangleyellow.gif	go																									4.04	0.5138390064239999	0.0008831024169919999	0.350681066513	1.0	w	709.586481094																																	2015_Jul_06_1123	59.7196767341	LearningTask	1	77	
161	-200.0	a	-200.0																	1.0	0.0	1.0	0.0	9.0	1.0	37.0	3.0																													a	1.0	0.484110116959	None	0.0	0.5	invertedtrianglecyan.gif	stop																									0.71	0.514240980148	0.0009560585021970001	0.484110116959	1.0	a	712.590125084																																	2015_Jul_06_1123	59.7196767341	LearningTask	1	77	
162	-200.0	q	200.0																	1.0	0.0	1.0	0.0	9.0	2.0	38.0	1.0																													q	1.0	0.38427305221600006	None	0.0	1.0	hexagonwhite.gif	stop																									1.11	0.51406288147	0.000881910324097	0.384273052216	1.0	q	715.5932810310001																																	2015_Jul_06_1123	59.7196767341	LearningTask	1	77	
163	200.0	s	-200.0																	1.0	0.0	1.0	0.0	9.0	3.0	39.0	2.0																													s	1.0	0.401453971863	None	0.0	2.0	squareblue.gif	stop																									2.16	0.514137983322	0.0008640289306639999	0.401453971863	1.0	s	718.5965840819999																																	2015_Jul_06_1123	59.7196767341	LearningTask	1	77	
164	200.0	s	-200.0																	1.0	0.0	1.0	0.0	10.0	0.0	40.0	2.0																													s	1.0	0.434492111206	None	0.0	0.5	circleorange.gif	go																									0.29	0.5142819881440001	0.0009729862213130002	0.434492111206	1.0	s	721.600277901																																	2015_Jul_06_1123	59.7196767341	LearningTask	1	77	
165	-200.0	a	-200.0																	1.0	0.0	1.0	0.0	10.0	1.0	41.0	3.0																													a	1.0	0.43492412567100003	None	0.0	2.0	linegreen.gif	go																									2.02	0.514036893845	0.000881910324097	0.434924125671	1.0	a	724.603296995																																	2015_Jul_06_1123	59.7196767341	LearningTask	1	77	
166	200.0	s	-200.0																	1.0	0.0	1.0	0.0	10.0	2.0	42.0	2.0																													s	1.0	0.401135921478	None	0.0	4.0	crossmagenta.gif	stop																									0.0	0.514168977737	0.000885009765625	0.401135921478	1.0	s	727.607009888																																	2015_Jul_06_1123	59.7196767341	LearningTask	1	77	
167	200.0	w	200.0																	1.0	0.0	1.0	0.0	10.0	3.0	43.0	0.0																													w	1.0	0.333549976349	None	0.0	2.0	linegreen.gif	go																									2.12	0.514286994934	0.000909090042114	0.333549976349	1.0	w	730.610198975																																	2015_Jul_06_1123	59.7196767341	LearningTask	1	77	
168	-200.0	a	-200.0																	1.0	0.0	1.0	0.0	11.0	0.0	44.0	3.0																													a	1.0	0.384164810181	None	0.0	4.0	triangleyellow.gif	go																									4.03	0.5143940448759999	0.0008740425109860002	0.384164810181	1.0	a	733.6135349269999																																	2015_Jul_06_1123	59.7196767341	LearningTask	1	77	
169	200.0	w	200.0																	1.0	0.0	1.0	0.0	11.0	1.0	45.0	0.0																													w	1.0	0.434287071228	None	0.0	4.0	crossmagenta.gif	stop																									3.85	0.514322042465	0.0011570453643800001	0.434287071228	1.0	w	736.616892099																																	2015_Jul_06_1123	59.7196767341	LearningTask	1	77	
170	-200.0	q	200.0																	1.0	0.0	1.0	0.0	11.0	2.0	46.0	1.0																													q	1.0	0.350641012192	None	0.0	2.0	squareblue.gif	stop																									2.08	0.514079093933	0.0009119510650630002	0.350641012192	1.0	q	739.620203972																																	2015_Jul_06_1123	59.7196767341	LearningTask	1	77	
171	-200.0	a	-200.0																	1.0	0.0	1.0	0.0	11.0	3.0	47.0	3.0																													a	1.0	0.417569875717	None	0.0	4.0	triangleyellow.gif	go																									3.92	0.514248132706	0.0008740425109860002	0.417569875717	1.0	a	742.6236350539999																																	2015_Jul_06_1123	59.7196767341	LearningTask	1	77	
172	-200.0	a	-200.0																	1.0	0.0	1.0	0.0	12.0	0.0	48.0	3.0																													a	1.0	0.51754283905	None	0.0	4.0	triangleyellow.gif	go																									3.79	0.514418840408	0.0008718967437739999	0.51754283905	1.0	a	745.627321005																																	2015_Jul_06_1123	59.7196767341	LearningTask	1	77	
173	200.0	w	200.0																	1.0	0.0	1.0	0.0	12.0	1.0	49.0	0.0																													w	1.0	0.6175618171689999	None	0.0	0.5	invertedtrianglecyan.gif	stop																									0.52	0.514074087143	0.000888109207153	0.617561817169	1.0	w	748.6303238869999																																	2015_Jul_06_1123	59.7196767341	LearningTask	1	77	
174	200.0	w	200.0																	1.0	0.0	1.0	0.0	12.0	2.0	50.0	0.0																													w	1.0	0.41760206222499996	None	0.0	1.0	hexagonwhite.gif	stop																									1.2	0.514348983765	0.00142097473145	0.417602062225	1.0	w	751.63359189																																	2015_Jul_06_1123	59.7196767341	LearningTask	1	77	
175	200.0	w	200.0																	1.0	0.0	1.0	0.0	12.0	3.0	51.0	0.0																													w	1.0	0.334075927734	None	0.0	0.5	invertedtrianglecyan.gif	stop																									0.0	0.514517068863	0.00088095664978	0.334075927734	1.0	w	754.6372070310001																																	2015_Jul_06_1123	59.7196767341	LearningTask	1	77	
176	-200.0	a	-200.0																	1.0	0.0	1.0	0.0	13.0	0.0	52.0	3.0																													a	1.0	0.384046077728	None	0.0	4.0	crossmagenta.gif	stop																									3.8	0.514226913452	0.00116276741028	0.384046077728	1.0	a	757.6405920980001																																	2015_Jul_06_1123	59.7196767341	LearningTask	1	77	
177	200.0	s	-200.0																	1.0	0.0	1.0	0.0	13.0	1.0	53.0	2.0																													s	1.0	0.384105920792	q	0.0	4.0	triangleyellow.gif	go								0.292078018188																	4.09	0.51410984993	0.000926971435547	0.384105920792	1.0	s	760.643693924																																	2015_Jul_06_1123	59.7196767341	LearningTask	1	77	
178	-200.0	q	200.0																	1.0	0.0	1.0	0.0	13.0	2.0	54.0	1.0																													q	1.0	0.367358922958	None	0.0	4.0	triangleyellow.gif	go																									3.96	0.514531135559	0.000880002975464	0.367358922958	1.0	q	763.647264957																																	2015_Jul_06_1123	59.7196767341	LearningTask	1	77	
179	-200.0	a	-200.0																	1.0	0.0	1.0	0.0	13.0	3.0	55.0	3.0																													a	1.0	0.38431286811800003	q	0.0	4.0	triangleyellow.gif	go								0.758563995361																	4.1	0.514106035233	0.0008859634399410001	0.384312868118	1.0	a	766.650605917																																	2015_Jul_06_1123	59.7196767341	LearningTask	1	77	
180	200.0	w	200.0																	1.0	0.0	1.0	0.0	14.0	0.0	56.0	0.0																													w	1.0	0.40016579628	None	0.0	2.0	squareblue.gif	stop																									1.79	0.514303922653	0.0010249614715599998	0.40016579628	1.0	w	769.6538949010001																																	2015_Jul_06_1123	59.7196767341	LearningTask	1	77	
181	200.0	s	-200.0																	1.0	0.0	1.0	0.0	14.0	1.0	57.0	2.0																													s	1.0	0.400385141373	None	0.0	0.5	circleorange.gif	go																									0.48	0.514425992966	0.000885009765625	0.400385141373	1.0	s	772.657295942																																	2015_Jul_06_1123	59.7196767341	LearningTask	1	77	
182	-200.0	q	200.0																	1.0	0.0	1.0	0.0	14.0	2.0	58.0	1.0																													q	1.0	0.384014844894	None	0.0	0.5	invertedtrianglecyan.gif	stop																									0.29	0.514537096024	0.0008749961853029999	0.384014844894	1.0	q	775.660815954																																	2015_Jul_06_1123	59.7196767341	LearningTask	1	77	
183	200.0	w	200.0																	1.0	0.0	1.0	0.0	14.0	3.0	59.0	0.0																													w	1.0	0.317597150803	None	0.0	0.5	invertedtrianglecyan.gif	stop																									0.0	0.513653039932	0.00119709968567	0.317597150803	1.0	w	778.66407609																																	2015_Jul_06_1123	59.7196767341	LearningTask	1	77	
184	-200.0	a	-200.0																	1.0	0.0	1.0	0.0	15.0	0.0	60.0	3.0																													a	1.0	0.43404984474200003	None	0.0	1.0	hexagonwhite.gif	stop																									1.12	0.514602184296	0.000877141952515	0.434049844742	1.0	a	781.6676259039999																																	2015_Jul_06_1123	59.7196767341	LearningTask	1	77	
185	-200.0	a	-200.0																	1.0	0.0	1.0	0.0	15.0	1.0	61.0	3.0																													a	1.0	0.417490005493	None	0.0	0.5	invertedtrianglecyan.gif	stop																									0.0	0.5141248703	0.0008869171142580001	0.417490005493	1.0	a	784.670952082																																	2015_Jul_06_1123	59.7196767341	LearningTask	1	77	
186	-200.0	a	-200.0																	1.0	0.0	1.0	0.0	15.0	2.0	62.0	3.0																													a	1.0	0.40062999725299997	None	0.0	1.0	hexagonwhite.gif	stop																									1.05	0.514206886292	0.0008709430694580001	0.400629997253	1.0	a	787.674258947																																	2015_Jul_06_1123	59.7196767341	LearningTask	1	77	
187	200.0	s	-200.0																	1.0	0.0	1.0	0.0	15.0	3.0	63.0	2.0																													s	1.0	0.36783504486100005	None	0.0	2.0	squareblue.gif	stop																									1.83	0.51432800293	0.000862121582031	0.367835044861	1.0	s	790.677599907																																	2015_Jul_06_1123	59.7196767341	LearningTask	1	77	
188	200.0	s	-200.0																	1.0	0.0	1.0	0.0	16.0	0.0	64.0	2.0																													s	1.0	0.33430886268599996	None	0.0	1.0	diamondgray.gif	go																									1.11	0.514257907867	0.0008869171142580001	0.334308862686	1.0	s	793.681292057																																	2015_Jul_06_1123	59.7196767341	LearningTask	1	77	
189	200.0	s	-200.0																	1.0	0.0	1.0	0.0	16.0	1.0	65.0	2.0																													s	1.0	0.36750793456999997	None	0.0	0.5	invertedtrianglecyan.gif	stop																									0.74	0.513881206512	0.0008862018585209999	0.36750793457	1.0	s	796.684360027																																	2015_Jul_06_1123	59.7196767341	LearningTask	1	77	
190	200.0	w	200.0																	1.0	0.0	1.0	0.0	16.0	2.0	66.0	0.0																													w	1.0	0.400926828384	None	0.0	4.0	triangleyellow.gif	go																									3.86	0.514189958572	0.000904083251953	0.400926828384	1.0	w	799.687542915																																	2015_Jul_06_1123	59.7196767341	LearningTask	1	77	
191	200.0	w	200.0																	1.0	0.0	1.0	0.0	16.0	3.0	67.0	0.0																													w	1.0	0.384077072144	None	0.0	2.0	squareblue.gif	stop																									1.91	0.514522075653	0.0008909702301030001	0.384077072144	1.0	w	802.691127062																																	2015_Jul_06_1123	59.7196767341	LearningTask	1	77	
192	-200.0	q	200.0																	1.0	0.0	1.0	0.0	17.0	0.0	68.0	1.0																													q	1.0	0.4844739437100001	q	1.0	1.0	diamondgray.gif	go								0.7918829917910001																	0.84	0.514573097229	0.0008709430694580001	0.48447394371	1.0	q	805.6945869919999																																	2015_Jul_06_1123	59.7196767341	LearningTask	1	77	
193	-200.0	q	200.0																	1.0	0.0	1.0	0.0	17.0	1.0	69.0	1.0																													q	1.0	0.451297044754	None	0.0	1.0	hexagonwhite.gif	stop																									1.2	0.514158964157	0.0009679794311519998	0.451297044754	1.0	q	808.6982159610001																																	2015_Jul_06_1123	59.7196767341	LearningTask	1	77	
194	-200.0	a	-200.0																	1.0	0.0	1.0	0.0	17.0	2.0	70.0	3.0																													a	1.0	0.484738111496	None	0.0	4.0	triangleyellow.gif	go																									4.14	0.5139930248260001	0.00115609169006	0.484738111496	1.0	a	811.7012100219999																																	2015_Jul_06_1123	59.7196767341	LearningTask	1	77	
195	-200.0	q	200.0																	1.0	0.0	1.0	0.0	17.0	3.0	71.0	1.0																													q	1.0	0.45130801200900006	None	0.0	2.0	linegreen.gif	go																									2.07	0.514322042465	0.0008790493011469999	0.451308012009	1.0	q	814.7045929430001																																	2015_Jul_06_1123	59.7196767341	LearningTask	1	77	
196	-200.0	q	200.0																	1.0	0.0	1.0	0.0	18.0	0.0	72.0	1.0																													q	1.0	0.48444986343400004	None	0.0	2.0	linegreen.gif	go																									2.11	0.5139780044560001	0.00100898742676	0.484449863434	1.0	q	817.707931995																																	2015_Jul_06_1123	59.7196767341	LearningTask	1	77	
197	-200.0	q	200.0																	1.0	0.0	1.0	0.0	18.0	1.0	73.0	1.0																													q	1.0	0.417520999908	None	0.0	0.5	invertedtrianglecyan.gif	stop																									0.72	0.514305830002	0.000888824462891	0.417520999908	1.0	q	820.7113459110001																																	2015_Jul_06_1123	59.7196767341	LearningTask	1	77	
198	200.0	s	-200.0																	1.0	0.0	1.0	0.0	18.0	2.0	74.0	2.0																													s	1.0	0.6011290550230001	None	0.0	4.0	triangleyellow.gif	go																									4.16	0.514359951019	0.0008940696716310001	0.601129055023	1.0	s	823.714926004																																	2015_Jul_06_1123	59.7196767341	LearningTask	1	77	
199	-200.0	a	-200.0																	1.0	0.0	1.0	0.0	18.0	3.0	75.0	3.0																													a	1.0	0.384481906891	None	0.0	0.5	invertedtrianglecyan.gif	stop																									0.35	0.514089107513	0.0009169578552250001	0.384481906891	1.0	a	826.7182009219999																																	2015_Jul_06_1123	59.7196767341	LearningTask	1	77	
200	-200.0	q	200.0																	1.0	0.0	1.0	0.0	19.0	0.0	76.0	1.0																													q	1.0	0.668022871017	None	0.0	0.5	circleorange.gif	go																									0.71	0.5142371654510001	0.000900030136108	0.668022871017	1.0	q	829.721504927																																	2015_Jul_06_1123	59.7196767341	LearningTask	1	77	
201	200.0	w	200.0																	1.0	0.0	1.0	0.0	19.0	1.0	77.0	0.0																													w	1.0	0.48466420173600006	None	0.0	2.0	squareblue.gif	stop																									0.0	0.513997077942	0.0008721351623539999	0.250921964645	0.0	q	832.724759102	0.0	0.515579938889	0.000942945480347	0.48466420173600006	1.0	w	835.728174925																										2015_Jul_06_1123	59.7196767341	LearningTask	1	77	
202	200.0	s	-200.0																	1.0	0.0	1.0	0.0	19.0	2.0	78.0	2.0																													s	1.0	0.38438796997100005	None	0.0	1.0	diamondgray.gif	go																									0.0	0.5143940448759999	0.000880002975464	[]	0.0	None	838.731561899	0.75	0.515781164169	0.00094199180603	0.38438796997100005	1.0	s	841.7352499960001																										2015_Jul_06_1123	59.7196767341	LearningTask	1	77	
203	200.0	s	-200.0																	1.0	0.0	1.0	0.0	19.0	3.0	79.0	2.0																													s	1.0	0.41788005828900004	q	0.0	0.5	invertedtrianglecyan.gif	stop								0.258496046066																	0.0	0.514078855515	0.0008838176727290001	0.417880058289	1.0	s	844.738301992																																	2015_Jul_06_1123	59.7196767341	LearningTask	1	77	
204	-200.0	a	-200.0																	1.0	0.0	1.0	0.0	20.0	0.0	80.0	3.0																													a	1.0	0.367829084396	None	0.0	0.5	invertedtrianglecyan.gif	stop																									0.39	0.514366149902	0.00101017951965	0.367829084396	1.0	a	847.741935015																																	2015_Jul_06_1123	59.7196767341	LearningTask	1	77	
205	200.0	s	-200.0																	1.0	0.0	1.0	0.0	20.0	1.0	81.0	2.0																													s	1.0	0.384183883667	None	0.0	2.0	linegreen.gif	go																									2.15	0.513992071152	0.0008790493011469999	0.384183883667	1.0	s	850.7451310160001																																	2015_Jul_06_1123	59.7196767341	LearningTask	1	77	
206	-200.0	q	200.0																	1.0	0.0	1.0	0.0	20.0	2.0	82.0	1.0																													q	1.0	0.41743779182400004	None	0.0	1.0	diamondgray.gif	go																									1.0	0.514086008072	0.0008790493011469999	0.417437791824	1.0	q	853.7485170360001																																	2015_Jul_06_1123	59.7196767341	LearningTask	1	77	
207	-200.0	q	200.0																	1.0	0.0	1.0	0.0	20.0	3.0	83.0	1.0																													q	1.0	0.484342098236	w	0.0	4.0	crossmagenta.gif	stop								0.592191934586																	4.07	0.514153003693	0.00103402137756	0.484342098236	1.0	q	856.7519838810001																																	2015_Jul_06_1123	59.7196767341	LearningTask	1	77	
208	200.0	s	-200.0																	1.0	0.0	1.0	0.0	21.0	0.0	84.0	2.0																													s	1.0	0.450934886932	None	0.0	4.0	triangleyellow.gif	go																									3.86	0.514177083969	0.0008790493011469999	0.450934886932	1.0	s	859.7552430630001																																	2015_Jul_06_1123	59.7196767341	LearningTask	1	77	
209	-200.0	a	-200.0																	1.0	0.0	1.0	0.0	21.0	1.0	85.0	3.0																													a	1.0	0.468273878098	None	0.0	1.0	hexagonwhite.gif	stop																									1.13	0.514213085175	0.0008831024169919999	0.468273878098	1.0	a	862.758518934																																	2015_Jul_06_1123	59.7196767341	LearningTask	1	77	
210	200.0	w	200.0																	1.0	0.0	1.0	0.0	21.0	2.0	86.0	0.0																													w	1.0	0.484304189682	None	0.0	0.5	invertedtrianglecyan.gif	stop																									0.59	0.514350891113	0.00123190879822	0.484304189682	1.0	w	865.7618448730001																																	2015_Jul_06_1123	59.7196767341	LearningTask	1	77	
211	200.0	s	-200.0																	1.0	0.0	1.0	0.0	21.0	3.0	87.0	2.0																													s	1.0	0.434279918671	None	0.0	1.0	hexagonwhite.gif	stop																									1.04	0.514619827271	0.0008838176727290001	0.434279918671	1.0	s	868.76531601																																	2015_Jul_06_1123	59.7196767341	LearningTask	1	77	
212	-200.0	a	-200.0																	1.0	0.0	1.0	0.0	22.0	0.0	88.0	3.0																													a	1.0	0.551453828812	None	0.0	2.0	linegreen.gif	go																									0.0	0.514314889908	0.0008759498596189999	0.551453828812	1.0	a	871.769016981																																	2015_Jul_06_1123	59.7196767341	LearningTask	1	77	
213	200.0	w	200.0																	1.0	0.0	1.0	0.0	22.0	1.0	89.0	0.0																													w	1.0	0.450489044189	None	0.0	1.0	hexagonwhite.gif	stop																									0.0	0.5139698982240001	0.000923871994019	0.450489044189	1.0	w	874.772119999																																	2015_Jul_06_1123	59.7196767341	LearningTask	1	77	
214	200.0	w	200.0																	1.0	0.0	1.0	0.0	22.0	2.0	90.0	0.0																													w	1.0	0.45124411582900004	None	0.0	0.5	circleorange.gif	go																									0.33	0.514142990112	0.000880002975464	0.451244115829	1.0	w	877.775479078																																	2015_Jul_06_1123	59.7196767341	LearningTask	1	77	
215	200.0	w	200.0																	1.0	0.0	1.0	0.0	22.0	3.0	91.0	0.0																													w	1.0	0.451297044754	None	0.0	1.0	hexagonwhite.gif	stop																									0.8	0.514315128326	0.0008780956268310002	0.451297044754	1.0	w	880.7790939810001																																	2015_Jul_06_1123	59.7196767341	LearningTask	1	77	
216	-200.0	a	-200.0																	1.0	0.0	1.0	0.0	23.0	0.0	92.0	3.0																													a	1.0	0.567008972168	w	0.0	4.0	crossmagenta.gif	stop								0.058987855911300006																	0.0	0.514196872711	0.00089693069458	0.567008972168	1.0	a	883.7821979519999																																	2015_Jul_06_1123	59.7196767341	LearningTask	1	77	
217	-200.0	q	200.0																	1.0	0.0	1.0	0.0	23.0	1.0	93.0	1.0																													q	1.0	0.534533977509	None	0.0	0.5	circleorange.gif	go																									0.52	0.514369010925	0.000890016555786	0.534533977509	1.0	q	886.785476923																																	2015_Jul_06_1123	59.7196767341	LearningTask	1	77	
218	-200.0	a	-200.0																	1.0	0.0	1.0	0.0	23.0	2.0	94.0	3.0																													a	1.0	0.517810106277	None	0.0	0.5	invertedtrianglecyan.gif	stop																									0.49	0.5145049095149999	0.000880002975464	0.517810106277	1.0	a	889.78923893																																	2015_Jul_06_1123	59.7196767341	LearningTask	1	77	
219	-200.0	a	-200.0																	1.0	0.0	1.0	0.0	23.0	3.0	95.0	3.0																													a	1.0	0.634575128555	None	0.0	1.0	hexagonwhite.gif	stop																									0.0	0.514050006866	0.0009019374847410001	0.634575128555	1.0	a	892.792185068																																	2015_Jul_06_1123	59.7196767341	LearningTask	1	77	
220	-200.0	a	-200.0																	1.0	0.0	1.0	0.0	24.0	0.0	96.0	3.0																													a	1.0	0.43381905555699996	None	0.0	4.0	crossmagenta.gif	stop																									4.0	0.5145409107209999	0.00103092193604	0.433819055557	1.0	a	895.7955379489999																																	2015_Jul_06_1123	59.7196767341	LearningTask	1	77	
221	-200.0	q	200.0																	1.0	0.0	1.0	0.0	24.0	1.0	97.0	1.0																													q	1.0	0.48433804511999995	q	1.0	2.0	squareblue.gif	stop								0.77504992485																	2.01	0.5143408775330001	0.0011987686157200002	0.48433804512	1.0	q	898.7992780210001																																	2015_Jul_06_1123	59.7196767341	LearningTask	1	77	
222	200.0	w	200.0																	1.0	0.0	1.0	0.0	24.0	2.0	98.0	0.0																													w	1.0	0.41806006431599996	None	0.0	0.5	invertedtrianglecyan.gif	stop																									0.41	0.514158964157	0.00089693069458	0.418060064316	1.0	w	901.8023169039999																																	2015_Jul_06_1123	59.7196767341	LearningTask	1	77	
223	200.0	s	-200.0																	1.0	0.0	1.0	0.0	24.0	3.0	99.0	2.0																													s	1.0	0.467824935913	None	0.0	0.5	circleorange.gif	go																									0.72	0.51441693306	0.00102591514587	0.467824935913	1.0	s	904.8059020039999																																	2015_Jul_06_1123	59.7196767341	LearningTask	1	77	
224																				1.0	0.0	1.0	0.0																																																																															9.0	36.267991066																								2015_Jul_06_1123	59.7196767341	LearningTask	1	77	
225	200.0	w	200.0																	2.0	0.0	2.0	0.0	0.0	0.0	0.0	0.0																													w	1.0	0.38421392440800006	None	0.0	4.0	crossmagenta.gif	stop																									3.89	0.510360002518	0.0009119510650630002	0.384213924408	1.0	w	944.7515408989999																																	2015_Jul_06_1123	59.7196767341	LearningTask	1	77	
226	200.0	s	-200.0																	2.0	0.0	2.0	0.0	0.0	1.0	1.0	2.0																													s	1.0	0.5008778572079999	None	0.0	4.0	crossmagenta.gif	stop																									0.0	0.513517141342	0.00088095664978	0.500877857208	1.0	s	947.754221916																																	2015_Jul_06_1123	59.7196767341	LearningTask	1	77	
227	-200.0	a	-200.0																	2.0	0.0	2.0	0.0	0.0	2.0	2.0	3.0																													a	1.0	0.451017141342	None	0.0	1.0	hexagonwhite.gif	stop																									1.24	0.514199018478	0.0009379386901860002	0.451017141342	1.0	a	950.7574560639999																																	2015_Jul_06_1123	59.7196767341	LearningTask	1	77	
228	-200.0	a	-200.0																	2.0	0.0	2.0	0.0	0.0	3.0	3.0	3.0																													a	1.0	0.500866174698	None	0.0	4.0	triangleyellow.gif	go																									3.79	0.514101982117	0.0009582042694089999	0.500866174698	1.0	a	953.760854006																																	2015_Jul_06_1123	59.7196767341	LearningTask	1	77	
229	-200.0	a	-200.0																	2.0	0.0	2.0	0.0	1.0	0.0	4.0	3.0																													a	1.0	0.450981140137	None	0.0	2.0	linegreen.gif	go																									1.85	0.514369010925	0.000881195068359	0.450981140137	1.0	a	956.764139891																																	2015_Jul_06_1123	59.7196767341	LearningTask	1	77	
230	-200.0	a	-200.0																	2.0	0.0	2.0	0.0	1.0	1.0	5.0	3.0																													a	1.0	0.417915821075	q	0.0	4.0	triangleyellow.gif	go								0.842299938202																	0.0	0.5140399932859999	0.0008821487426760002	0.417915821075	1.0	a	959.7674319739999																																	2015_Jul_06_1123	59.7196767341	LearningTask	1	77	
231	200.0	s	-200.0																	2.0	0.0	2.0	0.0	1.0	2.0	6.0	2.0																													s	1.0	0.43422198295599995	None	0.0	1.0	diamondgray.gif	go																									0.82	0.514467954636	0.000900030136108	0.434221982956	1.0	s	962.77088809																																	2015_Jul_06_1123	59.7196767341	LearningTask	1	77	
232	200.0	s	-200.0																	2.0	0.0	2.0	0.0	1.0	3.0	7.0	2.0																													s	1.0	0.501331806183	None	0.0	2.0	squareblue.gif	stop																									2.09	0.514400959015	0.0008721351623539999	0.501331806183	1.0	s	965.7744870189999																																	2015_Jul_06_1123	59.7196767341	LearningTask	1	77	
233	-200.0	q	200.0																	2.0	0.0	2.0	0.0	2.0	0.0	8.0	1.0																													q	1.0	0.450935125351	None	0.0	0.5	circleorange.gif	go																									0.0	0.5140600204469999	0.0008959770202639998	0.450935125351	1.0	q	968.778189898																																	2015_Jul_06_1123	59.7196767341	LearningTask	1	77	
234	-200.0	a	-200.0																	2.0	0.0	2.0	0.0	2.0	1.0	9.0	3.0																													a	1.0	0.38484787941	None	0.0	4.0	crossmagenta.gif	stop																									3.99	0.513672828674	0.00088095664978	0.38484787941	1.0	a	971.781233072																																	2015_Jul_06_1123	59.7196767341	LearningTask	1	77	
235	200.0	s	-200.0																	2.0	0.0	2.0	0.0	2.0	2.0	10.0	2.0																													s	1.0	0.31768488884	None	0.0	1.0	hexagonwhite.gif	stop																									1.11	0.513842821121	0.00112295150757	0.31768488884	1.0	s	974.7846920489999																																	2015_Jul_06_1123	59.7196767341	LearningTask	1	77	
236	200.0	s	-200.0																	2.0	0.0	2.0	0.0	2.0	3.0	11.0	2.0																													s	1.0	0.317408084869	None	0.0	1.0	diamondgray.gif	go																									0.0	0.514323949814	0.0008780956268310002	0.133686065674	0.0	q	977.7879419330001	0.0	0.515533924103	0.000941038131714	0.317408084869	1.0	s	980.7913520339999																										2015_Jul_06_1123	59.7196767341	LearningTask	1	77	
237	200.0	s	-200.0																	2.0	0.0	2.0	0.0	3.0	0.0	12.0	2.0																													s	1.0	0.43463206291199996	None	0.0	4.0	triangleyellow.gif	go																									3.88	0.513995885849	0.00095009803772	0.434632062912	1.0	s	983.7946510310001																																	2015_Jul_06_1123	59.7196767341	LearningTask	1	77	
238	-200.0	q	200.0																	2.0	0.0	2.0	0.0	3.0	1.0	13.0	1.0																													q	1.0	0.401444911957	None	0.0	0.5	invertedtrianglecyan.gif	stop																									0.32	0.514302015305	0.000888824462891	0.401444911957	1.0	q	986.798016071																																	2015_Jul_06_1123	59.7196767341	LearningTask	1	77	
239	-200.0	a	-200.0																	2.0	0.0	2.0	0.0	3.0	2.0	14.0	3.0																													a	1.0	0.46776485443099997	None	0.0	0.5	invertedtrianglecyan.gif	stop																									0.27	0.514295816422	0.0009148120880130001	0.467764854431	1.0	a	989.801481009																																	2015_Jul_06_1123	59.7196767341	LearningTask	1	77	
240	200.0	w	200.0																	2.0	0.0	2.0	0.0	3.0	3.0	15.0	0.0																													w	1.0	0.451252222061	None	0.0	2.0	squareblue.gif	stop																									0.0	0.514037132263	0.000941038131714	0.451252222061	1.0	w	992.804704905																																	2015_Jul_06_1123	59.7196767341	LearningTask	1	77	
241	-200.0	a	-200.0																	2.0	0.0	2.0	0.0	4.0	0.0	16.0	3.0																													a	1.0	0.383554935455	None	0.0	1.0	hexagonwhite.gif	stop																									1.16	0.5144519805910001	0.000880002975464	0.383554935455	1.0	a	995.808197975																																	2015_Jul_06_1123	59.7196767341	LearningTask	1	77	
242	200.0	w	200.0																	2.0	0.0	2.0	0.0	4.0	1.0	17.0	0.0																													w	1.0	0.45110201835600006	None	0.0	0.5	circleorange.gif	go																									0.0	0.513989925385	0.0009379386901860002	0.451102018356	1.0	w	998.8115179539999																																	2015_Jul_06_1123	59.7196767341	LearningTask	1	77	
243	-200.0	q	200.0																	2.0	0.0	2.0	0.0	4.0	2.0	18.0	1.0																													q	1.0	0.351413965225	None	0.0	1.0	diamondgray.gif	go																									0.86	0.513900995255	0.0008950233459470001	0.351413965225	1.0	q	1001.81483388																																	2015_Jul_06_1123	59.7196767341	LearningTask	1	77	
244	200.0	w	200.0																	2.0	0.0	2.0	0.0	4.0	3.0	19.0	0.0																													w	1.0	0.317361116409	None	0.0	0.5	circleorange.gif	go																									0.6	0.514158964157	0.0008790493011469999	0.317361116409	1.0	w	1004.81868196																																	2015_Jul_06_1123	59.7196767341	LearningTask	1	77	
245	-200.0	a	-200.0																	2.0	0.0	2.0	0.0	5.0	0.0	20.0	3.0																													a	1.0	0.350883960724	None	0.0	1.0	hexagonwhite.gif	stop																									0.0	0.514005899429	0.0009617805480960001	0.350883960724	1.0	a	1007.82192588																																	2015_Jul_06_1123	59.7196767341	LearningTask	1	77	
246	-200.0	q	200.0																	2.0	0.0	2.0	0.0	5.0	1.0	21.0	1.0																													q	1.0	0.38400101661700003	None	0.0	1.0	diamondgray.gif	go																									0.0	0.513808965683	0.000873804092407	0.384001016617	1.0	q	1010.82501101																																	2015_Jul_06_1123	59.7196767341	LearningTask	1	77	
247	200.0	s	-200.0																	2.0	0.0	2.0	0.0	5.0	2.0	22.0	2.0																													s	1.0	0.384293079376	None	0.0	0.5	invertedtrianglecyan.gif	stop																									0.53	0.514298915863	0.0008680820465089999	0.384293079376	1.0	s	1013.82890391																																	2015_Jul_06_1123	59.7196767341	LearningTask	1	77	
248	-200.0	q	200.0																	2.0	0.0	2.0	0.0	5.0	3.0	23.0	1.0																													q	1.0	0.317538022995	None	0.0	4.0	crossmagenta.gif	stop																									4.17	0.513753890991	0.000890016555786	0.317538022995	1.0	q	1016.83251309																																	2015_Jul_06_1123	59.7196767341	LearningTask	1	77	
249	200.0	w	200.0																	2.0	0.0	2.0	0.0	6.0	0.0	24.0	0.0																													w	1.0	0.36711692810099994	None	0.0	4.0	crossmagenta.gif	stop																									3.88	0.513757944107	0.000900983810425	0.367116928101	1.0	w	1019.83519292																																	2015_Jul_06_1123	59.7196767341	LearningTask	1	77	
250	-200.0	q	200.0																	2.0	0.0	2.0	0.0	6.0	1.0	25.0	1.0																													q	1.0	0.417619943619	q	1.0	0.5	circleorange.gif	go								0.5917930603029999																	0.26	0.5144460201259999	0.00088095664978	0.417619943619	1.0	q	1022.83867693																																	2015_Jul_06_1123	59.7196767341	LearningTask	1	77	
251	-200.0	a	-200.0																	2.0	0.0	2.0	0.0	6.0	2.0	26.0	3.0																													a	1.0	0.38429594039899995	None	0.0	1.0	diamondgray.gif	go																									0.95	0.5141398906710001	0.0008709430694580001	0.384295940399	1.0	a	1025.84199309																																	2015_Jul_06_1123	59.7196767341	LearningTask	1	77	
252	-200.0	a	-200.0																	2.0	0.0	2.0	0.0	6.0	3.0	27.0	3.0																													a	1.0	0.40114593505900004	None	0.0	1.0	diamondgray.gif	go																									0.0	0.514311075211	0.000881195068359	0.401145935059	1.0	a	1028.84505105																																	2015_Jul_06_1123	59.7196767341	LearningTask	1	77	
253	-200.0	q	200.0																	2.0	0.0	2.0	0.0	7.0	0.0	28.0	1.0																													q	1.0	0.401266098022	None	0.0	2.0	linegreen.gif	go																									0.0	0.514547109604	0.00088906288147	0.401266098022	1.0	q	1031.84928703																																	2015_Jul_06_1123	59.7196767341	LearningTask	1	77	
254	200.0	s	-200.0																	2.0	0.0	2.0	0.0	7.0	1.0	29.0	2.0																													s	1.0	0.350862979889	None	0.0	0.5	invertedtrianglecyan.gif	stop																									0.75	0.513783931732	0.000877857208252	0.350862979889	1.0	s	1034.85209703																																	2015_Jul_06_1123	59.7196767341	LearningTask	1	77	
255	200.0	w	200.0																	2.0	0.0	2.0	0.0	7.0	2.0	30.0	0.0																													w	1.0	0.317717075348	None	0.0	4.0	triangleyellow.gif	go																									0.0	0.5143048763279999	0.000923871994019	0.317717075348	1.0	w	1037.85535693																																	2015_Jul_06_1123	59.7196767341	LearningTask	1	77	
256	200.0	w	200.0																	2.0	0.0	2.0	0.0	7.0	3.0	31.0	0.0																													w	1.0	0.334150075912	None	0.0	2.0	squareblue.gif	stop																									0.0	0.51419210434	0.00093412399292	0.334150075912	1.0	w	1040.85872507																																	2015_Jul_06_1123	59.7196767341	LearningTask	1	77	
257	200.0	w	200.0																	2.0	0.0	2.0	0.0	8.0	0.0	32.0	0.0																													w	1.0	0.43463492393500003	None	0.0	1.0	diamondgray.gif	go																									1.22	0.514355897903	0.0008759498596189999	0.434634923935	1.0	w	1043.86210799																																	2015_Jul_06_1123	59.7196767341	LearningTask	1	77	
258	200.0	s	-200.0																	2.0	0.0	2.0	0.0	8.0	1.0	33.0	2.0																													s	1.0	0.401130914688	None	0.0	4.0	triangleyellow.gif	go																									0.0	0.514129161835	0.000900983810425	0.401130914688	1.0	s	1046.86571693																																	2015_Jul_06_1123	59.7196767341	LearningTask	1	77	
259	200.0	w	200.0																	2.0	0.0	2.0	0.0	8.0	2.0	34.0	0.0																													w	1.0	0.334231853485	None	0.0	4.0	crossmagenta.gif	stop																									4.02	0.5140910148619999	0.000928163528442	0.334231853485	1.0	w	1049.86893296																																	2015_Jul_06_1123	59.7196767341	LearningTask	1	77	
260	200.0	s	-200.0																	2.0	0.0	2.0	0.0	8.0	3.0	35.0	2.0																													s	1.0	0.35062599182099996	None	0.0	2.0	squareblue.gif	stop																									2.13	0.514547109604	0.0008780956268310002	0.350625991821	1.0	s	1052.87224793																																	2015_Jul_06_1123	59.7196767341	LearningTask	1	77	
261	-200.0	a	-200.0																	2.0	0.0	2.0	0.0	9.0	0.0	36.0	3.0																													a	1.0	0.5343232154850001	None	0.0	1.0	hexagonwhite.gif	stop																									0.76	0.514387845993	0.0008859634399410001	0.534323215485	1.0	a	1055.8759860999999																																	2015_Jul_06_1123	59.7196767341	LearningTask	1	77	
262	200.0	s	-200.0																	2.0	0.0	2.0	0.0	9.0	1.0	37.0	2.0																													s	1.0	0.35073900222800003	None	0.0	0.5	invertedtrianglecyan.gif	stop																									0.7	0.513835906982	0.0008869171142580001	0.350739002228	1.0	s	1058.87921596																																	2015_Jul_06_1123	59.7196767341	LearningTask	1	77	
263	-200.0	q	200.0																	2.0	0.0	2.0	0.0	9.0	2.0	38.0	1.0																													q	1.0	0.38406586647	None	0.0	2.0	linegreen.gif	go																									1.91	0.514055967331	0.00117492675781	0.38406586647	1.0	q	1061.8827579																																	2015_Jul_06_1123	59.7196767341	LearningTask	1	77	
264	200.0	w	200.0																	2.0	0.0	2.0	0.0	9.0	3.0	39.0	0.0																													w	1.0	0.318469047546	None	0.0	1.0	hexagonwhite.gif	stop																									0.0	0.513715982437	0.0008790493011469999	0.318469047546	1.0	w	1064.88649797																																	2015_Jul_06_1123	59.7196767341	LearningTask	1	77	
265	-200.0	a	-200.0																	2.0	0.0	2.0	0.0	10.0	0.0	40.0	3.0																													a	1.0	0.384036064148	None	0.0	0.5	invertedtrianglecyan.gif	stop																									0.64	0.513540029526	0.0009169578552250001	0.384036064148	1.0	a	1067.88917208																																	2015_Jul_06_1123	59.7196767341	LearningTask	1	77	
266	200.0	s	-200.0																	2.0	0.0	2.0	0.0	10.0	1.0	41.0	2.0																													s	1.0	0.38482499122599995	None	0.0	2.0	squareblue.gif	stop																									1.91	0.514337062836	0.000949144363403	0.384824991226	1.0	s	1070.89254093																																	2015_Jul_06_1123	59.7196767341	LearningTask	1	77	
267	200.0	w	200.0																	2.0	0.0	2.0	0.0	10.0	2.0	42.0	0.0																													w	1.0	0.334599971771	None	0.0	2.0	squareblue.gif	stop																									0.0	0.514368057251	0.0008790493011469999	0.334599971771	1.0	w	1073.89610195																																	2015_Jul_06_1123	59.7196767341	LearningTask	1	77	
268	200.0	s	-200.0																	2.0	0.0	2.0	0.0	10.0	3.0	43.0	2.0																													s	1.0	0.41769719123800003	None	0.0	0.5	invertedtrianglecyan.gif	stop																									0.38	0.5140888690950001	0.000946044921875	0.417697191238	1.0	s	1076.89932394																																	2015_Jul_06_1123	59.7196767341	LearningTask	1	77	
269	-200.0	q	200.0																	2.0	0.0	2.0	0.0	11.0	0.0	44.0	1.0																													q	1.0	0.38419795036300003	None	0.0	1.0	diamondgray.gif	go																									0.82	0.514091968536	0.0010900497436500001	0.384197950363	1.0	q	1079.90271091																																	2015_Jul_06_1123	59.7196767341	LearningTask	1	77	
270	200.0	s	-200.0																	2.0	0.0	2.0	0.0	11.0	1.0	45.0	2.0																													s	1.0	0.36744213104199996	None	0.0	0.5	invertedtrianglecyan.gif	stop																									0.43	0.514374017715	0.0008740425109860002	0.367442131042	1.0	s	1082.90606809																																	2015_Jul_06_1123	59.7196767341	LearningTask	1	77	
271	200.0	w	200.0																	2.0	0.0	2.0	0.0	11.0	2.0	46.0	0.0																													w	1.0	0.434503078461	w	1.0	0.5	invertedtrianglecyan.gif	stop								0.641910076141																	0.6	0.514164924622	0.0009279251098630001	0.434503078461	1.0	w	1085.90926409																																	2015_Jul_06_1123	59.7196767341	LearningTask	1	77	
272	200.0	w	200.0																	2.0	0.0	2.0	0.0	11.0	3.0	47.0	0.0																													w	1.0	0.48463606834399997	None	0.0	0.5	circleorange.gif	go																									0.51	0.514019966125	0.0009560585021970001	0.484636068344	1.0	w	1088.91275692																																	2015_Jul_06_1123	59.7196767341	LearningTask	1	77	
273	-200.0	q	200.0																	2.0	0.0	2.0	0.0	12.0	0.0	48.0	1.0																													q	1.0	0.484322071075	q	1.0	4.0	triangleyellow.gif	go								0.774746894836																	3.94	0.514392137527	0.0008790493011469999	0.484322071075	1.0	q	1091.9158771																																	2015_Jul_06_1123	59.7196767341	LearningTask	1	77	
274	-200.0	a	-200.0																	2.0	0.0	2.0	0.0	12.0	1.0	49.0	3.0																													a	1.0	0.38449001312299996	None	0.0	1.0	hexagonwhite.gif	stop																									0.0	0.514232873917	0.000892877578735	0.384490013123	1.0	a	1094.91957307																																	2015_Jul_06_1123	59.7196767341	LearningTask	1	77	
275	200.0	s	-200.0																	2.0	0.0	2.0	0.0	12.0	2.0	50.0	2.0																													s	1.0	0.417438030243	None	0.0	1.0	hexagonwhite.gif	stop																									0.79	0.5141038894650001	0.00089693069458	0.417438030243	1.0	s	1097.92293596																																	2015_Jul_06_1123	59.7196767341	LearningTask	1	77	
276	-200.0	a	-200.0																	2.0	0.0	2.0	0.0	12.0	3.0	51.0	3.0																													a	1.0	0.41805601119999997	q	0.0	2.0	linegreen.gif	go								0.291823148727																	1.85	0.514183044434	0.0009181499481200001	0.4180560112	1.0	a	1100.9263761																																	2015_Jul_06_1123	59.7196767341	LearningTask	1	77	
277	200.0	w	200.0																	2.0	0.0	2.0	0.0	13.0	0.0	52.0	0.0																													w	1.0	0.43422293663	None	0.0	0.5	circleorange.gif	go																									0.64	0.514135122299	0.000881195068359	0.43422293663	1.0	w	1103.9299890999998																																	2015_Jul_06_1123	59.7196767341	LearningTask	1	77	
278	-200.0	q	200.0																	2.0	0.0	2.0	0.0	13.0	1.0	53.0	1.0																													q	1.0	0.434016942978	w	0.0	0.5	circleorange.gif	go								0.374201059341																	0.49	0.513725042343	0.0008950233459470001	0.434016942978	1.0	q	1106.93316793																																	2015_Jul_06_1123	59.7196767341	LearningTask	1	77	
279	-200.0	q	200.0																	2.0	0.0	2.0	0.0	13.0	2.0	54.0	1.0																													q	1.0	0.501309156418	q	1.0	2.0	linegreen.gif	go								0.891902923584																	1.77	0.514189958572	0.0008749961853029999	0.501309156418	1.0	q	1109.93666196																																	2015_Jul_06_1123	59.7196767341	LearningTask	1	77	
280	200.0	s	-200.0																	2.0	0.0	2.0	0.0	13.0	3.0	55.0	2.0																													s	1.0	0.550626993179	None	0.0	2.0	squareblue.gif	stop																									2.23	0.514273166656	0.000869035720825	0.550626993179	1.0	s	1112.93993092																																	2015_Jul_06_1123	59.7196767341	LearningTask	1	77	
281	200.0	s	-200.0																	2.0	0.0	2.0	0.0	14.0	0.0	56.0	2.0																													s	1.0	0.383801937103	q	0.0	1.0	hexagonwhite.gif	stop								0.7249751091																	0.98	0.514445781708	0.0008869171142580001	0.383801937103	1.0	s	1115.94300199																																	2015_Jul_06_1123	59.7196767341	LearningTask	1	77	
282	-200.0	q	200.0																	2.0	0.0	2.0	0.0	14.0	1.0	57.0	1.0																													q	1.0	0.334553956985	None	0.0	1.0	hexagonwhite.gif	stop																									0.75	0.514472961426	0.000887155532837	0.334553956985	1.0	q	1118.94744587																																	2015_Jul_06_1123	59.7196767341	LearningTask	1	77	
283	200.0	w	200.0																	2.0	0.0	2.0	0.0	14.0	2.0	58.0	0.0																													w	1.0	0.31754803657499997	None	0.0	0.5	circleorange.gif	go																									0.51	0.513150930405	0.00101804733276	0.317548036575	1.0	w	1121.94995594																																	2015_Jul_06_1123	59.7196767341	LearningTask	1	77	
284	-200.0	a	-200.0																	2.0	0.0	2.0	0.0	14.0	3.0	59.0	3.0																													a	1.0	0.400989055634	None	0.0	0.5	circleorange.gif	go																									0.5	0.514456987381	0.0009391307830810002	0.400989055634	1.0	a	1124.95344305																																	2015_Jul_06_1123	59.7196767341	LearningTask	1	77	
285	200.0	s	-200.0																	2.0	0.0	2.0	0.0	15.0	0.0	60.0	2.0																													s	1.0	0.350703954697	None	0.0	1.0	diamondgray.gif	go																									1.18	0.513864994049	0.0009307861328119999	0.350703954697	1.0	s	1127.95669198																																	2015_Jul_06_1123	59.7196767341	LearningTask	1	77	
286	-200.0	q	200.0																	2.0	0.0	2.0	0.0	15.0	1.0	61.0	1.0																													q	1.0	0.367492198944	None	0.0	2.0	linegreen.gif	go																									2.25	0.514316082001	0.000881195068359	0.367492198944	1.0	q	1130.95987487																																	2015_Jul_06_1123	59.7196767341	LearningTask	1	77	
287	200.0	s	-200.0																	2.0	0.0	2.0	0.0	15.0	2.0	62.0	2.0																													s	1.0	0.400943040848	None	0.0	4.0	crossmagenta.gif	stop																									4.18	0.514076948166	0.0009160041809079999	0.400943040848	1.0	s	1133.96336198																																	2015_Jul_06_1123	59.7196767341	LearningTask	1	77	
288	-200.0	a	-200.0																	2.0	0.0	2.0	0.0	15.0	3.0	63.0	3.0																													a	1.0	0.36770796775799997	None	0.0	2.0	linegreen.gif	go																									2.13	0.513865947723	0.0008978843688960001	0.367707967758	1.0	a	1136.96674991																																	2015_Jul_06_1123	59.7196767341	LearningTask	1	77	
289	-200.0	q	200.0																	2.0	0.0	2.0	0.0	16.0	0.0	64.0	1.0																													q	1.0	0.400671958923	None	0.0	4.0	crossmagenta.gif	stop																									4.18	0.514418125153	0.00088095664978	0.400671958923	1.0	q	1139.97027802																																	2015_Jul_06_1123	59.7196767341	LearningTask	1	77	
290	200.0	w	200.0																	2.0	0.0	2.0	0.0	16.0	1.0	65.0	0.0																													w	1.0	0.417950868607	None	0.0	4.0	crossmagenta.gif	stop																									4.25	0.513979196548	0.000877141952515	0.417950868607	1.0	w	1142.9734261																																	2015_Jul_06_1123	59.7196767341	LearningTask	1	77	
