	xPos	corrAns	yPos	corrGoResp	yPosGoStim	xPosGoStim	pracTrials.thisRepN	pracTrials.thisTrialN	pracTrials.thisN	pracTrials.thisIndex	ReDoLoopPrac.thisRepN	ReDoLoopPrac.thisTrialN	ReDoLoopPrac.thisN	ReDoLoopPrac.thisIndex	ReDoLoopPrac.thisTrial	pracStopTrials.thisRepN	pracStopTrials.thisTrialN	pracStopTrials.thisN	pracStopTrials.thisIndex	Blocks.thisRepN	Blocks.thisTrialN	Blocks.thisN	Blocks.thisIndex	trials.thisRepN	trials.thisTrialN	trials.thisN	trials.thisIndex	ReDoLoopMain.thisRepN	ReDoLoopMain.thisTrialN	ReDoLoopMain.thisN	ReDoLoopMain.thisIndex	ReDoLoopMain.thisTrial	StopBlocks.thisRepN	StopBlocks.thisTrialN	StopBlocks.thisN	StopBlocks.thisIndex	StopTrials.thisRepN	StopTrials.thisTrialN	StopTrials.thisN	StopTrials.thisIndex	auctionBlocks.thisRepN	auctionBlocks.thisTrialN	auctionBlocks.thisN	auctionBlocks.thisIndex	auctionTrials.thisRepN	auctionTrials.thisTrialN	auctionTrials.thisN	auctionTrials.thisIndex	learningTrialList	learningPracTrialList	stopTrialList	stopPracTrialList	auctionTrialList	ok1.keys	ok1.rt	resp.keys	resp.corr	resp.rt	feedbackResp.keys	feedbackResp.corr	currentReward	currentStimulus	currentStimType	firstPracComputedRewardOutput	firstPracLearningStimOnset	firstPracLearningFixOnset	firstPracPresentationRT	firstPracPresentationAcc	firstPracPresentationResp	firstPracEndTrialTimeStamp	StartTrialTimeStamp	trialType	goStim	stimType	stopStimValue	goResp.keys	goResp.corr	goResp.rt	key_resp_9.keys	key_resp_9.corr	fixStopOnset	goStimOnset	stopSignalOnset	EndTrialTimeStamp	key_resp_3.keys	key_resp_3.rt	firstComputedRewardOutput	firstLearningStimOnset	firstLearningFixOnset	firstPresentationRT	firstPresentationAcc	firstPresentationResp	firstEndTrialTimeStamp	secondComputedRewardOutput	secondLearningStimOnset	secondLearningFixOnset	secondPresentationRT	secondPresentationAcc	secondPresentationResp	secondEndTrialTimeStamp	key_resp_7.keys	key_resp_7.rt	beginningSSD	EndingSSD	key_resp_4.keys	key_resp_4.rt	auctionResponse.keys	auctionStimDuration	auctionStim	auctionAmounts	auctionStimValue	auctionCondition	chosenAuctionAmount	auctionResponse.rt	key_resp_5.keys	key_resp_5.rt	shuffledRewardList	chosenReward1	chosenReward2	chosenReward3	chosenReward4	chosenReward5	key_resp_6.keys	key_resp_6.rt	date	frameRate	expName	session	participant	Unnamed: 129
0																																																	[]	[]	[]	[]	[]	9.0	69.28551697729999																																																																						2015_Jul_08_1245	59.9538300345	LearningTask	1	52	
1	200.0	w	200.0				0.0	0.0	0.0	0.0																																														w	1.0	0.600984096527	None	0.0	2.0	crosscyan.gif	stop	1.76	0.508558034897	0.0301280021667	0.600984096527	1.0	w	86.5481610298																																																							2015_Jul_08_1245	59.9538300345	LearningTask	1	52	
2	200.0	w	200.0				0.0	1.0	1.0	4.0																																														w	1.0	0.45108199119599995	None	0.0	2.0	squareyellow.gif	go	1.99	0.514414072037	0.035772085189800004	0.45108199119599995	1.0	w	89.55083417889999																																																							2015_Jul_08_1245	59.9538300345	LearningTask	1	52	
3	200.0	s	-200.0				0.0	2.0	2.0	2.0																																														s	1.0	0.43417191505400005	None	0.0	1.0	hexagonorange.gif	stop	0.75	0.515198945999	0.0443279743195	0.43417191505400005	1.0	s	92.5543041229																																																							2015_Jul_08_1245	59.9538300345	LearningTask	1	52	
4	-200.0	q	200.0				0.0	3.0	3.0	5.0																																														q	1.0	0.36755895614600004	None	0.0	1.0	hexagonorange.gif	stop	1.25	0.515378952026	0.0008978843688960001	0.36755895614600004	1.0	q	95.5579481125																																																							2015_Jul_08_1245	59.9538300345	LearningTask	1	52	
5	-200.0	q	200.0				0.0	4.0	4.0	1.0																																														q	1.0	0.5179891586300001	None	0.0	2.0	crosscyan.gif	stop	1.94	0.514425039291	0.0009241104125980002	0.5179891586300001	1.0	q	98.56095814700001																																																							2015_Jul_08_1245	59.9538300345	LearningTask	1	52	
6	200.0	w	200.0				0.0	5.0	5.0	8.0																																														w	1.0	0.317322969437	None	0.0	2.0	squareyellow.gif	go	1.82	0.515231847763	0.0010879039764400001	0.317322969437	1.0	w	101.564280987																																																							2015_Jul_08_1245	59.9538300345	LearningTask	1	52	
7	-200.0	a	-200.0				0.0	6.0	6.0	3.0																																														a	1.0	0.31755900383	None	0.0	1.0	circleblue.gif	go	0.94	0.515300035477	0.043718099594099995	0.31755900383	1.0	a	104.567826986																																																							2015_Jul_08_1245	59.9538300345	LearningTask	1	52	
8	200.0	s	-200.0				0.0	7.0	7.0	6.0																																														s	1.0	0.367454051971	None	0.0	1.0	circleblue.gif	go	0.84	0.515021085739	0.000890016555786	0.367454051971	1.0	s	107.571271181																																																							2015_Jul_08_1245	59.9538300345	LearningTask	1	52	
9	-200.0	q	200.0				0.0	8.0	8.0	9.0																																														q	1.0	0.351024150848	None	0.0	2.0	crosscyan.gif	stop	1.77	0.51501083374	0.0012419223785399998	0.351024150848	1.0	q	110.575109005																																																							2015_Jul_08_1245	59.9538300345	LearningTask	1	52	
10	-200.0	a	-200.0				0.0	9.0	9.0	7.0																																														a	1.0	0.351003170013	None	0.0	1.0	circleblue.gif	go	1.21	0.514518976212	0.0009739398956299999	0.351003170013	1.0	a	113.57792711299999																																																							2015_Jul_08_1245	59.9538300345	LearningTask	1	52	
11				m	0.0	200.0										0.0	0.0	0.0	1.0																																																				159.050024033	stop	crosscyan.gif	stop	2.0	m	1.0	0.450750827789	None	0.0	0.00133895874023	0.511564016342	0.7615489959720001	162.049120188																																									2015_Jul_08_1245	59.9538300345	LearningTask	1	52	
12				z	0.0	-200.0										0.0	1.0	1.0	0.0																																																				162.049514055	go	squareyellow.gif	go	2.0	z	1.0	0.651530981064	None	0.0	0.0009520053863530001	0.51564002037		165.052146196																																									2015_Jul_08_1245	59.9538300345	LearningTask	1	52	
13				z	0.0	-200.0										1.0	0.0	2.0	0.0																																																				165.052510023	stop	trianglewhite.gif	stop	0.5	None	0.0		None	0.0	0.07597088813780001	0.51596903801	0.766637802124	168.055730104																																									2015_Jul_08_1245	59.9538300345	LearningTask	1	52	
14				z	0.0	-200.0										1.0	1.0	3.0	0.0																																																				168.056093216	go	diamondmagenta.gif	go	4.0	None	0.0		None	0.0	0.0419528484344	0.515508890152		171.059357166																																									2015_Jul_08_1245	59.9538300345	LearningTask	1	52	
15				m	0.0	200.0										2.0	0.0	4.0	1.0																																																				171.059728146	stop	trianglewhite.gif	stop	0.5	m	1.0	0.45092701911899996	None	0.0	0.001140832901	0.5155048370359999	0.765786886215	174.06276321400003																																									2015_Jul_08_1245	59.9538300345	LearningTask	1	52	
16				m	0.0	200.0										2.0	1.0	5.0	1.0																																																				174.06337809599998	stop	trianglewhite.gif	stop	0.5	None	0.0		None	0.0	0.0009779930114750001	0.5153901577000001	0.765478134155	177.06570005400002																																									2015_Jul_08_1245	59.9538300345	LearningTask	1	52	
17				z	0.0	-200.0										3.0	0.0	6.0	0.0																																																				177.06606221200002	go	circleblue.gif	go	1.0	z	1.0	0.734513998032	None	0.0	0.0009529590606689998	0.5160360336300001		180.069128036																																									2015_Jul_08_1245	59.9538300345	LearningTask	1	52	
18				z	0.0	-200.0										3.0	1.0	7.0	0.0																																																				180.069493055	stop	invertedtrianglegray.gif	stop	4.0	None	0.0		None	0.0	0.0358819961548	0.515574932098	0.765851020813	183.07266902900002																																									2015_Jul_08_1245	59.9538300345	LearningTask	1	52	
19				m	0.0	200.0										4.0	0.0	8.0	1.0																																																				183.073086023	stop	invertedtrianglegray.gif	stop	4.0	None	0.0		None	0.0	0.000998020172119	0.5158140659329999	0.765836000443	186.076008081																																									2015_Jul_08_1245	59.9538300345	LearningTask	1	52	
20				m	0.0	200.0										4.0	1.0	9.0	1.0																																																				186.076371193	go	linegreen.gif	go	0.5	m	1.0	0.601500034332	None	0.0	0.040607929229699996	0.515736818314		189.079124212																																									2015_Jul_08_1245	59.9538300345	LearningTask	1	52	
21																																																																																					9.0	72.1751801968																																							2015_Jul_08_1245	59.9538300345	LearningTask	1	52	
22																																																						9.0	4.25545907021																																																																						2015_Jul_08_1245	59.9538300345	LearningTask	1	52	
23	-200.0	a	-200.0																	0.0	0.0	0.0	0.0	0.0	0.0	0.0	3.0																													a	1.0	0.400606155396	None	0.0	2.0	crosscyan.gif	stop																								1.91	0.509645938873	0.000922918319702	0.400606155396	1.0	a	268.653400183																																2015_Jul_08_1245	59.9538300345	LearningTask	1	52	
24	200.0	w	200.0																	0.0	0.0	0.0	0.0	0.0	1.0	1.0	0.0																													w	1.0	0.334381103516	None	0.0	0.5	linegreen.gif	go																								0.35	0.513657093048	0.0009400844573969999	0.334381103516	1.0	w	271.656208038																																2015_Jul_08_1245	59.9538300345	LearningTask	1	52	
25	200.0	s	-200.0																	0.0	0.0	0.0	0.0	0.0	2.0	2.0	2.0																													s	1.0	0.334024906158	None	0.0	1.0	circleblue.gif	go																								0.96	0.514400005341	0.0009901523590089998	0.334024906158	1.0	s	274.659530163																																2015_Jul_08_1245	59.9538300345	LearningTask	1	52	
26	200.0	w	200.0																	0.0	0.0	0.0	0.0	0.0	3.0	3.0	0.0																													w	1.0	0.334443092346	None	0.0	2.0	squareyellow.gif	go																								1.9	0.5145039558410001	0.0008909702301030001	0.334443092346	1.0	w	277.66284418099997																																2015_Jul_08_1245	59.9538300345	LearningTask	1	52	
27	200.0	w	200.0																	0.0	0.0	0.0	0.0	1.0	0.0	4.0	0.0																													w	1.0	0.33453702926600004	None	0.0	1.0	circleblue.gif	go																								1.18	0.514607906342	0.0009379386901860002	0.33453702926600004	1.0	w	280.666380167																																2015_Jul_08_1245	59.9538300345	LearningTask	1	52	
28	-200.0	a	-200.0																	0.0	0.0	0.0	0.0	1.0	1.0	5.0	3.0																													a	1.0	0.400929927826	None	0.0	0.5	trianglewhite.gif	stop																								0.0	0.514261960983	0.0009448528289790001	0.400929927826	1.0	a	283.669831038																																2015_Jul_08_1245	59.9538300345	LearningTask	1	52	
29	-200.0	a	-200.0																	0.0	0.0	0.0	0.0	1.0	2.0	6.0	3.0																													a	1.0	0.38436603546099996	None	0.0	4.0	diamondmagenta.gif	go																								3.83	0.5143120288849999	0.0008959770202639998	0.38436603546099996	1.0	a	286.67342305200003																																2015_Jul_08_1245	59.9538300345	LearningTask	1	52	
30	200.0	s	-200.0																	0.0	0.0	0.0	0.0	1.0	3.0	7.0	2.0																													s	1.0	0.40084290504500003	None	0.0	4.0	invertedtrianglegray.gif	stop																								0.0	0.51371717453	0.0009181499481200001	0.40084290504500003	1.0	s	289.676638126																																2015_Jul_08_1245	59.9538300345	LearningTask	1	52	
31	-200.0	q	200.0																	0.0	0.0	0.0	0.0	2.0	0.0	8.0	1.0																													q	1.0	0.334182024002	None	0.0	2.0	squareyellow.gif	go																								2.18	0.5142509937290001	0.000896215438843	0.334182024002	1.0	q	292.67982411400004																																2015_Jul_08_1245	59.9538300345	LearningTask	1	52	
32	-200.0	q	200.0																	0.0	0.0	0.0	0.0	2.0	1.0	9.0	1.0																													q	1.0	0.417812824249	None	0.0	0.5	linegreen.gif	go																								0.65	0.5142610073089999	0.000926971435547	0.417812824249	1.0	q	295.683977127																																2015_Jul_08_1245	59.9538300345	LearningTask	1	52	
33	-200.0	q	200.0																	0.0	0.0	0.0	0.0	2.0	2.0	10.0	1.0																													q	1.0	0.317223072052	None	0.0	1.0	circleblue.gif	go																								0.89	0.51350402832	0.000904083251953	0.317223072052	1.0	q	298.686946154																																2015_Jul_08_1245	59.9538300345	LearningTask	1	52	
34	200.0	w	200.0																	0.0	0.0	0.0	0.0	2.0	3.0	11.0	0.0																													w	1.0	0.284081935883	None	0.0	0.5	trianglewhite.gif	stop																								0.46	0.514071941376	0.0009069442749019998	0.284081935883	1.0	w	301.689962149																																2015_Jul_08_1245	59.9538300345	LearningTask	1	52	
35	-200.0	a	-200.0																	0.0	0.0	0.0	0.0	3.0	0.0	12.0	3.0																													a	1.0	0.351358890533	None	0.0	2.0	squareyellow.gif	go																								2.08	0.514143943787	0.00100994110107	0.351358890533	1.0	a	304.694009066																																2015_Jul_08_1245	59.9538300345	LearningTask	1	52	
36	200.0	w	200.0																	0.0	0.0	0.0	0.0	3.0	1.0	13.0	0.0																													w	1.0	0.35111284255999997	None	0.0	0.5	trianglewhite.gif	stop																								0.63	0.5138239860530001	0.0009150505065920001	0.35111284255999997	1.0	w	307.696911097																																2015_Jul_08_1245	59.9538300345	LearningTask	1	52	
37	200.0	s	-200.0																	0.0	0.0	0.0	0.0	3.0	2.0	14.0	2.0																													s	1.0	0.384391069412	None	0.0	1.0	hexagonorange.gif	stop																								0.0	0.514081954956	0.0012629032135	0.384391069412	1.0	s	310.700380087																																2015_Jul_08_1245	59.9538300345	LearningTask	1	52	
38	-200.0	a	-200.0																	0.0	0.0	0.0	0.0	3.0	3.0	15.0	3.0																													a	1.0	0.40109086036700003	None	0.0	2.0	crosscyan.gif	stop																								0.0	0.514033079147	0.0009679794311519998	0.40109086036700003	1.0	a	313.70346117																																2015_Jul_08_1245	59.9538300345	LearningTask	1	52	
39	-200.0	q	200.0																	0.0	0.0	0.0	0.0	4.0	0.0	16.0	1.0																													q	1.0	0.33341288566599997	None	0.0	0.5	linegreen.gif	go																								0.36	0.5149619579320001	0.0008740425109860002	0.33341288566599997	1.0	q	316.706988096																																2015_Jul_08_1245	59.9538300345	LearningTask	1	52	
40	200.0	w	200.0																	0.0	0.0	0.0	0.0	4.0	1.0	17.0	0.0																													w	1.0	0.317440986633	None	0.0	2.0	crosscyan.gif	stop																								1.89	0.5140681266780001	0.0009441375732419999	0.317440986633	1.0	w	319.710430145																																2015_Jul_08_1245	59.9538300345	LearningTask	1	52	
41	-200.0	a	-200.0																	0.0	0.0	0.0	0.0	4.0	2.0	18.0	3.0																													a	1.0	0.35015201568599996	None	0.0	0.5	trianglewhite.gif	stop																								0.31	0.5146958827970001	0.0009019374847410001	0.35015201568599996	1.0	a	322.713661194																																2015_Jul_08_1245	59.9538300345	LearningTask	1	52	
42	-200.0	a	-200.0																	0.0	0.0	0.0	0.0	4.0	3.0	19.0	3.0																													a	1.0	0.367457151413	None	0.0	1.0	circleblue.gif	go																								0.0	0.514490842819	0.00090503692627	0.367457151413	1.0	a	325.71706318900004																																2015_Jul_08_1245	59.9538300345	LearningTask	1	52	
43	200.0	w	200.0																	0.0	0.0	0.0	0.0	5.0	0.0	20.0	0.0																													w	1.0	0.367170095444	None	0.0	4.0	diamondmagenta.gif	go																								4.14	0.514283895493	0.0009329319000239999	0.367170095444	1.0	w	328.72045517																																2015_Jul_08_1245	59.9538300345	LearningTask	1	52	
44	200.0	w	200.0																	0.0	0.0	0.0	0.0	5.0	1.0	21.0	0.0																													w	1.0	0.334002971649	None	0.0	1.0	hexagonorange.gif	stop																								1.25	0.514241933823	0.0009019374847410001	0.334002971649	1.0	w	331.723609209																																2015_Jul_08_1245	59.9538300345	LearningTask	1	52	
45	200.0	s	-200.0																	0.0	0.0	0.0	0.0	5.0	2.0	22.0	2.0																													s	1.0	0.384246110916	None	0.0	4.0	diamondmagenta.gif	go																								3.85	0.5146160125729999	0.0008971691131589999	0.384246110916	1.0	s	334.72767305400004																																2015_Jul_08_1245	59.9538300345	LearningTask	1	52	
46	200.0	w	200.0																	0.0	0.0	0.0	0.0	5.0	3.0	23.0	0.0																													w	1.0	0.30091118812600004	None	0.0	1.0	hexagonorange.gif	stop																								0.95	0.513478040695	0.000932216644287	0.30091118812600004	1.0	w	337.730733156																																2015_Jul_08_1245	59.9538300345	LearningTask	1	52	
47	-200.0	q	200.0																	0.0	0.0	0.0	0.0	6.0	0.0	24.0	1.0																													q	1.0	0.43440294265699997	None	0.0	4.0	invertedtrianglegray.gif	stop																								4.03	0.514204025269	0.0008938312530519999	0.43440294265699997	1.0	q	340.733823061																																2015_Jul_08_1245	59.9538300345	LearningTask	1	52	
48	-200.0	q	200.0																	0.0	0.0	0.0	0.0	6.0	1.0	25.0	1.0																													q	1.0	0.417344808578	None	0.0	0.5	linegreen.gif	go																								0.0	0.514439105988	0.00089693069458	0.417344808578	1.0	q	343.737490177																																2015_Jul_08_1245	59.9538300345	LearningTask	1	52	
49	-200.0	q	200.0																	0.0	0.0	0.0	0.0	6.0	2.0	26.0	1.0																													q	1.0	0.333959102631	None	0.0	0.5	linegreen.gif	go																								0.0	0.51416683197	0.0008938312530519999	0.333959102631	1.0	q	346.74073910699997																																2015_Jul_08_1245	59.9538300345	LearningTask	1	52	
50	200.0	w	200.0																	0.0	0.0	0.0	0.0	6.0	3.0	27.0	0.0																													w	1.0	0.36803603172300003	None	0.0	1.0	hexagonorange.gif	stop																								1.18	0.5143339633940001	0.0009658336639400001	0.36803603172300003	1.0	w	349.743906021																																2015_Jul_08_1245	59.9538300345	LearningTask	1	52	
51	-200.0	a	-200.0																	0.0	0.0	0.0	0.0	7.0	0.0	28.0	3.0																													a	1.0	0.35132694244400003	None	0.0	4.0	diamondmagenta.gif	go																								3.87	0.514256954193	0.00100588798523	0.35132694244400003	1.0	a	352.747676134																																2015_Jul_08_1245	59.9538300345	LearningTask	1	52	
52	-200.0	q	200.0																	0.0	0.0	0.0	0.0	7.0	1.0	29.0	1.0																													q	1.0	0.400601863861	None	0.0	1.0	hexagonorange.gif	stop																								1.12	0.514247179031	0.000923156738281	0.400601863861	1.0	q	355.750733137																																2015_Jul_08_1245	59.9538300345	LearningTask	1	52	
53	200.0	w	200.0																	0.0	0.0	0.0	0.0	7.0	2.0	30.0	0.0																													w	1.0	0.350646018982	None	0.0	4.0	diamondmagenta.gif	go																								0.0	0.514357805252	0.0009448528289790001	0.350646018982	1.0	w	358.75419020699997																																2015_Jul_08_1245	59.9538300345	LearningTask	1	52	
54	200.0	s	-200.0																	0.0	0.0	0.0	0.0	7.0	3.0	31.0	2.0																													s	1.0	0.35109710693400004	None	0.0	2.0	squareyellow.gif	go																								0.0	0.514199018478	0.0009469985961910001	0.35109710693400004	1.0	s	361.757498026																																2015_Jul_08_1245	59.9538300345	LearningTask	1	52	
55	-200.0	q	200.0																	0.0	0.0	0.0	0.0	8.0	0.0	32.0	1.0																													q	1.0	0.31725788116500003	None	0.0	2.0	squareyellow.gif	go																								1.8	0.5147480964660001	0.0008940696716310001	0.31725788116500003	1.0	q	364.760841131																																2015_Jul_08_1245	59.9538300345	LearningTask	1	52	
56	-200.0	q	200.0																	0.0	0.0	0.0	0.0	8.0	1.0	33.0	1.0																													q	1.0	0.36806178093	None	0.0	0.5	linegreen.gif	go																								0.64	0.514072179794	0.00092601776123	0.36806178093	1.0	q	367.764705181																																2015_Jul_08_1245	59.9538300345	LearningTask	1	52	
57	200.0	s	-200.0																	0.0	0.0	0.0	0.0	8.0	2.0	34.0	2.0																													s	1.0	0.400752782822	None	0.0	4.0	invertedtrianglegray.gif	stop																								4.08	0.51398897171	0.0008990764617919999	0.400752782822	1.0	s	370.76754307699997																																2015_Jul_08_1245	59.9538300345	LearningTask	1	52	
58	200.0	s	-200.0																	0.0	0.0	0.0	0.0	8.0	3.0	35.0	2.0																													s	1.0	0.40127491951	None	0.0	1.0	circleblue.gif	go																								1.19	0.514587163925	0.0009200572967529999	0.40127491951	1.0	s	373.77129101800006																																2015_Jul_08_1245	59.9538300345	LearningTask	1	52	
59	-200.0	q	200.0																	0.0	0.0	0.0	0.0	9.0	0.0	36.0	1.0																													q	1.0	0.367548942566	None	0.0	2.0	crosscyan.gif	stop																								2.22	0.5137720108030001	0.00092887878418	0.367548942566	1.0	q	376.774568081																																2015_Jul_08_1245	59.9538300345	LearningTask	1	52	
60	200.0	w	200.0																	0.0	0.0	0.0	0.0	9.0	1.0	37.0	0.0																													w	1.0	0.334415912628	None	0.0	4.0	invertedtrianglegray.gif	stop																								3.77	0.514185190201	0.00090217590332	0.334415912628	1.0	w	379.777676105																																2015_Jul_08_1245	59.9538300345	LearningTask	1	52	
61	-200.0	a	-200.0																	0.0	0.0	0.0	0.0	9.0	2.0	38.0	3.0																													a	1.0	0.36795592307999997	None	0.0	2.0	crosscyan.gif	stop																								1.94	0.514393091202	0.0011820793151900001	0.36795592307999997	1.0	a	382.781785011																																2015_Jul_08_1245	59.9538300345	LearningTask	1	52	
62	-200.0	a	-200.0																	0.0	0.0	0.0	0.0	9.0	3.0	39.0	3.0																													a	1.0	0.40069103241	None	0.0	0.5	linegreen.gif	go																								0.33	0.513787984848	0.000903844833374	0.40069103241	1.0	a	385.784708023																																2015_Jul_08_1245	59.9538300345	LearningTask	1	52	
63	-200.0	q	200.0																	0.0	0.0	0.0	0.0	10.0	0.0	40.0	1.0																													q	1.0	0.334140062332	None	0.0	4.0	diamondmagenta.gif	go																								0.0	0.514271974564	0.000900030136108	0.334140062332	1.0	q	388.787924051																																2015_Jul_08_1245	59.9538300345	LearningTask	1	52	
64	-200.0	a	-200.0																	0.0	0.0	0.0	0.0	10.0	1.0	41.0	3.0																													a	1.0	0.334328174591	None	0.0	4.0	invertedtrianglegray.gif	stop																								4.22	0.514400959015	0.0009729862213130002	0.334328174591	1.0	a	391.791191101																																2015_Jul_08_1245	59.9538300345	LearningTask	1	52	
65	200.0	s	-200.0																	0.0	0.0	0.0	0.0	10.0	2.0	42.0	2.0																													s	1.0	0.367769956589	None	0.0	0.5	trianglewhite.gif	stop																								0.37	0.514602899551	0.000918865203857	0.367769956589	1.0	s	394.79468321800005																																2015_Jul_08_1245	59.9538300345	LearningTask	1	52	
66	200.0	w	200.0																	0.0	0.0	0.0	0.0	10.0	3.0	43.0	0.0																													w	1.0	0.300559997559	None	0.0	1.0	circleblue.gif	go																								1.05	0.514342069626	0.00095009803772	0.300559997559	1.0	w	397.798676014																																2015_Jul_08_1245	59.9538300345	LearningTask	1	52	
67	-200.0	q	200.0																	0.0	0.0	0.0	0.0	11.0	0.0	44.0	1.0																													q	1.0	0.384029150009	None	0.0	4.0	invertedtrianglegray.gif	stop																								3.91	0.513752937317	0.0009210109710689999	0.384029150009	1.0	q	400.801567078																																2015_Jul_08_1245	59.9538300345	LearningTask	1	52	
68	200.0	s	-200.0																	0.0	0.0	0.0	0.0	11.0	1.0	45.0	2.0																													s	1.0	0.350614070892	None	0.0	2.0	squareyellow.gif	go																								1.9	0.514374017715	0.000930070877075	0.350614070892	1.0	s	403.804849148																																2015_Jul_08_1245	59.9538300345	LearningTask	1	52	
69	200.0	w	200.0																	0.0	0.0	0.0	0.0	11.0	2.0	46.0	0.0																													w	1.0	0.351003885269	None	0.0	0.5	linegreen.gif	go																								0.0	0.514055967331	0.00103783607483	0.351003885269	1.0	w	406.808086157																																2015_Jul_08_1245	59.9538300345	LearningTask	1	52	
70	200.0	s	-200.0																	0.0	0.0	0.0	0.0	11.0	3.0	47.0	2.0																													s	1.0	0.36776089668300005	None	0.0	1.0	hexagonorange.gif	stop																								1.17	0.5141270160679999	0.0009350776672360002	0.36776089668300005	1.0	s	409.811511993																																2015_Jul_08_1245	59.9538300345	LearningTask	1	52	
71	-200.0	q	200.0																	0.0	0.0	0.0	0.0	12.0	0.0	48.0	1.0																													q	1.0	0.300591945648	None	0.0	2.0	squareyellow.gif	go																								2.02	0.514460086823	0.0009169578552250001	0.300591945648	1.0	q	412.814745188																																2015_Jul_08_1245	59.9538300345	LearningTask	1	52	
72	200.0	w	200.0																	0.0	0.0	0.0	0.0	12.0	1.0	49.0	0.0																													w	1.0	0.333921194077	None	0.0	4.0	diamondmagenta.gif	go																								4.25	0.5143561363220001	0.00095009803772	0.333921194077	1.0	w	415.818594217																																2015_Jul_08_1245	59.9538300345	LearningTask	1	52	
73	-200.0	a	-200.0																	0.0	0.0	0.0	0.0	12.0	2.0	50.0	3.0																													a	1.0	0.318102121353	None	0.0	1.0	circleblue.gif	go																								0.0	0.513864994049	0.0009059906005860001	0.318102121353	1.0	a	418.82189202300003																																2015_Jul_08_1245	59.9538300345	LearningTask	1	52	
74	200.0	s	-200.0																	0.0	0.0	0.0	0.0	12.0	3.0	51.0	2.0																													s	1.0	0.41764593124399996	None	0.0	2.0	crosscyan.gif	stop																								1.86	0.514154911041	0.0009119510650630002	0.41764593124399996	1.0	s	421.82545399699995																																2015_Jul_08_1245	59.9538300345	LearningTask	1	52	
75	200.0	s	-200.0																	0.0	0.0	0.0	0.0	13.0	0.0	52.0	2.0																													s	1.0	0.400681972504	None	0.0	0.5	linegreen.gif	go																								0.0	0.513546228409	0.000908136367798	0.400681972504	1.0	s	424.828547001																																2015_Jul_08_1245	59.9538300345	LearningTask	1	52	
76	-200.0	q	200.0																	0.0	0.0	0.0	0.0	13.0	1.0	53.0	1.0																													q	1.0	0.333925008774	None	0.0	2.0	squareyellow.gif	go																								1.82	0.514231920242	0.0008959770202639998	0.333925008774	1.0	q	427.831979036																																2015_Jul_08_1245	59.9538300345	LearningTask	1	52	
77	200.0	w	200.0																	0.0	0.0	0.0	0.0	13.0	2.0	54.0	0.0																													w	1.0	0.36782693862899996	None	0.0	1.0	circleblue.gif	go																								0.94	0.5142760276789999	0.0009031295776369999	0.36782693862899996	1.0	w	430.835520029																																2015_Jul_08_1245	59.9538300345	LearningTask	1	52	
78	-200.0	q	200.0																	0.0	0.0	0.0	0.0	13.0	3.0	55.0	1.0																													q	1.0	0.384126901627	None	0.0	1.0	hexagonorange.gif	stop																								0.0	0.514173030853	0.000904083251953	0.384126901627	1.0	q	433.83873915699996																																2015_Jul_08_1245	59.9538300345	LearningTask	1	52	
79	200.0	s	-200.0																	0.0	0.0	0.0	0.0	14.0	0.0	56.0	2.0																													s	1.0	0.36785411834700005	None	0.0	2.0	crosscyan.gif	stop																								2.09	0.514158010483	0.0009059906005860001	0.36785411834700005	1.0	s	436.84190416300004																																2015_Jul_08_1245	59.9538300345	LearningTask	1	52	
80	200.0	s	-200.0																	0.0	0.0	0.0	0.0	14.0	1.0	57.0	2.0																													s	1.0	0.384340047836	None	0.0	2.0	crosscyan.gif	stop																								2.01	0.514376878738	0.00103497505188	0.384340047836	1.0	s	439.845504999																																2015_Jul_08_1245	59.9538300345	LearningTask	1	52	
81	-200.0	a	-200.0																	0.0	0.0	0.0	0.0	14.0	2.0	58.0	3.0																													a	1.0	0.40127801895099996	None	0.0	2.0	squareyellow.gif	go																								2.12	0.51430606842	0.0008931159973139998	0.40127801895099996	1.0	a	442.848814011																																2015_Jul_08_1245	59.9538300345	LearningTask	1	52	
82	200.0	w	200.0																	0.0	0.0	0.0	0.0	14.0	3.0	59.0	0.0																													w	1.0	0.317955970764	None	0.0	2.0	squareyellow.gif	go																								2.19	0.513939142227	0.00103807449341	0.317955970764	1.0	w	445.852165222																																2015_Jul_08_1245	59.9538300345	LearningTask	1	52	
83	200.0	w	200.0																	0.0	0.0	0.0	0.0	15.0	0.0	60.0	0.0																													w	1.0	0.317360877991	None	0.0	0.5	trianglewhite.gif	stop																								0.39	0.514059066772	0.00098991394043	0.317360877991	1.0	w	448.855542183																																2015_Jul_08_1245	59.9538300345	LearningTask	1	52	
84	200.0	s	-200.0																	0.0	0.0	0.0	0.0	15.0	1.0	61.0	2.0																													s	1.0	0.367348194122	None	0.0	0.5	trianglewhite.gif	stop																								0.0	0.514415979385	0.00090217590332	0.367348194122	1.0	s	451.858761072																																2015_Jul_08_1245	59.9538300345	LearningTask	1	52	
85	200.0	s	-200.0																	0.0	0.0	0.0	0.0	15.0	2.0	62.0	2.0																													s	1.0	0.40150308608999996	None	0.0	2.0	squareyellow.gif	go																								1.91	0.51419210434	0.0009751319885249999	0.40150308608999996	1.0	s	454.86209416400004																																2015_Jul_08_1245	59.9538300345	LearningTask	1	52	
86	-200.0	a	-200.0																	0.0	0.0	0.0	0.0	15.0	3.0	63.0	3.0																													a	1.0	0.40069198608400003	None	0.0	4.0	diamondmagenta.gif	go																								3.85	0.5142891407010001	0.0009031295776369999	0.40069198608400003	1.0	a	457.865616083																																2015_Jul_08_1245	59.9538300345	LearningTask	1	52	
87	-200.0	a	-200.0																	0.0	0.0	0.0	0.0	16.0	0.0	64.0	3.0																													a	1.0	0.434113025665	None	0.0	2.0	crosscyan.gif	stop																								1.82	0.514391899109	0.00089693069458	0.434113025665	1.0	a	460.86933708199996																																2015_Jul_08_1245	59.9538300345	LearningTask	1	52	
88	-200.0	q	200.0																	0.0	0.0	0.0	0.0	16.0	1.0	65.0	1.0																													q	1.0	0.400885105133	None	0.0	2.0	squareyellow.gif	go																								2.13	0.513839960098	0.0009100437164310001	0.400885105133	1.0	q	463.87242007300006																																2015_Jul_08_1245	59.9538300345	LearningTask	1	52	
89	200.0	s	-200.0																	0.0	0.0	0.0	0.0	16.0	2.0	66.0	2.0																													s	1.0	0.383839130402	None	0.0	0.5	linegreen.gif	go																								0.26	0.51426410675	0.0008931159973139998	0.383839130402	1.0	s	466.87565517400003																																2015_Jul_08_1245	59.9538300345	LearningTask	1	52	
90	-200.0	a	-200.0																	0.0	0.0	0.0	0.0	16.0	3.0	67.0	3.0																													a	1.0	0.384124040604	None	0.0	0.5	trianglewhite.gif	stop																								0.55	0.514372110367	0.0009140968322749999	0.384124040604	1.0	a	469.879720211																																2015_Jul_08_1245	59.9538300345	LearningTask	1	52	
91	200.0	s	-200.0																	0.0	0.0	0.0	0.0	17.0	0.0	68.0	2.0																													s	1.0	0.38387799263000005	None	0.0	4.0	diamondmagenta.gif	go																								3.97	0.513954877853	0.0014019012451199997	0.38387799263000005	1.0	s	472.882647991																																2015_Jul_08_1245	59.9538300345	LearningTask	1	52	
92	-200.0	a	-200.0																	0.0	0.0	0.0	0.0	17.0	1.0	69.0	3.0																													a	1.0	0.350424051285	None	0.0	2.0	crosscyan.gif	stop																								2.18	0.514375209808	0.0008990764617919999	0.350424051285	1.0	a	475.88582301099996																																2015_Jul_08_1245	59.9538300345	LearningTask	1	52	
93	-200.0	a	-200.0																	0.0	0.0	0.0	0.0	17.0	2.0	70.0	3.0																													a	1.0	0.38379096984899996	None	0.0	4.0	invertedtrianglegray.gif	stop																								0.0	0.515033960342	0.0009019374847410001	0.38379096984899996	1.0	a	478.889332056																																2015_Jul_08_1245	59.9538300345	LearningTask	1	52	
94	200.0	w	200.0																	0.0	0.0	0.0	0.0	17.0	3.0	71.0	0.0																													w	1.0	0.584352016449	None	0.0	1.0	circleblue.gif	go																								0.0	0.51430606842	0.00090503692627	0.584352016449	1.0	w	481.89264416699996																																2015_Jul_08_1245	59.9538300345	LearningTask	1	52	
95	-200.0	q	200.0																	0.0	0.0	0.0	0.0	18.0	0.0	72.0	1.0																													q	1.0	0.351067781448	None	0.0	1.0	hexagonorange.gif	stop																								0.96	0.514297962189	0.0010359287262	0.351067781448	1.0	q	484.89659619300005																																2015_Jul_08_1245	59.9538300345	LearningTask	1	52	
96	200.0	w	200.0																	0.0	0.0	0.0	0.0	18.0	1.0	73.0	0.0																													w	1.0	0.317456007004	None	0.0	1.0	hexagonorange.gif	stop																								0.87	0.513679981232	0.0009670257568360001	0.317456007004	1.0	w	487.89957213400004																																2015_Jul_08_1245	59.9538300345	LearningTask	1	52	
97	-200.0	q	200.0																	0.0	0.0	0.0	0.0	18.0	2.0	74.0	1.0																													q	1.0	0.317339897156	None	0.0	0.5	trianglewhite.gif	stop																								0.32	0.5142600536349999	0.0008959770202639998	0.317339897156	1.0	q	490.902793169																																2015_Jul_08_1245	59.9538300345	LearningTask	1	52	
98	-200.0	a	-200.0																	0.0	0.0	0.0	0.0	18.0	3.0	75.0	3.0																													a	1.0	0.35048794746399997	None	0.0	4.0	diamondmagenta.gif	go																								4.18	0.514246940613	0.0009720325469970001	0.35048794746399997	1.0	a	493.906056166																																2015_Jul_08_1245	59.9538300345	LearningTask	1	52	
99	200.0	s	-200.0																	0.0	0.0	0.0	0.0	19.0	0.0	76.0	2.0																													s	1.0	0.434055089951	None	0.0	0.5	linegreen.gif	go																								0.0	0.514152050018	0.000931024551392	0.317940950394	0.0	w	496.909504175	0.53	0.515603065491	0.000992059707642	0.434055089951	1.0	s	499.913487196																									2015_Jul_08_1245	59.9538300345	LearningTask	1	52	
100	-200.0	a	-200.0																	0.0	0.0	0.0	0.0	19.0	1.0	77.0	3.0																													a	1.0	0.383879899979	None	0.0	2.0	crosscyan.gif	stop																								2.01	0.513705968857	0.000902891159058	0.383879899979	1.0	a	502.916330099																																2015_Jul_08_1245	59.9538300345	LearningTask	1	52	
101	200.0	w	200.0																	0.0	0.0	0.0	0.0	19.0	2.0	78.0	0.0																													w	1.0	0.317368030548	None	0.0	1.0	hexagonorange.gif	stop																								1.12	0.5145690441130001	0.0009129047393799999	0.317368030548	1.0	w	505.91965913800004																																2015_Jul_08_1245	59.9538300345	LearningTask	1	52	
102	200.0	s	-200.0																	0.0	0.0	0.0	0.0	19.0	3.0	79.0	2.0																													s	1.0	0.367280006409	None	0.0	4.0	invertedtrianglegray.gif	stop																								3.88	0.5142691135409999	0.0009100437164310001	0.367280006409	1.0	s	508.92320513699997																																2015_Jul_08_1245	59.9538300345	LearningTask	1	52	
103	200.0	s	-200.0																	0.0	0.0	0.0	0.0	20.0	0.0	80.0	2.0																													s	1.0	0.367722034454	None	0.0	1.0	circleblue.gif	go																								0.84	0.5136768817899999	0.0009248256683350001	0.367722034454	1.0	s	511.92668914800004																																2015_Jul_08_1245	59.9538300345	LearningTask	1	52	
104	-200.0	a	-200.0																	0.0	0.0	0.0	0.0	20.0	1.0	81.0	3.0																													a	1.0	0.33418893814100004	None	0.0	4.0	invertedtrianglegray.gif	stop																								4.11	0.5140521526340001	0.0009031295776369999	0.33418893814100004	1.0	a	514.930030107																																2015_Jul_08_1245	59.9538300345	LearningTask	1	52	
105	-200.0	a	-200.0																	0.0	0.0	0.0	0.0	20.0	2.0	82.0	3.0																													a	1.0	0.334700107574	None	0.0	2.0	crosscyan.gif	stop																								2.15	0.513906955719	0.0009379386901860002	0.334700107574	1.0	a	517.933545113																																2015_Jul_08_1245	59.9538300345	LearningTask	1	52	
106	-200.0	a	-200.0																	0.0	0.0	0.0	0.0	20.0	3.0	83.0	3.0																													a	1.0	0.317737817764	None	0.0	2.0	crosscyan.gif	stop																								1.85	0.513901948929	0.000913143157959	0.317737817764	1.0	a	520.936935186																																2015_Jul_08_1245	59.9538300345	LearningTask	1	52	
107	200.0	w	200.0																	0.0	0.0	0.0	0.0	21.0	0.0	84.0	0.0																													w	1.0	0.334163188934	None	0.0	1.0	hexagonorange.gif	stop																								0.83	0.5140960216520001	0.000977039337158	0.334163188934	1.0	w	523.939880133																																2015_Jul_08_1245	59.9538300345	LearningTask	1	52	
108	-200.0	a	-200.0																	0.0	0.0	0.0	0.0	21.0	1.0	85.0	3.0																													a	1.0	0.334316968918	None	0.0	4.0	invertedtrianglegray.gif	stop																								3.8	0.514400005341	0.000946044921875	0.334316968918	1.0	a	526.943695068																																2015_Jul_08_1245	59.9538300345	LearningTask	1	52	
109	200.0	w	200.0																	0.0	0.0	0.0	0.0	21.0	2.0	86.0	0.0																													w	1.0	0.31712603569000003	None	0.0	2.0	squareyellow.gif	go																								2.11	0.514251947403	0.0009019374847410001	0.31712603569000003	1.0	w	529.946452141																																2015_Jul_08_1245	59.9538300345	LearningTask	1	52	
110	200.0	s	-200.0																	0.0	0.0	0.0	0.0	21.0	3.0	87.0	2.0																													s	1.0	0.367125988007	None	0.0	4.0	diamondmagenta.gif	go																								4.14	0.514826059341	0.0011260509491	0.367125988007	1.0	s	532.95016408																																2015_Jul_08_1245	59.9538300345	LearningTask	1	52	
111	-200.0	q	200.0																	0.0	0.0	0.0	0.0	22.0	0.0	88.0	1.0																													q	1.0	0.317591190338	None	0.0	4.0	diamondmagenta.gif	go																								4.03	0.5142140388490001	0.00094199180603	0.317591190338	1.0	q	535.953388214																																2015_Jul_08_1245	59.9538300345	LearningTask	1	52	
112	200.0	w	200.0																	0.0	0.0	0.0	0.0	22.0	1.0	89.0	0.0																													w	1.0	0.35112094879199995	None	0.0	2.0	squareyellow.gif	go																								0.0	0.514425992966	0.0008990764617919999	0.334424972534	0.0	s	538.956824064	1.76	0.515448093414	0.00109815597534	0.35112094879199995	1.0	w	541.960415125																									2015_Jul_08_1245	59.9538300345	LearningTask	1	52	
113	200.0	s	-200.0																	0.0	0.0	0.0	0.0	22.0	2.0	90.0	2.0																													s	1.0	0.383906841278	None	0.0	1.0	hexagonorange.gif	stop																								0.97	0.5143711566929999	0.0009031295776369999	0.383906841278	1.0	s	544.963506222																																2015_Jul_08_1245	59.9538300345	LearningTask	1	52	
114	-200.0	a	-200.0																	0.0	0.0	0.0	0.0	22.0	3.0	91.0	3.0																													a	1.0	0.384514093399	None	0.0	0.5	trianglewhite.gif	stop																								0.0	0.514482975006	0.0008978843688960001	0.384514093399	1.0	a	547.9670062069999																																2015_Jul_08_1245	59.9538300345	LearningTask	1	52	
115	-200.0	q	200.0																	0.0	0.0	0.0	0.0	23.0	0.0	92.0	1.0																													q	1.0	0.367759943008	None	0.0	4.0	invertedtrianglegray.gif	stop																								4.24	0.514205217361	0.000917196273804	0.367759943008	1.0	q	550.970243216																																2015_Jul_08_1245	59.9538300345	LearningTask	1	52	
116	-200.0	q	200.0																	0.0	0.0	0.0	0.0	23.0	1.0	93.0	1.0																													q	1.0	0.333849906921	None	0.0	4.0	invertedtrianglegray.gif	stop																								4.16	0.5145039558410001	0.0009109973907470001	0.333849906921	1.0	q	553.973631144																																2015_Jul_08_1245	59.9538300345	LearningTask	1	52	
117	-200.0	q	200.0																	0.0	0.0	0.0	0.0	23.0	2.0	94.0	1.0																													q	1.0	0.36729001998899996	None	0.0	4.0	diamondmagenta.gif	go																								4.04	0.514522075653	0.00090503692627	0.36729001998899996	1.0	q	556.977668047																																2015_Jul_08_1245	59.9538300345	LearningTask	1	52	
118	200.0	w	200.0																	0.0	0.0	0.0	0.0	23.0	3.0	95.0	0.0																													w	1.0	0.367762804031	None	0.0	4.0	diamondmagenta.gif	go																								4.14	0.513323068619	0.000913143157959	0.367762804031	1.0	w	559.980782032																																2015_Jul_08_1245	59.9538300345	LearningTask	1	52	
119	-200.0	q	200.0																	0.0	0.0	0.0	0.0	24.0	0.0	96.0	1.0																													q	1.0	0.401293039322	None	0.0	2.0	squareyellow.gif	go																								1.8	0.5141119956970001	0.0008919239044189998	0.401293039322	1.0	q	562.983844042																																2015_Jul_08_1245	59.9538300345	LearningTask	1	52	
120	200.0	s	-200.0																	0.0	0.0	0.0	0.0	24.0	1.0	97.0	2.0																													s	1.0	0.417411088943	None	0.0	4.0	invertedtrianglegray.gif	stop																								3.79	0.514532804489	0.000898838043213	0.417411088943	1.0	s	565.987390995																																2015_Jul_08_1245	59.9538300345	LearningTask	1	52	
121	200.0	s	-200.0																	0.0	0.0	0.0	0.0	24.0	2.0	98.0	2.0																													s	1.0	0.333986997604	None	0.0	4.0	diamondmagenta.gif	go																								0.0	0.513803005219	0.0010681152343800001	0.333986997604	1.0	s	568.990804195																																2015_Jul_08_1245	59.9538300345	LearningTask	1	52	
122	-200.0	q	200.0																	0.0	0.0	0.0	0.0	24.0	3.0	99.0	1.0																													q	1.0	0.334157943726	None	0.0	4.0	diamondmagenta.gif	go																								0.0	0.514162063599	0.00105690956116	0.334157943726	1.0	q	571.994281054																																2015_Jul_08_1245	59.9538300345	LearningTask	1	52	
123																				0.0	0.0	0.0	0.0																																																																														9.0	10.1819519997																							2015_Jul_08_1245	59.9538300345	LearningTask	1	52	
124	200.0	s	-200.0																	1.0	0.0	1.0	0.0	0.0	0.0	0.0	2.0																													s	1.0	0.383908033371	None	0.0	2.0	squareyellow.gif	go																								1.75	0.50944185257	0.0009520053863530001	0.383908033371	1.0	s	585.659960032																																2015_Jul_08_1245	59.9538300345	LearningTask	1	52	
125	200.0	s	-200.0																	1.0	0.0	1.0	0.0	0.0	1.0	1.0	2.0																													s	1.0	0.350647926331	None	0.0	2.0	crosscyan.gif	stop																								1.96	0.5136461257930001	0.0008971691131589999	0.350647926331	1.0	s	588.662900209																																2015_Jul_08_1245	59.9538300345	LearningTask	1	52	
126	-200.0	a	-200.0																	1.0	0.0	1.0	0.0	0.0	2.0	2.0	3.0																													a	1.0	0.367702007294	None	0.0	2.0	crosscyan.gif	stop																								2.2	0.513601064682	0.0009541511535639998	0.367702007294	1.0	a	591.666120052																																2015_Jul_08_1245	59.9538300345	LearningTask	1	52	
127	200.0	w	200.0																	1.0	0.0	1.0	0.0	0.0	3.0	3.0	0.0																													w	1.0	0.31748008728	None	0.0	0.5	trianglewhite.gif	stop																								0.49	0.514256000519	0.0008950233459470001	0.31748008728	1.0	w	594.669594049																																2015_Jul_08_1245	59.9538300345	LearningTask	1	52	
128	-200.0	q	200.0																	1.0	0.0	1.0	0.0	1.0	0.0	4.0	1.0																													q	1.0	0.284142971039	None	0.0	2.0	squareyellow.gif	go																								1.77	0.514512062073	0.0008950233459470001	0.284142971039	1.0	q	597.673119068																																2015_Jul_08_1245	59.9538300345	LearningTask	1	52	
129	200.0	w	200.0																	1.0	0.0	1.0	0.0	1.0	1.0	5.0	0.0																													w	1.0	0.367760181427	None	0.0	1.0	hexagonorange.gif	stop																								0.0	0.513879060745	0.0008990764617919999	0.367760181427	1.0	w	600.676275015																																2015_Jul_08_1245	59.9538300345	LearningTask	1	52	
130	-200.0	q	200.0																	1.0	0.0	1.0	0.0	1.0	2.0	6.0	1.0																													q	1.0	0.384095907211	None	0.0	4.0	diamondmagenta.gif	go																								0.0	0.514360189438	0.000890016555786	0.384095907211	1.0	q	603.680255175																																2015_Jul_08_1245	59.9538300345	LearningTask	1	52	
131	-200.0	q	200.0																	1.0	0.0	1.0	0.0	1.0	3.0	7.0	1.0																													q	1.0	0.36750793456999997	None	0.0	2.0	crosscyan.gif	stop																								0.0	0.513798952103	0.000908851623535	0.36750793456999997	1.0	q	606.683474064																																2015_Jul_08_1245	59.9538300345	LearningTask	1	52	
132	-200.0	q	200.0																	1.0	0.0	1.0	0.0	2.0	0.0	8.0	1.0																													q	1.0	0.317196846008	None	0.0	2.0	crosscyan.gif	stop																								1.8	0.514153957367	0.000996112823486	0.317196846008	1.0	q	609.686505079																																2015_Jul_08_1245	59.9538300345	LearningTask	1	52	
133	200.0	w	200.0																	1.0	0.0	1.0	0.0	2.0	1.0	9.0	0.0																													w	1.0	0.284045934677	None	0.0	0.5	trianglewhite.gif	stop																								0.0	0.514451026917	0.0009398460388180001	0.284045934677	1.0	w	612.690080166																																2015_Jul_08_1245	59.9538300345	LearningTask	1	52	
134	-200.0	a	-200.0																	1.0	0.0	1.0	0.0	2.0	2.0	10.0	3.0																													a	1.0	0.36842298507700005	None	0.0	4.0	invertedtrianglegray.gif	stop																								4.19	0.513872861862	0.000898838043213	0.36842298507700005	1.0	a	615.693239212																																2015_Jul_08_1245	59.9538300345	LearningTask	1	52	
135	-200.0	q	200.0																	1.0	0.0	1.0	0.0	2.0	3.0	11.0	1.0																													q	1.0	0.350866794586	None	0.0	0.5	linegreen.gif	go																								0.0	0.514225959778	0.0009129047393799999	0.350866794586	1.0	q	618.696331024																																2015_Jul_08_1245	59.9538300345	LearningTask	1	52	
136	-200.0	q	200.0																	1.0	0.0	1.0	0.0	3.0	0.0	12.0	1.0																													q	1.0	0.384263038635	None	0.0	4.0	diamondmagenta.gif	go																								3.99	0.5144300460819999	0.00101900100708	0.384263038635	1.0	q	621.700138092																																2015_Jul_08_1245	59.9538300345	LearningTask	1	52	
137	200.0	s	-200.0																	1.0	0.0	1.0	0.0	3.0	1.0	13.0	2.0																													s	1.0	0.367161035538	None	0.0	1.0	circleblue.gif	go																								0.82	0.514204978943	0.0008950233459470001	0.367161035538	1.0	s	624.703366041																																2015_Jul_08_1245	59.9538300345	LearningTask	1	52	
138	-200.0	a	-200.0																	1.0	0.0	1.0	0.0	3.0	2.0	14.0	3.0																													a	1.0	0.334906101227	None	0.0	4.0	diamondmagenta.gif	go																								4.14	0.513934850693	0.0009629726409910001	0.334906101227	1.0	a	627.706676006																																2015_Jul_08_1245	59.9538300345	LearningTask	1	52	
139	-200.0	q	200.0																	1.0	0.0	1.0	0.0	3.0	3.0	15.0	1.0																													q	1.0	0.350803852081	None	0.0	1.0	circleblue.gif	go																								1.15	0.514003038406	0.00094199180603	0.350803852081	1.0	q	630.710045099																																2015_Jul_08_1245	59.9538300345	LearningTask	1	52	
140	200.0	w	200.0																	1.0	0.0	1.0	0.0	4.0	0.0	16.0	0.0																													w	1.0	0.334414958954	None	0.0	4.0	invertedtrianglegray.gif	stop																								3.86	0.514415979385	0.000892877578735	0.334414958954	1.0	w	633.713365078																																2015_Jul_08_1245	59.9538300345	LearningTask	1	52	
141	-200.0	q	200.0																	1.0	0.0	1.0	0.0	4.0	1.0	17.0	1.0																													q	1.0	0.300536155701	None	0.0	2.0	squareyellow.gif	go																								2.18	0.514372825623	0.0009257793426510001	0.300536155701	1.0	q	636.7173061369999																																2015_Jul_08_1245	59.9538300345	LearningTask	1	52	
142	200.0	w	200.0																	1.0	0.0	1.0	0.0	4.0	2.0	18.0	0.0																													w	1.0	0.334144115448	None	0.0	1.0	circleblue.gif	go																								0.86	0.513781070709	0.0008981227874760001	0.334144115448	1.0	w	639.720079184																																2015_Jul_08_1245	59.9538300345	LearningTask	1	52	
143	-200.0	a	-200.0																	1.0	0.0	1.0	0.0	4.0	3.0	19.0	3.0																													a	1.0	0.26749587059	None	0.0	2.0	crosscyan.gif	stop																								0.0	0.514735937119	0.0008859634399410001	0.333651065826	0.0	q	642.7235090730001	1.75	0.515611171722	0.0009751319885249999	0.26749587059	1.0	a	645.727514029																									2015_Jul_08_1245	59.9538300345	LearningTask	1	52	
144	200.0	s	-200.0																	1.0	0.0	1.0	0.0	5.0	0.0	20.0	2.0																													s	1.0	0.45113992691000004	None	0.0	0.5	linegreen.gif	go																								0.6	0.513059139252	0.0008840560913089999	0.45113992691000004	1.0	s	648.7302231790001																																2015_Jul_08_1245	59.9538300345	LearningTask	1	52	
145	-200.0	a	-200.0																	1.0	0.0	1.0	0.0	5.0	1.0	21.0	3.0																													a	1.0	0.417515039444	None	0.0	2.0	crosscyan.gif	stop																								0.0	0.5143709182739999	0.000877857208252	0.417515039444	1.0	a	651.733978987																																2015_Jul_08_1245	59.9538300345	LearningTask	1	52	
146	200.0	s	-200.0																	1.0	0.0	1.0	0.0	5.0	2.0	22.0	2.0																													s	1.0	0.35070204734800003	None	0.0	1.0	hexagonorange.gif	stop																								1.23	0.514473199844	0.0008831024169919999	0.35070204734800003	1.0	s	654.737263203																																2015_Jul_08_1245	59.9538300345	LearningTask	1	52	
147	-200.0	q	200.0																	1.0	0.0	1.0	0.0	5.0	3.0	23.0	1.0																													q	1.0	0.35043311119099996	None	0.0	2.0	crosscyan.gif	stop																								1.79	0.5143718719479999	0.000880002975464	0.35043311119099996	1.0	q	657.740330219																																2015_Jul_08_1245	59.9538300345	LearningTask	1	52	
148	-200.0	a	-200.0																	1.0	0.0	1.0	0.0	6.0	0.0	24.0	3.0																													a	1.0	0.367233037949	None	0.0	2.0	squareyellow.gif	go																								2.21	0.514443159103	0.0009560585021970001	0.367233037949	1.0	a	660.7438762190001																																2015_Jul_08_1245	59.9538300345	LearningTask	1	52	
149	-200.0	q	200.0																	1.0	0.0	1.0	0.0	6.0	1.0	25.0	1.0																													q	1.0	0.417495965958	None	0.0	0.5	trianglewhite.gif	stop																								0.41	0.5141780376430001	0.0008959770202639998	0.417495965958	1.0	q	663.746872187																																2015_Jul_08_1245	59.9538300345	LearningTask	1	52	
150	-200.0	a	-200.0																	1.0	0.0	1.0	0.0	6.0	2.0	26.0	3.0																													a	1.0	0.351058006287	None	0.0	0.5	linegreen.gif	go																								0.4	0.514673948288	0.0008780956268310002	0.351058006287	1.0	a	666.7503161430001																																2015_Jul_08_1245	59.9538300345	LearningTask	1	52	
151	200.0	w	200.0																	1.0	0.0	1.0	0.0	6.0	3.0	27.0	0.0																													w	1.0	0.31746602058400003	None	0.0	2.0	squareyellow.gif	go																								2.2	0.514414072037	0.0011510848999000001	0.31746602058400003	1.0	w	669.753945112																																2015_Jul_08_1245	59.9538300345	LearningTask	1	52	
152	-200.0	a	-200.0																	1.0	0.0	1.0	0.0	7.0	0.0	28.0	3.0																													a	1.0	0.400417089462	None	0.0	0.5	linegreen.gif	go																								0.0	0.514662981033	0.00088095664978	0.400417089462	1.0	a	672.757280111																																2015_Jul_08_1245	59.9538300345	LearningTask	1	52	
153	200.0	s	-200.0																	1.0	0.0	1.0	0.0	7.0	1.0	29.0	2.0																													s	1.0	0.367560148239	None	0.0	1.0	circleblue.gif	go																								0.0	0.514420032501	0.0009329319000239999	0.367560148239	1.0	s	675.760663033																																2015_Jul_08_1245	59.9538300345	LearningTask	1	52	
154	200.0	w	200.0																	1.0	0.0	1.0	0.0	7.0	2.0	30.0	0.0																													w	1.0	0.351612091064	None	0.0	2.0	squareyellow.gif	go																								2.17	0.513818979263	0.0009100437164310001	0.351612091064	1.0	w	678.764230013																																2015_Jul_08_1245	59.9538300345	LearningTask	1	52	
155	-200.0	q	200.0																	1.0	0.0	1.0	0.0	7.0	3.0	31.0	1.0																													q	1.0	0.367446899414	None	0.0	4.0	invertedtrianglegray.gif	stop																								3.77	0.514115095139	0.0008940696716310001	0.367446899414	1.0	q	681.76791501																																2015_Jul_08_1245	59.9538300345	LearningTask	1	52	
156	-200.0	a	-200.0																	1.0	0.0	1.0	0.0	8.0	0.0	32.0	3.0																													a	1.0	0.33439207077	None	0.0	4.0	diamondmagenta.gif	go																								3.75	0.513482093811	0.000887155532837	0.33439207077	1.0	a	684.770831108																																2015_Jul_08_1245	59.9538300345	LearningTask	1	52	
157	200.0	s	-200.0																	1.0	0.0	1.0	0.0	8.0	1.0	33.0	2.0																													s	1.0	0.367456912994	None	0.0	0.5	trianglewhite.gif	stop																								0.0	0.514364004135	0.00088906288147	0.367456912994	1.0	s	687.774493217																																2015_Jul_08_1245	59.9538300345	LearningTask	1	52	
158	200.0	s	-200.0																	1.0	0.0	1.0	0.0	8.0	2.0	34.0	2.0																													s	1.0	0.350869894028	None	0.0	0.5	trianglewhite.gif	stop																								0.0	0.5141639709470001	0.0009570121765139998	0.350869894028	1.0	s	690.777647018																																2015_Jul_08_1245	59.9538300345	LearningTask	1	52	
159	-200.0	a	-200.0																	1.0	0.0	1.0	0.0	8.0	3.0	35.0	3.0																													a	1.0	0.367522001266	None	0.0	4.0	diamondmagenta.gif	go																								0.0	0.514157056808	0.000880002975464	0.367522001266	1.0	a	693.78154707																																2015_Jul_08_1245	59.9538300345	LearningTask	1	52	
160	200.0	w	200.0																	1.0	0.0	1.0	0.0	9.0	0.0	36.0	0.0																													w	1.0	0.30042290687600004	None	0.0	1.0	circleblue.gif	go																								1.15	0.513818025589	0.0008950233459470001	0.30042290687600004	1.0	w	696.784464121																																2015_Jul_08_1245	59.9538300345	LearningTask	1	52	
161	200.0	s	-200.0																	1.0	0.0	1.0	0.0	9.0	1.0	37.0	2.0																													s	1.0	0.334274053574	None	0.0	1.0	hexagonorange.gif	stop																								1.06	0.513951063156	0.0009601116180419999	0.334274053574	1.0	s	699.787519217																																2015_Jul_08_1245	59.9538300345	LearningTask	1	52	
162	-200.0	a	-200.0																	1.0	0.0	1.0	0.0	9.0	2.0	38.0	3.0																													a	1.0	0.350991010666	None	0.0	4.0	invertedtrianglegray.gif	stop																								4.02	0.514686107635	0.000900983810425	0.350991010666	1.0	a	702.791223049																																2015_Jul_08_1245	59.9538300345	LearningTask	1	52	
163	200.0	w	200.0																	1.0	0.0	1.0	0.0	9.0	3.0	39.0	0.0																													w	1.0	0.31770610809300004	None	0.0	4.0	diamondmagenta.gif	go																								0.0	0.514361143112	0.000922203063965	0.31770610809300004	1.0	w	705.794376135																																2015_Jul_08_1245	59.9538300345	LearningTask	1	52	
164	200.0	s	-200.0																	1.0	0.0	1.0	0.0	10.0	0.0	40.0	2.0																													s	1.0	0.38441586494400004	None	0.0	0.5	trianglewhite.gif	stop																								0.0	0.5145030021670001	0.0009489059448239998	0.38441586494400004	1.0	s	708.798158169																																2015_Jul_08_1245	59.9538300345	LearningTask	1	52	
165	200.0	w	200.0																	1.0	0.0	1.0	0.0	10.0	1.0	41.0	0.0																													w	1.0	0.33382987976100004	None	0.0	2.0	squareyellow.gif	go																								2.14	0.514182090759	0.0008749961853029999	0.33382987976100004	1.0	w	711.801297188																																2015_Jul_08_1245	59.9538300345	LearningTask	1	52	
166	200.0	s	-200.0																	1.0	0.0	1.0	0.0	10.0	2.0	42.0	2.0																													s	1.0	0.334273099899	None	0.0	1.0	hexagonorange.gif	stop																								1.0	0.514272212982	0.0009570121765139998	0.334273099899	1.0	s	714.804679155																																2015_Jul_08_1245	59.9538300345	LearningTask	1	52	
167	200.0	w	200.0																	1.0	0.0	1.0	0.0	10.0	3.0	43.0	0.0																													w	1.0	0.367529153824	None	0.0	1.0	hexagonorange.gif	stop																								0.99	0.5140080451969999	0.0009140968322749999	0.367529153824	1.0	w	717.808248043																																2015_Jul_08_1245	59.9538300345	LearningTask	1	52	
168	200.0	w	200.0																	1.0	0.0	1.0	0.0	11.0	0.0	44.0	0.0																													w	1.0	0.383845806122	None	0.0	2.0	crosscyan.gif	stop																								2.11	0.514462947845	0.0008759498596189999	0.383845806122	1.0	w	720.81111002																																2015_Jul_08_1245	59.9538300345	LearningTask	1	52	
169	-200.0	q	200.0																	1.0	0.0	1.0	0.0	11.0	1.0	45.0	1.0																													q	1.0	0.384799003601	None	0.0	1.0	hexagonorange.gif	stop																								0.0	0.514132022858	0.000926971435547	0.384799003601	1.0	q	723.814601183																																2015_Jul_08_1245	59.9538300345	LearningTask	1	52	
170	200.0	s	-200.0																	1.0	0.0	1.0	0.0	11.0	2.0	46.0	2.0																													s	1.0	0.36767005920400003	None	0.0	0.5	trianglewhite.gif	stop																								0.29	0.514352083206	0.00100302696228	0.36767005920400003	1.0	s	726.81817317																																2015_Jul_08_1245	59.9538300345	LearningTask	1	52	
171	200.0	w	200.0																	1.0	0.0	1.0	0.0	11.0	3.0	47.0	0.0																													w	1.0	0.284055948257	None	0.0	0.5	trianglewhite.gif	stop																								0.45	0.514112949371	0.0008790493011469999	0.284055948257	1.0	w	729.8214111330001																																2015_Jul_08_1245	59.9538300345	LearningTask	1	52	
172	-200.0	a	-200.0																	1.0	0.0	1.0	0.0	12.0	0.0	48.0	3.0																													a	1.0	0.300515890121	None	0.0	2.0	squareyellow.gif	go																								2.19	0.514382839203	0.0008718967437739999	0.300515890121	1.0	a	732.82547307																																2015_Jul_08_1245	59.9538300345	LearningTask	1	52	
173	200.0	w	200.0																	1.0	0.0	1.0	0.0	12.0	1.0	49.0	0.0																													w	1.0	0.400291919708	None	0.0	4.0	diamondmagenta.gif	go																								4.13	0.513694047928	0.000890016555786	0.400291919708	1.0	w	735.828507185																																2015_Jul_08_1245	59.9538300345	LearningTask	1	52	
174	-200.0	a	-200.0																	1.0	0.0	1.0	0.0	12.0	2.0	50.0	3.0																													a	1.0	0.40070295333899997	None	0.0	1.0	circleblue.gif	go																								1.2	0.514014005661	0.000887155532837	0.40070295333899997	1.0	a	738.831854105																																2015_Jul_08_1245	59.9538300345	LearningTask	1	52	
175	-200.0	a	-200.0																	1.0	0.0	1.0	0.0	12.0	3.0	51.0	3.0																													a	1.0	0.367941856384	None	0.0	0.5	trianglewhite.gif	stop																								0.32	0.513849973679	0.0009658336639400001	0.367941856384	1.0	a	741.8352332119999																																2015_Jul_08_1245	59.9538300345	LearningTask	1	52	
176	200.0	w	200.0																	1.0	0.0	1.0	0.0	13.0	0.0	52.0	0.0																													w	1.0	0.334239006042	None	0.0	0.5	linegreen.gif	go																								0.29	0.513827085495	0.00102400779724	0.334239006042	1.0	w	744.838335037																																2015_Jul_08_1245	59.9538300345	LearningTask	1	52	
177	-200.0	a	-200.0																	1.0	0.0	1.0	0.0	13.0	1.0	53.0	3.0																													a	1.0	0.333938837051	None	0.0	0.5	linegreen.gif	go																								0.35	0.5145711898800001	0.00088095664978	0.333938837051	1.0	a	747.84171319																																2015_Jul_08_1245	59.9538300345	LearningTask	1	52	
178	200.0	s	-200.0																	1.0	0.0	1.0	0.0	13.0	2.0	54.0	2.0																													s	1.0	0.33407807350200003	None	0.0	0.5	trianglewhite.gif	stop																								0.46	0.514425992966	0.0008769035339360002	0.33407807350200003	1.0	s	750.8451271060001																																2015_Jul_08_1245	59.9538300345	LearningTask	1	52	
179	-200.0	q	200.0																	1.0	0.0	1.0	0.0	13.0	3.0	55.0	1.0																													q	1.0	0.31778788566599997	None	0.0	1.0	circleblue.gif	go																								1.21	0.514219045639	0.0009350776672360002	0.31778788566599997	1.0	q	753.848301172																																2015_Jul_08_1245	59.9538300345	LearningTask	1	52	
180	-200.0	q	200.0																	1.0	0.0	1.0	0.0	14.0	0.0	56.0	1.0																													q	1.0	0.367523908615	None	0.0	2.0	crosscyan.gif	stop																								2.22	0.514670133591	0.00105500221252	0.367523908615	1.0	q	756.8520832060001																																2015_Jul_08_1245	59.9538300345	LearningTask	1	52	
181	-200.0	q	200.0																	1.0	0.0	1.0	0.0	14.0	1.0	57.0	1.0																													q	1.0	0.36712193489100003	None	0.0	4.0	invertedtrianglegray.gif	stop																								3.99	0.5143120288849999	0.0008769035339360002	0.36712193489100003	1.0	q	759.8553771969999																																2015_Jul_08_1245	59.9538300345	LearningTask	1	52	
182	-200.0	a	-200.0																	1.0	0.0	1.0	0.0	14.0	2.0	58.0	3.0																													a	1.0	0.333925008774	None	0.0	2.0	squareyellow.gif	go																								2.07	0.514256954193	0.00093412399292	0.333925008774	1.0	a	762.858855009																																2015_Jul_08_1245	59.9538300345	LearningTask	1	52	
183	200.0	s	-200.0																	1.0	0.0	1.0	0.0	14.0	3.0	59.0	2.0																													s	1.0	0.35150814056400004	None	0.0	0.5	linegreen.gif	go																								0.51	0.513656139374	0.0008840560913089999	0.35150814056400004	1.0	s	765.8621521000001																																2015_Jul_08_1245	59.9538300345	LearningTask	1	52	
184	200.0	w	200.0																	1.0	0.0	1.0	0.0	15.0	0.0	60.0	0.0																													w	1.0	0.300904035568	None	0.0	0.5	linegreen.gif	go																								0.0	0.514195919037	0.000873804092407	0.300904035568	1.0	w	768.865396023																																2015_Jul_08_1245	59.9538300345	LearningTask	1	52	
185	-200.0	a	-200.0																	1.0	0.0	1.0	0.0	15.0	1.0	61.0	3.0																													a	1.0	0.35123896598800003	None	0.0	1.0	hexagonorange.gif	stop																								0.91	0.5140521526340001	0.0008862018585209999	0.35123896598800003	1.0	a	771.8689000610001																																2015_Jul_08_1245	59.9538300345	LearningTask	1	52	
186	-200.0	q	200.0																	1.0	0.0	1.0	0.0	15.0	2.0	62.0	1.0																													q	1.0	0.250713825226	None	0.0	1.0	circleblue.gif	go																								0.0	0.514293909073	0.0009059906005860001	0.38401198387100005	0.0	w	774.8720600610001	1.19	0.515697002411	0.0009450912475589999	0.250713825226	1.0	q	777.8755371569999																									2015_Jul_08_1245	59.9538300345	LearningTask	1	52	
187	-200.0	q	200.0																	1.0	0.0	1.0	0.0	15.0	3.0	63.0	1.0																													q	1.0	0.334172010422	None	0.0	1.0	hexagonorange.gif	stop																								0.0	0.514053106308	0.000880002975464	0.334172010422	1.0	q	780.879359007																																2015_Jul_08_1245	59.9538300345	LearningTask	1	52	
188	200.0	w	200.0																	1.0	0.0	1.0	0.0	16.0	0.0	64.0	0.0																													w	1.0	0.38364315033	None	0.0	0.5	linegreen.gif	go																								0.64	0.514148950577	0.00088095664978	0.38364315033	1.0	w	783.882508039																																2015_Jul_08_1245	59.9538300345	LearningTask	1	52	
189	200.0	s	-200.0																	1.0	0.0	1.0	0.0	16.0	1.0	65.0	2.0																													s	1.0	0.367347955704	None	0.0	0.5	trianglewhite.gif	stop																								0.53	0.51419210434	0.0008840560913089999	0.367347955704	1.0	s	786.8858211039999																																2015_Jul_08_1245	59.9538300345	LearningTask	1	52	
190	-200.0	q	200.0																	1.0	0.0	1.0	0.0	16.0	2.0	66.0	1.0																													q	1.0	0.400907039642	None	0.0	0.5	linegreen.gif	go																								0.0	0.514120817184	0.00088095664978	0.400907039642	1.0	q	789.88916111																																2015_Jul_08_1245	59.9538300345	LearningTask	1	52	
191	-200.0	a	-200.0																	1.0	0.0	1.0	0.0	16.0	3.0	67.0	3.0																													a	1.0	0.384333848953	None	0.0	4.0	invertedtrianglegray.gif	stop																								4.15	0.514439105988	0.00114297866821	0.384333848953	1.0	a	792.892251015																																2015_Jul_08_1245	59.9538300345	LearningTask	1	52	
192	200.0	s	-200.0																	1.0	0.0	1.0	0.0	17.0	0.0	68.0	2.0																													s	1.0	0.36797714233400003	None	0.0	4.0	diamondmagenta.gif	go																								3.9	0.514402151108	0.0009551048278810001	0.36797714233400003	1.0	s	795.8958442210001																																2015_Jul_08_1245	59.9538300345	LearningTask	1	52	
193	200.0	s	-200.0																	1.0	0.0	1.0	0.0	17.0	1.0	69.0	2.0																													s	1.0	0.367517948151	None	0.0	4.0	invertedtrianglegray.gif	stop																								3.77	0.514227151871	0.000887155532837	0.367517948151	1.0	s	798.89903307																																2015_Jul_08_1245	59.9538300345	LearningTask	1	52	
194	-200.0	a	-200.0																	1.0	0.0	1.0	0.0	17.0	2.0	70.0	3.0																													a	1.0	0.367193937302	None	0.0	1.0	hexagonorange.gif	stop																								1.19	0.514423847198	0.000898838043213	0.367193937302	1.0	a	801.903039217																																2015_Jul_08_1245	59.9538300345	LearningTask	1	52	
195	200.0	s	-200.0																	1.0	0.0	1.0	0.0	17.0	3.0	71.0	2.0																													s	1.0	0.400922060013	None	0.0	2.0	squareyellow.gif	go																								2.15	0.513569116592	0.0009109973907470001	0.400922060013	1.0	s	804.9062061310001																																2015_Jul_08_1245	59.9538300345	LearningTask	1	52	
196	-200.0	a	-200.0																	1.0	0.0	1.0	0.0	18.0	0.0	72.0	3.0																													a	1.0	0.31772804260299997	None	0.0	4.0	invertedtrianglegray.gif	stop																								0.0	0.513920068741	0.000881910324097	0.31772804260299997	1.0	a	807.909276009																																2015_Jul_08_1245	59.9538300345	LearningTask	1	52	
197	-200.0	q	200.0																	1.0	0.0	1.0	0.0	18.0	1.0	73.0	1.0																													q	1.0	0.401064157486	None	0.0	2.0	crosscyan.gif	stop																								2.1	0.5142819881440001	0.0009329319000239999	0.401064157486	1.0	q	810.9128341669999																																2015_Jul_08_1245	59.9538300345	LearningTask	1	52	
198	-200.0	a	-200.0																	1.0	0.0	1.0	0.0	18.0	2.0	74.0	3.0																													a	1.0	0.351475000381	None	0.0	4.0	invertedtrianglegray.gif	stop																								4.07	0.513575077057	0.000890016555786	0.351475000381	1.0	a	813.9163801669999																																2015_Jul_08_1245	59.9538300345	LearningTask	1	52	
199	200.0	w	200.0																	1.0	0.0	1.0	0.0	18.0	3.0	75.0	0.0																													w	1.0	0.350404024124	None	0.0	4.0	invertedtrianglegray.gif	stop																								3.88	0.514293909073	0.0008759498596189999	0.350404024124	1.0	w	816.91943717																																2015_Jul_08_1245	59.9538300345	LearningTask	1	52	
200	-200.0	a	-200.0																	1.0	0.0	1.0	0.0	19.0	0.0	76.0	3.0																													a	1.0	0.300688028336	None	0.0	1.0	circleblue.gif	go																								1.07	0.514452934265	0.0008759498596189999	0.300688028336	1.0	a	819.923325062																																2015_Jul_08_1245	59.9538300345	LearningTask	1	52	
201	200.0	w	200.0																	1.0	0.0	1.0	0.0	19.0	1.0	77.0	0.0																													w	1.0	0.38423299789399995	None	0.0	4.0	diamondmagenta.gif	go																								4.02	0.513622999191	0.0008878707885739998	0.38423299789399995	1.0	w	822.926279068																																2015_Jul_08_1245	59.9538300345	LearningTask	1	52	
202	200.0	w	200.0																	1.0	0.0	1.0	0.0	19.0	2.0	78.0	0.0																													w	1.0	0.36786198616	None	0.0	4.0	invertedtrianglegray.gif	stop																								0.0	0.514213085175	0.000888109207153	0.36786198616	1.0	w	825.929858208																																2015_Jul_08_1245	59.9538300345	LearningTask	1	52	
203	-200.0	a	-200.0																	1.0	0.0	1.0	0.0	19.0	3.0	79.0	3.0																													a	1.0	0.417162895203	None	0.0	0.5	trianglewhite.gif	stop																								0.0	0.514336109161	0.0008990764617919999	0.417162895203	1.0	a	828.933293104																																2015_Jul_08_1245	59.9538300345	LearningTask	1	52	
204	200.0	s	-200.0																	1.0	0.0	1.0	0.0	20.0	0.0	80.0	2.0																													s	1.0	0.38455700874300003	None	0.0	1.0	circleblue.gif	go																								0.0	0.513706922531	0.0008769035339360002	0.38455700874300003	1.0	s	831.936314106																																2015_Jul_08_1245	59.9538300345	LearningTask	1	52	
205	-200.0	q	200.0																	1.0	0.0	1.0	0.0	20.0	1.0	81.0	1.0																													q	1.0	0.283898115158	None	0.0	0.5	linegreen.gif	go																								0.0	0.514457941055	0.0008859634399410001	0.283898115158	1.0	q	834.939706087																																2015_Jul_08_1245	59.9538300345	LearningTask	1	52	
206	200.0	s	-200.0																	1.0	0.0	1.0	0.0	20.0	2.0	82.0	2.0																													s	1.0	0.36734890937799997	None	0.0	1.0	hexagonorange.gif	stop																								0.79	0.514557123184	0.000888109207153	0.36734890937799997	1.0	s	837.943651199																																2015_Jul_08_1245	59.9538300345	LearningTask	1	52	
207	200.0	s	-200.0																	1.0	0.0	1.0	0.0	20.0	3.0	83.0	2.0																													s	1.0	0.367280960083	None	0.0	2.0	squareyellow.gif	go																								1.96	0.51385307312	0.0009779930114750001	0.367280960083	1.0	s	840.946370125																																2015_Jul_08_1245	59.9538300345	LearningTask	1	52	
208	-200.0	q	200.0																	1.0	0.0	1.0	0.0	21.0	0.0	84.0	1.0																													q	1.0	0.38381910324100005	None	0.0	0.5	trianglewhite.gif	stop																								0.72	0.514811038971	0.00123310089111	0.38381910324100005	1.0	q	843.95010519																																2015_Jul_08_1245	59.9538300345	LearningTask	1	52	
209	200.0	s	-200.0																	1.0	0.0	1.0	0.0	21.0	1.0	85.0	2.0																													s	1.0	0.334384918213	None	0.0	2.0	crosscyan.gif	stop																								0.0	0.5141868591309999	0.0008749961853029999	0.334384918213	1.0	s	846.953200102																																2015_Jul_08_1245	59.9538300345	LearningTask	1	52	
210	200.0	w	200.0																	1.0	0.0	1.0	0.0	21.0	2.0	86.0	0.0																													w	1.0	0.317162036896	None	0.0	4.0	invertedtrianglegray.gif	stop																								4.24	0.5145108699800001	0.0009329319000239999	0.317162036896	1.0	w	849.9566760060001																																2015_Jul_08_1245	59.9538300345	LearningTask	1	52	
211	-200.0	q	200.0																	1.0	0.0	1.0	0.0	21.0	3.0	87.0	1.0																													q	1.0	0.35079193115199997	None	0.0	1.0	circleblue.gif	go																								1.04	0.513824939728	0.000941038131714	0.35079193115199997	1.0	q	852.9600059989999																																2015_Jul_08_1245	59.9538300345	LearningTask	1	52	
212	200.0	w	200.0																	1.0	0.0	1.0	0.0	22.0	0.0	88.0	0.0																													w	1.0	0.350708961487	None	0.0	2.0	crosscyan.gif	stop																								2.17	0.514395952225	0.0008790493011469999	0.350708961487	1.0	w	855.9632470610001																																2015_Jul_08_1245	59.9538300345	LearningTask	1	52	
213	-200.0	q	200.0																	1.0	0.0	1.0	0.0	22.0	1.0	89.0	1.0																													q	1.0	0.36766910553000004	None	0.0	1.0	hexagonorange.gif	stop																								1.21	0.514147043228	0.0009059906005860001	0.36766910553000004	1.0	q	858.9665892119999																																2015_Jul_08_1245	59.9538300345	LearningTask	1	52	
214	-200.0	a	-200.0																	1.0	0.0	1.0	0.0	22.0	2.0	90.0	3.0																													a	1.0	0.384288787842	None	0.0	1.0	circleblue.gif	go																								1.0	0.513967990875	0.000953197479248	0.384288787842	1.0	a	861.970210075																																2015_Jul_08_1245	59.9538300345	LearningTask	1	52	
215	-200.0	a	-200.0																	1.0	0.0	1.0	0.0	22.0	3.0	91.0	3.0																													a	1.0	0.35107207298299997	None	0.0	4.0	invertedtrianglegray.gif	stop																								3.75	0.51443195343	0.0008769035339360002	0.35107207298299997	1.0	a	864.973919153																																2015_Jul_08_1245	59.9538300345	LearningTask	1	52	
216	-200.0	q	200.0																	1.0	0.0	1.0	0.0	23.0	0.0	92.0	1.0																													q	1.0	0.367766141891	None	0.0	2.0	crosscyan.gif	stop																								0.0	0.513871908188	0.0008769035339360002	0.367766141891	1.0	q	867.9772291180001																																2015_Jul_08_1245	59.9538300345	LearningTask	1	52	
217	200.0	w	200.0																	1.0	0.0	1.0	0.0	23.0	1.0	93.0	0.0																													w	1.0	0.317337036133	None	0.0	1.0	circleblue.gif	go																								0.0	0.513857841492	0.0008938312530519999	0.317337036133	1.0	w	870.980148077																																2015_Jul_08_1245	59.9538300345	LearningTask	1	52	
218	200.0	s	-200.0																	1.0	0.0	1.0	0.0	23.0	2.0	94.0	2.0																													s	1.0	0.36727309227	None	0.0	2.0	crosscyan.gif	stop																								2.14	0.514750957489	0.0008859634399410001	0.36727309227	1.0	s	873.9836931230001																																2015_Jul_08_1245	59.9538300345	LearningTask	1	52	
219	200.0	s	-200.0																	1.0	0.0	1.0	0.0	23.0	3.0	95.0	2.0																													s	1.0	0.36789393424999994	None	0.0	0.5	trianglewhite.gif	stop																								0.51	0.514169931412	0.000877857208252	0.36789393424999994	1.0	s	876.987089157																																2015_Jul_08_1245	59.9538300345	LearningTask	1	52	
220	200.0	w	200.0																	1.0	0.0	1.0	0.0	24.0	0.0	96.0	0.0																													w	1.0	0.367264986038	None	0.0	0.5	linegreen.gif	go																								0.64	0.514367103577	0.0008840560913089999	0.367264986038	1.0	w	879.990365028																																2015_Jul_08_1245	59.9538300345	LearningTask	1	52	
221	200.0	s	-200.0																	1.0	0.0	1.0	0.0	24.0	1.0	97.0	2.0																													s	1.0	0.367828130722	None	0.0	1.0	circleblue.gif	go																								1.05	0.514256000519	0.00102305412292	0.367828130722	1.0	s	882.994662046																																2015_Jul_08_1245	59.9538300345	LearningTask	1	52	
222	200.0	w	200.0																	1.0	0.0	1.0	0.0	24.0	2.0	98.0	0.0																													w	1.0	0.30064702034	None	0.0	1.0	hexagonorange.gif	stop																								1.15	0.513601064682	0.0008931159973139998	0.30064702034	1.0	w	885.997445107																																2015_Jul_08_1245	59.9538300345	LearningTask	1	52	
223	-200.0	q	200.0																	1.0	0.0	1.0	0.0	24.0	3.0	99.0	1.0																													q	1.0	0.217612981796	None	0.0	2.0	squareyellow.gif	go																								0.0	0.514009952545	0.000926971435547	0.33405995369	0.0	a	889.0005381110001	2.07	0.515589952469	0.0009629726409910001	0.217612981796	1.0	q	892.003823996																									2015_Jul_08_1245	59.9538300345	LearningTask	1	52	
224																				1.0	0.0	1.0	0.0																																																																														9.0	19.3812508583																							2015_Jul_08_1245	59.9538300345	LearningTask	1	52	
225	200.0	s	-200.0																	2.0	0.0	2.0	0.0	0.0	0.0	0.0	2.0																													s	1.0	0.384749889374	None	0.0	0.5	linegreen.gif	go																								0.0	0.5089540481570001	0.0009241104125980002	0.384749889374	1.0	s	915.097735167																																2015_Jul_08_1245	59.9538300345	LearningTask	1	52	
226	200.0	w	200.0																	2.0	0.0	2.0	0.0	0.0	1.0	1.0	0.0																													w	1.0	0.317311048508	None	0.0	1.0	circleblue.gif	go																								0.0	0.513389110565	0.0008931159973139998	0.317311048508	1.0	w	918.099852085																																2015_Jul_08_1245	59.9538300345	LearningTask	1	52	
227	200.0	w	200.0																	2.0	0.0	2.0	0.0	0.0	2.0	2.0	0.0																													w	1.0	0.351094961166	None	0.0	1.0	hexagonorange.gif	stop																								0.79	0.514071941376	0.0009469985961910001	0.351094961166	1.0	w	921.103492022																																2015_Jul_08_1245	59.9538300345	LearningTask	1	52	
228	200.0	w	200.0																	2.0	0.0	2.0	0.0	0.0	3.0	3.0	0.0																													w	1.0	0.334055900574	None	0.0	0.5	trianglewhite.gif	stop																								0.34	0.514375925064	0.0008859634399410001	0.334055900574	1.0	w	924.1066360469999																																2015_Jul_08_1245	59.9538300345	LearningTask	1	52	
229	200.0	w	200.0																	2.0	0.0	2.0	0.0	1.0	0.0	4.0	0.0																													w	1.0	0.299946069717	None	0.0	1.0	hexagonorange.gif	stop																								1.22	0.514671087265	0.0008821487426760002	0.299946069717	1.0	w	927.110579014																																2015_Jul_08_1245	59.9538300345	LearningTask	1	52	
230	200.0	w	200.0																	2.0	0.0	2.0	0.0	1.0	1.0	5.0	0.0																													w	1.0	0.267106056213	None	0.0	4.0	invertedtrianglegray.gif	stop																								4.2	0.513565063477	0.00088906288147	0.267106056213	1.0	w	930.1135079860001																																2015_Jul_08_1245	59.9538300345	LearningTask	1	52	
231	-200.0	a	-200.0																	2.0	0.0	2.0	0.0	1.0	2.0	6.0	3.0																													a	1.0	0.434159994125	None	0.0	0.5	linegreen.gif	go																								0.71	0.5144081115720001	0.0008950233459470001	0.434159994125	1.0	a	933.116827011																																2015_Jul_08_1245	59.9538300345	LearningTask	1	52	
232	-200.0	a	-200.0																	2.0	0.0	2.0	0.0	1.0	3.0	7.0	3.0																													a	1.0	0.367769956589	None	0.0	2.0	squareyellow.gif	go																								2.08	0.513899087906	0.00103402137756	0.367769956589	1.0	a	936.1208410260001																																2015_Jul_08_1245	59.9538300345	LearningTask	1	52	
233	-200.0	a	-200.0																	2.0	0.0	2.0	0.0	2.0	0.0	8.0	3.0																													a	1.0	0.384613037109	None	0.0	0.5	linegreen.gif	go																								0.0	0.513334989548	0.000900983810425	0.384613037109	1.0	a	939.123583078																																2015_Jul_08_1245	59.9538300345	LearningTask	1	52	
234	200.0	w	200.0																	2.0	0.0	2.0	0.0	2.0	1.0	9.0	0.0																													w	1.0	0.317846059799	None	0.0	4.0	invertedtrianglegray.gif	stop																								0.0	0.5141270160679999	0.000887155532837	0.317846059799	1.0	w	942.126947165																																2015_Jul_08_1245	59.9538300345	LearningTask	1	52	
235	-200.0	a	-200.0																	2.0	0.0	2.0	0.0	2.0	2.0	10.0	3.0																													a	1.0	0.36738514900200003	None	0.0	2.0	crosscyan.gif	stop																								0.0	0.514351129532	0.000890016555786	0.36738514900200003	1.0	a	945.13046813																																2015_Jul_08_1245	59.9538300345	LearningTask	1	52	
236	200.0	w	200.0																	2.0	0.0	2.0	0.0	2.0	3.0	11.0	0.0																													w	1.0	0.317549943924	None	0.0	2.0	squareyellow.gif	go																								1.83	0.514128923416	0.00086498260498	0.317549943924	1.0	w	948.134273052																																2015_Jul_08_1245	59.9538300345	LearningTask	1	52	
237	-200.0	a	-200.0																	2.0	0.0	2.0	0.0	3.0	0.0	12.0	3.0																													a	1.0	0.36748099327100003	None	0.0	1.0	circleblue.gif	go																								0.0	0.513678789139	0.000964879989624	0.36748099327100003	1.0	a	951.1375150680001																																2015_Jul_08_1245	59.9538300345	LearningTask	1	52	
238	-200.0	q	200.0																	2.0	0.0	2.0	0.0	3.0	1.0	13.0	1.0																													q	1.0	0.351317167282	None	0.0	4.0	invertedtrianglegray.gif	stop																								4.14	0.513758897781	0.0008769035339360002	0.351317167282	1.0	q	954.140626192																																2015_Jul_08_1245	59.9538300345	LearningTask	1	52	
239	-200.0	q	200.0																	2.0	0.0	2.0	0.0	3.0	2.0	14.0	1.0																													q	1.0	0.351259946823	None	0.0	2.0	squareyellow.gif	go																								1.88	0.513957977295	0.000974893569946	0.351259946823	1.0	q	957.143801212																																2015_Jul_08_1245	59.9538300345	LearningTask	1	52	
240	200.0	s	-200.0																	2.0	0.0	2.0	0.0	3.0	3.0	15.0	2.0																													s	1.0	0.250561952591	None	0.0	0.5	linegreen.gif	go																								0.0	0.514138936996	0.0009369850158689999	0.334351062775	0.0	w	960.1472771169999	0.59	0.515700101852	0.0009441375732419999	0.250561952591	1.0	s	963.1510930060001																									2015_Jul_08_1245	59.9538300345	LearningTask	1	52	
241	200.0	w	200.0																	2.0	0.0	2.0	0.0	4.0	0.0	16.0	0.0																													w	1.0	0.283936023712	None	0.0	2.0	squareyellow.gif	go																								0.0	0.513885974884	0.000869989395142	0.283936023712	1.0	w	966.15450716																																2015_Jul_08_1245	59.9538300345	LearningTask	1	52	
242	-200.0	a	-200.0																	2.0	0.0	2.0	0.0	4.0	1.0	17.0	3.0																													a	1.0	0.350980043411	None	0.0	1.0	circleblue.gif	go																								1.06	0.513408899307	0.000892877578735	0.350980043411	1.0	a	969.157552004																																2015_Jul_08_1245	59.9538300345	LearningTask	1	52	
243	-200.0	q	200.0																	2.0	0.0	2.0	0.0	4.0	2.0	18.0	1.0																													q	1.0	0.31797218322799997	None	0.0	4.0	invertedtrianglegray.gif	stop																								0.0	0.514071941376	0.0008718967437739999	0.31797218322799997	1.0	q	972.160609007																																2015_Jul_08_1245	59.9538300345	LearningTask	1	52	
244	200.0	s	-200.0																	2.0	0.0	2.0	0.0	4.0	3.0	19.0	2.0																													s	1.0	0.384010076523	None	0.0	1.0	hexagonorange.gif	stop																								1.19	0.514548063278	0.0008769035339360002	0.384010076523	1.0	s	975.164057016																																2015_Jul_08_1245	59.9538300345	LearningTask	1	52	
245	200.0	s	-200.0																	2.0	0.0	2.0	0.0	5.0	0.0	20.0	2.0																													s	1.0	0.36781811714199997	None	0.0	1.0	circleblue.gif	go																								0.0	0.513946056366	0.0009150505065920001	0.36781811714199997	1.0	s	978.167160988																																2015_Jul_08_1245	59.9538300345	LearningTask	1	52	
246	-200.0	a	-200.0																	2.0	0.0	2.0	0.0	5.0	1.0	21.0	3.0																													a	1.0	0.434359073639	None	0.0	2.0	crosscyan.gif	stop																								0.0	0.514830112457	0.00090503692627	0.434359073639	1.0	a	981.171039104																																2015_Jul_08_1245	59.9538300345	LearningTask	1	52	
247	-200.0	q	200.0																	2.0	0.0	2.0	0.0	5.0	2.0	22.0	1.0																													q	1.0	0.31717300415	None	0.0	2.0	crosscyan.gif	stop																								1.76	0.5144460201259999	0.0008790493011469999	0.31717300415	1.0	q	984.1745982169999																																2015_Jul_08_1245	59.9538300345	LearningTask	1	52	
248	-200.0	a	-200.0																	2.0	0.0	2.0	0.0	5.0	3.0	23.0	3.0																													a	1.0	0.367916107178	None	0.0	2.0	crosscyan.gif	stop																								0.0	0.514056921005	0.0008769035339360002	0.367916107178	1.0	a	987.177389145																																2015_Jul_08_1245	59.9538300345	LearningTask	1	52	
249	-200.0	q	200.0																	2.0	0.0	2.0	0.0	6.0	0.0	24.0	1.0																													q	1.0	0.350764989853	None	0.0	2.0	crosscyan.gif	stop																								1.9	0.5147860050199999	0.0008680820465089999	0.350764989853	1.0	q	990.180725098																																2015_Jul_08_1245	59.9538300345	LearningTask	1	52	
250	200.0	s	-200.0																	2.0	0.0	2.0	0.0	6.0	1.0	25.0	2.0																													s	1.0	0.33388996124299997	None	0.0	2.0	squareyellow.gif	go																								1.96	0.514815807343	0.0009779930114750001	0.33388996124299997	1.0	s	993.1845149989999																																2015_Jul_08_1245	59.9538300345	LearningTask	1	52	
251	200.0	s	-200.0																	2.0	0.0	2.0	0.0	6.0	2.0	26.0	2.0																													s	1.0	0.350882768631	None	0.0	4.0	invertedtrianglegray.gif	stop																								0.0	0.514138936996	0.0008718967437739999	0.350882768631	1.0	s	996.187909126																																2015_Jul_08_1245	59.9538300345	LearningTask	1	52	
252	-200.0	q	200.0																	2.0	0.0	2.0	0.0	6.0	3.0	27.0	1.0																													q	1.0	0.434016942978	None	0.0	1.0	hexagonorange.gif	stop																								1.24	0.514366149902	0.000981092453003	0.434016942978	1.0	q	999.191155195																																2015_Jul_08_1245	59.9538300345	LearningTask	1	52	
253	-200.0	q	200.0																	2.0	0.0	2.0	0.0	7.0	0.0	28.0	1.0																													q	1.0	0.36718702316299995	None	0.0	4.0	diamondmagenta.gif	go																								3.84	0.514400959015	0.0008728504180910001	0.36718702316299995	1.0	q	1002.19452405																																2015_Jul_08_1245	59.9538300345	LearningTask	1	52	
254	-200.0	q	200.0																	2.0	0.0	2.0	0.0	7.0	1.0	29.0	1.0																													q	1.0	0.368115901947	None	0.0	2.0	crosscyan.gif	stop																								0.0	0.513967037201	0.0010600090026900001	0.368115901947	1.0	q	1005.19769621																																2015_Jul_08_1245	59.9538300345	LearningTask	1	52	
255	-200.0	q	200.0																	2.0	0.0	2.0	0.0	7.0	2.0	30.0	1.0																													q	1.0	0.33504509925799997	None	0.0	4.0	diamondmagenta.gif	go																								4.1	0.514171123505	0.000974178314209	0.33504509925799997	1.0	q	1008.20149302																																2015_Jul_08_1245	59.9538300345	LearningTask	1	52	
256	200.0	w	200.0																	2.0	0.0	2.0	0.0	7.0	3.0	31.0	0.0																													w	1.0	0.400631904602	None	0.0	1.0	circleblue.gif	go																								0.98	0.514379024506	0.0008749961853029999	0.400631904602	1.0	w	1011.20466113																																2015_Jul_08_1245	59.9538300345	LearningTask	1	52	
257	200.0	s	-200.0																	2.0	0.0	2.0	0.0	8.0	0.0	32.0	2.0																													s	1.0	0.36756300926200003	None	0.0	2.0	squareyellow.gif	go																								2.25	0.514266014099	0.0008790493011469999	0.36756300926200003	1.0	s	1014.20865703																																2015_Jul_08_1245	59.9538300345	LearningTask	1	52	
258	-200.0	q	200.0																	2.0	0.0	2.0	0.0	8.0	1.0	33.0	1.0																													q	1.0	0.350109100342	None	0.0	4.0	diamondmagenta.gif	go																								3.99	0.513827085495	0.0008821487426760002	0.350109100342	1.0	q	1017.21160221																																2015_Jul_08_1245	59.9538300345	LearningTask	1	52	
259	-200.0	a	-200.0																	2.0	0.0	2.0	0.0	8.0	2.0	34.0	3.0																													a	1.0	0.333918094635	None	0.0	4.0	invertedtrianglegray.gif	stop																								4.04	0.514331102371	0.000880002975464	0.333918094635	1.0	a	1020.21466303																																2015_Jul_08_1245	59.9538300345	LearningTask	1	52	
260	200.0	w	200.0																	2.0	0.0	2.0	0.0	8.0	3.0	35.0	0.0																													w	1.0	0.317414999008	None	0.0	2.0	crosscyan.gif	stop																								0.0	0.514399051666	0.0008909702301030001	0.317414999008	1.0	w	1023.21826005																																2015_Jul_08_1245	59.9538300345	LearningTask	1	52	
261	-200.0	q	200.0																	2.0	0.0	2.0	0.0	9.0	0.0	36.0	1.0																													q	1.0	0.350642204285	None	0.0	2.0	crosscyan.gif	stop																								1.75	0.5141868591309999	0.0008878707885739998	0.350642204285	1.0	q	1026.22180414																																2015_Jul_08_1245	59.9538300345	LearningTask	1	52	
262	200.0	w	200.0																	2.0	0.0	2.0	0.0	9.0	1.0	37.0	0.0																													w	1.0	0.317701101303	None	0.0	0.5	trianglewhite.gif	stop																								0.0	0.514012813568	0.0009160041809079999	0.317701101303	1.0	w	1029.22488213																																2015_Jul_08_1245	59.9538300345	LearningTask	1	52	
263	200.0	w	200.0																	2.0	0.0	2.0	0.0	9.0	2.0	38.0	0.0																													w	1.0	0.384243965149	None	0.0	1.0	circleblue.gif	go																								1.17	0.5146050453190001	0.0008759498596189999	0.384243965149	1.0	w	1032.22833705																																2015_Jul_08_1245	59.9538300345	LearningTask	1	52	
264	200.0	w	200.0																	2.0	0.0	2.0	0.0	9.0	3.0	39.0	0.0																													w	1.0	0.35098505020099996	None	0.0	1.0	circleblue.gif	go																								0.0	0.514157056808	0.0011420249939000002	0.35098505020099996	1.0	w	1035.231776																																2015_Jul_08_1245	59.9538300345	LearningTask	1	52	
265	200.0	w	200.0																	2.0	0.0	2.0	0.0	10.0	0.0	40.0	0.0																													w	1.0	0.333935976028	None	0.0	0.5	trianglewhite.gif	stop																								0.34	0.5142600536349999	0.0009431838989260002	0.333935976028	1.0	w	1038.23557806																																2015_Jul_08_1245	59.9538300345	LearningTask	1	52	
266	200.0	w	200.0																	2.0	0.0	2.0	0.0	10.0	1.0	41.0	0.0																													w	1.0	0.316873073578	None	0.0	2.0	crosscyan.gif	stop																								0.0	0.514292955399	0.0008769035339360002	0.316873073578	1.0	w	1041.23818207																																2015_Jul_08_1245	59.9538300345	LearningTask	1	52	
267	-200.0	q	200.0																	2.0	0.0	2.0	0.0	10.0	2.0	42.0	1.0																													q	1.0	0.351196050644	None	0.0	0.5	trianglewhite.gif	stop																								0.54	0.514381170273	0.00087308883667	0.351196050644	1.0	q	1044.24168801																																2015_Jul_08_1245	59.9538300345	LearningTask	1	52	
268	-200.0	q	200.0																	2.0	0.0	2.0	0.0	10.0	3.0	43.0	1.0																													q	1.0	0.43420791626	None	0.0	0.5	linegreen.gif	go																								0.34	0.514176130295	0.000970125198364	0.43420791626	1.0	q	1047.24501419																																2015_Jul_08_1245	59.9538300345	LearningTask	1	52	
269	200.0	w	200.0																	2.0	0.0	2.0	0.0	11.0	0.0	44.0	0.0																													w	1.0	0.284209012985	None	0.0	2.0	squareyellow.gif	go																								0.0	0.514303922653	0.000877857208252	0.284209012985	1.0	w	1050.2486012																																2015_Jul_08_1245	59.9538300345	LearningTask	1	52	
270	-200.0	a	-200.0																	2.0	0.0	2.0	0.0	11.0	1.0	45.0	3.0																													a	1.0	0.250958919525	None	0.0	1.0	hexagonorange.gif	stop																								0.96	0.514270067215	0.0009019374847410001	0.250958919525	1.0	a	1053.25258017																																2015_Jul_08_1245	59.9538300345	LearningTask	1	52	
271	200.0	w	200.0																	2.0	0.0	2.0	0.0	11.0	2.0	46.0	0.0																													w	1.0	0.334688186646	None	0.0	4.0	invertedtrianglegray.gif	stop																								3.79	0.513298034668	0.0008840560913089999	0.334688186646	1.0	w	1056.25524402																																2015_Jul_08_1245	59.9538300345	LearningTask	1	52	
272	-200.0	a	-200.0																	2.0	0.0	2.0	0.0	11.0	3.0	47.0	3.0																													a	1.0	0.317639112473	None	0.0	1.0	hexagonorange.gif	stop																								0.0	0.514797925949	0.0008859634399410001	0.333788156509	0.0	q	1059.25856614	1.1	0.515786170959	0.00101804733276	0.317639112473	1.0	a	1062.26278615																									2015_Jul_08_1245	59.9538300345	LearningTask	1	52	
273	200.0	w	200.0																	2.0	0.0	2.0	0.0	12.0	0.0	48.0	0.0																													w	1.0	0.38389301299999995	None	0.0	0.5	trianglewhite.gif	stop																								0.0	0.51348400116	0.0008909702301030001	0.38389301299999995	1.0	w	1065.26539421																																2015_Jul_08_1245	59.9538300345	LearningTask	1	52	
274	200.0	s	-200.0																	2.0	0.0	2.0	0.0	12.0	1.0	49.0	2.0																													s	1.0	0.383704900742	None	0.0	0.5	trianglewhite.gif	stop																								0.5	0.514733076096	0.0008749961853029999	0.383704900742	1.0	s	1068.26877618																																2015_Jul_08_1245	59.9538300345	LearningTask	1	52	
275	-200.0	a	-200.0																	2.0	0.0	2.0	0.0	12.0	2.0	50.0	3.0																													a	1.0	0.350522994995	None	0.0	4.0	invertedtrianglegray.gif	stop																								3.89	0.514721155167	0.0008780956268310002	0.350522994995	1.0	a	1071.27251005																																2015_Jul_08_1245	59.9538300345	LearningTask	1	52	
276	-200.0	a	-200.0																	2.0	0.0	2.0	0.0	12.0	3.0	51.0	3.0																													a	1.0	0.41730690002400006	None	0.0	4.0	diamondmagenta.gif	go																								0.0	0.513813972473	0.000917911529541	0.41730690002400006	1.0	a	1074.27623701																																2015_Jul_08_1245	59.9538300345	LearningTask	1	52	
277	200.0	s	-200.0																	2.0	0.0	2.0	0.0	13.0	0.0	52.0	2.0																													s	1.0	0.383497953415	None	0.0	0.5	linegreen.gif	go																								0.0	0.5138828754429999	0.0010628700256300001	0.383497953415	1.0	s	1077.27877402																																2015_Jul_08_1245	59.9538300345	LearningTask	1	52	
278	200.0	s	-200.0																	2.0	0.0	2.0	0.0	13.0	1.0	53.0	2.0																													s	1.0	0.334631919861	None	0.0	4.0	diamondmagenta.gif	go																								4.12	0.514569997787	0.000873804092407	0.334631919861	1.0	s	1080.28233409																																2015_Jul_08_1245	59.9538300345	LearningTask	1	52	
279	-200.0	a	-200.0																	2.0	0.0	2.0	0.0	13.0	2.0	54.0	3.0																													a	1.0	0.350591182709	None	0.0	1.0	hexagonorange.gif	stop																								1.07	0.514482975006	0.0008831024169919999	0.350591182709	1.0	a	1083.28579712																																2015_Jul_08_1245	59.9538300345	LearningTask	1	52	
280	-200.0	q	200.0																	2.0	0.0	2.0	0.0	13.0	3.0	55.0	1.0																													q	1.0	0.417423963547	None	0.0	2.0	crosscyan.gif	stop																								1.84	0.514081954956	0.0009319782257080001	0.417423963547	1.0	q	1086.28922319																																2015_Jul_08_1245	59.9538300345	LearningTask	1	52	
281	200.0	w	200.0																	2.0	0.0	2.0	0.0	14.0	0.0	56.0	0.0																													w	1.0	0.30025410652199996	None	0.0	0.5	linegreen.gif	go																								0.49	0.51441192627	0.0008740425109860002	0.30025410652199996	1.0	w	1089.29253411																																2015_Jul_08_1245	59.9538300345	LearningTask	1	52	
282	-200.0	a	-200.0																	2.0	0.0	2.0	0.0	14.0	1.0	57.0	3.0																													a	1.0	0.317445039749	None	0.0	0.5	linegreen.gif	go																								0.63	0.514376163483	0.0008721351623539999	0.317445039749	1.0	a	1092.29558206																																2015_Jul_08_1245	59.9538300345	LearningTask	1	52	
283	200.0	s	-200.0																	2.0	0.0	2.0	0.0	14.0	2.0	58.0	2.0																													s	1.0	0.38471198081999997	None	0.0	0.5	linegreen.gif	go																								0.44	0.51430606842	0.00094199180603	0.38471198081999997	1.0	s	1095.29914808																																2015_Jul_08_1245	59.9538300345	LearningTask	1	52	
284	-200.0	q	200.0																	2.0	0.0	2.0	0.0	14.0	3.0	59.0	1.0																													q	1.0	0.334508895874	None	0.0	0.5	trianglewhite.gif	stop																								0.39	0.5141868591309999	0.0008869171142580001	0.334508895874	1.0	q	1098.30291915																																2015_Jul_08_1245	59.9538300345	LearningTask	1	52	
285	200.0	s	-200.0																	2.0	0.0	2.0	0.0	15.0	0.0	60.0	2.0																													s	1.0	0.33416390418999997	None	0.0	4.0	diamondmagenta.gif	go																								4.11	0.513887166977	0.000892162322998	0.33416390418999997	1.0	s	1101.306216																																2015_Jul_08_1245	59.9538300345	LearningTask	1	52	
286	200.0	s	-200.0																	2.0	0.0	2.0	0.0	15.0	1.0	61.0	2.0																													s	1.0	0.334379911423	None	0.0	1.0	hexagonorange.gif	stop																								1.2	0.513872146606	0.000885009765625	0.334379911423	1.0	s	1104.30936813																																2015_Jul_08_1245	59.9538300345	LearningTask	1	52	
287	200.0	w	200.0																	2.0	0.0	2.0	0.0	15.0	2.0	62.0	0.0																													w	1.0	0.384364128113	None	0.0	0.5	trianglewhite.gif	stop																								0.0	0.514553070068	0.0008680820465089999	0.384364128113	1.0	w	1107.31274819																																2015_Jul_08_1245	59.9538300345	LearningTask	1	52	
288	-200.0	a	-200.0																	2.0	0.0	2.0	0.0	15.0	3.0	63.0	3.0																													a	1.0	0.38410997390699997	None	0.0	4.0	invertedtrianglegray.gif	stop																								0.0	0.514219045639	0.000885009765625	0.38410997390699997	1.0	a	1110.31685019																																2015_Jul_08_1245	59.9538300345	LearningTask	1	52	
289	200.0	s	-200.0																	2.0	0.0	2.0	0.0	16.0	0.0	64.0	2.0																													s	1.0	0.350692987442	None	0.0	1.0	circleblue.gif	go																								1.16	0.513559103012	0.0008940696716310001	0.350692987442	1.0	s	1113.31985021																																2015_Jul_08_1245	59.9538300345	LearningTask	1	52	
290	200.0	s	-200.0																	2.0	0.0	2.0	0.0	16.0	1.0	65.0	2.0																													s	1.0	0.334181070328	None	0.0	0.5	trianglewhite.gif	stop																								0.0	0.513818979263	0.0008740425109860002	0.334181070328	1.0	s	1116.3230380999998																																2015_Jul_08_1245	59.9538300345	LearningTask	1	52	
291	-200.0	a	-200.0																	2.0	0.0	2.0	0.0	16.0	2.0	66.0	3.0																													a	1.0	0.3340280056	None	0.0	4.0	invertedtrianglegray.gif	stop																								4.08	0.514460086823	0.000968217849731	0.3340280056	1.0	a	1119.32651615																																2015_Jul_08_1245	59.9538300345	LearningTask	1	52	
292	-200.0	q	200.0																	2.0	0.0	2.0	0.0	16.0	3.0	67.0	1.0																													q	1.0	0.400811910629	None	0.0	2.0	squareyellow.gif	go																								2.24	0.514059066772	0.000890016555786	0.400811910629	1.0	q	1122.32938099																																2015_Jul_08_1245	59.9538300345	LearningTask	1	52	
